[{"trial_n":1,"min":25,"max":230,"target":"present","response":"absent","rt":5604.9000000954,"correct":false,"confidence":-1},{"trial_n":2,"min":25,"max":230,"target":"present","response":"present","rt":1315.0999999046,"correct":true,"confidence":-1},{"trial_n":3,"min":25,"max":230,"target":"absent","response":"absent","rt":1252.5,"correct":true,"confidence":-1},{"trial_n":4,"min":41,"max":214,"target":"absent","response":"absent","rt":1321.7999997139,"correct":true,"confidence":-1},{"trial_n":5,"min":41,"max":214,"target":"present","response":"present","rt":1047.0999999046,"correct":true,"confidence":-1},{"trial_n":6,"min":57,"max":198,"target":"absent","response":"absent","rt":1361.0999999046,"correct":true,"confidence":-1},{"trial_n":7,"min":57,"max":198,"target":"present","response":"present","rt":1056.5999999046,"correct":true,"confidence":-1},{"trial_n":8,"min":73,"max":182,"target":"present","response":"present","rt":1332.5,"correct":true,"confidence":-1},{"trial_n":9,"min":73,"max":182,"target":"present","response":"present","rt":3059.1999998093,"correct":true,"confidence":-1},{"trial_n":10,"min":89,"max":166,"target":"present","response":"present","rt":1096.3000001907,"correct":true,"confidence":-1},{"trial_n":11,"min":89,"max":166,"target":"absent","response":"absent","rt":835.7000002861,"correct":true,"confidence":-1},{"trial_n":12,"min":97,"max":158,"target":"present","response":"absent","rt":751.09999990463,"correct":false,"confidence":-1},{"trial_n":13,"min":89,"max":166,"target":"absent","response":"absent","rt":877.40000009537,"correct":true,"confidence":-1},{"trial_n":14,"min":89,"max":166,"target":"absent","response":"absent","rt":1004.6000003815,"correct":true,"confidence":-1},{"trial_n":15,"min":97,"max":158,"target":"present","response":"absent","rt":495.2000002861,"correct":false,"confidence":-1},{"trial_n":16,"min":89,"max":166,"target":"present","response":"present","rt":1095.4000000954,"correct":true,"confidence":-1},{"trial_n":17,"min":89,"max":166,"target":"absent","response":"absent","rt":601.7999997139,"correct":true,"confidence":-1},{"trial_n":18,"min":97,"max":158,"target":"absent","response":"absent","rt":1036.2999997139,"correct":true,"confidence":-1},{"trial_n":19,"min":97,"max":158,"target":"absent","response":"absent","rt":515.10000038147,"correct":true,"confidence":-1},{"trial_n":20,"min":105,"max":150,"target":"absent","response":"absent","rt":495.90000009537,"correct":true,"confidence":-1},{"trial_n":21,"min":105,"max":150,"target":"absent","response":"absent","rt":1089.1000003815,"correct":true,"confidence":1},{"trial_n":22,"min":109,"max":146,"target":"present","response":"absent","rt":6646.9000000954,"correct":false,"confidence":1},{"trial_n":23,"min":105,"max":150,"target":"present","response":"absent","rt":5841.6999998093,"correct":false,"confidence":3},{"trial_n":24,"min":101,"max":154,"target":"absent","response":"absent","rt":986.69999980927,"correct":true,"confidence":4},{"trial_n":25,"min":101,"max":154,"target":"present","response":"absent","rt":793,"correct":false,"confidence":4},{"trial_n":26,"min":97,"max":158,"target":"present","response":"present","rt":1111.7999997139,"correct":true,"confidence":3},{"trial_n":27,"min":97,"max":158,"target":"absent","response":"absent","rt":807.69999980927,"correct":true,"confidence":3},{"trial_n":28,"min":101,"max":154,"target":"absent","response":"present","rt":830.69999980927,"correct":false,"confidence":3},{"trial_n":29,"min":97,"max":158,"target":"present","response":"absent","rt":1010.6999998093,"correct":false,"confidence":3},{"trial_n":30,"min":93,"max":162,"target":"present","response":"absent","rt":1159,"correct":false,"confidence":3},{"trial_n":31,"min":91,"max":164,"target":"present","response":"absent","rt":1026.7999997139,"correct":false,"confidence":2},{"trial_n":32,"min":89,"max":166,"target":"present","response":"present","rt":770.39999961853,"correct":true,"confidence":3},{"trial_n":33,"min":89,"max":166,"target":"absent","response":"absent","rt":1016.2000002861,"correct":true,"confidence":3},{"trial_n":34,"min":91,"max":164,"target":"absent","response":"absent","rt":1435.9000000954,"correct":true,"confidence":2},{"trial_n":35,"min":91,"max":164,"target":"absent","response":"absent","rt":773.40000009537,"correct":true,"confidence":1},{"trial_n":36,"min":93,"max":162,"target":"present","response":"absent","rt":8038.7000002861,"correct":false,"confidence":2},{"trial_n":37,"min":91,"max":164,"target":"present","response":"present","rt":789,"correct":true,"confidence":3},{"trial_n":38,"min":91,"max":164,"target":"present","response":"absent","rt":1920,"correct":false,"confidence":5},{"trial_n":39,"min":89,"max":166,"target":"present","response":"present","rt":828.09999990463,"correct":true,"confidence":4},{"trial_n":40,"min":89,"max":166,"target":"present","response":"absent","rt":1253,"correct":false,"confidence":3},{"trial_n":41,"min":88,"max":167,"target":"present","response":"present","rt":1457.9000000954,"correct":true,"confidence":3},{"trial_n":42,"min":88,"max":167,"target":"absent","response":"absent","rt":1081.6999998093,"correct":true,"confidence":3},{"trial_n":43,"min":89,"max":166,"target":"absent","response":"absent","rt":1037.5,"correct":true,"confidence":3},{"trial_n":44,"min":89,"max":166,"target":"absent","response":"absent","rt":1529.0999999046,"correct":true,"confidence":3},{"trial_n":45,"min":90,"max":165,"target":"present","response":"present","rt":1784.8000001907,"correct":true,"confidence":3},{"trial_n":46,"min":90,"max":165,"target":"absent","response":"present","rt":1547.5,"correct":false,"confidence":1},{"trial_n":47,"min":89,"max":166,"target":"present","response":"absent","rt":1201.5,"correct":false,"confidence":1},{"trial_n":48,"min":88,"max":167,"target":"absent","response":"present","rt":1071.8999996185,"correct":false,"confidence":3},{"trial_n":49,"min":87,"max":168,"target":"absent","response":"absent","rt":4118.1999998093,"correct":true,"confidence":1},{"trial_n":50,"min":87,"max":168,"target":"present","response":"present","rt":997.5,"correct":true,"confidence":4},{"trial_n":51,"min":88,"max":167,"target":"absent","response":"present","rt":1194.7999997139,"correct":false,"confidence":3},{"trial_n":52,"min":87,"max":168,"target":"absent","response":"absent","rt":917.19999980927,"correct":true,"confidence":3},{"trial_n":53,"min":87,"max":168,"target":"absent","response":"present","rt":1245.8999996185,"correct":false,"confidence":3},{"trial_n":54,"min":86,"max":169,"target":"present","response":"present","rt":1424,"correct":true,"confidence":3},{"trial_n":55,"min":86,"max":169,"target":"present","response":"present","rt":3048.5,"correct":true,"confidence":4},{"trial_n":56,"min":87,"max":168,"target":"absent","response":"present","rt":1058.9000000954,"correct":false,"confidence":4},{"trial_n":57,"min":86,"max":169,"target":"present","response":"present","rt":981.59999990463,"correct":true,"confidence":5},{"trial_n":58,"min":86,"max":169,"target":"absent","response":"absent","rt":832.80000019073,"correct":true,"confidence":4},{"trial_n":59,"min":87,"max":168,"target":"absent","response":"present","rt":1475.9000000954,"correct":false,"confidence":3},{"trial_n":60,"min":86,"max":169,"target":"present","response":"absent","rt":1226.3000001907,"correct":false,"confidence":3},{"trial_n":61,"min":85,"max":170,"target":"present","response":"present","rt":1101.5999999046,"correct":true,"confidence":4},{"trial_n":62,"min":85,"max":170,"target":"absent","response":"absent","rt":1238.0999999046,"correct":true,"confidence":3},{"trial_n":63,"min":86,"max":169,"target":"present","response":"absent","rt":1565.4000000954,"correct":false,"confidence":4},{"trial_n":64,"min":85,"max":170,"target":"absent","response":"present","rt":912.5,"correct":false,"confidence":3},{"trial_n":65,"min":84,"max":171,"target":"present","response":"present","rt":771.7000002861,"correct":true,"confidence":4},{"trial_n":66,"min":84,"max":171,"target":"absent","response":"absent","rt":1045.5,"correct":true,"confidence":4},{"trial_n":67,"min":85,"max":170,"target":"present","response":"present","rt":663.30000019073,"correct":true,"confidence":3},{"trial_n":68,"min":85,"max":170,"target":"absent","response":"absent","rt":798.89999961853,"correct":true,"confidence":3},{"trial_n":69,"min":86,"max":169,"target":"absent","response":"absent","rt":1026.2999997139,"correct":true,"confidence":3},{"trial_n":70,"min":86,"max":169,"target":"present","response":"present","rt":753.30000019073,"correct":true,"confidence":3},{"trial_n":71,"min":41,"max":214,"target":"present","response":"present","rt":2823.6999998093,"correct":true,"confidence":-1},{"trial_n":72,"min":41,"max":214,"target":"present","response":"present","rt":853.40000009537,"correct":true,"confidence":-1},{"trial_n":73,"min":57,"max":198,"target":"absent","response":"absent","rt":657.80000019073,"correct":true,"confidence":-1},{"trial_n":74,"min":57,"max":198,"target":"absent","response":"absent","rt":858.40000009537,"correct":true,"confidence":-1},{"trial_n":75,"min":73,"max":182,"target":"present","response":"present","rt":586.59999990463,"correct":true,"confidence":-1},{"trial_n":76,"min":73,"max":182,"target":"present","response":"present","rt":1114.4000000954,"correct":true,"confidence":-1},{"trial_n":77,"min":89,"max":166,"target":"absent","response":"absent","rt":2202.8000001907,"correct":true,"confidence":-1},{"trial_n":78,"min":89,"max":166,"target":"present","response":"absent","rt":904.80000019073,"correct":false,"confidence":-1},{"trial_n":79,"min":73,"max":182,"target":"present","response":"present","rt":1667.2999997139,"correct":true,"confidence":-1},{"trial_n":80,"min":73,"max":182,"target":"absent","response":"absent","rt":1676.4000000954,"correct":true,"confidence":-1},{"trial_n":81,"min":81,"max":174,"target":"present","response":"present","rt":1310.7000002861,"correct":true,"confidence":-1},{"trial_n":82,"min":81,"max":174,"target":"absent","response":"absent","rt":988.59999990463,"correct":true,"confidence":-1},{"trial_n":83,"min":89,"max":166,"target":"present","response":"present","rt":1176.6000003815,"correct":true,"confidence":-1},{"trial_n":84,"min":89,"max":166,"target":"absent","response":"present","rt":1661.1000003815,"correct":false,"confidence":-1},{"trial_n":85,"min":81,"max":174,"target":"present","response":"present","rt":749.7999997139,"correct":true,"confidence":-1},{"trial_n":86,"min":81,"max":174,"target":"present","response":"absent","rt":1413.4000000954,"correct":false,"confidence":-1},{"trial_n":87,"min":73,"max":182,"target":"present","response":"present","rt":784.5,"correct":true,"confidence":-1},{"trial_n":88,"min":73,"max":182,"target":"absent","response":"absent","rt":1013.6000003815,"correct":true,"confidence":-1},{"trial_n":89,"min":81,"max":174,"target":"present","response":"present","rt":783.7999997139,"correct":true,"confidence":-1},{"trial_n":90,"min":81,"max":174,"target":"absent","response":"present","rt":888.5,"correct":false,"confidence":-1},{"trial_n":91,"min":77,"max":178,"target":"present","response":"present","rt":703.69999980927,"correct":true,"confidence":5},{"trial_n":92,"min":77,"max":178,"target":"present","response":"present","rt":743.09999990463,"correct":true,"confidence":5},{"trial_n":93,"min":81,"max":174,"target":"present","response":"present","rt":1251.6999998093,"correct":true,"confidence":5},{"trial_n":94,"min":81,"max":174,"target":"present","response":"present","rt":663.09999990463,"correct":true,"confidence":4},{"trial_n":95,"min":85,"max":170,"target":"absent","response":"absent","rt":843.2000002861,"correct":true,"confidence":4},{"trial_n":96,"min":85,"max":170,"target":"absent","response":"absent","rt":865.5,"correct":true,"confidence":1},{"trial_n":97,"min":89,"max":166,"target":"absent","response":"absent","rt":1750,"correct":true,"confidence":1},{"trial_n":98,"min":89,"max":166,"target":"absent","response":"absent","rt":1493.7000002861,"correct":true,"confidence":4},{"trial_n":99,"min":93,"max":162,"target":"absent","response":"present","rt":930.5,"correct":false,"confidence":3},{"trial_n":100,"min":89,"max":166,"target":"present","response":"present","rt":776.59999990463,"correct":true,"confidence":3},{"trial_n":101,"min":89,"max":166,"target":"absent","response":"absent","rt":1076.7000002861,"correct":true,"confidence":3},{"trial_n":102,"min":91,"max":164,"target":"absent","response":"present","rt":627.39999961853,"correct":false,"confidence":3},{"trial_n":103,"min":89,"max":166,"target":"absent","response":"present","rt":897.30000019073,"correct":false,"confidence":1},{"trial_n":104,"min":87,"max":168,"target":"absent","response":"absent","rt":1469.7000002861,"correct":true,"confidence":3},{"trial_n":105,"min":87,"max":168,"target":"present","response":"present","rt":787.5,"correct":true,"confidence":3},{"trial_n":106,"min":89,"max":166,"target":"present","response":"absent","rt":1063.5999999046,"correct":false,"confidence":1},{"trial_n":107,"min":87,"max":168,"target":"absent","response":"absent","rt":812.19999980927,"correct":true,"confidence":3},{"trial_n":108,"min":87,"max":168,"target":"present","response":"present","rt":1169.7999997139,"correct":true,"confidence":5},{"trial_n":109,"min":89,"max":166,"target":"absent","response":"present","rt":1630.2000002861,"correct":false,"confidence":3},{"trial_n":110,"min":87,"max":168,"target":"absent","response":"present","rt":3208.4000000954,"correct":false,"confidence":3},{"trial_n":111,"min":86,"max":169,"target":"present","response":"present","rt":1035.4000000954,"correct":true,"confidence":3},{"trial_n":112,"min":86,"max":169,"target":"present","response":"present","rt":669.30000019073,"correct":true,"confidence":3},{"trial_n":113,"min":87,"max":168,"target":"absent","response":"present","rt":1252.5999999046,"correct":false,"confidence":1},{"trial_n":114,"min":86,"max":169,"target":"absent","response":"absent","rt":813.69999980927,"correct":true,"confidence":4},{"trial_n":115,"min":86,"max":169,"target":"absent","response":"present","rt":907.59999990463,"correct":false,"confidence":3},{"trial_n":116,"min":85,"max":170,"target":"present","response":"absent","rt":1217,"correct":false,"confidence":1},{"trial_n":117,"min":84,"max":171,"target":"present","response":"absent","rt":984,"correct":false,"confidence":1},{"trial_n":118,"min":83,"max":172,"target":"absent","response":"present","rt":1673.8999996185,"correct":false,"confidence":3},{"trial_n":119,"min":82,"max":173,"target":"present","response":"present","rt":744,"correct":true,"confidence":3},{"trial_n":120,"min":82,"max":173,"target":"present","response":"present","rt":795.59999990463,"correct":true,"confidence":5},{"trial_n":121,"min":83,"max":172,"target":"absent","response":"absent","rt":1277.5999999046,"correct":true,"confidence":3},{"trial_n":122,"min":83,"max":172,"target":"present","response":"present","rt":937.7000002861,"correct":true,"confidence":5},{"trial_n":123,"min":84,"max":171,"target":"absent","response":"present","rt":909.59999990463,"correct":false,"confidence":3},{"trial_n":124,"min":83,"max":172,"target":"present","response":"present","rt":799.30000019073,"correct":true,"confidence":5},{"trial_n":125,"min":83,"max":172,"target":"absent","response":"absent","rt":893.40000009537,"correct":true,"confidence":5},{"trial_n":126,"min":84,"max":171,"target":"present","response":"present","rt":632.5,"correct":true,"confidence":5},{"trial_n":127,"min":84,"max":171,"target":"absent","response":"absent","rt":1602.8000001907,"correct":true,"confidence":3},{"trial_n":128,"min":85,"max":170,"target":"absent","response":"present","rt":1373.3000001907,"correct":false,"confidence":3},{"trial_n":129,"min":84,"max":171,"target":"absent","response":"present","rt":1401.9000000954,"correct":false,"confidence":3},{"trial_n":130,"min":83,"max":172,"target":"absent","response":"absent","rt":717.69999980927,"correct":true,"confidence":3},{"trial_n":131,"min":83,"max":172,"target":"present","response":"present","rt":758.80000019073,"correct":true,"confidence":5},{"trial_n":132,"min":84,"max":171,"target":"present","response":"present","rt":723.19999980927,"correct":true,"confidence":5},{"trial_n":133,"min":84,"max":171,"target":"absent","response":"absent","rt":729.5,"correct":true,"confidence":3},{"trial_n":134,"min":85,"max":170,"target":"present","response":"absent","rt":4880.5999999046,"correct":false,"confidence":5},{"trial_n":135,"min":84,"max":171,"target":"present","response":"present","rt":682.60000038147,"correct":true,"confidence":5},{"trial_n":136,"min":84,"max":171,"target":"present","response":"absent","rt":783.69999980927,"correct":false,"confidence":3},{"trial_n":137,"min":83,"max":172,"target":"present","response":"absent","rt":2161.5,"correct":false,"confidence":1},{"trial_n":138,"min":82,"max":173,"target":"absent","response":"absent","rt":1376.7999997139,"correct":true,"confidence":5},{"trial_n":139,"min":82,"max":173,"target":"absent","response":"absent","rt":1262.0999999046,"correct":true,"confidence":3},{"trial_n":140,"min":83,"max":172,"target":"present","response":"present","rt":1830.4000000954,"correct":true,"confidence":4}]