[{"trial_n":1,"span":8,"encoder":"99812886","distractor":"99812881","target":"present","response":"absent","rt":"6054.6999998093","correct":false,"confidence":-1},{"trial_n":2,"span":6,"encoder":"498928","distractor":"498828","target":"present","response":"absent","rt":"3105.9000000954","correct":false,"confidence":-1},{"trial_n":3,"span":4,"encoder":"0172","distractor":"0192","target":"absent","response":"absent","rt":"2430.5999999046","correct":true,"confidence":-1},{"trial_n":4,"span":4,"encoder":"0600","distractor":"0690","target":"absent","response":"absent","rt":"2314.8000001907","correct":true,"confidence":-1},{"trial_n":5,"span":6,"encoder":"728732","distractor":"928732","target":"present","response":"present","rt":"4440.1999998093","correct":true,"confidence":-1},{"trial_n":6,"span":6,"encoder":"722248","distractor":"782248","target":"absent","response":"present","rt":"1629.3000001907","correct":false,"confidence":-1},{"trial_n":7,"span":4,"encoder":"9678","distractor":"9677","target":"absent","response":"absent","rt":"1701.5","correct":true,"confidence":-1},{"trial_n":8,"span":4,"encoder":"4135","distractor":"4125","target":"present","response":"present","rt":"2088.7000002861","correct":true,"confidence":-1},{"trial_n":9,"span":6,"encoder":"989512","distractor":"984512","target":"present","response":"present","rt":"2941.2999997139","correct":true,"confidence":-1},{"trial_n":10,"span":6,"encoder":"646674","distractor":"046674","target":"present","response":"present","rt":"3138.2999997139","correct":true,"confidence":-1},{"trial_n":11,"span":8,"encoder":"01546302","distractor":"05546302","target":"absent","response":"absent","rt":"3888.8000001907","correct":true,"confidence":-1},{"trial_n":12,"span":8,"encoder":"85071377","distractor":"85071374","target":"present","response":"present","rt":"2846.5999999046","correct":true,"confidence":-1},{"trial_n":13,"span":9,"encoder":"759602023","distractor":"759602022","target":"absent","response":"absent","rt":"2228.1999998093","correct":true,"confidence":-1},{"trial_n":14,"span":9,"encoder":"226749697","distractor":"226749497","target":"present","response":"present","rt":"3256.9000000954","correct":true,"confidence":-1},{"trial_n":15,"span":10,"encoder":"5407768275","distractor":"5407761275","target":"absent","response":"absent","rt":"2570","correct":true,"confidence":-1},{"trial_n":16,"span":10,"encoder":"0945430178","distractor":"1945430178","target":"absent","response":"absent","rt":"2100.5","correct":true,"confidence":-1},{"trial_n":17,"span":11,"encoder":"59736195679","distractor":"59736195179","target":"absent","response":"absent","rt":"1449.5","correct":true,"confidence":-1},{"trial_n":18,"span":11,"encoder":"38358684266","distractor":"38358684766","target":"absent","response":"absent","rt":"1885.7000002861","correct":true,"confidence":-1},{"trial_n":19,"span":12,"encoder":"396279929721","distractor":"396279929021","target":"present","response":"absent","rt":"2839.1000003815","correct":false,"confidence":-1},{"trial_n":20,"span":11,"encoder":"01195353071","distractor":"01195353771","target":"present","response":"absent","rt":"2586.7999997139","correct":false,"confidence":-1},{"trial_n":21,"span":10,"encoder":"1314631493","distractor":"1314631499","target":"present","response":"present","rt":"4978.4000000954","correct":true,"confidence":4},{"trial_n":22,"span":10,"encoder":"8243272981","distractor":"4243272981","target":"absent","response":"present","rt":"3246.0999999046","correct":false,"confidence":3},{"trial_n":23,"span":9,"encoder":"403373659","distractor":"403373689","target":"absent","response":"absent","rt":"4204.6999998093","correct":true,"confidence":5},{"trial_n":24,"span":9,"encoder":"185544969","distractor":"385544969","target":"present","response":"present","rt":"4305.4000000954","correct":true,"confidence":3},{"trial_n":25,"span":10,"encoder":"9240631794","distractor":"9290631794","target":"present","response":"present","rt":"5032.4000000954","correct":true,"confidence":5},{"trial_n":26,"span":10,"encoder":"7133343031","distractor":"7133343041","target":"absent","response":"present","rt":"4138.6999998093","correct":false,"confidence":3},{"trial_n":27,"span":9,"encoder":"898524451","distractor":"898524457","target":"absent","response":"present","rt":"4263.8000001907","correct":false,"confidence":2},{"trial_n":28,"span":8,"encoder":"81706520","distractor":"11706520","target":"present","response":"present","rt":"4137.3999996185","correct":true,"confidence":4},{"trial_n":29,"span":8,"encoder":"11002194","distractor":"41002194","target":"present","response":"present","rt":"4397.7999997139","correct":true,"confidence":4},{"trial_n":30,"span":9,"encoder":"692494268","distractor":"692454268","target":"present","response":"present","rt":"3173.5","correct":true,"confidence":3},{"trial_n":31,"span":9,"encoder":"395487702","distractor":"395457702","target":"present","response":"present","rt":"4617.5","correct":true,"confidence":3},{"trial_n":32,"span":10,"encoder":"5486576496","distractor":"5486556496","target":"absent","response":"present","rt":"2200.3000001907","correct":false,"confidence":4},{"trial_n":33,"span":9,"encoder":"721832911","distractor":"721732911","target":"present","response":"absent","rt":"3794.5999999046","correct":false,"confidence":4},{"trial_n":34,"span":8,"encoder":"12409545","distractor":"12409745","target":"absent","response":"present","rt":"4002.0999999046","correct":false,"confidence":4},{"trial_n":35,"span":7,"encoder":"6862314","distractor":"6862394","target":"absent","response":"present","rt":"3534.1999998093","correct":false,"confidence":3},{"trial_n":36,"span":6,"encoder":"949440","distractor":"969440","target":"present","response":"present","rt":"2558.2999997139","correct":true,"confidence":5},{"trial_n":37,"span":6,"encoder":"587155","distractor":"587152","target":"absent","response":"absent","rt":"3195.0999999046","correct":true,"confidence":5},{"trial_n":38,"span":7,"encoder":"7184625","distractor":"7154625","target":"absent","response":"present","rt":"3697.2000002861","correct":false,"confidence":3},{"trial_n":39,"span":6,"encoder":"370902","distractor":"370972","target":"absent","response":"present","rt":"2917.6999998093","correct":false,"confidence":4},{"trial_n":40,"span":5,"encoder":"73195","distractor":"74195","target":"absent","response":"present","rt":"4393.9000000954","correct":false,"confidence":3},{"trial_n":41,"span":4,"encoder":"9875","distractor":"9895","target":"absent","response":"absent","rt":"2723.1000003815","correct":true,"confidence":4},{"trial_n":42,"span":4,"encoder":"7517","distractor":"7577","target":"present","response":"present","rt":"1838.2999997139","correct":true,"confidence":5},{"trial_n":43,"span":5,"encoder":"59946","distractor":"59046","target":"absent","response":"absent","rt":"2747.6000003815","correct":true,"confidence":5},{"trial_n":44,"span":5,"encoder":"25289","distractor":"25089","target":"absent","response":"absent","rt":"5336.9000000954","correct":true,"confidence":5},{"trial_n":45,"span":6,"encoder":"166110","distractor":"166190","target":"present","response":"present","rt":"2500.2000002861","correct":true,"confidence":5},{"trial_n":46,"span":6,"encoder":"268954","distractor":"268959","target":"present","response":"present","rt":"3030.8999996185","correct":true,"confidence":5},{"trial_n":47,"span":7,"encoder":"6081397","distractor":"6081317","target":"present","response":"present","rt":"2906.9000000954","correct":true,"confidence":5},{"trial_n":48,"span":7,"encoder":"5717068","distractor":"5717568","target":"present","response":"present","rt":"3659.3000001907","correct":true,"confidence":5},{"trial_n":49,"span":8,"encoder":"55819725","distractor":"75819725","target":"present","response":"present","rt":"3355.1999998093","correct":true,"confidence":5},{"trial_n":50,"span":8,"encoder":"82720994","distractor":"82720991","target":"absent","response":"absent","rt":"3624.5","correct":true,"confidence":5},{"trial_n":51,"span":9,"encoder":"776237184","distractor":"776247184","target":"absent","response":"absent","rt":"4382.5999999046","correct":true,"confidence":4},{"trial_n":52,"span":9,"encoder":"495897924","distractor":"405897924","target":"present","response":"absent","rt":"5940.9000000954","correct":false,"confidence":4},{"trial_n":53,"span":8,"encoder":"51819855","distractor":"51819856","target":"absent","response":"present","rt":"5957.2999997139","correct":false,"confidence":2},{"trial_n":54,"span":7,"encoder":"4796406","distractor":"4746406","target":"present","response":"present","rt":"2595","correct":true,"confidence":4},{"trial_n":55,"span":7,"encoder":"4415306","distractor":"4415309","target":"present","response":"present","rt":"3482.5","correct":true,"confidence":5},{"trial_n":56,"span":8,"encoder":"20856753","distractor":"20456753","target":"absent","response":"present","rt":"1912.1999998093","correct":false,"confidence":4},{"trial_n":57,"span":7,"encoder":"2257834","distractor":"2258834","target":"absent","response":"absent","rt":"3538.5999999046","correct":true,"confidence":4},{"trial_n":58,"span":7,"encoder":"7387094","distractor":"7387694","target":"present","response":"present","rt":"3198.7000002861","correct":true,"confidence":4},{"trial_n":59,"span":8,"encoder":"26746533","distractor":"26946533","target":"absent","response":"absent","rt":"4227.5","correct":true,"confidence":5},{"trial_n":60,"span":8,"encoder":"32118002","distractor":"31118002","target":"present","response":"absent","rt":"4663.8000001907","correct":false,"confidence":5},{"trial_n":61,"span":7,"encoder":"7984270","distractor":"2984270","target":"present","response":"absent","rt":"3505.1000003815","correct":false,"confidence":3},{"trial_n":62,"span":6,"encoder":"269063","distractor":"269067","target":"absent","response":"absent","rt":"3549.7999997139","correct":true,"confidence":4},{"trial_n":63,"span":6,"encoder":"837249","distractor":"837289","target":"absent","response":"absent","rt":"4147.7000002861","correct":true,"confidence":4},{"trial_n":64,"span":7,"encoder":"3699653","distractor":"3699253","target":"present","response":"present","rt":"4451.2000002861","correct":true,"confidence":5},{"trial_n":65,"span":7,"encoder":"7514452","distractor":"7514152","target":"absent","response":"present","rt":"4896.1999998093","correct":false,"confidence":2},{"trial_n":66,"span":6,"encoder":"750844","distractor":"750848","target":"present","response":"present","rt":"3079.4000000954","correct":true,"confidence":5},{"trial_n":67,"span":6,"encoder":"578535","distractor":"572535","target":"absent","response":"absent","rt":"3485.8000001907","correct":true,"confidence":4},{"trial_n":68,"span":7,"encoder":"7760485","distractor":"2760485","target":"present","response":"present","rt":"3126","correct":true,"confidence":2},{"trial_n":69,"span":7,"encoder":"9723212","distractor":"9723211","target":"present","response":"present","rt":"14061.5","correct":true,"confidence":4},{"trial_n":70,"span":8,"encoder":"41784247","distractor":"41784297","target":"present","response":"present","rt":"5688.5","correct":true,"confidence":3},{"trial_n":71,"span":8,"encoder":"99984183","distractor":"59984183","target":"present","response":"present","rt":"5827.1999998093","correct":true,"confidence":-1},{"trial_n":72,"span":8,"encoder":"59912170","distractor":"59912110","target":"present","response":"present","rt":"3012.0999999046","correct":true,"confidence":-1},{"trial_n":73,"span":9,"encoder":"334032279","distractor":"334032249","target":"absent","response":"absent","rt":"4263.9000000954","correct":true,"confidence":-1},{"trial_n":74,"span":9,"encoder":"188659398","distractor":"188689398","target":"absent","response":"absent","rt":"7108.8000001907","correct":true,"confidence":-1},{"trial_n":75,"span":10,"encoder":"0463967762","distractor":"0462967762","target":"present","response":"present","rt":"103056.9000001","correct":true,"confidence":-1},{"trial_n":76,"span":10,"encoder":"1673743764","distractor":"1673743766","target":"absent","response":"absent","rt":"1604.3000001907","correct":true,"confidence":-1},{"trial_n":77,"span":11,"encoder":"50775711662","distractor":"50765711662","target":"absent","response":"present","rt":"1552.6000003815","correct":false,"confidence":-1},{"trial_n":78,"span":10,"encoder":"3574606268","distractor":"3574606468","target":"absent","response":"absent","rt":"3002","correct":true,"confidence":-1},{"trial_n":79,"span":10,"encoder":"8634571468","distractor":"8534571468","target":"absent","response":"present","rt":"2151.5","correct":false,"confidence":-1},{"trial_n":80,"span":9,"encoder":"778094432","distractor":"578094432","target":"present","response":"absent","rt":"2091.6999998093","correct":false,"confidence":-1},{"trial_n":81,"span":8,"encoder":"60201371","distractor":"60205371","target":"present","response":"present","rt":"2506.8000001907","correct":true,"confidence":-1},{"trial_n":82,"span":8,"encoder":"82711046","distractor":"82721046","target":"present","response":"present","rt":"3601.9000000954","correct":true,"confidence":-1},{"trial_n":83,"span":9,"encoder":"476352270","distractor":"076352270","target":"absent","response":"present","rt":"922.80000019073","correct":false,"confidence":-1},{"trial_n":84,"span":8,"encoder":"99880503","distractor":"99880583","target":"absent","response":"absent","rt":"1454.6999998093","correct":true,"confidence":-1},{"trial_n":85,"span":8,"encoder":"73478804","distractor":"13478804","target":"absent","response":"absent","rt":"1417.5","correct":true,"confidence":-1},{"trial_n":86,"span":9,"encoder":"967100560","distractor":"966100560","target":"present","response":"present","rt":"2006.2000002861","correct":true,"confidence":-1},{"trial_n":87,"span":9,"encoder":"234881481","distractor":"274881481","target":"present","response":"absent","rt":"1180.5999999046","correct":false,"confidence":-1},{"trial_n":88,"span":8,"encoder":"70734737","distractor":"70734734","target":"absent","response":"present","rt":"1387.1999998093","correct":false,"confidence":-1},{"trial_n":89,"span":7,"encoder":"4947340","distractor":"4947040","target":"present","response":"absent","rt":"1118.9000000954","correct":false,"confidence":-1},{"trial_n":90,"span":6,"encoder":"350261","distractor":"350221","target":"present","response":"present","rt":"2392.1999998093","correct":true,"confidence":-1},{"trial_n":91,"span":6,"encoder":"920042","distractor":"920043","target":"present","response":"present","rt":"3713.6999998093","correct":true,"confidence":5},{"trial_n":92,"span":7,"encoder":"8534368","distractor":"8534308","target":"present","response":"present","rt":"2165.1999998093","correct":true,"confidence":5},{"trial_n":93,"span":7,"encoder":"9365096","distractor":"9361096","target":"present","response":"present","rt":"2847.5","correct":true,"confidence":5},{"trial_n":94,"span":8,"encoder":"70608545","distractor":"70608845","target":"absent","response":"absent","rt":"4017.9000000954","correct":true,"confidence":4},{"trial_n":95,"span":8,"encoder":"65717158","distractor":"65737158","target":"absent","response":"absent","rt":"4246.6999998093","correct":true,"confidence":3},{"trial_n":96,"span":9,"encoder":"578761438","distractor":"578731438","target":"present","response":"present","rt":"6108.3999996185","correct":true,"confidence":2},{"trial_n":97,"span":9,"encoder":"226179858","distractor":"226174858","target":"absent","response":"present","rt":"7297.5999999046","correct":false,"confidence":2},{"trial_n":98,"span":8,"encoder":"16109129","distractor":"16106129","target":"absent","response":"present","rt":"7209.7999997139","correct":false,"confidence":2},{"trial_n":99,"span":7,"encoder":"0509780","distractor":"0501780","target":"present","response":"present","rt":"3712.6999998093","correct":true,"confidence":3},{"trial_n":100,"span":7,"encoder":"7494532","distractor":"7494432","target":"absent","response":"absent","rt":"2075","correct":true,"confidence":5},{"trial_n":101,"span":8,"encoder":"62882639","distractor":"62882539","target":"absent","response":"absent","rt":"5206.2999997139","correct":true,"confidence":3},{"trial_n":102,"span":8,"encoder":"77739709","distractor":"79739709","target":"absent","response":"present","rt":"6017.3000001907","correct":false,"confidence":4},{"trial_n":103,"span":7,"encoder":"6459952","distractor":"6659952","target":"present","response":"present","rt":"3182.5999999046","correct":true,"confidence":3},{"trial_n":104,"span":7,"encoder":"4606698","distractor":"4606398","target":"present","response":"present","rt":"2599.4000000954","correct":true,"confidence":5},{"trial_n":105,"span":8,"encoder":"51082992","distractor":"51082982","target":"absent","response":"present","rt":"3407.3000001907","correct":false,"confidence":3},{"trial_n":106,"span":7,"encoder":"2572322","distractor":"2512322","target":"present","response":"present","rt":"5964.5","correct":true,"confidence":3},{"trial_n":107,"span":7,"encoder":"8623039","distractor":"2623039","target":"present","response":"present","rt":"3767.2999997139","correct":true,"confidence":3},{"trial_n":108,"span":8,"encoder":"85604441","distractor":"85604411","target":"present","response":"absent","rt":"3452.4000000954","correct":false,"confidence":2},{"trial_n":109,"span":7,"encoder":"0926831","distractor":"0921831","target":"absent","response":"absent","rt":"4397.5999999046","correct":true,"confidence":4},{"trial_n":110,"span":7,"encoder":"8067744","distractor":"8067774","target":"present","response":"present","rt":"2847.2999997139","correct":true,"confidence":4},{"trial_n":111,"span":8,"encoder":"82944425","distractor":"82944125","target":"absent","response":"absent","rt":"12667.099999905","correct":true,"confidence":3},{"trial_n":112,"span":8,"encoder":"03212748","distractor":"02212748","target":"present","response":"present","rt":"3716.0999999046","correct":true,"confidence":2},{"trial_n":113,"span":9,"encoder":"929733133","distractor":"929732133","target":"absent","response":"absent","rt":"5275.8000001907","correct":true,"confidence":2},{"trial_n":114,"span":9,"encoder":"990640270","distractor":"590640270","target":"present","response":"present","rt":"3127","correct":true,"confidence":5},{"trial_n":115,"span":10,"encoder":"3889333525","distractor":"3889323525","target":"present","response":"present","rt":"3305","correct":true,"confidence":2},{"trial_n":116,"span":10,"encoder":"6028317069","distractor":"6028337069","target":"absent","response":"present","rt":"4227.9000000954","correct":false,"confidence":2},{"trial_n":117,"span":9,"encoder":"712601058","distractor":"712601057","target":"absent","response":"absent","rt":"2899.7999997139","correct":true,"confidence":5},{"trial_n":118,"span":9,"encoder":"831162411","distractor":"831162441","target":"present","response":"present","rt":"2511.1999998093","correct":true,"confidence":5},{"trial_n":119,"span":10,"encoder":"2796506573","distractor":"2796506579","target":"absent","response":"absent","rt":"1483.4000000954","correct":true,"confidence":5},{"trial_n":120,"span":10,"encoder":"8949590389","distractor":"8949390389","target":"present","response":"absent","rt":"6192.5999999046","correct":false,"confidence":4},{"trial_n":121,"span":9,"encoder":"312012406","distractor":"312019406","target":"present","response":"absent","rt":"4487.5999999046","correct":false,"confidence":3},{"trial_n":122,"span":8,"encoder":"05316808","distractor":"05316908","target":"absent","response":"absent","rt":"15708.5","correct":true,"confidence":3},{"trial_n":123,"span":8,"encoder":"00584192","distractor":"00584162","target":"absent","response":"absent","rt":"4839.4000000954","correct":true,"confidence":4},{"trial_n":124,"span":9,"encoder":"907713203","distractor":"907713223","target":"present","response":"present","rt":"2944.3000001907","correct":true,"confidence":5},{"trial_n":125,"span":9,"encoder":"790973897","distractor":"090973897","target":"absent","response":"present","rt":"5217.1999998093","correct":false,"confidence":4},{"trial_n":126,"span":8,"encoder":"68318634","distractor":"68318630","target":"present","response":"present","rt":"1802.7999997139","correct":true,"confidence":5},{"trial_n":127,"span":8,"encoder":"96247336","distractor":"66247336","target":"present","response":"absent","rt":"3457.3000001907","correct":false,"confidence":2},{"trial_n":128,"span":7,"encoder":"0113318","distractor":"0713318","target":"present","response":"absent","rt":"3439.5","correct":false,"confidence":2},{"trial_n":129,"span":6,"encoder":"578392","distractor":"578792","target":"absent","response":"absent","rt":"4808.4000000954","correct":true,"confidence":3},{"trial_n":130,"span":6,"encoder":"752164","distractor":"752064","target":"absent","response":"absent","rt":"3630.6999998093","correct":true,"confidence":5},{"trial_n":131,"span":7,"encoder":"3936642","distractor":"3946642","target":"present","response":"present","rt":"5668.4000000954","correct":true,"confidence":3},{"trial_n":132,"span":7,"encoder":"2533481","distractor":"2533681","target":"absent","response":"absent","rt":"4743.6999998093","correct":true,"confidence":3},{"trial_n":133,"span":8,"encoder":"76015694","distractor":"78015694","target":"present","response":"present","rt":"4377","correct":true,"confidence":4},{"trial_n":134,"span":8,"encoder":"76750036","distractor":"76750031","target":"present","response":"present","rt":"1641.5","correct":true,"confidence":5},{"trial_n":135,"span":9,"encoder":"807347629","distractor":"807147629","target":"absent","response":"present","rt":"4586","correct":false,"confidence":2},{"trial_n":136,"span":8,"encoder":"10229486","distractor":"10229386","target":"present","response":"present","rt":"4135.7999997139","correct":true,"confidence":3},{"trial_n":137,"span":8,"encoder":"52866184","distractor":"52866484","target":"present","response":"present","rt":"2615.1999998093","correct":true,"confidence":3},{"trial_n":138,"span":9,"encoder":"201159763","distractor":"201157763","target":"absent","response":"absent","rt":"3771.6999998093","correct":true,"confidence":3},{"trial_n":139,"span":9,"encoder":"211179239","distractor":"211179299","target":"absent","response":"absent","rt":"3314.1999998093","correct":true,"confidence":3},{"trial_n":140,"span":10,"encoder":"7220881931","distractor":"7220681931","target":"absent","response":"absent","rt":"2157.6000003815","correct":true,"confidence":2}]