[{"trial_n":1,"n_dots":4.25,"target":"left","response":"left","rt":11714.5,"correct":true,"confidence":-1},{"trial_n":2,"n_dots":4.25,"target":"right","response":"right","rt":989.89999961853,"correct":true,"confidence":-1},{"trial_n":3,"n_dots":3.85,"target":"left","response":"right","rt":1133.5999999046,"correct":false,"confidence":-1},{"trial_n":4,"n_dots":4.25,"target":"right","response":"right","rt":729.90000009537,"correct":true,"confidence":-1},{"trial_n":5,"n_dots":4.25,"target":"right","response":"right","rt":307.09999990463,"correct":true,"confidence":-1},{"trial_n":6,"n_dots":3.85,"target":"left","response":"left","rt":603.30000019073,"correct":true,"confidence":-1},{"trial_n":7,"n_dots":3.85,"target":"left","response":"left","rt":686.59999990463,"correct":true,"confidence":-1},{"trial_n":8,"n_dots":3.65,"target":"left","response":"left","rt":834.09999990463,"correct":true,"confidence":-1},{"trial_n":9,"n_dots":3.65,"target":"right","response":"right","rt":318.5,"correct":true,"confidence":-1},{"trial_n":10,"n_dots":3.45,"target":"right","response":"right","rt":461.10000038147,"correct":true,"confidence":-1},{"trial_n":11,"n_dots":3.45,"target":"left","response":"right","rt":459.40000009537,"correct":false,"confidence":-1},{"trial_n":12,"n_dots":3.65,"target":"left","response":"left","rt":400.7999997139,"correct":true,"confidence":-1},{"trial_n":13,"n_dots":3.65,"target":"left","response":"right","rt":384.7999997139,"correct":false,"confidence":-1},{"trial_n":14,"n_dots":3.75,"target":"right","response":"right","rt":336.80000019073,"correct":true,"confidence":-1},{"trial_n":15,"n_dots":3.75,"target":"left","response":"left","rt":768.80000019073,"correct":true,"confidence":-1},{"trial_n":16,"n_dots":3.65,"target":"left","response":"right","rt":402,"correct":false,"confidence":-1},{"trial_n":17,"n_dots":3.75,"target":"left","response":"left","rt":513.2000002861,"correct":true,"confidence":-1},{"trial_n":18,"n_dots":3.75,"target":"right","response":"right","rt":1074.1999998093,"correct":true,"confidence":-1},{"trial_n":19,"n_dots":3.65,"target":"left","response":"left","rt":691.09999990463,"correct":true,"confidence":-1},{"trial_n":20,"n_dots":3.65,"target":"left","response":"left","rt":193.59999990463,"correct":true,"confidence":-1},{"trial_n":21,"n_dots":3.55,"target":"right","response":"right","rt":357.59999990463,"correct":true,"confidence":3},{"trial_n":22,"n_dots":3.55,"target":"left","response":"left","rt":470.69999980927,"correct":true,"confidence":4},{"trial_n":23,"n_dots":3.45,"target":"right","response":"right","rt":498.59999990463,"correct":true,"confidence":3},{"trial_n":24,"n_dots":3.45,"target":"right","response":"right","rt":822,"correct":true,"confidence":2},{"trial_n":25,"n_dots":3.35,"target":"right","response":"right","rt":637.09999990463,"correct":true,"confidence":3},{"trial_n":26,"n_dots":3.35,"target":"left","response":"right","rt":825,"correct":false,"confidence":2},{"trial_n":27,"n_dots":3.45,"target":"right","response":"right","rt":730,"correct":true,"confidence":3},{"trial_n":28,"n_dots":3.45,"target":"left","response":"right","rt":744.09999990463,"correct":false,"confidence":3},{"trial_n":29,"n_dots":3.55,"target":"right","response":"left","rt":805.30000019073,"correct":false,"confidence":2},{"trial_n":30,"n_dots":3.65,"target":"right","response":"right","rt":632.30000019073,"correct":true,"confidence":2},{"trial_n":31,"n_dots":3.65,"target":"left","response":"left","rt":2125.7999997139,"correct":true,"confidence":2},{"trial_n":32,"n_dots":3.55,"target":"left","response":"left","rt":986.40000009537,"correct":true,"confidence":3},{"trial_n":33,"n_dots":3.55,"target":"right","response":"right","rt":456.90000009537,"correct":true,"confidence":2},{"trial_n":34,"n_dots":3.45,"target":"right","response":"right","rt":698.19999980927,"correct":true,"confidence":2},{"trial_n":35,"n_dots":3.45,"target":"left","response":"left","rt":792.5,"correct":true,"confidence":4},{"trial_n":36,"n_dots":3.35,"target":"left","response":"left","rt":441.59999990463,"correct":true,"confidence":4},{"trial_n":37,"n_dots":3.35,"target":"left","response":"left","rt":416,"correct":true,"confidence":5},{"trial_n":38,"n_dots":3.25,"target":"right","response":"right","rt":731.5,"correct":true,"confidence":3},{"trial_n":39,"n_dots":3.25,"target":"right","response":"left","rt":703.40000009537,"correct":false,"confidence":3},{"trial_n":40,"n_dots":3.35,"target":"left","response":"left","rt":600.39999961853,"correct":true,"confidence":4},{"trial_n":41,"n_dots":3.35,"target":"left","response":"left","rt":550.2000002861,"correct":true,"confidence":4},{"trial_n":42,"n_dots":3.25,"target":"left","response":"right","rt":978.39999961853,"correct":false,"confidence":3},{"trial_n":43,"n_dots":3.35,"target":"right","response":"left","rt":862.7000002861,"correct":false,"confidence":4},{"trial_n":44,"n_dots":3.45,"target":"left","response":"left","rt":478.30000019073,"correct":true,"confidence":3},{"trial_n":45,"n_dots":3.45,"target":"left","response":"left","rt":962.2000002861,"correct":true,"confidence":3},{"trial_n":46,"n_dots":3.35,"target":"right","response":"right","rt":681.5,"correct":true,"confidence":4},{"trial_n":47,"n_dots":3.35,"target":"right","response":"right","rt":1668.8000001907,"correct":true,"confidence":3},{"trial_n":48,"n_dots":3.25,"target":"right","response":"right","rt":495.90000009537,"correct":true,"confidence":3},{"trial_n":49,"n_dots":3.25,"target":"left","response":"left","rt":493.19999980927,"correct":true,"confidence":3},{"trial_n":50,"n_dots":3.15,"target":"left","response":"left","rt":501.2000002861,"correct":true,"confidence":3},{"trial_n":51,"n_dots":3.15,"target":"right","response":"right","rt":516.89999961853,"correct":true,"confidence":3},{"trial_n":52,"n_dots":3.05,"target":"right","response":"right","rt":503,"correct":true,"confidence":3},{"trial_n":53,"n_dots":3.05,"target":"left","response":"left","rt":743.60000038147,"correct":true,"confidence":3},{"trial_n":54,"n_dots":2.95,"target":"left","response":"left","rt":657.09999990463,"correct":true,"confidence":4},{"trial_n":55,"n_dots":2.95,"target":"left","response":"left","rt":607.69999980927,"correct":true,"confidence":5},{"trial_n":56,"n_dots":2.85,"target":"right","response":"left","rt":499.7999997139,"correct":false,"confidence":3},{"trial_n":57,"n_dots":2.95,"target":"left","response":"left","rt":648.90000009537,"correct":true,"confidence":2},{"trial_n":58,"n_dots":2.95,"target":"left","response":"right","rt":338.7999997139,"correct":false,"confidence":2},{"trial_n":59,"n_dots":3.05,"target":"left","response":"left","rt":428.30000019073,"correct":true,"confidence":3},{"trial_n":60,"n_dots":3.05,"target":"left","response":"left","rt":450,"correct":true,"confidence":1},{"trial_n":61,"n_dots":2.95,"target":"right","response":"right","rt":1500.2000002861,"correct":true,"confidence":1},{"trial_n":62,"n_dots":2.95,"target":"left","response":"left","rt":404.5,"correct":true,"confidence":2},{"trial_n":63,"n_dots":2.85,"target":"left","response":"left","rt":453.69999980927,"correct":true,"confidence":3},{"trial_n":64,"n_dots":2.85,"target":"right","response":"right","rt":809.39999961853,"correct":true,"confidence":3},{"trial_n":65,"n_dots":2.75,"target":"right","response":"left","rt":1417.6999998093,"correct":false,"confidence":2},{"trial_n":66,"n_dots":2.85,"target":"right","response":"right","rt":822.40000009537,"correct":true,"confidence":2},{"trial_n":67,"n_dots":2.85,"target":"right","response":"right","rt":2109.3000001907,"correct":true,"confidence":2},{"trial_n":68,"n_dots":2.75,"target":"right","response":"left","rt":1194.4000000954,"correct":false,"confidence":2},{"trial_n":69,"n_dots":2.85,"target":"left","response":"left","rt":882.30000019073,"correct":true,"confidence":2},{"trial_n":70,"n_dots":2.85,"target":"left","response":"left","rt":1023.6999998093,"correct":true,"confidence":2},{"trial_n":71,"n_dots":2.75,"target":"left","response":"left","rt":725.19999980927,"correct":true,"confidence":2},{"trial_n":72,"n_dots":2.75,"target":"right","response":"right","rt":444.39999961853,"correct":true,"confidence":2},{"trial_n":73,"n_dots":2.65,"target":"left","response":"left","rt":670.30000019073,"correct":true,"confidence":1},{"trial_n":74,"n_dots":2.65,"target":"right","response":"left","rt":313.39999961853,"correct":false,"confidence":3},{"trial_n":75,"n_dots":2.75,"target":"right","response":"right","rt":550.30000019073,"correct":true,"confidence":3},{"trial_n":76,"n_dots":2.75,"target":"right","response":"left","rt":468.90000009537,"correct":false,"confidence":3},{"trial_n":77,"n_dots":2.85,"target":"right","response":"left","rt":747.30000019073,"correct":false,"confidence":3},{"trial_n":78,"n_dots":2.95,"target":"left","response":"left","rt":774.80000019073,"correct":true,"confidence":3},{"trial_n":79,"n_dots":2.95,"target":"right","response":"left","rt":735.90000009537,"correct":false,"confidence":3},{"trial_n":80,"n_dots":3.05,"target":"right","response":"right","rt":686.40000009537,"correct":true,"confidence":3},{"trial_n":81,"n_dots":3.05,"target":"left","response":"right","rt":494.09999990463,"correct":false,"confidence":3},{"trial_n":82,"n_dots":3.15,"target":"right","response":"left","rt":1769.5,"correct":false,"confidence":2},{"trial_n":83,"n_dots":3.25,"target":"right","response":"right","rt":1683,"correct":true,"confidence":2},{"trial_n":84,"n_dots":3.25,"target":"left","response":"left","rt":607.5,"correct":true,"confidence":3},{"trial_n":85,"n_dots":3.15,"target":"right","response":"right","rt":404.5,"correct":true,"confidence":3},{"trial_n":86,"n_dots":3.15,"target":"right","response":"left","rt":1557.4000000954,"correct":false,"confidence":3},{"trial_n":87,"n_dots":3.25,"target":"left","response":"right","rt":1232.3000001907,"correct":false,"confidence":4},{"trial_n":88,"n_dots":3.35,"target":"right","response":"right","rt":1423.7000002861,"correct":true,"confidence":1},{"trial_n":89,"n_dots":3.35,"target":"right","response":"right","rt":810.90000009537,"correct":true,"confidence":4},{"trial_n":90,"n_dots":3.25,"target":"left","response":"left","rt":565.7000002861,"correct":true,"confidence":3},{"trial_n":91,"n_dots":3.25,"target":"right","response":"right","rt":426.30000019073,"correct":true,"confidence":1},{"trial_n":92,"n_dots":3.15,"target":"right","response":"left","rt":691.7000002861,"correct":false,"confidence":1},{"trial_n":93,"n_dots":3.25,"target":"right","response":"left","rt":936.09999990463,"correct":false,"confidence":1},{"trial_n":94,"n_dots":3.35,"target":"right","response":"right","rt":618,"correct":true,"confidence":3},{"trial_n":95,"n_dots":3.35,"target":"left","response":"left","rt":482.5,"correct":true,"confidence":2},{"trial_n":96,"n_dots":3.25,"target":"right","response":"left","rt":350.5,"correct":false,"confidence":1},{"trial_n":97,"n_dots":3.35,"target":"right","response":"left","rt":937.59999990463,"correct":false,"confidence":1},{"trial_n":98,"n_dots":3.45,"target":"left","response":"right","rt":44.799999713898,"correct":false,"confidence":1},{"trial_n":99,"n_dots":3.55,"target":"left","response":"left","rt":342.19999980927,"correct":true,"confidence":1},{"trial_n":100,"n_dots":3.55,"target":"right","response":"left","rt":299.40000009537,"correct":false,"confidence":2},{"trial_n":101,"n_dots":3.65,"target":"right","response":"left","rt":622.69999980927,"correct":false,"confidence":1},{"trial_n":102,"n_dots":3.75,"target":"right","response":"right","rt":899,"correct":true,"confidence":2},{"trial_n":103,"n_dots":3.75,"target":"left","response":"right","rt":363.2999997139,"correct":false,"confidence":1},{"trial_n":104,"n_dots":3.85,"target":"left","response":"left","rt":351.7000002861,"correct":true,"confidence":4},{"trial_n":105,"n_dots":3.85,"target":"left","response":"left","rt":385.59999990463,"correct":true,"confidence":4},{"trial_n":106,"n_dots":3.75,"target":"right","response":"left","rt":466.09999990463,"correct":false,"confidence":2},{"trial_n":107,"n_dots":3.85,"target":"right","response":"right","rt":87.199999809265,"correct":true,"confidence":3},{"trial_n":108,"n_dots":3.85,"target":"right","response":"left","rt":381.2999997139,"correct":false,"confidence":3},{"trial_n":109,"n_dots":3.95,"target":"left","response":"left","rt":526.59999990463,"correct":true,"confidence":1},{"trial_n":110,"n_dots":3.95,"target":"left","response":"left","rt":191.89999961853,"correct":true,"confidence":3},{"trial_n":111,"n_dots":3.85,"target":"left","response":"left","rt":10.199999809265,"correct":true,"confidence":3},{"trial_n":112,"n_dots":3.85,"target":"left","response":"left","rt":386.90000009537,"correct":true,"confidence":3},{"trial_n":113,"n_dots":3.75,"target":"right","response":"right","rt":566.7999997139,"correct":true,"confidence":1},{"trial_n":114,"n_dots":3.75,"target":"right","response":"left","rt":519.5,"correct":false,"confidence":2},{"trial_n":115,"n_dots":3.85,"target":"left","response":"left","rt":182.59999990463,"correct":true,"confidence":3},{"trial_n":116,"n_dots":3.85,"target":"left","response":"left","rt":1502.1999998093,"correct":true,"confidence":4},{"trial_n":117,"n_dots":3.75,"target":"left","response":"right","rt":634.40000009537,"correct":false,"confidence":3},{"trial_n":118,"n_dots":3.85,"target":"left","response":"left","rt":136.09999990463,"correct":true,"confidence":4},{"trial_n":119,"n_dots":3.85,"target":"right","response":"right","rt":636.2000002861,"correct":true,"confidence":1},{"trial_n":120,"n_dots":3.75,"target":"right","response":"left","rt":371.2000002861,"correct":false,"confidence":3}]