[{"trial_n":1,"span":8,"encoder":"28473130","distractor":"28433130","target":"present","response":"present","rt":"35397","correct":true,"confidence":-1},{"trial_n":2,"span":8,"encoder":"16844716","distractor":"16744716","target":"present","response":"present","rt":"2635.6000000238","correct":true,"confidence":-1},{"trial_n":3,"span":10,"encoder":"8730702415","distractor":"8730792415","target":"absent","response":"absent","rt":"3640","correct":true,"confidence":-1},{"trial_n":4,"span":10,"encoder":"8057152576","distractor":"8057142576","target":"absent","response":"present","rt":"1352.8999999762","correct":false,"confidence":-1},{"trial_n":5,"span":8,"encoder":"22634145","distractor":"22634045","target":"present","response":"present","rt":"1032.6000000238","correct":true,"confidence":-1},{"trial_n":6,"span":8,"encoder":"97282026","distractor":"97282626","target":"absent","response":"absent","rt":"1523.7999999523","correct":true,"confidence":-1},{"trial_n":7,"span":10,"encoder":"8801521024","distractor":"8801821024","target":"absent","response":"present","rt":"1195.1000000238","correct":false,"confidence":-1},{"trial_n":8,"span":8,"encoder":"05861977","distractor":"05821977","target":"absent","response":"present","rt":"1113.7000000477","correct":false,"confidence":-1},{"trial_n":9,"span":6,"encoder":"545523","distractor":"945523","target":"absent","response":"absent","rt":"1375","correct":true,"confidence":-1},{"trial_n":10,"span":6,"encoder":"940028","distractor":"950028","target":"absent","response":"absent","rt":"2126.0999999046","correct":true,"confidence":-1},{"trial_n":11,"span":8,"encoder":"89763371","distractor":"69763371","target":"present","response":"present","rt":"2516.6000000238","correct":true,"confidence":-1},{"trial_n":12,"span":8,"encoder":"19772197","distractor":"19772897","target":"absent","response":"absent","rt":"2722.9000000954","correct":true,"confidence":-1},{"trial_n":13,"span":9,"encoder":"454229220","distractor":"454529220","target":"present","response":"absent","rt":"3560.6000000238","correct":false,"confidence":-1},{"trial_n":14,"span":8,"encoder":"36608824","distractor":"33608824","target":"absent","response":"present","rt":"534.60000002384","correct":false,"confidence":-1},{"trial_n":15,"span":7,"encoder":"8442989","distractor":"9442989","target":"absent","response":"present","rt":"322.10000002384","correct":false,"confidence":-1},{"trial_n":16,"span":6,"encoder":"986074","distractor":"986024","target":"present","response":"present","rt":"1463.8999999762","correct":true,"confidence":-1},{"trial_n":17,"span":6,"encoder":"232462","distractor":"232262","target":"present","response":"present","rt":"1729.7999999523","correct":true,"confidence":-1},{"trial_n":18,"span":7,"encoder":"3044849","distractor":"3044889","target":"present","response":"present","rt":"1736.2999999523","correct":true,"confidence":-1},{"trial_n":19,"span":7,"encoder":"3082278","distractor":"4082278","target":"present","response":"present","rt":"633.10000002384","correct":true,"confidence":-1},{"trial_n":20,"span":8,"encoder":"44783695","distractor":"42783695","target":"present","response":"present","rt":"499.89999997616","correct":true,"confidence":-1},{"trial_n":21,"span":8,"encoder":"82762112","distractor":"82762111","target":"absent","response":"absent","rt":"1715.2999999523","correct":true,"confidence":5},{"trial_n":22,"span":9,"encoder":"175479536","distractor":"975479536","target":"present","response":"absent","rt":"558.5","correct":false,"confidence":1},{"trial_n":23,"span":8,"encoder":"63310951","distractor":"63350951","target":"absent","response":"present","rt":"1495.2999999523","correct":false,"confidence":5},{"trial_n":24,"span":7,"encoder":"9840352","distractor":"9840353","target":"absent","response":"present","rt":"54084.399999976","correct":false,"confidence":1},{"trial_n":25,"span":6,"encoder":"319960","distractor":"319990","target":"absent","response":"absent","rt":"3336.5","correct":true,"confidence":4},{"trial_n":26,"span":6,"encoder":"989012","distractor":"989712","target":"absent","response":"absent","rt":"2277","correct":true,"confidence":4},{"trial_n":27,"span":7,"encoder":"7225734","distractor":"7225744","target":"present","response":"absent","rt":"4567.8999999762","correct":false,"confidence":2},{"trial_n":28,"span":6,"encoder":"035423","distractor":"035523","target":"present","response":"present","rt":"1807.1000000238","correct":true,"confidence":4},{"trial_n":29,"span":6,"encoder":"488682","distractor":"418682","target":"present","response":"present","rt":"2510.2000000477","correct":true,"confidence":4},{"trial_n":30,"span":7,"encoder":"6360965","distractor":"6360065","target":"absent","response":"absent","rt":"2980.5","correct":true,"confidence":5},{"trial_n":31,"span":7,"encoder":"2911782","distractor":"2911789","target":"present","response":"absent","rt":"3274.8999999762","correct":false,"confidence":5},{"trial_n":32,"span":6,"encoder":"727410","distractor":"727010","target":"present","response":"present","rt":"1962.5999999046","correct":true,"confidence":5},{"trial_n":33,"span":6,"encoder":"352431","distractor":"352430","target":"present","response":"present","rt":"2010.3999999762","correct":true,"confidence":3},{"trial_n":34,"span":7,"encoder":"7325933","distractor":"7335933","target":"present","response":"present","rt":"2169.3999999762","correct":true,"confidence":4},{"trial_n":35,"span":7,"encoder":"0057283","distractor":"0087283","target":"present","response":"present","rt":"4346.7999999523","correct":true,"confidence":3},{"trial_n":36,"span":8,"encoder":"63467718","distractor":"93467718","target":"present","response":"present","rt":"5071.1999999285","correct":true,"confidence":4},{"trial_n":37,"span":8,"encoder":"70825112","distractor":"70825122","target":"present","response":"present","rt":"3243.7000000477","correct":true,"confidence":5},{"trial_n":38,"span":9,"encoder":"535393960","distractor":"535399960","target":"absent","response":"absent","rt":"2954.8999999762","correct":true,"confidence":5},{"trial_n":39,"span":9,"encoder":"647694348","distractor":"647698348","target":"absent","response":"absent","rt":"7166.1000000238","correct":true,"confidence":4},{"trial_n":40,"span":10,"encoder":"7458676761","distractor":"7458672761","target":"absent","response":"absent","rt":"3262.3999999762","correct":true,"confidence":4},{"trial_n":41,"span":10,"encoder":"8264021948","distractor":"8264051948","target":"present","response":"present","rt":"1473.7999999523","correct":true,"confidence":2},{"trial_n":42,"span":11,"encoder":"44304107310","distractor":"44304307310","target":"present","response":"present","rt":"4259.0999999046","correct":true,"confidence":4},{"trial_n":43,"span":11,"encoder":"48931854974","distractor":"48931654974","target":"present","response":"absent","rt":"3869.6000000238","correct":false,"confidence":2},{"trial_n":44,"span":10,"encoder":"8411122229","distractor":"8411322229","target":"absent","response":"absent","rt":"3017.4000000954","correct":true,"confidence":5},{"trial_n":45,"span":10,"encoder":"1660898038","distractor":"0660898038","target":"present","response":"present","rt":"2720.3999999762","correct":true,"confidence":3},{"trial_n":46,"span":11,"encoder":"01790650825","distractor":"01790650895","target":"absent","response":"absent","rt":"2421.8999999762","correct":true,"confidence":3},{"trial_n":47,"span":11,"encoder":"05727068016","distractor":"05727068012","target":"absent","response":"absent","rt":"3754.6999999285","correct":true,"confidence":4},{"trial_n":48,"span":12,"encoder":"986744969641","distractor":"986764969641","target":"absent","response":"present","rt":"3662.8000000715","correct":false,"confidence":3},{"trial_n":49,"span":11,"encoder":"10397569813","distractor":"10397579813","target":"present","response":"absent","rt":"3778.2000000477","correct":false,"confidence":2},{"trial_n":50,"span":10,"encoder":"6724203292","distractor":"6724103292","target":"present","response":"present","rt":"3455.8999999762","correct":true,"confidence":2},{"trial_n":51,"span":10,"encoder":"7215762627","distractor":"7215162627","target":"absent","response":"absent","rt":"1799.3999999762","correct":true,"confidence":4},{"trial_n":52,"span":11,"encoder":"48812955049","distractor":"48812955045","target":"present","response":"present","rt":"3700.1000000238","correct":true,"confidence":3},{"trial_n":53,"span":11,"encoder":"00028450711","distractor":"00028450411","target":"absent","response":"present","rt":"2971.0999999046","correct":false,"confidence":5},{"trial_n":54,"span":10,"encoder":"8978635544","distractor":"8978635844","target":"absent","response":"absent","rt":"1782.5","correct":true,"confidence":5},{"trial_n":55,"span":10,"encoder":"1571777230","distractor":"1571077230","target":"absent","response":"absent","rt":"1306","correct":true,"confidence":5},{"trial_n":56,"span":11,"encoder":"67013920299","distractor":"67053920299","target":"present","response":"present","rt":"1737.3999999762","correct":true,"confidence":3},{"trial_n":57,"span":11,"encoder":"32851082729","distractor":"42851082729","target":"present","response":"present","rt":"6487.2000000477","correct":true,"confidence":3},{"trial_n":58,"span":12,"encoder":"820386306884","distractor":"820386106884","target":"present","response":"present","rt":"1965.5999999046","correct":true,"confidence":2},{"trial_n":59,"span":12,"encoder":"231376459658","distractor":"231326459658","target":"present","response":"present","rt":"3355.7000000477","correct":true,"confidence":2},{"trial_n":60,"span":13,"encoder":"9620152703609","distractor":"9620152703603","target":"present","response":"present","rt":"2339.3999999762","correct":true,"confidence":3},{"trial_n":61,"span":13,"encoder":"8274934661426","distractor":"8274934661420","target":"absent","response":"present","rt":"1552.7000000477","correct":false,"confidence":3},{"trial_n":62,"span":12,"encoder":"670838301413","distractor":"670838301483","target":"absent","response":"absent","rt":"2694.7000000477","correct":true,"confidence":5},{"trial_n":63,"span":12,"encoder":"172325216292","distractor":"172325276292","target":"present","response":"present","rt":"4000.2000000477","correct":true,"confidence":3},{"trial_n":64,"span":13,"encoder":"3167797496344","distractor":"3167697496344","target":"absent","response":"present","rt":"1874.1999999285","correct":false,"confidence":2},{"trial_n":65,"span":12,"encoder":"596936076501","distractor":"596936006501","target":"absent","response":"absent","rt":"3070.1000000238","correct":true,"confidence":5},{"trial_n":66,"span":12,"encoder":"134518897312","distractor":"134518893312","target":"present","response":"present","rt":"1400.7999999523","correct":true,"confidence":3},{"trial_n":67,"span":13,"encoder":"7156406365965","distractor":"7186406365965","target":"present","response":"present","rt":"1976.6999999285","correct":true,"confidence":2},{"trial_n":68,"span":13,"encoder":"8186651333871","distractor":"8186651633871","target":"absent","response":"present","rt":"2554.1000000238","correct":false,"confidence":4},{"trial_n":69,"span":12,"encoder":"506017151221","distractor":"508017151221","target":"absent","response":"present","rt":"6091.2000000477","correct":false,"confidence":2},{"trial_n":70,"span":11,"encoder":"97274301008","distractor":"97274201008","target":"absent","response":"present","rt":"1835.1000000238","correct":false,"confidence":3},{"trial_n":71,"span":8,"encoder":"08955204","distractor":"08655204","target":"present","response":"present","rt":"12192.299999952","correct":true,"confidence":-1},{"trial_n":72,"span":8,"encoder":"62712242","distractor":"62712142","target":"present","response":"absent","rt":"1489.2000000477","correct":false,"confidence":-1},{"trial_n":73,"span":7,"encoder":"4301211","distractor":"4301218","target":"absent","response":"present","rt":"5756","correct":false,"confidence":-1},{"trial_n":74,"span":6,"encoder":"996670","distractor":"196670","target":"absent","response":"absent","rt":"619.39999997616","correct":true,"confidence":-1},{"trial_n":75,"span":6,"encoder":"038205","distractor":"035205","target":"present","response":"absent","rt":"513.90000009537","correct":false,"confidence":-1},{"trial_n":76,"span":5,"encoder":"91731","distractor":"91721","target":"present","response":"absent","rt":"500.5","correct":false,"confidence":-1},{"trial_n":77,"span":4,"encoder":"0554","distractor":"0354","target":"absent","response":"present","rt":"453.60000002384","correct":false,"confidence":-1},{"trial_n":78,"span":3,"encoder":"787","distractor":"747","target":"present","response":"absent","rt":"417.30000007153","correct":false,"confidence":-1},{"trial_n":79,"span":2,"encoder":"47","distractor":"87","target":"present","response":"absent","rt":"495","correct":false,"confidence":-1},{"trial_n":80,"span":2,"encoder":"67","distractor":"66","target":"absent","response":"absent","rt":"556.79999995232","correct":true,"confidence":-1},{"trial_n":81,"span":2,"encoder":"79","distractor":"78","target":"present","response":"absent","rt":"926","correct":false,"confidence":-1},{"trial_n":82,"span":2,"encoder":"09","distractor":"89","target":"present","response":"present","rt":"685.30000007153","correct":true,"confidence":-1},{"trial_n":83,"span":2,"encoder":"53","distractor":"57","target":"absent","response":"absent","rt":"1098.3999999762","correct":true,"confidence":-1},{"trial_n":84,"span":3,"encoder":"327","distractor":"427","target":"absent","response":"absent","rt":"932","correct":true,"confidence":-1},{"trial_n":85,"span":3,"encoder":"614","distractor":"684","target":"absent","response":"absent","rt":"998","correct":true,"confidence":-1},{"trial_n":86,"span":4,"encoder":"9851","distractor":"9853","target":"present","response":"present","rt":"1039.8999999762","correct":true,"confidence":-1},{"trial_n":87,"span":4,"encoder":"5484","distractor":"5482","target":"present","response":"present","rt":"1267.8999999762","correct":true,"confidence":-1},{"trial_n":88,"span":5,"encoder":"91046","distractor":"91846","target":"present","response":"present","rt":"1185.7999999523","correct":true,"confidence":-1},{"trial_n":89,"span":5,"encoder":"36593","distractor":"46593","target":"absent","response":"absent","rt":"872.60000002384","correct":true,"confidence":-1},{"trial_n":90,"span":6,"encoder":"100507","distractor":"100007","target":"absent","response":"present","rt":"289.39999997616","correct":false,"confidence":-1},{"trial_n":91,"span":5,"encoder":"82952","distractor":"52952","target":"present","response":"present","rt":"3434.6000000238","correct":true,"confidence":3},{"trial_n":92,"span":5,"encoder":"12376","distractor":"12276","target":"absent","response":"present","rt":"334.20000004768","correct":false,"confidence":3},{"trial_n":93,"span":4,"encoder":"4277","distractor":"4271","target":"absent","response":"present","rt":"958.19999992847","correct":false,"confidence":1},{"trial_n":94,"span":3,"encoder":"112","distractor":"182","target":"absent","response":"absent","rt":"1665.1000000238","correct":true,"confidence":4},{"trial_n":95,"span":3,"encoder":"100","distractor":"106","target":"present","response":"present","rt":"1956.1000000238","correct":true,"confidence":5},{"trial_n":96,"span":4,"encoder":"0790","distractor":"9790","target":"present","response":"present","rt":"1402.2000000477","correct":true,"confidence":5},{"trial_n":97,"span":4,"encoder":"9843","distractor":"9943","target":"present","response":"present","rt":"1495.4000000954","correct":true,"confidence":5},{"trial_n":98,"span":5,"encoder":"88123","distractor":"84123","target":"absent","response":"absent","rt":"2797.3999999762","correct":true,"confidence":5},{"trial_n":99,"span":5,"encoder":"05151","distractor":"05156","target":"present","response":"present","rt":"1143.5","correct":true,"confidence":3},{"trial_n":100,"span":6,"encoder":"281802","distractor":"781802","target":"absent","response":"absent","rt":"2655.6000000238","correct":true,"confidence":4},{"trial_n":101,"span":6,"encoder":"099711","distractor":"599711","target":"present","response":"present","rt":"2103.8999999762","correct":true,"confidence":5},{"trial_n":102,"span":7,"encoder":"5718178","distractor":"5718118","target":"absent","response":"absent","rt":"3153.6000000238","correct":true,"confidence":2},{"trial_n":103,"span":7,"encoder":"1462814","distractor":"1462844","target":"absent","response":"absent","rt":"3486.2000000477","correct":true,"confidence":5},{"trial_n":104,"span":8,"encoder":"50574797","distractor":"50573797","target":"present","response":"present","rt":"2005.6000000238","correct":true,"confidence":5},{"trial_n":105,"span":8,"encoder":"12616108","distractor":"17616108","target":"present","response":"present","rt":"1781.5","correct":true,"confidence":5},{"trial_n":106,"span":9,"encoder":"835631666","distractor":"835131666","target":"present","response":"present","rt":"5444.5","correct":true,"confidence":2},{"trial_n":107,"span":9,"encoder":"621988521","distractor":"621918521","target":"absent","response":"absent","rt":"4958.7000000477","correct":true,"confidence":4},{"trial_n":108,"span":10,"encoder":"8234056997","distractor":"8234056998","target":"present","response":"present","rt":"2151.8999999762","correct":true,"confidence":5},{"trial_n":109,"span":10,"encoder":"9282976091","distractor":"5282976091","target":"present","response":"present","rt":"5386.3000000715","correct":true,"confidence":3},{"trial_n":110,"span":11,"encoder":"22859675973","distractor":"22859375973","target":"present","response":"present","rt":"622.79999995232","correct":true,"confidence":1},{"trial_n":111,"span":11,"encoder":"01630651547","distractor":"08630651547","target":"absent","response":"absent","rt":"1370.5999999046","correct":true,"confidence":1},{"trial_n":112,"span":12,"encoder":"158723745426","distractor":"158723745726","target":"absent","response":"absent","rt":"39603.399999976","correct":true,"confidence":1},{"trial_n":113,"span":12,"encoder":"250212969036","distractor":"254212969036","target":"absent","response":"present","rt":"12466.200000048","correct":false,"confidence":1},{"trial_n":114,"span":11,"encoder":"65068248556","distractor":"60068248556","target":"absent","response":"absent","rt":"44291.400000095","correct":true,"confidence":1},{"trial_n":115,"span":11,"encoder":"82303512613","distractor":"82303512693","target":"absent","response":"absent","rt":"428.20000004768","correct":true,"confidence":1},{"trial_n":116,"span":12,"encoder":"409209094850","distractor":"409209094858","target":"absent","response":"absent","rt":"1448.2999999523","correct":true,"confidence":5},{"trial_n":117,"span":12,"encoder":"982045740420","distractor":"782045740420","target":"present","response":"absent","rt":"2078.6999999285","correct":false,"confidence":1},{"trial_n":118,"span":11,"encoder":"48307830477","distractor":"48307836477","target":"absent","response":"present","rt":"4343.9000000954","correct":false,"confidence":3},{"trial_n":119,"span":10,"encoder":"4780651794","distractor":"4780051794","target":"absent","response":"present","rt":"3773.6000000238","correct":false,"confidence":3},{"trial_n":120,"span":9,"encoder":"885202817","distractor":"685202817","target":"present","response":"absent","rt":"3121.7000000477","correct":false,"confidence":2},{"trial_n":121,"span":8,"encoder":"98536345","distractor":"98036345","target":"absent","response":"present","rt":"1634.6000000238","correct":false,"confidence":1},{"trial_n":122,"span":7,"encoder":"4400573","distractor":"4400577","target":"present","response":"present","rt":"1602.2000000477","correct":true,"confidence":4},{"trial_n":123,"span":7,"encoder":"9860948","distractor":"9830948","target":"present","response":"present","rt":"6474","correct":true,"confidence":5},{"trial_n":124,"span":8,"encoder":"73763692","distractor":"73763652","target":"absent","response":"absent","rt":"2160","correct":true,"confidence":3},{"trial_n":125,"span":8,"encoder":"90727603","distractor":"90727606","target":"absent","response":"absent","rt":"1095.3999999762","correct":true,"confidence":5},{"trial_n":126,"span":9,"encoder":"708547712","distractor":"308547712","target":"present","response":"present","rt":"3124.7000000477","correct":true,"confidence":1},{"trial_n":127,"span":9,"encoder":"541829705","distractor":"541829702","target":"present","response":"present","rt":"4312.6999999285","correct":true,"confidence":4},{"trial_n":128,"span":10,"encoder":"5622028210","distractor":"5622078210","target":"absent","response":"present","rt":"2362.7000000477","correct":false,"confidence":1},{"trial_n":129,"span":9,"encoder":"554119803","distractor":"554319803","target":"present","response":"present","rt":"4234.7000000477","correct":true,"confidence":5},{"trial_n":130,"span":9,"encoder":"615803564","distractor":"615403564","target":"absent","response":"present","rt":"1107.5","correct":false,"confidence":1},{"trial_n":131,"span":8,"encoder":"68591947","distractor":"68591987","target":"absent","response":"absent","rt":"1318","correct":true,"confidence":1},{"trial_n":132,"span":8,"encoder":"43849435","distractor":"43842435","target":"absent","response":"present","rt":"4312.6000000238","correct":false,"confidence":2},{"trial_n":133,"span":7,"encoder":"7366834","distractor":"7366934","target":"present","response":"present","rt":"2166.6999999285","correct":true,"confidence":5},{"trial_n":134,"span":7,"encoder":"1007537","distractor":"1047537","target":"present","response":"absent","rt":"4785.3000000715","correct":false,"confidence":4},{"trial_n":135,"span":6,"encoder":"606100","distractor":"606110","target":"absent","response":"absent","rt":"2228.5","correct":true,"confidence":5},{"trial_n":136,"span":6,"encoder":"892490","distractor":"192490","target":"present","response":"present","rt":"1382.6000000238","correct":true,"confidence":5},{"trial_n":137,"span":7,"encoder":"0875017","distractor":"0865017","target":"present","response":"present","rt":"6067.7999999523","correct":true,"confidence":2},{"trial_n":138,"span":7,"encoder":"6388616","distractor":"6378616","target":"absent","response":"present","rt":"2498.1000000238","correct":false,"confidence":3},{"trial_n":139,"span":6,"encoder":"047259","distractor":"047252","target":"present","response":"present","rt":"2263.4000000954","correct":true,"confidence":5},{"trial_n":140,"span":6,"encoder":"512505","distractor":"412505","target":"present","response":"present","rt":"4360.1999999285","correct":true,"confidence":1}]