[{"trial_n":1,"n_dots":4.25,"target":"right","response":"right","rt":805.30000007153,"correct":true,"confidence":-1},{"trial_n":2,"n_dots":4.25,"target":"right","response":"right","rt":341.60000002384,"correct":true,"confidence":-1},{"trial_n":3,"n_dots":3.85,"target":"right","response":"right","rt":511.39999997616,"correct":true,"confidence":-1},{"trial_n":4,"n_dots":3.85,"target":"left","response":"left","rt":411.5,"correct":true,"confidence":-1},{"trial_n":5,"n_dots":3.45,"target":"right","response":"right","rt":402.70000004768,"correct":true,"confidence":-1},{"trial_n":6,"n_dots":3.45,"target":"right","response":"right","rt":353.70000004768,"correct":true,"confidence":-1},{"trial_n":7,"n_dots":3.05,"target":"right","response":"right","rt":506.39999997616,"correct":true,"confidence":-1},{"trial_n":8,"n_dots":3.05,"target":"right","response":"left","rt":465.29999995232,"correct":false,"confidence":-1},{"trial_n":9,"n_dots":3.25,"target":"left","response":"right","rt":548.5,"correct":false,"confidence":-1},{"trial_n":10,"n_dots":3.45,"target":"right","response":"right","rt":124.90000009537,"correct":true,"confidence":-1},{"trial_n":11,"n_dots":3.45,"target":"right","response":"right","rt":475.29999995232,"correct":true,"confidence":-1},{"trial_n":12,"n_dots":3.25,"target":"left","response":"right","rt":1204.2000000477,"correct":false,"confidence":-1},{"trial_n":13,"n_dots":3.35,"target":"left","response":"left","rt":554.80000007153,"correct":true,"confidence":-1},{"trial_n":14,"n_dots":3.35,"target":"right","response":"right","rt":506.80000007153,"correct":true,"confidence":-1},{"trial_n":15,"n_dots":3.25,"target":"left","response":"left","rt":418,"correct":true,"confidence":-1},{"trial_n":16,"n_dots":3.25,"target":"right","response":"left","rt":557.10000002384,"correct":false,"confidence":-1},{"trial_n":17,"n_dots":3.35,"target":"right","response":"right","rt":115.40000009537,"correct":true,"confidence":-1},{"trial_n":18,"n_dots":3.35,"target":"left","response":"right","rt":724.60000002384,"correct":false,"confidence":-1},{"trial_n":19,"n_dots":3.45,"target":"left","response":"left","rt":367.20000004768,"correct":true,"confidence":-1},{"trial_n":20,"n_dots":3.45,"target":"left","response":"right","rt":933,"correct":false,"confidence":-1},{"trial_n":21,"n_dots":3.55,"target":"right","response":"right","rt":87.700000047684,"correct":true,"confidence":5},{"trial_n":22,"n_dots":3.55,"target":"left","response":"right","rt":537.10000002384,"correct":false,"confidence":4},{"trial_n":23,"n_dots":3.65,"target":"right","response":"right","rt":315,"correct":true,"confidence":4},{"trial_n":24,"n_dots":3.65,"target":"left","response":"left","rt":540.5,"correct":true,"confidence":3},{"trial_n":25,"n_dots":3.55,"target":"left","response":"left","rt":297.60000002384,"correct":true,"confidence":3},{"trial_n":26,"n_dots":3.55,"target":"left","response":"left","rt":844.5,"correct":true,"confidence":2},{"trial_n":27,"n_dots":3.45,"target":"right","response":"right","rt":282.29999995232,"correct":true,"confidence":4},{"trial_n":28,"n_dots":3.45,"target":"right","response":"right","rt":156.29999995232,"correct":true,"confidence":5},{"trial_n":29,"n_dots":3.35,"target":"right","response":"right","rt":445.29999995232,"correct":true,"confidence":4},{"trial_n":30,"n_dots":3.35,"target":"right","response":"right","rt":499.89999997616,"correct":true,"confidence":3},{"trial_n":31,"n_dots":3.25,"target":"right","response":"right","rt":462.79999995232,"correct":true,"confidence":4},{"trial_n":32,"n_dots":3.25,"target":"left","response":"left","rt":282.70000004768,"correct":true,"confidence":4},{"trial_n":33,"n_dots":3.15,"target":"left","response":"left","rt":788.10000002384,"correct":true,"confidence":1},{"trial_n":34,"n_dots":3.15,"target":"left","response":"left","rt":618.5,"correct":true,"confidence":3},{"trial_n":35,"n_dots":3.05,"target":"left","response":"right","rt":202.70000004768,"correct":false,"confidence":4},{"trial_n":36,"n_dots":3.15,"target":"left","response":"right","rt":318.89999997616,"correct":false,"confidence":5},{"trial_n":37,"n_dots":3.25,"target":"left","response":"right","rt":863.20000004768,"correct":false,"confidence":4},{"trial_n":38,"n_dots":3.35,"target":"left","response":"left","rt":374.60000002384,"correct":true,"confidence":5},{"trial_n":39,"n_dots":3.35,"target":"right","response":"right","rt":129.70000004768,"correct":true,"confidence":5},{"trial_n":40,"n_dots":3.25,"target":"right","response":"right","rt":1042.5,"correct":true,"confidence":5},{"trial_n":41,"n_dots":3.25,"target":"right","response":"right","rt":414.79999995232,"correct":true,"confidence":4},{"trial_n":42,"n_dots":3.15,"target":"right","response":"right","rt":407.59999990463,"correct":true,"confidence":3},{"trial_n":43,"n_dots":3.15,"target":"right","response":"left","rt":734.30000007153,"correct":false,"confidence":3},{"trial_n":44,"n_dots":3.25,"target":"right","response":"right","rt":919.5,"correct":true,"confidence":2},{"trial_n":45,"n_dots":3.25,"target":"left","response":"left","rt":311.39999997616,"correct":true,"confidence":5},{"trial_n":46,"n_dots":3.15,"target":"right","response":"left","rt":586.5,"correct":false,"confidence":4},{"trial_n":47,"n_dots":3.25,"target":"right","response":"right","rt":840.19999992847,"correct":true,"confidence":2},{"trial_n":48,"n_dots":3.25,"target":"left","response":"left","rt":214,"correct":true,"confidence":3},{"trial_n":49,"n_dots":3.15,"target":"left","response":"left","rt":303.30000007153,"correct":true,"confidence":5},{"trial_n":50,"n_dots":3.15,"target":"left","response":"left","rt":363.19999992847,"correct":true,"confidence":4},{"trial_n":51,"n_dots":3.05,"target":"left","response":"left","rt":507.59999990463,"correct":true,"confidence":4},{"trial_n":52,"n_dots":3.05,"target":"left","response":"right","rt":312.79999995232,"correct":false,"confidence":3},{"trial_n":53,"n_dots":3.15,"target":"left","response":"left","rt":308.39999997616,"correct":true,"confidence":5},{"trial_n":54,"n_dots":3.15,"target":"left","response":"left","rt":359.59999990463,"correct":true,"confidence":4},{"trial_n":55,"n_dots":3.05,"target":"right","response":"left","rt":185.10000002384,"correct":false,"confidence":5},{"trial_n":56,"n_dots":3.15,"target":"right","response":"left","rt":306.10000002384,"correct":false,"confidence":5},{"trial_n":57,"n_dots":3.25,"target":"left","response":"left","rt":289.5,"correct":true,"confidence":5},{"trial_n":58,"n_dots":3.25,"target":"right","response":"left","rt":390.60000002384,"correct":false,"confidence":5},{"trial_n":59,"n_dots":3.35,"target":"left","response":"left","rt":88,"correct":true,"confidence":5},{"trial_n":60,"n_dots":3.35,"target":"right","response":"right","rt":458.5,"correct":true,"confidence":3},{"trial_n":61,"n_dots":3.25,"target":"right","response":"right","rt":368.60000002384,"correct":true,"confidence":4},{"trial_n":62,"n_dots":3.25,"target":"left","response":"left","rt":121.30000007153,"correct":true,"confidence":5},{"trial_n":63,"n_dots":3.15,"target":"right","response":"right","rt":282.60000002384,"correct":true,"confidence":4},{"trial_n":64,"n_dots":3.15,"target":"left","response":"left","rt":397.20000004768,"correct":true,"confidence":4},{"trial_n":65,"n_dots":3.05,"target":"right","response":"right","rt":175.89999997616,"correct":true,"confidence":5},{"trial_n":66,"n_dots":3.05,"target":"right","response":"right","rt":407,"correct":true,"confidence":5},{"trial_n":67,"n_dots":2.95,"target":"left","response":"right","rt":242.5,"correct":false,"confidence":5},{"trial_n":68,"n_dots":3.05,"target":"left","response":"right","rt":434.30000007153,"correct":false,"confidence":4},{"trial_n":69,"n_dots":3.15,"target":"left","response":"left","rt":190.80000007153,"correct":true,"confidence":4},{"trial_n":70,"n_dots":3.15,"target":"right","response":"right","rt":413.79999995232,"correct":true,"confidence":5},{"trial_n":71,"n_dots":3.05,"target":"right","response":"right","rt":333.39999997616,"correct":true,"confidence":4},{"trial_n":72,"n_dots":3.05,"target":"right","response":"right","rt":579.20000004768,"correct":true,"confidence":3},{"trial_n":73,"n_dots":2.95,"target":"left","response":"left","rt":374.5,"correct":true,"confidence":3},{"trial_n":74,"n_dots":2.95,"target":"right","response":"right","rt":616.39999997616,"correct":true,"confidence":4},{"trial_n":75,"n_dots":2.85,"target":"right","response":"right","rt":799.19999992847,"correct":true,"confidence":2},{"trial_n":76,"n_dots":2.85,"target":"right","response":"right","rt":602,"correct":true,"confidence":2},{"trial_n":77,"n_dots":2.75,"target":"right","response":"right","rt":621.60000002384,"correct":true,"confidence":1},{"trial_n":78,"n_dots":2.75,"target":"left","response":"left","rt":518,"correct":true,"confidence":4},{"trial_n":79,"n_dots":2.65,"target":"left","response":"left","rt":391.20000004768,"correct":true,"confidence":5},{"trial_n":80,"n_dots":2.65,"target":"left","response":"right","rt":1011.8999999762,"correct":false,"confidence":1},{"trial_n":81,"n_dots":2.75,"target":"right","response":"right","rt":619.39999997616,"correct":true,"confidence":2},{"trial_n":82,"n_dots":2.75,"target":"right","response":"right","rt":522,"correct":true,"confidence":1},{"trial_n":83,"n_dots":2.65,"target":"left","response":"left","rt":758.79999995232,"correct":true,"confidence":3},{"trial_n":84,"n_dots":2.65,"target":"left","response":"right","rt":408.29999995232,"correct":false,"confidence":1},{"trial_n":85,"n_dots":2.75,"target":"right","response":"right","rt":548.20000004768,"correct":true,"confidence":1},{"trial_n":86,"n_dots":2.75,"target":"left","response":"left","rt":321.60000002384,"correct":true,"confidence":3},{"trial_n":87,"n_dots":2.65,"target":"left","response":"right","rt":401.29999995232,"correct":false,"confidence":4},{"trial_n":88,"n_dots":2.75,"target":"left","response":"left","rt":685.79999995232,"correct":true,"confidence":2},{"trial_n":89,"n_dots":2.75,"target":"right","response":"right","rt":425.39999997616,"correct":true,"confidence":5},{"trial_n":90,"n_dots":2.65,"target":"right","response":"right","rt":361.30000007153,"correct":true,"confidence":5},{"trial_n":91,"n_dots":2.65,"target":"left","response":"left","rt":615.10000002384,"correct":true,"confidence":4},{"trial_n":92,"n_dots":2.55,"target":"left","response":"right","rt":615.79999995232,"correct":false,"confidence":5},{"trial_n":93,"n_dots":2.65,"target":"right","response":"right","rt":666,"correct":true,"confidence":3},{"trial_n":94,"n_dots":2.65,"target":"left","response":"right","rt":914.89999997616,"correct":false,"confidence":2},{"trial_n":95,"n_dots":2.75,"target":"left","response":"left","rt":561.79999995232,"correct":true,"confidence":2},{"trial_n":96,"n_dots":2.75,"target":"right","response":"left","rt":722.70000004768,"correct":false,"confidence":4},{"trial_n":97,"n_dots":2.85,"target":"left","response":"left","rt":377.89999997616,"correct":true,"confidence":5},{"trial_n":98,"n_dots":2.85,"target":"right","response":"right","rt":811.90000009537,"correct":true,"confidence":4},{"trial_n":99,"n_dots":2.75,"target":"left","response":"left","rt":438.39999997616,"correct":true,"confidence":5},{"trial_n":100,"n_dots":2.75,"target":"right","response":"left","rt":550.10000002384,"correct":false,"confidence":4},{"trial_n":101,"n_dots":2.85,"target":"left","response":"left","rt":1317.5,"correct":true,"confidence":2},{"trial_n":102,"n_dots":2.85,"target":"right","response":"left","rt":380.70000004768,"correct":false,"confidence":3},{"trial_n":103,"n_dots":2.95,"target":"left","response":"left","rt":574.40000009537,"correct":true,"confidence":2},{"trial_n":104,"n_dots":2.95,"target":"left","response":"left","rt":323.39999997616,"correct":true,"confidence":2},{"trial_n":105,"n_dots":2.85,"target":"right","response":"right","rt":417.59999990463,"correct":true,"confidence":5},{"trial_n":106,"n_dots":2.85,"target":"left","response":"left","rt":682.40000009537,"correct":true,"confidence":3},{"trial_n":107,"n_dots":2.75,"target":"right","response":"right","rt":812,"correct":true,"confidence":2},{"trial_n":108,"n_dots":2.75,"target":"left","response":"right","rt":771.69999992847,"correct":false,"confidence":1},{"trial_n":109,"n_dots":2.85,"target":"right","response":"right","rt":613,"correct":true,"confidence":4},{"trial_n":110,"n_dots":2.85,"target":"right","response":"right","rt":581.10000002384,"correct":true,"confidence":5},{"trial_n":111,"n_dots":2.75,"target":"left","response":"right","rt":675.79999995232,"correct":false,"confidence":3},{"trial_n":112,"n_dots":2.85,"target":"right","response":"left","rt":746.19999992847,"correct":false,"confidence":1},{"trial_n":113,"n_dots":2.95,"target":"right","response":"right","rt":553.90000009537,"correct":true,"confidence":1},{"trial_n":114,"n_dots":2.95,"target":"left","response":"left","rt":1168.8999999762,"correct":true,"confidence":4},{"trial_n":115,"n_dots":2.85,"target":"left","response":"left","rt":400.89999997616,"correct":true,"confidence":5},{"trial_n":116,"n_dots":2.85,"target":"left","response":"left","rt":332.5,"correct":true,"confidence":3},{"trial_n":117,"n_dots":2.75,"target":"right","response":"right","rt":326.69999992847,"correct":true,"confidence":5},{"trial_n":118,"n_dots":2.75,"target":"left","response":"left","rt":352.20000004768,"correct":true,"confidence":5},{"trial_n":119,"n_dots":2.65,"target":"left","response":"right","rt":990,"correct":false,"confidence":4},{"trial_n":120,"n_dots":2.75,"target":"right","response":"left","rt":1335,"correct":false,"confidence":1}]