[{"trial_n":1,"min":25,"max":230,"target":"present","response":"present","rt":10732.700000048,"correct":true,"confidence":-1},{"trial_n":2,"min":25,"max":230,"target":"present","response":"present","rt":498,"correct":true,"confidence":-1},{"trial_n":3,"min":41,"max":214,"target":"absent","response":"absent","rt":463.30000007153,"correct":true,"confidence":-1},{"trial_n":4,"min":41,"max":214,"target":"absent","response":"absent","rt":394.20000004768,"correct":true,"confidence":-1},{"trial_n":5,"min":57,"max":198,"target":"present","response":"present","rt":155.39999997616,"correct":true,"confidence":-1},{"trial_n":6,"min":57,"max":198,"target":"absent","response":"absent","rt":325,"correct":true,"confidence":-1},{"trial_n":7,"min":73,"max":182,"target":"absent","response":"absent","rt":297.79999995232,"correct":true,"confidence":-1},{"trial_n":8,"min":73,"max":182,"target":"present","response":"present","rt":94.899999976158,"correct":true,"confidence":-1},{"trial_n":9,"min":89,"max":166,"target":"present","response":"absent","rt":367,"correct":false,"confidence":-1},{"trial_n":10,"min":73,"max":182,"target":"present","response":"present","rt":710.69999992847,"correct":true,"confidence":-1},{"trial_n":11,"min":73,"max":182,"target":"absent","response":"absent","rt":339.40000009537,"correct":true,"confidence":-1},{"trial_n":12,"min":81,"max":174,"target":"present","response":"absent","rt":407.80000007153,"correct":false,"confidence":-1},{"trial_n":13,"min":73,"max":182,"target":"absent","response":"absent","rt":685.5,"correct":true,"confidence":-1},{"trial_n":14,"min":73,"max":182,"target":"absent","response":"absent","rt":421.70000004768,"correct":true,"confidence":-1},{"trial_n":15,"min":81,"max":174,"target":"absent","response":"absent","rt":440.29999995232,"correct":true,"confidence":-1},{"trial_n":16,"min":81,"max":174,"target":"present","response":"present","rt":674.70000004768,"correct":true,"confidence":-1},{"trial_n":17,"min":89,"max":166,"target":"present","response":"present","rt":369.70000004768,"correct":true,"confidence":-1},{"trial_n":18,"min":89,"max":166,"target":"present","response":"present","rt":432.80000007153,"correct":true,"confidence":-1},{"trial_n":19,"min":97,"max":158,"target":"present","response":"present","rt":446.70000004768,"correct":true,"confidence":-1},{"trial_n":20,"min":97,"max":158,"target":"present","response":"present","rt":388.39999997616,"correct":true,"confidence":-1},{"trial_n":21,"min":101,"max":154,"target":"absent","response":"absent","rt":484.89999997616,"correct":true,"confidence":4},{"trial_n":22,"min":101,"max":154,"target":"absent","response":"present","rt":1236.2999999523,"correct":false,"confidence":3},{"trial_n":23,"min":97,"max":158,"target":"present","response":"absent","rt":2936.7999999523,"correct":false,"confidence":3},{"trial_n":24,"min":93,"max":162,"target":"present","response":"absent","rt":646.19999992847,"correct":false,"confidence":2},{"trial_n":25,"min":89,"max":166,"target":"absent","response":"present","rt":1414,"correct":false,"confidence":2},{"trial_n":26,"min":85,"max":170,"target":"absent","response":"absent","rt":600.30000007153,"correct":true,"confidence":4},{"trial_n":27,"min":85,"max":170,"target":"absent","response":"absent","rt":805.70000004768,"correct":true,"confidence":3},{"trial_n":28,"min":89,"max":166,"target":"present","response":"present","rt":337.30000007153,"correct":true,"confidence":5},{"trial_n":29,"min":89,"max":166,"target":"absent","response":"present","rt":530.5,"correct":false,"confidence":1},{"trial_n":30,"min":85,"max":170,"target":"present","response":"absent","rt":635.09999990463,"correct":false,"confidence":3},{"trial_n":31,"min":83,"max":172,"target":"present","response":"absent","rt":577.79999995232,"correct":false,"confidence":1},{"trial_n":32,"min":81,"max":174,"target":"absent","response":"absent","rt":706.39999997616,"correct":true,"confidence":2},{"trial_n":33,"min":81,"max":174,"target":"absent","response":"present","rt":1506.7999999523,"correct":false,"confidence":2},{"trial_n":34,"min":79,"max":176,"target":"present","response":"present","rt":994.89999997616,"correct":true,"confidence":4},{"trial_n":35,"min":79,"max":176,"target":"present","response":"present","rt":340.89999997616,"correct":true,"confidence":5},{"trial_n":36,"min":81,"max":174,"target":"present","response":"present","rt":388.5,"correct":true,"confidence":5},{"trial_n":37,"min":81,"max":174,"target":"present","response":"present","rt":231.79999995232,"correct":true,"confidence":5},{"trial_n":38,"min":83,"max":172,"target":"present","response":"present","rt":317.89999997616,"correct":true,"confidence":5},{"trial_n":39,"min":83,"max":172,"target":"absent","response":"absent","rt":398.60000002384,"correct":true,"confidence":4},{"trial_n":40,"min":85,"max":170,"target":"present","response":"present","rt":290.20000004768,"correct":true,"confidence":3},{"trial_n":41,"min":85,"max":170,"target":"present","response":"absent","rt":592.70000004768,"correct":false,"confidence":4},{"trial_n":42,"min":84,"max":171,"target":"absent","response":"absent","rt":587.39999997616,"correct":true,"confidence":3},{"trial_n":43,"min":84,"max":171,"target":"absent","response":"absent","rt":448.5,"correct":true,"confidence":3},{"trial_n":44,"min":85,"max":170,"target":"present","response":"present","rt":390.30000007153,"correct":true,"confidence":4},{"trial_n":45,"min":85,"max":170,"target":"absent","response":"absent","rt":445,"correct":true,"confidence":3},{"trial_n":46,"min":86,"max":169,"target":"absent","response":"present","rt":1284.6000000238,"correct":false,"confidence":3},{"trial_n":47,"min":85,"max":170,"target":"absent","response":"present","rt":423.10000002384,"correct":false,"confidence":3},{"trial_n":48,"min":84,"max":171,"target":"absent","response":"present","rt":424.39999997616,"correct":false,"confidence":3},{"trial_n":49,"min":83,"max":172,"target":"present","response":"present","rt":338.30000007153,"correct":true,"confidence":4},{"trial_n":50,"min":83,"max":172,"target":"absent","response":"absent","rt":459.39999997616,"correct":true,"confidence":2},{"trial_n":51,"min":84,"max":171,"target":"absent","response":"absent","rt":545.60000002384,"correct":true,"confidence":2},{"trial_n":52,"min":84,"max":171,"target":"absent","response":"absent","rt":679.29999995232,"correct":true,"confidence":2},{"trial_n":53,"min":85,"max":170,"target":"present","response":"present","rt":449.70000004768,"correct":true,"confidence":4},{"trial_n":54,"min":85,"max":170,"target":"present","response":"present","rt":469.60000002384,"correct":true,"confidence":4},{"trial_n":55,"min":86,"max":169,"target":"absent","response":"absent","rt":454.39999997616,"correct":true,"confidence":3},{"trial_n":56,"min":86,"max":169,"target":"absent","response":"absent","rt":515.10000002384,"correct":true,"confidence":2},{"trial_n":57,"min":87,"max":168,"target":"absent","response":"absent","rt":592.89999997616,"correct":true,"confidence":4},{"trial_n":58,"min":87,"max":168,"target":"present","response":"present","rt":326.70000004768,"correct":true,"confidence":5},{"trial_n":59,"min":88,"max":167,"target":"absent","response":"absent","rt":382.20000004768,"correct":true,"confidence":3},{"trial_n":60,"min":88,"max":167,"target":"present","response":"present","rt":265.80000007153,"correct":true,"confidence":5},{"trial_n":61,"min":89,"max":166,"target":"absent","response":"absent","rt":461.5,"correct":true,"confidence":3},{"trial_n":62,"min":89,"max":166,"target":"present","response":"absent","rt":472.79999995232,"correct":false,"confidence":5},{"trial_n":63,"min":88,"max":167,"target":"present","response":"absent","rt":569.60000002384,"correct":false,"confidence":3},{"trial_n":64,"min":87,"max":168,"target":"absent","response":"absent","rt":453.5,"correct":true,"confidence":2},{"trial_n":65,"min":87,"max":168,"target":"absent","response":"absent","rt":407,"correct":true,"confidence":3},{"trial_n":66,"min":88,"max":167,"target":"absent","response":"absent","rt":423.10000002384,"correct":true,"confidence":3},{"trial_n":67,"min":88,"max":167,"target":"present","response":"present","rt":243.5,"correct":true,"confidence":5},{"trial_n":68,"min":89,"max":166,"target":"present","response":"present","rt":432.59999990463,"correct":true,"confidence":4},{"trial_n":69,"min":89,"max":166,"target":"present","response":"present","rt":241.30000007153,"correct":true,"confidence":5},{"trial_n":70,"min":90,"max":165,"target":"present","response":"present","rt":494.70000004768,"correct":true,"confidence":4},{"trial_n":71,"min":41,"max":214,"target":"present","response":"present","rt":4956.6000000238,"correct":true,"confidence":-1},{"trial_n":72,"min":41,"max":214,"target":"present","response":"present","rt":879.80000007153,"correct":true,"confidence":-1},{"trial_n":73,"min":57,"max":198,"target":"absent","response":"absent","rt":2138.7000000477,"correct":true,"confidence":-1},{"trial_n":74,"min":57,"max":198,"target":"absent","response":"absent","rt":1474.3999999762,"correct":true,"confidence":-1},{"trial_n":75,"min":73,"max":182,"target":"present","response":"present","rt":655.80000007153,"correct":true,"confidence":-1},{"trial_n":76,"min":73,"max":182,"target":"absent","response":"absent","rt":983.60000002384,"correct":true,"confidence":-1},{"trial_n":77,"min":89,"max":166,"target":"absent","response":"absent","rt":939.20000004768,"correct":true,"confidence":-1},{"trial_n":78,"min":89,"max":166,"target":"absent","response":"absent","rt":1791.2000000477,"correct":true,"confidence":-1},{"trial_n":79,"min":105,"max":150,"target":"absent","response":"present","rt":728.10000002384,"correct":false,"confidence":-1},{"trial_n":80,"min":89,"max":166,"target":"present","response":"absent","rt":982.5,"correct":false,"confidence":-1},{"trial_n":81,"min":81,"max":174,"target":"absent","response":"absent","rt":1241.2000000477,"correct":true,"confidence":-1},{"trial_n":82,"min":81,"max":174,"target":"present","response":"present","rt":589.10000002384,"correct":true,"confidence":-1},{"trial_n":83,"min":89,"max":166,"target":"present","response":"present","rt":697.5,"correct":true,"confidence":-1},{"trial_n":84,"min":89,"max":166,"target":"absent","response":"present","rt":681.89999997616,"correct":false,"confidence":-1},{"trial_n":85,"min":81,"max":174,"target":"absent","response":"absent","rt":1376.7000000477,"correct":true,"confidence":-1},{"trial_n":86,"min":81,"max":174,"target":"absent","response":"absent","rt":1857.1000000238,"correct":true,"confidence":-1},{"trial_n":87,"min":89,"max":166,"target":"present","response":"present","rt":798.19999992847,"correct":true,"confidence":-1},{"trial_n":88,"min":89,"max":166,"target":"present","response":"present","rt":1069.8999999762,"correct":true,"confidence":-1},{"trial_n":89,"min":97,"max":158,"target":"absent","response":"present","rt":549.5,"correct":false,"confidence":-1},{"trial_n":90,"min":89,"max":166,"target":"present","response":"present","rt":1207.8999999762,"correct":true,"confidence":-1},{"trial_n":91,"min":89,"max":166,"target":"present","response":"present","rt":668,"correct":true,"confidence":4},{"trial_n":92,"min":93,"max":162,"target":"absent","response":"present","rt":669.60000002384,"correct":false,"confidence":4},{"trial_n":93,"min":89,"max":166,"target":"present","response":"present","rt":685.5,"correct":true,"confidence":3},{"trial_n":94,"min":89,"max":166,"target":"absent","response":"present","rt":1322.5,"correct":false,"confidence":2},{"trial_n":95,"min":85,"max":170,"target":"present","response":"present","rt":595.30000007153,"correct":true,"confidence":5},{"trial_n":96,"min":85,"max":170,"target":"absent","response":"absent","rt":851.70000004768,"correct":true,"confidence":2},{"trial_n":97,"min":89,"max":166,"target":"present","response":"present","rt":728.20000004768,"correct":true,"confidence":3},{"trial_n":98,"min":89,"max":166,"target":"absent","response":"present","rt":1291.1000000238,"correct":false,"confidence":3},{"trial_n":99,"min":85,"max":170,"target":"present","response":"present","rt":1045.6000000238,"correct":true,"confidence":3},{"trial_n":100,"min":85,"max":170,"target":"absent","response":"absent","rt":1255.1000000238,"correct":true,"confidence":4},{"trial_n":101,"min":87,"max":168,"target":"present","response":"present","rt":474.89999997616,"correct":true,"confidence":4},{"trial_n":102,"min":87,"max":168,"target":"present","response":"present","rt":281.70000004768,"correct":true,"confidence":5},{"trial_n":103,"min":89,"max":166,"target":"absent","response":"absent","rt":397.79999995232,"correct":true,"confidence":5},{"trial_n":104,"min":89,"max":166,"target":"present","response":"present","rt":480.69999992847,"correct":true,"confidence":2},{"trial_n":105,"min":91,"max":164,"target":"absent","response":"present","rt":635.5,"correct":false,"confidence":1},{"trial_n":106,"min":89,"max":166,"target":"present","response":"present","rt":301.59999990463,"correct":true,"confidence":5},{"trial_n":107,"min":89,"max":166,"target":"absent","response":"present","rt":352.5,"correct":false,"confidence":3},{"trial_n":108,"min":87,"max":168,"target":"absent","response":"absent","rt":834.79999995232,"correct":true,"confidence":2},{"trial_n":109,"min":87,"max":168,"target":"absent","response":"absent","rt":1180.6000000238,"correct":true,"confidence":5},{"trial_n":110,"min":89,"max":166,"target":"absent","response":"present","rt":293.10000002384,"correct":false,"confidence":5},{"trial_n":111,"min":88,"max":167,"target":"present","response":"present","rt":292.5,"correct":true,"confidence":5},{"trial_n":112,"min":88,"max":167,"target":"present","response":"present","rt":866.40000009537,"correct":true,"confidence":4},{"trial_n":113,"min":89,"max":166,"target":"absent","response":"absent","rt":4507.4000000954,"correct":true,"confidence":1},{"trial_n":114,"min":89,"max":166,"target":"absent","response":"present","rt":314.89999997616,"correct":false,"confidence":2},{"trial_n":115,"min":88,"max":167,"target":"absent","response":"present","rt":714.70000004768,"correct":false,"confidence":3},{"trial_n":116,"min":87,"max":168,"target":"absent","response":"absent","rt":1122.7000000477,"correct":true,"confidence":3},{"trial_n":117,"min":87,"max":168,"target":"present","response":"present","rt":198.40000009537,"correct":true,"confidence":5},{"trial_n":118,"min":88,"max":167,"target":"absent","response":"absent","rt":941.19999992847,"correct":true,"confidence":2},{"trial_n":119,"min":88,"max":167,"target":"present","response":"present","rt":147.80000007153,"correct":true,"confidence":5},{"trial_n":120,"min":89,"max":166,"target":"absent","response":"absent","rt":941.60000002384,"correct":true,"confidence":3},{"trial_n":121,"min":89,"max":166,"target":"present","response":"absent","rt":748.29999995232,"correct":false,"confidence":4},{"trial_n":122,"min":88,"max":167,"target":"present","response":"absent","rt":297,"correct":false,"confidence":4},{"trial_n":123,"min":87,"max":168,"target":"present","response":"present","rt":253.60000002384,"correct":true,"confidence":4},{"trial_n":124,"min":87,"max":168,"target":"present","response":"present","rt":144,"correct":true,"confidence":5},{"trial_n":125,"min":88,"max":167,"target":"present","response":"present","rt":295.5,"correct":true,"confidence":5},{"trial_n":126,"min":88,"max":167,"target":"present","response":"present","rt":227.69999992847,"correct":true,"confidence":4},{"trial_n":127,"min":89,"max":166,"target":"present","response":"present","rt":166.19999992847,"correct":true,"confidence":4},{"trial_n":128,"min":89,"max":166,"target":"present","response":"present","rt":299,"correct":true,"confidence":5},{"trial_n":129,"min":90,"max":165,"target":"present","response":"present","rt":305.89999997616,"correct":true,"confidence":5},{"trial_n":130,"min":90,"max":165,"target":"absent","response":"absent","rt":261.79999995232,"correct":true,"confidence":1},{"trial_n":131,"min":91,"max":164,"target":"absent","response":"present","rt":304.39999997616,"correct":false,"confidence":5},{"trial_n":132,"min":90,"max":165,"target":"absent","response":"absent","rt":714.60000002384,"correct":true,"confidence":1},{"trial_n":133,"min":90,"max":165,"target":"absent","response":"absent","rt":675,"correct":true,"confidence":2},{"trial_n":134,"min":91,"max":164,"target":"present","response":"present","rt":283.19999992847,"correct":true,"confidence":5},{"trial_n":135,"min":91,"max":164,"target":"absent","response":"absent","rt":1768,"correct":true,"confidence":1},{"trial_n":136,"min":92,"max":163,"target":"present","response":"absent","rt":348.39999997616,"correct":false,"confidence":3},{"trial_n":137,"min":91,"max":164,"target":"present","response":"absent","rt":1662.0999999046,"correct":false,"confidence":1},{"trial_n":138,"min":90,"max":165,"target":"present","response":"absent","rt":474.19999992847,"correct":false,"confidence":1},{"trial_n":139,"min":89,"max":166,"target":"absent","response":"absent","rt":702,"correct":true,"confidence":3},{"trial_n":140,"min":89,"max":166,"target":"present","response":"present","rt":213.30000007153,"correct":true,"confidence":4}]