[{"trial_n":1,"span":8,"encoder":"67124232","distractor":"67124202","target":"present","response":"present","rt":"3254.1999999881","correct":true,"confidence":-1},{"trial_n":2,"span":8,"encoder":"38816702","distractor":"38812702","target":"present","response":"absent","rt":"2257.5","correct":false,"confidence":-1},{"trial_n":3,"span":6,"encoder":"281669","distractor":"281609","target":"absent","response":"absent","rt":"1634.8999999762","correct":true,"confidence":-1},{"trial_n":4,"span":6,"encoder":"462916","distractor":"462910","target":"absent","response":"present","rt":"1627.9000000358","correct":false,"confidence":-1},{"trial_n":5,"span":4,"encoder":"6029","distractor":"6028","target":"present","response":"present","rt":"1307","correct":true,"confidence":-1},{"trial_n":6,"span":4,"encoder":"2412","distractor":"2410","target":"present","response":"present","rt":"1407.1999999881","correct":true,"confidence":-1},{"trial_n":7,"span":6,"encoder":"468619","distractor":"468219","target":"present","response":"absent","rt":"3030.9000000358","correct":false,"confidence":-1},{"trial_n":8,"span":4,"encoder":"9074","distractor":"0074","target":"present","response":"present","rt":"608.89999997616","correct":true,"confidence":-1},{"trial_n":9,"span":4,"encoder":"7829","distractor":"7529","target":"present","response":"present","rt":"558.19999998808","correct":true,"confidence":-1},{"trial_n":10,"span":6,"encoder":"017182","distractor":"017180","target":"present","response":"present","rt":"1672.8999999762","correct":true,"confidence":-1},{"trial_n":11,"span":6,"encoder":"016422","distractor":"416422","target":"present","response":"present","rt":"900.19999998808","correct":true,"confidence":-1},{"trial_n":12,"span":7,"encoder":"5850817","distractor":"5850887","target":"present","response":"absent","rt":"2461.3000000119","correct":false,"confidence":-1},{"trial_n":13,"span":6,"encoder":"527352","distractor":"526352","target":"present","response":"present","rt":"627.5","correct":true,"confidence":-1},{"trial_n":14,"span":6,"encoder":"041777","distractor":"051777","target":"absent","response":"present","rt":"735.60000002384","correct":false,"confidence":-1},{"trial_n":15,"span":5,"encoder":"18220","distractor":"14220","target":"absent","response":"present","rt":"1331.1000000238","correct":false,"confidence":-1},{"trial_n":16,"span":4,"encoder":"8663","distractor":"5663","target":"absent","response":"present","rt":"1065.3000000119","correct":false,"confidence":-1},{"trial_n":17,"span":3,"encoder":"273","distractor":"223","target":"present","response":"present","rt":"710","correct":true,"confidence":-1},{"trial_n":18,"span":3,"encoder":"744","distractor":"784","target":"present","response":"present","rt":"596.29999995232","correct":true,"confidence":-1},{"trial_n":19,"span":4,"encoder":"6076","distractor":"6016","target":"absent","response":"absent","rt":"982.60000002384","correct":true,"confidence":-1},{"trial_n":20,"span":4,"encoder":"0061","distractor":"0065","target":"absent","response":"absent","rt":"991.80000001192","correct":true,"confidence":-1},{"trial_n":21,"span":5,"encoder":"75806","distractor":"76806","target":"present","response":"present","rt":"915.60000002384","correct":true,"confidence":1},{"trial_n":22,"span":5,"encoder":"89418","distractor":"89478","target":"present","response":"present","rt":"1288.5","correct":true,"confidence":3},{"trial_n":23,"span":6,"encoder":"407360","distractor":"401360","target":"absent","response":"absent","rt":"2364.5999999642","correct":true,"confidence":3},{"trial_n":24,"span":6,"encoder":"174463","distractor":"174363","target":"absent","response":"absent","rt":"2075.9000000358","correct":true,"confidence":4},{"trial_n":25,"span":7,"encoder":"9087778","distractor":"9187778","target":"present","response":"present","rt":"1126","correct":true,"confidence":3},{"trial_n":26,"span":7,"encoder":"8794185","distractor":"8794183","target":"absent","response":"absent","rt":"1014.5","correct":true,"confidence":5},{"trial_n":27,"span":8,"encoder":"44612773","distractor":"44612173","target":"present","response":"present","rt":"883.59999996424","correct":true,"confidence":3},{"trial_n":28,"span":8,"encoder":"91898440","distractor":"91898340","target":"present","response":"present","rt":"3378","correct":true,"confidence":3},{"trial_n":29,"span":9,"encoder":"357470926","distractor":"357470922","target":"absent","response":"absent","rt":"1717.1000000238","correct":true,"confidence":2},{"trial_n":30,"span":9,"encoder":"698870003","distractor":"698840003","target":"absent","response":"present","rt":"4226.5","correct":false,"confidence":1},{"trial_n":31,"span":8,"encoder":"81103081","distractor":"81103087","target":"present","response":"present","rt":"1959.5","correct":true,"confidence":2},{"trial_n":32,"span":8,"encoder":"04651039","distractor":"04653039","target":"absent","response":"absent","rt":"1767.0999999642","correct":true,"confidence":3},{"trial_n":33,"span":9,"encoder":"369434206","distractor":"329434206","target":"absent","response":"present","rt":"898.19999998808","correct":false,"confidence":3},{"trial_n":34,"span":8,"encoder":"22141445","distractor":"22145445","target":"absent","response":"present","rt":"714.5","correct":false,"confidence":3},{"trial_n":35,"span":7,"encoder":"0728438","distractor":"0708438","target":"present","response":"present","rt":"6291.8999999762","correct":true,"confidence":2},{"trial_n":36,"span":7,"encoder":"6162527","distractor":"6562527","target":"present","response":"present","rt":"916.09999996424","correct":true,"confidence":4},{"trial_n":37,"span":8,"encoder":"55968488","distractor":"55928488","target":"present","response":"present","rt":"1457.8000000119","correct":true,"confidence":3},{"trial_n":38,"span":8,"encoder":"67019665","distractor":"67019669","target":"present","response":"present","rt":"1102.1999999881","correct":true,"confidence":4},{"trial_n":39,"span":9,"encoder":"353484016","distractor":"355484016","target":"present","response":"present","rt":"3610.7999999523","correct":true,"confidence":3},{"trial_n":40,"span":9,"encoder":"431925440","distractor":"131925440","target":"present","response":"absent","rt":"1956.7999999523","correct":false,"confidence":3},{"trial_n":41,"span":8,"encoder":"04408357","distractor":"04408377","target":"present","response":"present","rt":"1126.8000000119","correct":true,"confidence":4},{"trial_n":42,"span":8,"encoder":"35680433","distractor":"35686433","target":"present","response":"present","rt":"2116.8000000119","correct":true,"confidence":3},{"trial_n":43,"span":9,"encoder":"491686731","distractor":"491186731","target":"absent","response":"absent","rt":"1176.0999999642","correct":true,"confidence":4},{"trial_n":44,"span":9,"encoder":"549346935","distractor":"549326935","target":"absent","response":"present","rt":"2122.6000000238","correct":false,"confidence":3},{"trial_n":45,"span":8,"encoder":"27446698","distractor":"27446688","target":"absent","response":"absent","rt":"2222.6000000238","correct":true,"confidence":4},{"trial_n":46,"span":8,"encoder":"21934851","distractor":"21934858","target":"absent","response":"present","rt":"883","correct":false,"confidence":1},{"trial_n":47,"span":7,"encoder":"1782397","distractor":"9782397","target":"present","response":"absent","rt":"2314.5","correct":false,"confidence":1},{"trial_n":48,"span":6,"encoder":"663303","distractor":"063303","target":"absent","response":"present","rt":"884.09999996424","correct":false,"confidence":5},{"trial_n":49,"span":5,"encoder":"15855","distractor":"15155","target":"present","response":"present","rt":"1069.3000000119","correct":true,"confidence":5},{"trial_n":50,"span":5,"encoder":"75309","distractor":"76309","target":"absent","response":"present","rt":"2767.5","correct":false,"confidence":3},{"trial_n":51,"span":4,"encoder":"1032","distractor":"1037","target":"absent","response":"absent","rt":"978.69999998808","correct":true,"confidence":4},{"trial_n":52,"span":4,"encoder":"3198","distractor":"3191","target":"present","response":"present","rt":"819.80000001192","correct":true,"confidence":4},{"trial_n":53,"span":5,"encoder":"69969","distractor":"99969","target":"absent","response":"absent","rt":"1281.6999999881","correct":true,"confidence":4},{"trial_n":54,"span":5,"encoder":"06924","distractor":"56924","target":"present","response":"present","rt":"2459.2000000477","correct":true,"confidence":5},{"trial_n":55,"span":6,"encoder":"478980","distractor":"468980","target":"present","response":"present","rt":"1742.5","correct":true,"confidence":5},{"trial_n":56,"span":6,"encoder":"723804","distractor":"723404","target":"present","response":"absent","rt":"2090.2000000477","correct":false,"confidence":3},{"trial_n":57,"span":5,"encoder":"85343","distractor":"85348","target":"absent","response":"absent","rt":"1351.1999999881","correct":true,"confidence":3},{"trial_n":58,"span":5,"encoder":"71641","distractor":"71611","target":"absent","response":"absent","rt":"1738.1999999881","correct":true,"confidence":4},{"trial_n":59,"span":6,"encoder":"845646","distractor":"895646","target":"present","response":"absent","rt":"1266.1999999881","correct":false,"confidence":3},{"trial_n":60,"span":5,"encoder":"97668","distractor":"97368","target":"absent","response":"absent","rt":"963.5","correct":true,"confidence":5},{"trial_n":61,"span":5,"encoder":"03571","distractor":"03771","target":"present","response":"present","rt":"1525.5","correct":true,"confidence":4},{"trial_n":62,"span":6,"encoder":"207795","distractor":"257795","target":"absent","response":"absent","rt":"1177","correct":true,"confidence":4},{"trial_n":63,"span":6,"encoder":"469407","distractor":"409407","target":"absent","response":"absent","rt":"1894.4000000358","correct":true,"confidence":3},{"trial_n":64,"span":7,"encoder":"4266456","distractor":"4266436","target":"absent","response":"absent","rt":"1388.8000000119","correct":true,"confidence":3},{"trial_n":65,"span":7,"encoder":"1653664","distractor":"0653664","target":"absent","response":"absent","rt":"2185.6999999881","correct":true,"confidence":3},{"trial_n":66,"span":8,"encoder":"01085549","distractor":"01485549","target":"absent","response":"absent","rt":"3194.5","correct":true,"confidence":3},{"trial_n":67,"span":8,"encoder":"74877805","distractor":"74897805","target":"absent","response":"absent","rt":"1254.5999999642","correct":true,"confidence":4},{"trial_n":68,"span":9,"encoder":"821046997","distractor":"825046997","target":"absent","response":"absent","rt":"1974","correct":true,"confidence":2},{"trial_n":69,"span":9,"encoder":"346442654","distractor":"346442254","target":"present","response":"present","rt":"1182.5","correct":true,"confidence":3},{"trial_n":70,"span":10,"encoder":"9457798099","distractor":"9457792099","target":"absent","response":"present","rt":"2917.5","correct":false,"confidence":3},{"trial_n":71,"span":8,"encoder":"26451098","distractor":"86451098","target":"present","response":"present","rt":"3800.1000000238","correct":true,"confidence":-1},{"trial_n":72,"span":8,"encoder":"59599777","distractor":"59599771","target":"present","response":"absent","rt":"530.79999995232","correct":false,"confidence":-1},{"trial_n":73,"span":7,"encoder":"0377393","distractor":"0377394","target":"absent","response":"present","rt":"2195.8000000119","correct":false,"confidence":-1},{"trial_n":74,"span":6,"encoder":"582916","distractor":"382916","target":"absent","response":"absent","rt":"2658.9000000358","correct":true,"confidence":-1},{"trial_n":75,"span":6,"encoder":"493453","distractor":"495453","target":"present","response":"present","rt":"2657.5","correct":true,"confidence":-1},{"trial_n":76,"span":7,"encoder":"4795790","distractor":"4793790","target":"absent","response":"absent","rt":"2930.5","correct":true,"confidence":-1},{"trial_n":77,"span":7,"encoder":"9783715","distractor":"9763715","target":"absent","response":"absent","rt":"1006.6999999881","correct":true,"confidence":-1},{"trial_n":78,"span":8,"encoder":"91564266","distractor":"91564226","target":"present","response":"present","rt":"623.30000001192","correct":true,"confidence":-1},{"trial_n":79,"span":8,"encoder":"61282144","distractor":"61282544","target":"absent","response":"absent","rt":"1102.1999999881","correct":true,"confidence":-1},{"trial_n":80,"span":9,"encoder":"366153915","distractor":"365153915","target":"present","response":"present","rt":"786.59999996424","correct":true,"confidence":-1},{"trial_n":81,"span":9,"encoder":"029505452","distractor":"929505452","target":"absent","response":"present","rt":"1042.8000000119","correct":false,"confidence":-1},{"trial_n":82,"span":8,"encoder":"70784021","distractor":"30784021","target":"absent","response":"absent","rt":"848.09999996424","correct":true,"confidence":-1},{"trial_n":83,"span":8,"encoder":"07410038","distractor":"07810038","target":"present","response":"absent","rt":"4354.6000000238","correct":false,"confidence":-1},{"trial_n":84,"span":7,"encoder":"6592315","distractor":"6592317","target":"absent","response":"present","rt":"987.5","correct":false,"confidence":-1},{"trial_n":85,"span":6,"encoder":"700246","distractor":"708246","target":"absent","response":"absent","rt":"1987.5","correct":true,"confidence":-1},{"trial_n":86,"span":6,"encoder":"445026","distractor":"445096","target":"present","response":"present","rt":"3348.3000000119","correct":true,"confidence":-1},{"trial_n":87,"span":7,"encoder":"7847100","distractor":"7847120","target":"absent","response":"absent","rt":"1042.6000000238","correct":true,"confidence":-1},{"trial_n":88,"span":7,"encoder":"8985705","distractor":"8685705","target":"present","response":"present","rt":"1092.5999999642","correct":true,"confidence":-1},{"trial_n":89,"span":8,"encoder":"51306978","distractor":"53306978","target":"present","response":"absent","rt":"1913.5","correct":false,"confidence":-1},{"trial_n":90,"span":7,"encoder":"2854685","distractor":"3854685","target":"absent","response":"absent","rt":"1365.6000000238","correct":true,"confidence":-1},{"trial_n":91,"span":7,"encoder":"3722084","distractor":"3222084","target":"present","response":"present","rt":"2464.2000000477","correct":true,"confidence":3},{"trial_n":92,"span":8,"encoder":"86286597","distractor":"86886597","target":"present","response":"present","rt":"2681.6000000238","correct":true,"confidence":2},{"trial_n":93,"span":8,"encoder":"09722357","distractor":"09752357","target":"absent","response":"absent","rt":"894.5","correct":true,"confidence":1},{"trial_n":94,"span":9,"encoder":"305461917","distractor":"309461917","target":"present","response":"present","rt":"5227.1000000238","correct":true,"confidence":3},{"trial_n":95,"span":9,"encoder":"956335296","distractor":"936335296","target":"present","response":"absent","rt":"5475.6000000238","correct":false,"confidence":3},{"trial_n":96,"span":8,"encoder":"04550721","distractor":"04570721","target":"present","response":"present","rt":"3017.2000000477","correct":true,"confidence":5},{"trial_n":97,"span":8,"encoder":"87846516","distractor":"87546516","target":"absent","response":"absent","rt":"2223.8999999762","correct":true,"confidence":5},{"trial_n":98,"span":9,"encoder":"746067486","distractor":"746063486","target":"absent","response":"absent","rt":"1679","correct":true,"confidence":4},{"trial_n":99,"span":9,"encoder":"434442697","distractor":"334442697","target":"absent","response":"absent","rt":"4601.7999999523","correct":true,"confidence":3},{"trial_n":100,"span":10,"encoder":"9617320749","distractor":"9617320741","target":"present","response":"present","rt":"4041","correct":true,"confidence":1},{"trial_n":101,"span":10,"encoder":"3573192820","distractor":"3573192825","target":"present","response":"absent","rt":"1824.3000000119","correct":false,"confidence":4},{"trial_n":102,"span":9,"encoder":"758529009","distractor":"757529009","target":"absent","response":"absent","rt":"2738","correct":true,"confidence":2},{"trial_n":103,"span":9,"encoder":"305410866","distractor":"305410816","target":"present","response":"present","rt":"1165.2999999523","correct":true,"confidence":5},{"trial_n":104,"span":10,"encoder":"0024366485","distractor":"0024363485","target":"absent","response":"present","rt":"4236.5999999642","correct":false,"confidence":1},{"trial_n":105,"span":9,"encoder":"632184077","distractor":"632184078","target":"absent","response":"absent","rt":"1449.3999999762","correct":true,"confidence":5},{"trial_n":106,"span":9,"encoder":"350960798","distractor":"350960738","target":"present","response":"absent","rt":"1859","correct":false,"confidence":1},{"trial_n":107,"span":8,"encoder":"26824912","distractor":"86824912","target":"present","response":"absent","rt":"4546.8999999762","correct":false,"confidence":1},{"trial_n":108,"span":7,"encoder":"0317394","distractor":"0317314","target":"absent","response":"absent","rt":"1289.2999999523","correct":true,"confidence":5},{"trial_n":109,"span":7,"encoder":"7286381","distractor":"8286381","target":"absent","response":"absent","rt":"3742.7000000477","correct":true,"confidence":3},{"trial_n":110,"span":8,"encoder":"14217293","distractor":"15217293","target":"present","response":"absent","rt":"3074.6999999881","correct":false,"confidence":1},{"trial_n":111,"span":7,"encoder":"3173612","distractor":"3173611","target":"absent","response":"absent","rt":"1267.6999999881","correct":true,"confidence":5},{"trial_n":112,"span":7,"encoder":"6842206","distractor":"6841206","target":"present","response":"present","rt":"1569.3000000119","correct":true,"confidence":5},{"trial_n":113,"span":8,"encoder":"78956788","distractor":"78956782","target":"present","response":"present","rt":"2792.8999999762","correct":true,"confidence":1},{"trial_n":114,"span":8,"encoder":"48327287","distractor":"48527287","target":"present","response":"present","rt":"3363.3999999762","correct":true,"confidence":2},{"trial_n":115,"span":9,"encoder":"585598563","distractor":"585578563","target":"absent","response":"present","rt":"7621.7000000477","correct":false,"confidence":1},{"trial_n":116,"span":8,"encoder":"84478640","distractor":"84478940","target":"absent","response":"absent","rt":"3662.3000000119","correct":true,"confidence":4},{"trial_n":117,"span":8,"encoder":"00047512","distractor":"60047512","target":"absent","response":"absent","rt":"1571.8999999762","correct":true,"confidence":5},{"trial_n":118,"span":9,"encoder":"261444035","distractor":"261544035","target":"present","response":"present","rt":"4692","correct":true,"confidence":3},{"trial_n":119,"span":9,"encoder":"886042724","distractor":"886045724","target":"absent","response":"absent","rt":"2484.0999999642","correct":true,"confidence":2},{"trial_n":120,"span":10,"encoder":"5432601732","distractor":"5432641732","target":"absent","response":"absent","rt":"2810.3999999762","correct":true,"confidence":1},{"trial_n":121,"span":10,"encoder":"0909434762","distractor":"0909439762","target":"absent","response":"absent","rt":"4739.5","correct":true,"confidence":3},{"trial_n":122,"span":11,"encoder":"88523850574","distractor":"88524850574","target":"present","response":"present","rt":"3072.8999999762","correct":true,"confidence":3},{"trial_n":123,"span":11,"encoder":"81821229797","distractor":"81821229717","target":"present","response":"present","rt":"3186.5","correct":true,"confidence":3},{"trial_n":124,"span":12,"encoder":"682898649037","distractor":"682398649037","target":"present","response":"absent","rt":"1512.5999999642","correct":false,"confidence":1},{"trial_n":125,"span":11,"encoder":"38891532632","distractor":"38897532632","target":"present","response":"absent","rt":"4937.7999999523","correct":false,"confidence":1},{"trial_n":126,"span":10,"encoder":"2664829229","distractor":"2664329229","target":"absent","response":"absent","rt":"3829.7999999523","correct":true,"confidence":3},{"trial_n":127,"span":10,"encoder":"0689450557","distractor":"0689451557","target":"absent","response":"absent","rt":"948.80000001192","correct":true,"confidence":2},{"trial_n":128,"span":11,"encoder":"40673065243","distractor":"40673065233","target":"absent","response":"absent","rt":"1943.8999999762","correct":true,"confidence":5},{"trial_n":129,"span":11,"encoder":"49472852955","distractor":"40472852955","target":"present","response":"present","rt":"5332.2000000477","correct":true,"confidence":3},{"trial_n":130,"span":12,"encoder":"466013439751","distractor":"366013439751","target":"present","response":"absent","rt":"2225.6000000238","correct":false,"confidence":2},{"trial_n":131,"span":11,"encoder":"99689900224","distractor":"99389900224","target":"absent","response":"absent","rt":"4531.6000000238","correct":true,"confidence":4},{"trial_n":132,"span":11,"encoder":"20357748466","distractor":"20357348466","target":"present","response":"present","rt":"5364.1999999881","correct":true,"confidence":3},{"trial_n":133,"span":12,"encoder":"261388208501","distractor":"261388278501","target":"present","response":"present","rt":"5042.1000000238","correct":true,"confidence":3},{"trial_n":134,"span":12,"encoder":"270746542498","distractor":"270246542498","target":"present","response":"absent","rt":"2020.5999999642","correct":false,"confidence":3},{"trial_n":135,"span":11,"encoder":"28123032211","distractor":"28123032271","target":"present","response":"present","rt":"2524.6000000238","correct":true,"confidence":4},{"trial_n":136,"span":11,"encoder":"80189944115","distractor":"80189943115","target":"absent","response":"present","rt":"3690.5999999642","correct":false,"confidence":3},{"trial_n":137,"span":10,"encoder":"4793426466","distractor":"5793426466","target":"absent","response":"absent","rt":"1957.2000000477","correct":true,"confidence":3},{"trial_n":138,"span":10,"encoder":"7488152313","distractor":"7488154313","target":"absent","response":"present","rt":"2669.1000000238","correct":false,"confidence":3},{"trial_n":139,"span":9,"encoder":"793464667","distractor":"793564667","target":"present","response":"absent","rt":"1968.7999999523","correct":false,"confidence":3},{"trial_n":140,"span":8,"encoder":"39411751","distractor":"59411751","target":"present","response":"present","rt":"3192","correct":true,"confidence":4}]