[{"trial_n":1,"min":25,"max":230,"target":"present","response":"absent","rt":6122.1000000238,"correct":false,"confidence":-1},{"trial_n":2,"min":25,"max":230,"target":"present","response":"present","rt":1552.0999999642,"correct":true,"confidence":-1},{"trial_n":3,"min":25,"max":230,"target":"absent","response":"absent","rt":833,"correct":true,"confidence":-1},{"trial_n":4,"min":41,"max":214,"target":"absent","response":"absent","rt":760.69999998808,"correct":true,"confidence":-1},{"trial_n":5,"min":41,"max":214,"target":"present","response":"present","rt":236.70000004768,"correct":true,"confidence":-1},{"trial_n":6,"min":57,"max":198,"target":"absent","response":"absent","rt":322.5,"correct":true,"confidence":-1},{"trial_n":7,"min":57,"max":198,"target":"absent","response":"absent","rt":303.90000003576,"correct":true,"confidence":-1},{"trial_n":8,"min":73,"max":182,"target":"absent","response":"absent","rt":286.30000001192,"correct":true,"confidence":-1},{"trial_n":9,"min":73,"max":182,"target":"present","response":"present","rt":104.5,"correct":true,"confidence":-1},{"trial_n":10,"min":89,"max":166,"target":"present","response":"absent","rt":267.19999998808,"correct":false,"confidence":-1},{"trial_n":11,"min":81,"max":174,"target":"present","response":"absent","rt":211.5,"correct":false,"confidence":-1},{"trial_n":12,"min":73,"max":182,"target":"present","response":"absent","rt":157.29999995232,"correct":false,"confidence":-1},{"trial_n":13,"min":65,"max":190,"target":"present","response":"absent","rt":252.79999995232,"correct":false,"confidence":-1},{"trial_n":14,"min":57,"max":198,"target":"absent","response":"absent","rt":247.69999998808,"correct":true,"confidence":-1},{"trial_n":15,"min":57,"max":198,"target":"present","response":"present","rt":43.400000035763,"correct":true,"confidence":-1},{"trial_n":16,"min":65,"max":190,"target":"absent","response":"absent","rt":288.80000001192,"correct":true,"confidence":-1},{"trial_n":17,"min":65,"max":190,"target":"present","response":"present","rt":96.100000023842,"correct":true,"confidence":-1},{"trial_n":18,"min":73,"max":182,"target":"absent","response":"absent","rt":190.5,"correct":true,"confidence":-1},{"trial_n":19,"min":73,"max":182,"target":"absent","response":"absent","rt":383.69999998808,"correct":true,"confidence":-1},{"trial_n":20,"min":81,"max":174,"target":"present","response":"present","rt":135.19999998808,"correct":true,"confidence":-1},{"trial_n":21,"min":81,"max":174,"target":"present","response":"absent","rt":1311,"correct":false,"confidence":3},{"trial_n":22,"min":77,"max":178,"target":"absent","response":"absent","rt":1249.6000000238,"correct":true,"confidence":4},{"trial_n":23,"min":77,"max":178,"target":"absent","response":"absent","rt":794,"correct":true,"confidence":3},{"trial_n":24,"min":81,"max":174,"target":"absent","response":"absent","rt":714.29999995232,"correct":true,"confidence":3},{"trial_n":25,"min":81,"max":174,"target":"absent","response":"absent","rt":710.10000002384,"correct":true,"confidence":4},{"trial_n":26,"min":85,"max":170,"target":"absent","response":"absent","rt":871.09999996424,"correct":true,"confidence":2},{"trial_n":27,"min":85,"max":170,"target":"present","response":"present","rt":1172.8999999762,"correct":true,"confidence":4},{"trial_n":28,"min":89,"max":166,"target":"present","response":"absent","rt":687,"correct":false,"confidence":3},{"trial_n":29,"min":85,"max":170,"target":"present","response":"absent","rt":1765.3999999762,"correct":false,"confidence":3},{"trial_n":30,"min":81,"max":174,"target":"present","response":"present","rt":2155.1000000238,"correct":true,"confidence":2},{"trial_n":31,"min":81,"max":174,"target":"absent","response":"absent","rt":889.09999996424,"correct":true,"confidence":3},{"trial_n":32,"min":83,"max":172,"target":"absent","response":"absent","rt":519.29999995232,"correct":true,"confidence":3},{"trial_n":33,"min":83,"max":172,"target":"absent","response":"absent","rt":11444.800000012,"correct":true,"confidence":3},{"trial_n":34,"min":85,"max":170,"target":"present","response":"present","rt":675.40000003576,"correct":true,"confidence":4},{"trial_n":35,"min":85,"max":170,"target":"absent","response":"absent","rt":810.5,"correct":true,"confidence":3},{"trial_n":36,"min":87,"max":168,"target":"absent","response":"absent","rt":856.30000001192,"correct":true,"confidence":3},{"trial_n":37,"min":87,"max":168,"target":"present","response":"present","rt":1410.8999999762,"correct":true,"confidence":2},{"trial_n":38,"min":89,"max":166,"target":"present","response":"absent","rt":711.89999997616,"correct":false,"confidence":3},{"trial_n":39,"min":87,"max":168,"target":"absent","response":"absent","rt":708.60000002384,"correct":true,"confidence":2},{"trial_n":40,"min":87,"max":168,"target":"present","response":"present","rt":748.40000003576,"correct":true,"confidence":4},{"trial_n":41,"min":88,"max":167,"target":"present","response":"present","rt":1264.1999999881,"correct":true,"confidence":1},{"trial_n":42,"min":88,"max":167,"target":"present","response":"present","rt":593.40000003576,"correct":true,"confidence":3},{"trial_n":43,"min":89,"max":166,"target":"absent","response":"present","rt":688.30000001192,"correct":false,"confidence":3},{"trial_n":44,"min":88,"max":167,"target":"present","response":"present","rt":529.29999995232,"correct":true,"confidence":4},{"trial_n":45,"min":88,"max":167,"target":"present","response":"absent","rt":504.19999998808,"correct":false,"confidence":5},{"trial_n":46,"min":87,"max":168,"target":"absent","response":"present","rt":713.19999998808,"correct":false,"confidence":3},{"trial_n":47,"min":86,"max":169,"target":"absent","response":"present","rt":679.80000001192,"correct":false,"confidence":3},{"trial_n":48,"min":85,"max":170,"target":"absent","response":"present","rt":602.80000001192,"correct":false,"confidence":2},{"trial_n":49,"min":84,"max":171,"target":"present","response":"present","rt":294.90000003576,"correct":true,"confidence":5},{"trial_n":50,"min":84,"max":171,"target":"present","response":"present","rt":618.20000004768,"correct":true,"confidence":3},{"trial_n":51,"min":85,"max":170,"target":"present","response":"present","rt":648.5,"correct":true,"confidence":3},{"trial_n":52,"min":85,"max":170,"target":"present","response":"present","rt":154.10000002384,"correct":true,"confidence":3},{"trial_n":53,"min":86,"max":169,"target":"absent","response":"present","rt":466.40000003576,"correct":false,"confidence":3},{"trial_n":54,"min":85,"max":170,"target":"present","response":"present","rt":486.40000003576,"correct":true,"confidence":3},{"trial_n":55,"min":85,"max":170,"target":"present","response":"present","rt":198.59999996424,"correct":true,"confidence":3},{"trial_n":56,"min":86,"max":169,"target":"present","response":"absent","rt":869,"correct":false,"confidence":4},{"trial_n":57,"min":85,"max":170,"target":"present","response":"present","rt":589.19999998808,"correct":true,"confidence":2},{"trial_n":58,"min":85,"max":170,"target":"present","response":"present","rt":219.19999998808,"correct":true,"confidence":3},{"trial_n":59,"min":86,"max":169,"target":"absent","response":"present","rt":657.5,"correct":false,"confidence":2},{"trial_n":60,"min":85,"max":170,"target":"absent","response":"present","rt":965.70000004768,"correct":false,"confidence":3},{"trial_n":61,"min":84,"max":171,"target":"absent","response":"present","rt":1502.5,"correct":false,"confidence":2},{"trial_n":62,"min":83,"max":172,"target":"present","response":"absent","rt":308.90000003576,"correct":false,"confidence":2},{"trial_n":63,"min":82,"max":173,"target":"absent","response":"absent","rt":337.70000004768,"correct":true,"confidence":3},{"trial_n":64,"min":82,"max":173,"target":"absent","response":"absent","rt":493.70000004768,"correct":true,"confidence":3},{"trial_n":65,"min":83,"max":172,"target":"present","response":"present","rt":413.80000001192,"correct":true,"confidence":5},{"trial_n":66,"min":83,"max":172,"target":"absent","response":"absent","rt":1206,"correct":true,"confidence":2},{"trial_n":67,"min":84,"max":171,"target":"absent","response":"present","rt":485.30000001192,"correct":false,"confidence":3},{"trial_n":68,"min":83,"max":172,"target":"absent","response":"absent","rt":1330.1000000238,"correct":true,"confidence":3},{"trial_n":69,"min":83,"max":172,"target":"absent","response":"present","rt":604.10000002384,"correct":false,"confidence":3},{"trial_n":70,"min":82,"max":173,"target":"present","response":"present","rt":286.19999998808,"correct":true,"confidence":4},{"trial_n":71,"min":41,"max":214,"target":"present","response":"present","rt":2726.5,"correct":true,"confidence":-1},{"trial_n":72,"min":41,"max":214,"target":"present","response":"present","rt":320.5,"correct":true,"confidence":-1},{"trial_n":73,"min":57,"max":198,"target":"absent","response":"present","rt":1216,"correct":false,"confidence":-1},{"trial_n":74,"min":41,"max":214,"target":"absent","response":"absent","rt":852.39999997616,"correct":true,"confidence":-1},{"trial_n":75,"min":41,"max":214,"target":"present","response":"present","rt":561,"correct":true,"confidence":-1},{"trial_n":76,"min":57,"max":198,"target":"present","response":"present","rt":337.79999995232,"correct":true,"confidence":-1},{"trial_n":77,"min":57,"max":198,"target":"present","response":"present","rt":311.5,"correct":true,"confidence":-1},{"trial_n":78,"min":73,"max":182,"target":"present","response":"present","rt":197.30000001192,"correct":true,"confidence":-1},{"trial_n":79,"min":73,"max":182,"target":"absent","response":"absent","rt":852.19999998808,"correct":true,"confidence":-1},{"trial_n":80,"min":89,"max":166,"target":"present","response":"present","rt":584.39999997616,"correct":true,"confidence":-1},{"trial_n":81,"min":89,"max":166,"target":"absent","response":"present","rt":571.10000002384,"correct":false,"confidence":-1},{"trial_n":82,"min":81,"max":174,"target":"absent","response":"absent","rt":971.60000002384,"correct":true,"confidence":-1},{"trial_n":83,"min":81,"max":174,"target":"present","response":"present","rt":567.69999998808,"correct":true,"confidence":-1},{"trial_n":84,"min":89,"max":166,"target":"absent","response":"absent","rt":1453.3000000119,"correct":true,"confidence":-1},{"trial_n":85,"min":89,"max":166,"target":"absent","response":"present","rt":769.5,"correct":false,"confidence":-1},{"trial_n":86,"min":81,"max":174,"target":"absent","response":"absent","rt":677.60000002384,"correct":true,"confidence":-1},{"trial_n":87,"min":81,"max":174,"target":"present","response":"absent","rt":487.79999995232,"correct":false,"confidence":-1},{"trial_n":88,"min":73,"max":182,"target":"absent","response":"present","rt":399.89999997616,"correct":false,"confidence":-1},{"trial_n":89,"min":65,"max":190,"target":"present","response":"present","rt":341.80000001192,"correct":true,"confidence":-1},{"trial_n":90,"min":65,"max":190,"target":"absent","response":"present","rt":441.20000004768,"correct":false,"confidence":-1},{"trial_n":91,"min":61,"max":194,"target":"present","response":"present","rt":453.09999996424,"correct":true,"confidence":4},{"trial_n":92,"min":61,"max":194,"target":"present","response":"present","rt":168.80000001192,"correct":true,"confidence":5},{"trial_n":93,"min":65,"max":190,"target":"absent","response":"absent","rt":662.29999995232,"correct":true,"confidence":5},{"trial_n":94,"min":65,"max":190,"target":"present","response":"present","rt":311,"correct":true,"confidence":5},{"trial_n":95,"min":69,"max":186,"target":"present","response":"present","rt":340.09999996424,"correct":true,"confidence":5},{"trial_n":96,"min":69,"max":186,"target":"absent","response":"absent","rt":431.60000002384,"correct":true,"confidence":4},{"trial_n":97,"min":73,"max":182,"target":"present","response":"present","rt":261.39999997616,"correct":true,"confidence":4},{"trial_n":98,"min":73,"max":182,"target":"absent","response":"present","rt":753.69999998808,"correct":false,"confidence":3},{"trial_n":99,"min":69,"max":186,"target":"absent","response":"absent","rt":1015.5,"correct":true,"confidence":2},{"trial_n":100,"min":69,"max":186,"target":"present","response":"present","rt":338.20000004768,"correct":true,"confidence":3},{"trial_n":101,"min":71,"max":184,"target":"absent","response":"absent","rt":648.30000001192,"correct":true,"confidence":3},{"trial_n":102,"min":71,"max":184,"target":"absent","response":"present","rt":250.90000003576,"correct":false,"confidence":1},{"trial_n":103,"min":69,"max":186,"target":"absent","response":"absent","rt":334.39999997616,"correct":true,"confidence":3},{"trial_n":104,"min":69,"max":186,"target":"absent","response":"absent","rt":468.60000002384,"correct":true,"confidence":5},{"trial_n":105,"min":71,"max":184,"target":"absent","response":"absent","rt":293.80000001192,"correct":true,"confidence":4},{"trial_n":106,"min":71,"max":184,"target":"present","response":"present","rt":400.5,"correct":true,"confidence":4},{"trial_n":107,"min":73,"max":182,"target":"present","response":"present","rt":233.10000002384,"correct":true,"confidence":4},{"trial_n":108,"min":73,"max":182,"target":"present","response":"present","rt":321.40000003576,"correct":true,"confidence":3},{"trial_n":109,"min":75,"max":180,"target":"present","response":"present","rt":161.70000004768,"correct":true,"confidence":5},{"trial_n":110,"min":75,"max":180,"target":"absent","response":"absent","rt":554.80000001192,"correct":true,"confidence":4},{"trial_n":111,"min":76,"max":179,"target":"absent","response":"absent","rt":993.59999996424,"correct":true,"confidence":4},{"trial_n":112,"min":76,"max":179,"target":"present","response":"present","rt":846.89999997616,"correct":true,"confidence":5},{"trial_n":113,"min":77,"max":178,"target":"present","response":"present","rt":831.39999997616,"correct":true,"confidence":3},{"trial_n":114,"min":77,"max":178,"target":"absent","response":"absent","rt":438.39999997616,"correct":true,"confidence":4},{"trial_n":115,"min":78,"max":177,"target":"absent","response":"present","rt":671.60000002384,"correct":false,"confidence":4},{"trial_n":116,"min":77,"max":178,"target":"absent","response":"absent","rt":661.80000001192,"correct":true,"confidence":2},{"trial_n":117,"min":77,"max":178,"target":"present","response":"present","rt":804.5,"correct":true,"confidence":1},{"trial_n":118,"min":78,"max":177,"target":"absent","response":"absent","rt":570.19999998808,"correct":true,"confidence":1},{"trial_n":119,"min":78,"max":177,"target":"present","response":"present","rt":723.69999998808,"correct":true,"confidence":3},{"trial_n":120,"min":79,"max":176,"target":"present","response":"present","rt":562.30000001192,"correct":true,"confidence":3},{"trial_n":121,"min":79,"max":176,"target":"absent","response":"absent","rt":559,"correct":true,"confidence":2},{"trial_n":122,"min":80,"max":175,"target":"absent","response":"absent","rt":481.89999997616,"correct":true,"confidence":3},{"trial_n":123,"min":80,"max":175,"target":"present","response":"present","rt":197.10000002384,"correct":true,"confidence":4},{"trial_n":124,"min":81,"max":174,"target":"absent","response":"absent","rt":795.69999998808,"correct":true,"confidence":2},{"trial_n":125,"min":81,"max":174,"target":"present","response":"present","rt":76.199999988079,"correct":true,"confidence":3},{"trial_n":126,"min":82,"max":173,"target":"absent","response":"absent","rt":1106.4000000358,"correct":true,"confidence":1},{"trial_n":127,"min":82,"max":173,"target":"present","response":"present","rt":346.59999996424,"correct":true,"confidence":4},{"trial_n":128,"min":83,"max":172,"target":"present","response":"present","rt":496.80000001192,"correct":true,"confidence":3},{"trial_n":129,"min":83,"max":172,"target":"absent","response":"absent","rt":878.80000001192,"correct":true,"confidence":2},{"trial_n":130,"min":84,"max":171,"target":"present","response":"present","rt":362.19999998808,"correct":true,"confidence":3},{"trial_n":131,"min":84,"max":171,"target":"present","response":"present","rt":342,"correct":true,"confidence":4},{"trial_n":132,"min":85,"max":170,"target":"present","response":"present","rt":1255,"correct":true,"confidence":2},{"trial_n":133,"min":85,"max":170,"target":"present","response":"present","rt":370.39999997616,"correct":true,"confidence":3},{"trial_n":134,"min":86,"max":169,"target":"absent","response":"present","rt":1222.6000000238,"correct":false,"confidence":1},{"trial_n":135,"min":85,"max":170,"target":"present","response":"present","rt":828.90000003576,"correct":true,"confidence":2},{"trial_n":136,"min":85,"max":170,"target":"present","response":"present","rt":566.20000004768,"correct":true,"confidence":4},{"trial_n":137,"min":86,"max":169,"target":"absent","response":"present","rt":798.89999997616,"correct":false,"confidence":3},{"trial_n":138,"min":85,"max":170,"target":"absent","response":"present","rt":1878.5999999642,"correct":false,"confidence":1},{"trial_n":139,"min":84,"max":171,"target":"present","response":"present","rt":756.90000003576,"correct":true,"confidence":2},{"trial_n":140,"min":84,"max":171,"target":"absent","response":"present","rt":1294,"correct":false,"confidence":1}]