[{"trial_n":1,"n_dots":4.25,"target":"right","response":"left","rt":4608.6999999881,"correct":false,"confidence":-1},{"trial_n":2,"n_dots":4.25,"target":"right","response":"right","rt":1129.5,"correct":true,"confidence":-1},{"trial_n":3,"n_dots":4.25,"target":"left","response":"left","rt":813.89999997616,"correct":true,"confidence":-1},{"trial_n":4,"n_dots":3.85,"target":"left","response":"left","rt":269.89999997616,"correct":true,"confidence":-1},{"trial_n":5,"n_dots":3.85,"target":"right","response":"right","rt":104.29999995232,"correct":true,"confidence":-1},{"trial_n":6,"n_dots":3.45,"target":"left","response":"right","rt":471.59999996424,"correct":false,"confidence":-1},{"trial_n":7,"n_dots":3.85,"target":"left","response":"left","rt":1016.6999999881,"correct":true,"confidence":-1},{"trial_n":8,"n_dots":3.85,"target":"left","response":"left","rt":1401.1000000238,"correct":true,"confidence":-1},{"trial_n":9,"n_dots":3.65,"target":"right","response":"right","rt":288.5,"correct":true,"confidence":-1},{"trial_n":10,"n_dots":3.65,"target":"right","response":"right","rt":158.40000003576,"correct":true,"confidence":-1},{"trial_n":11,"n_dots":3.45,"target":"right","response":"right","rt":308.59999996424,"correct":true,"confidence":-1},{"trial_n":12,"n_dots":3.45,"target":"left","response":"left","rt":873.59999996424,"correct":true,"confidence":-1},{"trial_n":13,"n_dots":3.35,"target":"right","response":"right","rt":495.39999997616,"correct":true,"confidence":-1},{"trial_n":14,"n_dots":3.35,"target":"right","response":"right","rt":279.30000001192,"correct":true,"confidence":-1},{"trial_n":15,"n_dots":3.25,"target":"left","response":"left","rt":277.30000001192,"correct":true,"confidence":-1},{"trial_n":16,"n_dots":3.25,"target":"right","response":"left","rt":301.59999996424,"correct":false,"confidence":-1},{"trial_n":17,"n_dots":3.35,"target":"left","response":"left","rt":214.90000003576,"correct":true,"confidence":-1},{"trial_n":18,"n_dots":3.35,"target":"left","response":"left","rt":241.30000001192,"correct":true,"confidence":-1},{"trial_n":19,"n_dots":3.25,"target":"right","response":"right","rt":260.69999998808,"correct":true,"confidence":-1},{"trial_n":20,"n_dots":3.25,"target":"left","response":"left","rt":310.70000004768,"correct":true,"confidence":-1},{"trial_n":21,"n_dots":3.15,"target":"left","response":"right","rt":1046,"correct":false,"confidence":1},{"trial_n":22,"n_dots":3.25,"target":"left","response":"left","rt":524.5,"correct":true,"confidence":3},{"trial_n":23,"n_dots":3.25,"target":"right","response":"right","rt":603.29999995232,"correct":true,"confidence":3},{"trial_n":24,"n_dots":3.15,"target":"right","response":"right","rt":322.89999997616,"correct":true,"confidence":2},{"trial_n":25,"n_dots":3.15,"target":"right","response":"right","rt":638.90000003576,"correct":true,"confidence":1},{"trial_n":26,"n_dots":3.05,"target":"left","response":"right","rt":301.30000001192,"correct":false,"confidence":4},{"trial_n":27,"n_dots":3.15,"target":"left","response":"left","rt":261.5,"correct":true,"confidence":3},{"trial_n":28,"n_dots":3.15,"target":"left","response":"right","rt":2241.2999999523,"correct":false,"confidence":3},{"trial_n":29,"n_dots":3.25,"target":"left","response":"left","rt":263.5,"correct":true,"confidence":2},{"trial_n":30,"n_dots":3.25,"target":"right","response":"right","rt":1112.3999999762,"correct":true,"confidence":3},{"trial_n":31,"n_dots":3.15,"target":"right","response":"right","rt":405.89999997616,"correct":true,"confidence":3},{"trial_n":32,"n_dots":3.15,"target":"right","response":"left","rt":75.5,"correct":false,"confidence":2},{"trial_n":33,"n_dots":3.25,"target":"left","response":"left","rt":258.89999997616,"correct":true,"confidence":3},{"trial_n":34,"n_dots":3.25,"target":"right","response":"right","rt":439.5,"correct":true,"confidence":2},{"trial_n":35,"n_dots":3.15,"target":"right","response":"right","rt":541.5,"correct":true,"confidence":3},{"trial_n":36,"n_dots":3.15,"target":"right","response":"right","rt":463.10000002384,"correct":true,"confidence":2},{"trial_n":37,"n_dots":3.05,"target":"right","response":"right","rt":950.69999998808,"correct":true,"confidence":3},{"trial_n":38,"n_dots":3.05,"target":"left","response":"left","rt":477.09999996424,"correct":true,"confidence":2},{"trial_n":39,"n_dots":2.95,"target":"right","response":"right","rt":104,"correct":true,"confidence":3},{"trial_n":40,"n_dots":2.95,"target":"left","response":"left","rt":86.300000011921,"correct":true,"confidence":4},{"trial_n":41,"n_dots":2.85,"target":"left","response":"right","rt":625.30000001192,"correct":false,"confidence":3},{"trial_n":42,"n_dots":2.95,"target":"left","response":"left","rt":555.80000001192,"correct":true,"confidence":3},{"trial_n":43,"n_dots":2.95,"target":"right","response":"right","rt":428.30000001192,"correct":true,"confidence":3},{"trial_n":44,"n_dots":2.85,"target":"left","response":"left","rt":114.59999996424,"correct":true,"confidence":3},{"trial_n":45,"n_dots":2.85,"target":"left","response":"left","rt":123.59999996424,"correct":true,"confidence":4},{"trial_n":46,"n_dots":2.75,"target":"left","response":"right","rt":16.300000011921,"correct":false,"confidence":3},{"trial_n":47,"n_dots":2.85,"target":"right","response":"left","rt":536.39999997616,"correct":false,"confidence":3},{"trial_n":48,"n_dots":2.95,"target":"right","response":"right","rt":230.30000001192,"correct":true,"confidence":1},{"trial_n":49,"n_dots":2.95,"target":"left","response":"left","rt":419.59999996424,"correct":true,"confidence":1},{"trial_n":50,"n_dots":2.85,"target":"left","response":"left","rt":210.40000003576,"correct":true,"confidence":2},{"trial_n":51,"n_dots":2.85,"target":"left","response":"left","rt":186.80000001192,"correct":true,"confidence":3},{"trial_n":52,"n_dots":2.75,"target":"right","response":"left","rt":42.5,"correct":false,"confidence":3},{"trial_n":53,"n_dots":2.85,"target":"left","response":"left","rt":266.39999997616,"correct":true,"confidence":4},{"trial_n":54,"n_dots":2.85,"target":"left","response":"left","rt":11.199999988079,"correct":true,"confidence":3},{"trial_n":55,"n_dots":2.75,"target":"right","response":"left","rt":150.40000003576,"correct":false,"confidence":3},{"trial_n":56,"n_dots":2.85,"target":"right","response":"right","rt":403.80000001192,"correct":true,"confidence":2},{"trial_n":57,"n_dots":2.85,"target":"right","response":"left","rt":583.19999998808,"correct":false,"confidence":3},{"trial_n":58,"n_dots":2.95,"target":"left","response":"left","rt":305.59999996424,"correct":true,"confidence":2},{"trial_n":59,"n_dots":2.95,"target":"left","response":"left","rt":490.90000003576,"correct":true,"confidence":3},{"trial_n":60,"n_dots":2.85,"target":"right","response":"right","rt":427,"correct":true,"confidence":3},{"trial_n":61,"n_dots":2.85,"target":"right","response":"left","rt":304,"correct":false,"confidence":3},{"trial_n":62,"n_dots":2.95,"target":"right","response":"right","rt":325,"correct":true,"confidence":2},{"trial_n":63,"n_dots":2.95,"target":"right","response":"right","rt":259.10000002384,"correct":true,"confidence":2},{"trial_n":64,"n_dots":2.85,"target":"right","response":"left","rt":90.300000011921,"correct":false,"confidence":3},{"trial_n":65,"n_dots":2.95,"target":"right","response":"left","rt":227.59999996424,"correct":false,"confidence":4},{"trial_n":66,"n_dots":3.05,"target":"right","response":"left","rt":617.89999997616,"correct":false,"confidence":4},{"trial_n":67,"n_dots":3.15,"target":"left","response":"left","rt":105.70000004768,"correct":true,"confidence":3},{"trial_n":68,"n_dots":3.15,"target":"left","response":"left","rt":259,"correct":true,"confidence":3},{"trial_n":69,"n_dots":3.05,"target":"right","response":"left","rt":341.10000002384,"correct":false,"confidence":2},{"trial_n":70,"n_dots":3.15,"target":"left","response":"right","rt":730.70000004768,"correct":false,"confidence":2},{"trial_n":71,"n_dots":3.25,"target":"right","response":"right","rt":271.60000002384,"correct":true,"confidence":3},{"trial_n":72,"n_dots":3.25,"target":"left","response":"left","rt":139.19999998808,"correct":true,"confidence":2},{"trial_n":73,"n_dots":3.15,"target":"left","response":"left","rt":117.60000002384,"correct":true,"confidence":2},{"trial_n":74,"n_dots":3.15,"target":"left","response":"left","rt":351.69999998808,"correct":true,"confidence":2},{"trial_n":75,"n_dots":3.05,"target":"right","response":"right","rt":806,"correct":true,"confidence":3},{"trial_n":76,"n_dots":3.05,"target":"left","response":"right","rt":483.30000001192,"correct":false,"confidence":2},{"trial_n":77,"n_dots":3.15,"target":"left","response":"left","rt":569.19999998808,"correct":true,"confidence":3},{"trial_n":78,"n_dots":3.15,"target":"right","response":"right","rt":835.60000002384,"correct":true,"confidence":2},{"trial_n":79,"n_dots":3.05,"target":"left","response":"left","rt":241.60000002384,"correct":true,"confidence":2},{"trial_n":80,"n_dots":3.05,"target":"left","response":"right","rt":381.69999998808,"correct":false,"confidence":2},{"trial_n":81,"n_dots":3.15,"target":"right","response":"right","rt":478,"correct":true,"confidence":2},{"trial_n":82,"n_dots":3.15,"target":"right","response":"right","rt":83.099999964237,"correct":true,"confidence":2},{"trial_n":83,"n_dots":3.05,"target":"right","response":"right","rt":890.5,"correct":true,"confidence":2},{"trial_n":84,"n_dots":3.05,"target":"right","response":"right","rt":531.20000004768,"correct":true,"confidence":3},{"trial_n":85,"n_dots":2.95,"target":"left","response":"left","rt":236.20000004768,"correct":true,"confidence":3},{"trial_n":86,"n_dots":2.95,"target":"left","response":"left","rt":226.89999997616,"correct":true,"confidence":3},{"trial_n":87,"n_dots":2.85,"target":"left","response":"left","rt":964.5,"correct":true,"confidence":2},{"trial_n":88,"n_dots":2.85,"target":"right","response":"right","rt":674.60000002384,"correct":true,"confidence":1},{"trial_n":89,"n_dots":2.75,"target":"right","response":"right","rt":1126.0999999642,"correct":true,"confidence":1},{"trial_n":90,"n_dots":2.75,"target":"left","response":"left","rt":393.10000002384,"correct":true,"confidence":2},{"trial_n":91,"n_dots":2.65,"target":"left","response":"left","rt":126.90000003576,"correct":true,"confidence":3},{"trial_n":92,"n_dots":2.65,"target":"left","response":"right","rt":291,"correct":false,"confidence":3},{"trial_n":93,"n_dots":2.75,"target":"left","response":"right","rt":374.39999997616,"correct":false,"confidence":2},{"trial_n":94,"n_dots":2.85,"target":"left","response":"right","rt":354.60000002384,"correct":false,"confidence":3},{"trial_n":95,"n_dots":2.95,"target":"right","response":"right","rt":82.899999976158,"correct":true,"confidence":3},{"trial_n":96,"n_dots":2.95,"target":"right","response":"right","rt":385.89999997616,"correct":true,"confidence":3},{"trial_n":97,"n_dots":2.85,"target":"right","response":"right","rt":297.69999998808,"correct":true,"confidence":3},{"trial_n":98,"n_dots":2.85,"target":"right","response":"right","rt":258.89999997616,"correct":true,"confidence":2},{"trial_n":99,"n_dots":2.75,"target":"left","response":"left","rt":532.5,"correct":true,"confidence":3},{"trial_n":100,"n_dots":2.75,"target":"left","response":"left","rt":322.69999998808,"correct":true,"confidence":2},{"trial_n":101,"n_dots":2.65,"target":"right","response":"right","rt":65.899999976158,"correct":true,"confidence":3},{"trial_n":102,"n_dots":2.65,"target":"right","response":"right","rt":750.20000004768,"correct":true,"confidence":4},{"trial_n":103,"n_dots":2.55,"target":"left","response":"left","rt":261,"correct":true,"confidence":5},{"trial_n":104,"n_dots":2.55,"target":"right","response":"right","rt":844.70000004768,"correct":true,"confidence":1},{"trial_n":105,"n_dots":2.45,"target":"left","response":"right","rt":681.39999997616,"correct":false,"confidence":4},{"trial_n":106,"n_dots":2.55,"target":"left","response":"left","rt":456.60000002384,"correct":true,"confidence":3},{"trial_n":107,"n_dots":2.55,"target":"right","response":"right","rt":357.89999997616,"correct":true,"confidence":3},{"trial_n":108,"n_dots":2.45,"target":"left","response":"left","rt":267.29999995232,"correct":true,"confidence":3},{"trial_n":109,"n_dots":2.45,"target":"left","response":"left","rt":332.30000001192,"correct":true,"confidence":3},{"trial_n":110,"n_dots":2.35,"target":"right","response":"right","rt":213.60000002384,"correct":true,"confidence":3},{"trial_n":111,"n_dots":2.35,"target":"left","response":"left","rt":720.30000001192,"correct":true,"confidence":3},{"trial_n":112,"n_dots":2.25,"target":"right","response":"right","rt":219.19999998808,"correct":true,"confidence":3},{"trial_n":113,"n_dots":2.25,"target":"left","response":"left","rt":505.90000003576,"correct":true,"confidence":5},{"trial_n":114,"n_dots":2.15,"target":"right","response":"right","rt":494.80000001192,"correct":true,"confidence":4},{"trial_n":115,"n_dots":2.15,"target":"right","response":"left","rt":331.19999998808,"correct":false,"confidence":3},{"trial_n":116,"n_dots":2.25,"target":"left","response":"left","rt":422.5,"correct":true,"confidence":4},{"trial_n":117,"n_dots":2.25,"target":"right","response":"left","rt":1178.0999999642,"correct":false,"confidence":4},{"trial_n":118,"n_dots":2.35,"target":"right","response":"left","rt":374.40000003576,"correct":false,"confidence":2},{"trial_n":119,"n_dots":2.45,"target":"right","response":"right","rt":410.10000002384,"correct":true,"confidence":3},{"trial_n":120,"n_dots":2.45,"target":"left","response":"left","rt":342.5,"correct":true,"confidence":3}]