[{"trial_n":1,"n_dots":4.25,"target":"right","response":"right","rt":5579.1999999881,"correct":true,"confidence":-1},{"trial_n":2,"n_dots":4.25,"target":"right","response":"right","rt":678.09999999404,"correct":true,"confidence":-1},{"trial_n":3,"n_dots":3.85,"target":"left","response":"left","rt":433.30000001192,"correct":true,"confidence":-1},{"trial_n":4,"n_dots":3.85,"target":"right","response":"right","rt":1396.099999994,"correct":true,"confidence":-1},{"trial_n":5,"n_dots":3.45,"target":"right","response":"right","rt":734.5,"correct":true,"confidence":-1},{"trial_n":6,"n_dots":3.45,"target":"left","response":"left","rt":197.09999999404,"correct":true,"confidence":-1},{"trial_n":7,"n_dots":3.05,"target":"left","response":"left","rt":369.20000001788,"correct":true,"confidence":-1},{"trial_n":8,"n_dots":3.05,"target":"left","response":"left","rt":843.79999998212,"correct":true,"confidence":-1},{"trial_n":9,"n_dots":2.85,"target":"left","response":"left","rt":530.40000000596,"correct":true,"confidence":-1},{"trial_n":10,"n_dots":2.85,"target":"left","response":"left","rt":577.5,"correct":true,"confidence":-1},{"trial_n":11,"n_dots":2.65,"target":"left","response":"left","rt":306.30000001192,"correct":true,"confidence":-1},{"trial_n":12,"n_dots":2.65,"target":"right","response":"right","rt":1091.8000000119,"correct":true,"confidence":-1},{"trial_n":13,"n_dots":2.55,"target":"left","response":"left","rt":424.40000000596,"correct":true,"confidence":-1},{"trial_n":14,"n_dots":2.55,"target":"right","response":"right","rt":747.29999998212,"correct":true,"confidence":-1},{"trial_n":15,"n_dots":2.45,"target":"left","response":"left","rt":264.40000000596,"correct":true,"confidence":-1},{"trial_n":16,"n_dots":2.45,"target":"left","response":"left","rt":474.30000001192,"correct":true,"confidence":-1},{"trial_n":17,"n_dots":2.35,"target":"right","response":"left","rt":250.90000000596,"correct":false,"confidence":-1},{"trial_n":18,"n_dots":2.45,"target":"left","response":"left","rt":279.40000000596,"correct":true,"confidence":-1},{"trial_n":19,"n_dots":2.45,"target":"left","response":"left","rt":317.39999997616,"correct":true,"confidence":-1},{"trial_n":20,"n_dots":2.35,"target":"left","response":"left","rt":377.79999998212,"correct":true,"confidence":-1},{"trial_n":21,"n_dots":2.35,"target":"left","response":"left","rt":316.69999998808,"correct":true,"confidence":5},{"trial_n":22,"n_dots":2.25,"target":"left","response":"left","rt":374.39999997616,"correct":true,"confidence":4},{"trial_n":23,"n_dots":2.25,"target":"right","response":"left","rt":344.69999998808,"correct":false,"confidence":4},{"trial_n":24,"n_dots":2.35,"target":"left","response":"left","rt":443,"correct":true,"confidence":4},{"trial_n":25,"n_dots":2.35,"target":"left","response":"right","rt":1225.900000006,"correct":false,"confidence":2},{"trial_n":26,"n_dots":2.45,"target":"right","response":"right","rt":889.69999998808,"correct":true,"confidence":3},{"trial_n":27,"n_dots":2.45,"target":"right","response":"left","rt":517.40000000596,"correct":false,"confidence":3},{"trial_n":28,"n_dots":2.55,"target":"right","response":"left","rt":619.40000000596,"correct":false,"confidence":3},{"trial_n":29,"n_dots":2.65,"target":"left","response":"left","rt":1281.599999994,"correct":true,"confidence":3},{"trial_n":30,"n_dots":2.65,"target":"right","response":"left","rt":1299.3000000119,"correct":false,"confidence":3},{"trial_n":31,"n_dots":2.75,"target":"right","response":"left","rt":582.09999999404,"correct":false,"confidence":3},{"trial_n":32,"n_dots":2.85,"target":"right","response":"right","rt":373,"correct":true,"confidence":3},{"trial_n":33,"n_dots":2.85,"target":"left","response":"left","rt":226.70000001788,"correct":true,"confidence":3},{"trial_n":34,"n_dots":2.75,"target":"left","response":"left","rt":2601.599999994,"correct":true,"confidence":2},{"trial_n":35,"n_dots":2.75,"target":"right","response":"right","rt":266.09999999404,"correct":true,"confidence":4},{"trial_n":36,"n_dots":2.65,"target":"right","response":"right","rt":354.5,"correct":true,"confidence":4},{"trial_n":37,"n_dots":2.65,"target":"left","response":"left","rt":328.79999998212,"correct":true,"confidence":4},{"trial_n":38,"n_dots":2.55,"target":"left","response":"right","rt":426.80000001192,"correct":false,"confidence":4},{"trial_n":39,"n_dots":2.65,"target":"left","response":"left","rt":349.40000000596,"correct":true,"confidence":3},{"trial_n":40,"n_dots":2.65,"target":"right","response":"right","rt":357.30000001192,"correct":true,"confidence":3},{"trial_n":41,"n_dots":2.55,"target":"left","response":"left","rt":291.59999999404,"correct":true,"confidence":3},{"trial_n":42,"n_dots":2.55,"target":"left","response":"left","rt":837.40000000596,"correct":true,"confidence":2},{"trial_n":43,"n_dots":2.45,"target":"left","response":"right","rt":335.70000001788,"correct":false,"confidence":3},{"trial_n":44,"n_dots":2.55,"target":"left","response":"right","rt":285.59999999404,"correct":false,"confidence":3},{"trial_n":45,"n_dots":2.65,"target":"left","response":"right","rt":661.40000000596,"correct":false,"confidence":2},{"trial_n":46,"n_dots":2.75,"target":"right","response":"left","rt":386.20000001788,"correct":false,"confidence":2},{"trial_n":47,"n_dots":2.85,"target":"right","response":"right","rt":282.40000000596,"correct":true,"confidence":3},{"trial_n":48,"n_dots":2.85,"target":"right","response":"right","rt":476.90000000596,"correct":true,"confidence":3},{"trial_n":49,"n_dots":2.75,"target":"right","response":"right","rt":655.40000000596,"correct":true,"confidence":3},{"trial_n":50,"n_dots":2.75,"target":"left","response":"left","rt":336.29999998212,"correct":true,"confidence":3},{"trial_n":51,"n_dots":2.65,"target":"left","response":"left","rt":1612.599999994,"correct":true,"confidence":2},{"trial_n":52,"n_dots":2.65,"target":"right","response":"right","rt":343.19999998808,"correct":true,"confidence":3},{"trial_n":53,"n_dots":2.55,"target":"right","response":"right","rt":784.80000001192,"correct":true,"confidence":3},{"trial_n":54,"n_dots":2.55,"target":"right","response":"right","rt":649.69999998808,"correct":true,"confidence":2},{"trial_n":55,"n_dots":2.45,"target":"left","response":"left","rt":354.09999999404,"correct":true,"confidence":4},{"trial_n":56,"n_dots":2.45,"target":"right","response":"left","rt":301.90000000596,"correct":false,"confidence":4},{"trial_n":57,"n_dots":2.55,"target":"left","response":"left","rt":401.79999998212,"correct":true,"confidence":3},{"trial_n":58,"n_dots":2.55,"target":"right","response":"right","rt":644.5,"correct":true,"confidence":3},{"trial_n":59,"n_dots":2.45,"target":"right","response":"right","rt":790.69999998808,"correct":true,"confidence":2},{"trial_n":60,"n_dots":2.45,"target":"right","response":"left","rt":439.90000000596,"correct":false,"confidence":4},{"trial_n":61,"n_dots":2.55,"target":"left","response":"left","rt":693.40000000596,"correct":true,"confidence":2},{"trial_n":62,"n_dots":2.55,"target":"right","response":"left","rt":796.40000000596,"correct":false,"confidence":3},{"trial_n":63,"n_dots":2.65,"target":"right","response":"right","rt":378.90000000596,"correct":true,"confidence":2},{"trial_n":64,"n_dots":2.65,"target":"left","response":"left","rt":317.90000000596,"correct":true,"confidence":3},{"trial_n":65,"n_dots":2.55,"target":"left","response":"right","rt":1642.5,"correct":false,"confidence":2},{"trial_n":66,"n_dots":2.65,"target":"left","response":"right","rt":529.79999998212,"correct":false,"confidence":3},{"trial_n":67,"n_dots":2.75,"target":"right","response":"left","rt":281.40000000596,"correct":false,"confidence":4},{"trial_n":68,"n_dots":2.85,"target":"left","response":"left","rt":901.10000002384,"correct":true,"confidence":3},{"trial_n":69,"n_dots":2.85,"target":"right","response":"left","rt":797.20000001788,"correct":false,"confidence":3},{"trial_n":70,"n_dots":2.95,"target":"right","response":"right","rt":251.79999998212,"correct":true,"confidence":3},{"trial_n":71,"n_dots":2.95,"target":"left","response":"left","rt":540.69999998808,"correct":true,"confidence":3},{"trial_n":72,"n_dots":2.85,"target":"left","response":"right","rt":579.29999998212,"correct":false,"confidence":2},{"trial_n":73,"n_dots":2.95,"target":"right","response":"right","rt":298.69999998808,"correct":true,"confidence":4},{"trial_n":74,"n_dots":2.95,"target":"left","response":"left","rt":329.79999998212,"correct":true,"confidence":4},{"trial_n":75,"n_dots":2.85,"target":"right","response":"left","rt":2169.5,"correct":false,"confidence":2},{"trial_n":76,"n_dots":2.95,"target":"left","response":"right","rt":912.29999998212,"correct":false,"confidence":2},{"trial_n":77,"n_dots":3.05,"target":"left","response":"left","rt":362.30000001192,"correct":true,"confidence":4},{"trial_n":78,"n_dots":3.05,"target":"left","response":"left","rt":71.800000011921,"correct":true,"confidence":4},{"trial_n":79,"n_dots":2.95,"target":"right","response":"left","rt":642.09999999404,"correct":false,"confidence":3},{"trial_n":80,"n_dots":3.05,"target":"right","response":"right","rt":359.30000001192,"correct":true,"confidence":3},{"trial_n":81,"n_dots":3.05,"target":"left","response":"left","rt":309,"correct":true,"confidence":3},{"trial_n":82,"n_dots":2.95,"target":"right","response":"right","rt":75.09999999404,"correct":true,"confidence":4},{"trial_n":83,"n_dots":2.95,"target":"left","response":"left","rt":367.30000001192,"correct":true,"confidence":4},{"trial_n":84,"n_dots":2.85,"target":"right","response":"right","rt":515.20000001788,"correct":true,"confidence":3},{"trial_n":85,"n_dots":2.85,"target":"left","response":"left","rt":575.40000000596,"correct":true,"confidence":4},{"trial_n":86,"n_dots":2.75,"target":"left","response":"left","rt":1774.8000000119,"correct":true,"confidence":3},{"trial_n":87,"n_dots":2.75,"target":"left","response":"left","rt":1984.599999994,"correct":true,"confidence":2},{"trial_n":88,"n_dots":2.65,"target":"left","response":"left","rt":316.09999999404,"correct":true,"confidence":4},{"trial_n":89,"n_dots":2.65,"target":"right","response":"right","rt":548.09999999404,"correct":true,"confidence":2},{"trial_n":90,"n_dots":2.55,"target":"right","response":"right","rt":713.69999998808,"correct":true,"confidence":3},{"trial_n":91,"n_dots":2.55,"target":"right","response":"right","rt":155.40000000596,"correct":true,"confidence":4},{"trial_n":92,"n_dots":2.45,"target":"left","response":"left","rt":609.79999998212,"correct":true,"confidence":3},{"trial_n":93,"n_dots":2.45,"target":"right","response":"right","rt":585.40000000596,"correct":true,"confidence":2},{"trial_n":94,"n_dots":2.35,"target":"left","response":"right","rt":107.09999999404,"correct":false,"confidence":4},{"trial_n":95,"n_dots":2.45,"target":"right","response":"right","rt":569.90000000596,"correct":true,"confidence":3},{"trial_n":96,"n_dots":2.45,"target":"left","response":"left","rt":666.29999998212,"correct":true,"confidence":4},{"trial_n":97,"n_dots":2.35,"target":"left","response":"right","rt":400.90000000596,"correct":false,"confidence":3},{"trial_n":98,"n_dots":2.45,"target":"right","response":"left","rt":1039.5,"correct":false,"confidence":2},{"trial_n":99,"n_dots":2.55,"target":"right","response":"left","rt":830.19999998808,"correct":false,"confidence":3},{"trial_n":100,"n_dots":2.65,"target":"right","response":"right","rt":640.09999999404,"correct":true,"confidence":3},{"trial_n":101,"n_dots":2.65,"target":"left","response":"left","rt":36.799999982119,"correct":true,"confidence":2},{"trial_n":102,"n_dots":2.55,"target":"left","response":"right","rt":1506.900000006,"correct":false,"confidence":3},{"trial_n":103,"n_dots":2.65,"target":"right","response":"right","rt":615.79999998212,"correct":true,"confidence":3},{"trial_n":104,"n_dots":2.65,"target":"left","response":"left","rt":321.5,"correct":true,"confidence":3},{"trial_n":105,"n_dots":2.55,"target":"left","response":"right","rt":680.69999998808,"correct":false,"confidence":3},{"trial_n":106,"n_dots":2.65,"target":"right","response":"right","rt":483,"correct":true,"confidence":3},{"trial_n":107,"n_dots":2.65,"target":"right","response":"right","rt":776.79999998212,"correct":true,"confidence":2},{"trial_n":108,"n_dots":2.55,"target":"right","response":"left","rt":279.69999998808,"correct":false,"confidence":3},{"trial_n":109,"n_dots":2.65,"target":"right","response":"left","rt":867.89999997616,"correct":false,"confidence":2},{"trial_n":110,"n_dots":2.75,"target":"left","response":"left","rt":435.90000000596,"correct":true,"confidence":2},{"trial_n":111,"n_dots":2.75,"target":"right","response":"left","rt":2031.2000000179,"correct":false,"confidence":3},{"trial_n":112,"n_dots":2.85,"target":"right","response":"left","rt":1299.5,"correct":false,"confidence":3},{"trial_n":113,"n_dots":2.95,"target":"left","response":"left","rt":2542.3000000119,"correct":true,"confidence":2},{"trial_n":114,"n_dots":2.95,"target":"left","response":"right","rt":251.40000000596,"correct":false,"confidence":3},{"trial_n":115,"n_dots":3.05,"target":"right","response":"left","rt":389.30000001192,"correct":false,"confidence":3},{"trial_n":116,"n_dots":3.15,"target":"right","response":"right","rt":353.20000001788,"correct":true,"confidence":3},{"trial_n":117,"n_dots":3.15,"target":"right","response":"left","rt":3204,"correct":false,"confidence":2},{"trial_n":118,"n_dots":3.25,"target":"right","response":"right","rt":428.79999998212,"correct":true,"confidence":3},{"trial_n":119,"n_dots":3.25,"target":"right","response":"left","rt":609,"correct":false,"confidence":3},{"trial_n":120,"n_dots":3.35,"target":"right","response":"left","rt":360.5,"correct":false,"confidence":4}]