[{"trial_n":1,"min":25,"max":230,"target":"present","response":"present","rt":6548.900000006,"correct":true,"confidence":-1},{"trial_n":2,"min":25,"max":230,"target":"present","response":"present","rt":2229.599999994,"correct":true,"confidence":-1},{"trial_n":3,"min":41,"max":214,"target":"absent","response":"absent","rt":923.5,"correct":true,"confidence":-1},{"trial_n":4,"min":41,"max":214,"target":"absent","response":"absent","rt":755.80000001192,"correct":true,"confidence":-1},{"trial_n":5,"min":57,"max":198,"target":"present","response":"present","rt":731.20000001788,"correct":true,"confidence":-1},{"trial_n":6,"min":57,"max":198,"target":"present","response":"present","rt":576.40000000596,"correct":true,"confidence":-1},{"trial_n":7,"min":73,"max":182,"target":"present","response":"present","rt":681.40000000596,"correct":true,"confidence":-1},{"trial_n":8,"min":73,"max":182,"target":"present","response":"present","rt":573.80000001192,"correct":true,"confidence":-1},{"trial_n":9,"min":89,"max":166,"target":"absent","response":"absent","rt":968.59999999404,"correct":true,"confidence":-1},{"trial_n":10,"min":89,"max":166,"target":"absent","response":"absent","rt":786.30000001192,"correct":true,"confidence":-1},{"trial_n":11,"min":97,"max":158,"target":"absent","response":"absent","rt":884.80000001192,"correct":true,"confidence":-1},{"trial_n":12,"min":97,"max":158,"target":"absent","response":"absent","rt":653.19999998808,"correct":true,"confidence":-1},{"trial_n":13,"min":105,"max":150,"target":"present","response":"absent","rt":767.70000001788,"correct":false,"confidence":-1},{"trial_n":14,"min":97,"max":158,"target":"absent","response":"absent","rt":1100.8000000119,"correct":true,"confidence":-1},{"trial_n":15,"min":97,"max":158,"target":"present","response":"present","rt":896,"correct":true,"confidence":-1},{"trial_n":16,"min":105,"max":150,"target":"present","response":"present","rt":787.69999998808,"correct":true,"confidence":-1},{"trial_n":17,"min":105,"max":150,"target":"absent","response":"present","rt":728.29999998212,"correct":false,"confidence":-1},{"trial_n":18,"min":97,"max":158,"target":"present","response":"present","rt":836,"correct":true,"confidence":-1},{"trial_n":19,"min":97,"max":158,"target":"absent","response":"absent","rt":973.80000001192,"correct":true,"confidence":-1},{"trial_n":20,"min":105,"max":150,"target":"present","response":"absent","rt":1077.5,"correct":false,"confidence":-1},{"trial_n":21,"min":101,"max":154,"target":"absent","response":"present","rt":974.40000000596,"correct":false,"confidence":3},{"trial_n":22,"min":97,"max":158,"target":"absent","response":"absent","rt":965.09999999404,"correct":true,"confidence":4},{"trial_n":23,"min":97,"max":158,"target":"present","response":"present","rt":1105.2000000179,"correct":true,"confidence":4},{"trial_n":24,"min":101,"max":154,"target":"present","response":"absent","rt":834.30000001192,"correct":false,"confidence":3},{"trial_n":25,"min":97,"max":158,"target":"present","response":"present","rt":1340.6999999881,"correct":true,"confidence":2},{"trial_n":26,"min":97,"max":158,"target":"present","response":"absent","rt":891.29999998212,"correct":false,"confidence":4},{"trial_n":27,"min":93,"max":162,"target":"absent","response":"present","rt":766.70000001788,"correct":false,"confidence":4},{"trial_n":28,"min":89,"max":166,"target":"absent","response":"absent","rt":1333.099999994,"correct":true,"confidence":2},{"trial_n":29,"min":89,"max":166,"target":"present","response":"present","rt":789.40000000596,"correct":true,"confidence":4},{"trial_n":30,"min":93,"max":162,"target":"absent","response":"absent","rt":1739.099999994,"correct":true,"confidence":2},{"trial_n":31,"min":93,"max":162,"target":"present","response":"absent","rt":1079.2000000179,"correct":false,"confidence":2},{"trial_n":32,"min":91,"max":164,"target":"absent","response":"absent","rt":2057.400000006,"correct":true,"confidence":2},{"trial_n":33,"min":91,"max":164,"target":"absent","response":"absent","rt":1036.3999999762,"correct":true,"confidence":4},{"trial_n":34,"min":93,"max":162,"target":"present","response":"present","rt":730.10000002384,"correct":true,"confidence":5},{"trial_n":35,"min":93,"max":162,"target":"present","response":"present","rt":2612.1999999881,"correct":true,"confidence":2},{"trial_n":36,"min":95,"max":160,"target":"absent","response":"present","rt":1682.599999994,"correct":false,"confidence":3},{"trial_n":37,"min":93,"max":162,"target":"present","response":"absent","rt":1269.3000000119,"correct":false,"confidence":3},{"trial_n":38,"min":91,"max":164,"target":"absent","response":"absent","rt":1031.599999994,"correct":true,"confidence":3},{"trial_n":39,"min":91,"max":164,"target":"present","response":"absent","rt":3559.599999994,"correct":false,"confidence":2},{"trial_n":40,"min":89,"max":166,"target":"present","response":"present","rt":828.40000000596,"correct":true,"confidence":4},{"trial_n":41,"min":89,"max":166,"target":"present","response":"absent","rt":1285.8000000119,"correct":false,"confidence":2},{"trial_n":42,"min":88,"max":167,"target":"absent","response":"absent","rt":1161.099999994,"correct":true,"confidence":3},{"trial_n":43,"min":88,"max":167,"target":"absent","response":"absent","rt":1002.1999999881,"correct":true,"confidence":4},{"trial_n":44,"min":89,"max":166,"target":"absent","response":"absent","rt":1035.2000000179,"correct":true,"confidence":3},{"trial_n":45,"min":89,"max":166,"target":"present","response":"present","rt":901,"correct":true,"confidence":4},{"trial_n":46,"min":90,"max":165,"target":"absent","response":"absent","rt":908.20000001788,"correct":true,"confidence":5},{"trial_n":47,"min":90,"max":165,"target":"present","response":"absent","rt":970.59999999404,"correct":false,"confidence":4},{"trial_n":48,"min":89,"max":166,"target":"present","response":"absent","rt":763.80000001192,"correct":false,"confidence":4},{"trial_n":49,"min":88,"max":167,"target":"present","response":"present","rt":1648.7999999821,"correct":true,"confidence":3},{"trial_n":50,"min":88,"max":167,"target":"present","response":"absent","rt":894.5,"correct":false,"confidence":5},{"trial_n":51,"min":87,"max":168,"target":"present","response":"absent","rt":802.90000000596,"correct":false,"confidence":4},{"trial_n":52,"min":86,"max":169,"target":"absent","response":"absent","rt":717.19999998808,"correct":true,"confidence":5},{"trial_n":53,"min":86,"max":169,"target":"present","response":"present","rt":725.69999998808,"correct":true,"confidence":3},{"trial_n":54,"min":87,"max":168,"target":"absent","response":"absent","rt":1194.1000000238,"correct":true,"confidence":4},{"trial_n":55,"min":87,"max":168,"target":"absent","response":"absent","rt":1427.099999994,"correct":true,"confidence":4},{"trial_n":56,"min":88,"max":167,"target":"absent","response":"absent","rt":895.40000000596,"correct":true,"confidence":3},{"trial_n":57,"min":88,"max":167,"target":"present","response":"present","rt":1427.3999999762,"correct":true,"confidence":3},{"trial_n":58,"min":89,"max":166,"target":"absent","response":"absent","rt":1787.2999999821,"correct":true,"confidence":2},{"trial_n":59,"min":89,"max":166,"target":"absent","response":"absent","rt":3497.5,"correct":true,"confidence":2},{"trial_n":60,"min":90,"max":165,"target":"absent","response":"present","rt":830.30000001192,"correct":false,"confidence":3},{"trial_n":61,"min":89,"max":166,"target":"absent","response":"absent","rt":947.69999998808,"correct":true,"confidence":5},{"trial_n":62,"min":89,"max":166,"target":"absent","response":"present","rt":2110.3000000119,"correct":false,"confidence":3},{"trial_n":63,"min":88,"max":167,"target":"absent","response":"absent","rt":1305.2999999821,"correct":true,"confidence":3},{"trial_n":64,"min":88,"max":167,"target":"present","response":"absent","rt":923.19999998808,"correct":false,"confidence":4},{"trial_n":65,"min":87,"max":168,"target":"present","response":"present","rt":838.30000001192,"correct":true,"confidence":5},{"trial_n":66,"min":87,"max":168,"target":"absent","response":"absent","rt":965.09999999404,"correct":true,"confidence":3},{"trial_n":67,"min":88,"max":167,"target":"absent","response":"absent","rt":1086.900000006,"correct":true,"confidence":3},{"trial_n":68,"min":88,"max":167,"target":"present","response":"present","rt":806.40000000596,"correct":true,"confidence":4},{"trial_n":69,"min":89,"max":166,"target":"present","response":"present","rt":776.59999999404,"correct":true,"confidence":5},{"trial_n":70,"min":89,"max":166,"target":"present","response":"present","rt":1109.6999999881,"correct":true,"confidence":5},{"trial_n":71,"min":41,"max":214,"target":"present","response":"present","rt":1881.2000000179,"correct":true,"confidence":-1},{"trial_n":72,"min":41,"max":214,"target":"present","response":"present","rt":883.80000001192,"correct":true,"confidence":-1},{"trial_n":73,"min":57,"max":198,"target":"absent","response":"absent","rt":579.79999998212,"correct":true,"confidence":-1},{"trial_n":74,"min":57,"max":198,"target":"absent","response":"absent","rt":2181.8000000119,"correct":true,"confidence":-1},{"trial_n":75,"min":73,"max":182,"target":"present","response":"present","rt":505.30000001192,"correct":true,"confidence":-1},{"trial_n":76,"min":73,"max":182,"target":"absent","response":"absent","rt":829.80000001192,"correct":true,"confidence":-1},{"trial_n":77,"min":89,"max":166,"target":"absent","response":"present","rt":423.80000001192,"correct":false,"confidence":-1},{"trial_n":78,"min":73,"max":182,"target":"absent","response":"present","rt":1061.3000000119,"correct":false,"confidence":-1},{"trial_n":79,"min":57,"max":198,"target":"absent","response":"absent","rt":423.40000000596,"correct":true,"confidence":-1},{"trial_n":80,"min":57,"max":198,"target":"present","response":"present","rt":223.40000000596,"correct":true,"confidence":-1},{"trial_n":81,"min":65,"max":190,"target":"present","response":"present","rt":469.80000001192,"correct":true,"confidence":-1},{"trial_n":82,"min":65,"max":190,"target":"absent","response":"absent","rt":493.40000000596,"correct":true,"confidence":-1},{"trial_n":83,"min":73,"max":182,"target":"absent","response":"absent","rt":715.5,"correct":true,"confidence":-1},{"trial_n":84,"min":73,"max":182,"target":"present","response":"present","rt":210.79999998212,"correct":true,"confidence":-1},{"trial_n":85,"min":81,"max":174,"target":"present","response":"present","rt":181.69999998808,"correct":true,"confidence":-1},{"trial_n":86,"min":81,"max":174,"target":"present","response":"present","rt":358.59999999404,"correct":true,"confidence":-1},{"trial_n":87,"min":89,"max":166,"target":"absent","response":"absent","rt":767.10000002384,"correct":true,"confidence":-1},{"trial_n":88,"min":89,"max":166,"target":"absent","response":"absent","rt":600.30000001192,"correct":true,"confidence":-1},{"trial_n":89,"min":97,"max":158,"target":"absent","response":"present","rt":431.90000000596,"correct":false,"confidence":-1},{"trial_n":90,"min":89,"max":166,"target":"absent","response":"present","rt":605,"correct":false,"confidence":-1},{"trial_n":91,"min":85,"max":170,"target":"present","response":"present","rt":220.29999998212,"correct":true,"confidence":5},{"trial_n":92,"min":85,"max":170,"target":"present","response":"present","rt":623.59999999404,"correct":true,"confidence":4},{"trial_n":93,"min":89,"max":166,"target":"present","response":"present","rt":346.39999997616,"correct":true,"confidence":4},{"trial_n":94,"min":89,"max":166,"target":"present","response":"present","rt":993.59999999404,"correct":true,"confidence":3},{"trial_n":95,"min":93,"max":162,"target":"present","response":"present","rt":507.30000001192,"correct":true,"confidence":3},{"trial_n":96,"min":93,"max":162,"target":"present","response":"present","rt":1427.3999999762,"correct":true,"confidence":2},{"trial_n":97,"min":97,"max":158,"target":"absent","response":"present","rt":432,"correct":false,"confidence":2},{"trial_n":98,"min":93,"max":162,"target":"absent","response":"absent","rt":3016.7000000179,"correct":true,"confidence":1},{"trial_n":99,"min":93,"max":162,"target":"absent","response":"present","rt":458.89999997616,"correct":false,"confidence":3},{"trial_n":100,"min":89,"max":166,"target":"absent","response":"present","rt":236.89999997616,"correct":false,"confidence":4},{"trial_n":101,"min":87,"max":168,"target":"present","response":"present","rt":155.79999998212,"correct":true,"confidence":5},{"trial_n":102,"min":87,"max":168,"target":"absent","response":"present","rt":1646.7999999821,"correct":false,"confidence":2},{"trial_n":103,"min":85,"max":170,"target":"absent","response":"absent","rt":623.80000001192,"correct":true,"confidence":3},{"trial_n":104,"min":85,"max":170,"target":"present","response":"present","rt":123.69999998808,"correct":true,"confidence":5},{"trial_n":105,"min":87,"max":168,"target":"present","response":"present","rt":252.29999998212,"correct":true,"confidence":4},{"trial_n":106,"min":87,"max":168,"target":"absent","response":"present","rt":212.40000000596,"correct":false,"confidence":4},{"trial_n":107,"min":85,"max":170,"target":"absent","response":"absent","rt":1675,"correct":true,"confidence":1},{"trial_n":108,"min":85,"max":170,"target":"present","response":"present","rt":65.199999988079,"correct":true,"confidence":5},{"trial_n":109,"min":87,"max":168,"target":"absent","response":"absent","rt":1224.3000000119,"correct":true,"confidence":2},{"trial_n":110,"min":87,"max":168,"target":"present","response":"present","rt":436.90000000596,"correct":true,"confidence":4},{"trial_n":111,"min":88,"max":167,"target":"present","response":"present","rt":71.09999999404,"correct":true,"confidence":4},{"trial_n":112,"min":88,"max":167,"target":"present","response":"absent","rt":484,"correct":false,"confidence":3},{"trial_n":113,"min":87,"max":168,"target":"present","response":"present","rt":448.90000000596,"correct":true,"confidence":3},{"trial_n":114,"min":87,"max":168,"target":"absent","response":"present","rt":1492.5,"correct":false,"confidence":1},{"trial_n":115,"min":86,"max":169,"target":"present","response":"present","rt":1164.8999999762,"correct":true,"confidence":4},{"trial_n":116,"min":86,"max":169,"target":"present","response":"present","rt":645.5,"correct":true,"confidence":4},{"trial_n":117,"min":87,"max":168,"target":"absent","response":"absent","rt":487.40000000596,"correct":true,"confidence":3},{"trial_n":118,"min":87,"max":168,"target":"present","response":"present","rt":185.90000000596,"correct":true,"confidence":3},{"trial_n":119,"min":88,"max":167,"target":"present","response":"present","rt":362.79999998212,"correct":true,"confidence":3},{"trial_n":120,"min":88,"max":167,"target":"absent","response":"absent","rt":1095.400000006,"correct":true,"confidence":3},{"trial_n":121,"min":89,"max":166,"target":"present","response":"present","rt":360.30000001192,"correct":true,"confidence":4},{"trial_n":122,"min":89,"max":166,"target":"present","response":"present","rt":1107.6000000238,"correct":true,"confidence":2},{"trial_n":123,"min":90,"max":165,"target":"absent","response":"absent","rt":513.19999998808,"correct":true,"confidence":2},{"trial_n":124,"min":90,"max":165,"target":"absent","response":"absent","rt":583.79999998212,"correct":true,"confidence":3},{"trial_n":125,"min":91,"max":164,"target":"present","response":"present","rt":2205,"correct":true,"confidence":1},{"trial_n":126,"min":91,"max":164,"target":"present","response":"present","rt":474.5,"correct":true,"confidence":3},{"trial_n":127,"min":92,"max":163,"target":"absent","response":"absent","rt":328.20000001788,"correct":true,"confidence":2},{"trial_n":128,"min":92,"max":163,"target":"absent","response":"absent","rt":4216.3000000119,"correct":true,"confidence":1},{"trial_n":129,"min":93,"max":162,"target":"present","response":"present","rt":400.59999999404,"correct":true,"confidence":4},{"trial_n":130,"min":93,"max":162,"target":"present","response":"present","rt":941.40000000596,"correct":true,"confidence":1},{"trial_n":131,"min":94,"max":161,"target":"present","response":"present","rt":3740.8000000119,"correct":true,"confidence":2},{"trial_n":132,"min":94,"max":161,"target":"present","response":"present","rt":166.40000000596,"correct":true,"confidence":5},{"trial_n":133,"min":95,"max":160,"target":"absent","response":"present","rt":1972.099999994,"correct":false,"confidence":1},{"trial_n":134,"min":94,"max":161,"target":"absent","response":"absent","rt":1874.1000000238,"correct":true,"confidence":2},{"trial_n":135,"min":94,"max":161,"target":"absent","response":"present","rt":1105,"correct":false,"confidence":2},{"trial_n":136,"min":93,"max":162,"target":"present","response":"absent","rt":2981.599999994,"correct":false,"confidence":2},{"trial_n":137,"min":92,"max":163,"target":"present","response":"present","rt":937.5,"correct":true,"confidence":1},{"trial_n":138,"min":92,"max":163,"target":"absent","response":"absent","rt":2199.099999994,"correct":true,"confidence":1},{"trial_n":139,"min":93,"max":162,"target":"absent","response":"absent","rt":1105.7999999821,"correct":true,"confidence":2},{"trial_n":140,"min":93,"max":162,"target":"absent","response":"present","rt":1194.099999994,"correct":false,"confidence":1}]