[{"trial_n":1,"span":8,"encoder":"51098337","distractor":"51098037","target":"present","response":"present","rt":"5720.7000000179","correct":true,"confidence":-1},{"trial_n":2,"span":8,"encoder":"37640821","distractor":"37640827","target":"present","response":"present","rt":"2593.1000000238","correct":true,"confidence":-1},{"trial_n":3,"span":10,"encoder":"0151578300","distractor":"0151578700","target":"absent","response":"present","rt":"1414.2999999821","correct":false,"confidence":-1},{"trial_n":4,"span":8,"encoder":"32353882","distractor":"34353882","target":"absent","response":"present","rt":"2504.099999994","correct":false,"confidence":-1},{"trial_n":5,"span":6,"encoder":"882052","distractor":"886052","target":"present","response":"present","rt":"1845.7999999821","correct":true,"confidence":-1},{"trial_n":6,"span":6,"encoder":"736404","distractor":"736004","target":"present","response":"present","rt":"2054.3000000119","correct":true,"confidence":-1},{"trial_n":7,"span":8,"encoder":"30615712","distractor":"80615712","target":"present","response":"absent","rt":"1775.099999994","correct":false,"confidence":-1},{"trial_n":8,"span":6,"encoder":"076390","distractor":"076310","target":"absent","response":"absent","rt":"1959","correct":true,"confidence":-1},{"trial_n":9,"span":6,"encoder":"285750","distractor":"288750","target":"absent","response":"absent","rt":"1580.2999999821","correct":true,"confidence":-1},{"trial_n":10,"span":8,"encoder":"59014176","distractor":"89014176","target":"present","response":"absent","rt":"1231.599999994","correct":false,"confidence":-1},{"trial_n":11,"span":6,"encoder":"241369","distractor":"241362","target":"present","response":"present","rt":"1503.8000000119","correct":true,"confidence":-1},{"trial_n":12,"span":6,"encoder":"033132","distractor":"033142","target":"absent","response":"absent","rt":"1543.6999999881","correct":true,"confidence":-1},{"trial_n":13,"span":7,"encoder":"0827527","distractor":"0827577","target":"absent","response":"absent","rt":"2344.400000006","correct":true,"confidence":-1},{"trial_n":14,"span":7,"encoder":"7972247","distractor":"7972248","target":"absent","response":"absent","rt":"3218.3000000119","correct":true,"confidence":-1},{"trial_n":15,"span":8,"encoder":"10569134","distractor":"15569134","target":"present","response":"present","rt":"2351","correct":true,"confidence":-1},{"trial_n":16,"span":8,"encoder":"45942867","distractor":"45949867","target":"absent","response":"absent","rt":"2145.3000000119","correct":true,"confidence":-1},{"trial_n":17,"span":9,"encoder":"923636779","distractor":"923636777","target":"absent","response":"absent","rt":"2111.5","correct":true,"confidence":-1},{"trial_n":18,"span":9,"encoder":"795849416","distractor":"794849416","target":"absent","response":"absent","rt":"1630.400000006","correct":true,"confidence":-1},{"trial_n":19,"span":10,"encoder":"0313272299","distractor":"9313272299","target":"absent","response":"absent","rt":"987.39999997616","correct":true,"confidence":-1},{"trial_n":20,"span":10,"encoder":"0670039915","distractor":"0670039995","target":"present","response":"absent","rt":"1160.400000006","correct":false,"confidence":-1},{"trial_n":21,"span":9,"encoder":"961061606","distractor":"921061606","target":"absent","response":"absent","rt":"2719","correct":true,"confidence":3},{"trial_n":22,"span":9,"encoder":"710596102","distractor":"714596102","target":"absent","response":"absent","rt":"3825.400000006","correct":true,"confidence":4},{"trial_n":23,"span":10,"encoder":"4155714253","distractor":"4155717253","target":"absent","response":"present","rt":"4905.8000000119","correct":false,"confidence":2},{"trial_n":24,"span":9,"encoder":"173667217","distractor":"173662217","target":"absent","response":"absent","rt":"3915.099999994","correct":true,"confidence":4},{"trial_n":25,"span":9,"encoder":"537921622","distractor":"537921922","target":"present","response":"present","rt":"9648.8999999762","correct":true,"confidence":2},{"trial_n":26,"span":10,"encoder":"6465436126","distractor":"6465466126","target":"absent","response":"absent","rt":"4532.099999994","correct":true,"confidence":4},{"trial_n":27,"span":10,"encoder":"6538864988","distractor":"6538804988","target":"present","response":"present","rt":"3392.900000006","correct":true,"confidence":4},{"trial_n":28,"span":11,"encoder":"81594523961","distractor":"81594523661","target":"absent","response":"absent","rt":"3292.7999999821","correct":true,"confidence":3},{"trial_n":29,"span":11,"encoder":"97107306827","distractor":"97107906827","target":"absent","response":"present","rt":"5582.599999994","correct":false,"confidence":3},{"trial_n":30,"span":10,"encoder":"9257405458","distractor":"9057405458","target":"present","response":"absent","rt":"11775.599999994","correct":false,"confidence":2},{"trial_n":31,"span":9,"encoder":"630172112","distractor":"639172112","target":"absent","response":"absent","rt":"5614.8999999762","correct":true,"confidence":2},{"trial_n":32,"span":9,"encoder":"591744772","distractor":"591748772","target":"absent","response":"absent","rt":"3077.900000006","correct":true,"confidence":4},{"trial_n":33,"span":10,"encoder":"4569767211","distractor":"4569467211","target":"present","response":"absent","rt":"7371.900000006","correct":false,"confidence":3},{"trial_n":34,"span":9,"encoder":"208769869","distractor":"298769869","target":"absent","response":"present","rt":"3807.599999994","correct":false,"confidence":3},{"trial_n":35,"span":8,"encoder":"05542761","distractor":"05572761","target":"absent","response":"absent","rt":"2252.2000000179","correct":true,"confidence":5},{"trial_n":36,"span":8,"encoder":"00328130","distractor":"00328330","target":"present","response":"present","rt":"2509.6000000238","correct":true,"confidence":5},{"trial_n":37,"span":9,"encoder":"487469080","distractor":"487409080","target":"absent","response":"absent","rt":"3278","correct":true,"confidence":3},{"trial_n":38,"span":9,"encoder":"985105703","distractor":"985102703","target":"present","response":"present","rt":"2949.8000000119","correct":true,"confidence":4},{"trial_n":39,"span":10,"encoder":"4347233067","distractor":"4367233067","target":"present","response":"present","rt":"3095","correct":true,"confidence":3},{"trial_n":40,"span":10,"encoder":"5611198186","distractor":"5621198186","target":"present","response":"present","rt":"3721.2999999821","correct":true,"confidence":3},{"trial_n":41,"span":11,"encoder":"22910978495","distractor":"22910178495","target":"present","response":"present","rt":"6744.7000000179","correct":true,"confidence":3},{"trial_n":42,"span":11,"encoder":"73433128266","distractor":"73435128266","target":"present","response":"present","rt":"5076.7999999821","correct":true,"confidence":3},{"trial_n":43,"span":12,"encoder":"878662142246","distractor":"878662142248","target":"present","response":"present","rt":"15178.600000024","correct":true,"confidence":2},{"trial_n":44,"span":12,"encoder":"502663803498","distractor":"502663803798","target":"absent","response":"absent","rt":"7480.3000000119","correct":true,"confidence":4},{"trial_n":45,"span":13,"encoder":"4720381895773","distractor":"4720381855773","target":"present","response":"present","rt":"10408.899999976","correct":true,"confidence":2},{"trial_n":46,"span":13,"encoder":"5182250668603","distractor":"5182260668603","target":"present","response":"present","rt":"4852.7999999821","correct":true,"confidence":4},{"trial_n":47,"span":14,"encoder":"79752409886285","distractor":"79754409886285","target":"absent","response":"present","rt":"16215.300000012","correct":false,"confidence":2},{"trial_n":48,"span":13,"encoder":"2469887058752","distractor":"2469887058754","target":"absent","response":"present","rt":"3719.400000006","correct":false,"confidence":3},{"trial_n":49,"span":12,"encoder":"045033257196","distractor":"043033257196","target":"present","response":"absent","rt":"3833","correct":false,"confidence":3},{"trial_n":50,"span":11,"encoder":"43614867392","distractor":"43114867392","target":"present","response":"absent","rt":"3973.599999994","correct":false,"confidence":3},{"trial_n":51,"span":10,"encoder":"5905548534","distractor":"0905548534","target":"absent","response":"absent","rt":"1924.6999999881","correct":true,"confidence":4},{"trial_n":52,"span":10,"encoder":"7792579637","distractor":"7792579627","target":"present","response":"present","rt":"3211.1999999881","correct":true,"confidence":4},{"trial_n":53,"span":11,"encoder":"17546731034","distractor":"17546737034","target":"absent","response":"present","rt":"3453.900000006","correct":false,"confidence":3},{"trial_n":54,"span":10,"encoder":"2441618390","distractor":"2441612390","target":"present","response":"present","rt":"1928","correct":true,"confidence":3},{"trial_n":55,"span":10,"encoder":"5583039732","distractor":"5583939732","target":"absent","response":"absent","rt":"4207.599999994","correct":true,"confidence":2},{"trial_n":56,"span":11,"encoder":"07739197672","distractor":"07739167672","target":"present","response":"present","rt":"4412.3000000119","correct":true,"confidence":3},{"trial_n":57,"span":11,"encoder":"79084096850","distractor":"75084096850","target":"absent","response":"absent","rt":"2952.8000000119","correct":true,"confidence":2},{"trial_n":58,"span":12,"encoder":"121540349274","distractor":"121540344274","target":"present","response":"absent","rt":"3424.599999994","correct":false,"confidence":3},{"trial_n":59,"span":11,"encoder":"42608244817","distractor":"42608944817","target":"present","response":"present","rt":"3141.3000000119","correct":true,"confidence":4},{"trial_n":60,"span":11,"encoder":"50304853203","distractor":"50304813203","target":"present","response":"absent","rt":"3056.3999999762","correct":false,"confidence":4},{"trial_n":61,"span":10,"encoder":"5333256444","distractor":"5333856444","target":"present","response":"present","rt":"5665.599999994","correct":true,"confidence":4},{"trial_n":62,"span":10,"encoder":"4186421533","distractor":"4181421533","target":"absent","response":"present","rt":"2307.900000006","correct":false,"confidence":2},{"trial_n":63,"span":9,"encoder":"687761054","distractor":"682761054","target":"present","response":"present","rt":"2791.5","correct":true,"confidence":4},{"trial_n":64,"span":9,"encoder":"877102257","distractor":"677102257","target":"absent","response":"absent","rt":"2441","correct":true,"confidence":3},{"trial_n":65,"span":10,"encoder":"8796920587","distractor":"8796920537","target":"present","response":"present","rt":"5380","correct":true,"confidence":3},{"trial_n":66,"span":10,"encoder":"7491824162","distractor":"7491864162","target":"present","response":"present","rt":"3515.900000006","correct":true,"confidence":3},{"trial_n":67,"span":11,"encoder":"50984266955","distractor":"50384266955","target":"present","response":"present","rt":"3433.5","correct":true,"confidence":3},{"trial_n":68,"span":11,"encoder":"25081465747","distractor":"26081465747","target":"absent","response":"present","rt":"4282.599999994","correct":false,"confidence":3},{"trial_n":69,"span":10,"encoder":"9739097961","distractor":"9739097991","target":"present","response":"present","rt":"3724.599999994","correct":true,"confidence":4},{"trial_n":70,"span":10,"encoder":"6843141989","distractor":"1843141989","target":"absent","response":"absent","rt":"2528.8000000119","correct":true,"confidence":3},{"trial_n":71,"span":8,"encoder":"86406600","distractor":"80406600","target":"present","response":"present","rt":"1991.7999999821","correct":true,"confidence":-1},{"trial_n":72,"span":8,"encoder":"27711499","distractor":"27311499","target":"present","response":"present","rt":"3574.099999994","correct":true,"confidence":-1},{"trial_n":73,"span":9,"encoder":"264810392","distractor":"244810392","target":"absent","response":"absent","rt":"1779.3999999762","correct":true,"confidence":-1},{"trial_n":74,"span":9,"encoder":"386374604","distractor":"380374604","target":"absent","response":"present","rt":"2252.900000006","correct":false,"confidence":-1},{"trial_n":75,"span":8,"encoder":"80330002","distractor":"89330002","target":"present","response":"present","rt":"2248.900000006","correct":true,"confidence":-1},{"trial_n":76,"span":8,"encoder":"33708796","distractor":"33758796","target":"absent","response":"absent","rt":"2007.599999994","correct":true,"confidence":-1},{"trial_n":77,"span":9,"encoder":"329178159","distractor":"369178159","target":"present","response":"absent","rt":"2063","correct":false,"confidence":-1},{"trial_n":78,"span":8,"encoder":"79462143","distractor":"79464143","target":"present","response":"absent","rt":"821.59999999404","correct":false,"confidence":-1},{"trial_n":79,"span":7,"encoder":"9469999","distractor":"5469999","target":"absent","response":"absent","rt":"1783.400000006","correct":true,"confidence":-1},{"trial_n":80,"span":7,"encoder":"1660541","distractor":"1650541","target":"absent","response":"absent","rt":"2112","correct":true,"confidence":-1},{"trial_n":81,"span":8,"encoder":"87574728","distractor":"87574228","target":"absent","response":"absent","rt":"2410.900000006","correct":true,"confidence":-1},{"trial_n":82,"span":8,"encoder":"08272750","distractor":"08272710","target":"present","response":"present","rt":"4146.7999999821","correct":true,"confidence":-1},{"trial_n":83,"span":9,"encoder":"220864832","distractor":"220164832","target":"present","response":"present","rt":"2040.8000000119","correct":true,"confidence":-1},{"trial_n":84,"span":9,"encoder":"190901823","distractor":"190901822","target":"present","response":"present","rt":"4614.099999994","correct":true,"confidence":-1},{"trial_n":85,"span":10,"encoder":"5503066365","distractor":"5503061365","target":"present","response":"present","rt":"3336.900000006","correct":true,"confidence":-1},{"trial_n":86,"span":10,"encoder":"7251277721","distractor":"7251278721","target":"present","response":"present","rt":"3014.099999994","correct":true,"confidence":-1},{"trial_n":87,"span":11,"encoder":"45364388228","distractor":"45364388828","target":"absent","response":"absent","rt":"4985.2000000179","correct":true,"confidence":-1},{"trial_n":88,"span":11,"encoder":"97774761678","distractor":"97774781678","target":"absent","response":"absent","rt":"3096.900000006","correct":true,"confidence":-1},{"trial_n":89,"span":12,"encoder":"675853920395","distractor":"675853320395","target":"present","response":"present","rt":"3883","correct":true,"confidence":-1},{"trial_n":90,"span":12,"encoder":"291300756370","distractor":"291301756370","target":"present","response":"present","rt":"2578.5","correct":true,"confidence":-1},{"trial_n":91,"span":13,"encoder":"6422996521679","distractor":"6422996921679","target":"absent","response":"absent","rt":"3023.599999994","correct":true,"confidence":4},{"trial_n":92,"span":13,"encoder":"1283419035087","distractor":"1283419065087","target":"present","response":"present","rt":"6611.400000006","correct":true,"confidence":3},{"trial_n":93,"span":14,"encoder":"15899375058979","distractor":"15899377058979","target":"absent","response":"absent","rt":"4288.1000000238","correct":true,"confidence":4},{"trial_n":94,"span":14,"encoder":"55026020379307","distractor":"55026020379007","target":"present","response":"present","rt":"5245.3999999762","correct":true,"confidence":4},{"trial_n":95,"span":15,"encoder":"769801903810191","distractor":"769801903210191","target":"present","response":"present","rt":"5495.599999994","correct":true,"confidence":3},{"trial_n":96,"span":15,"encoder":"972870082096688","distractor":"972870082096698","target":"absent","response":"present","rt":"7203.900000006","correct":false,"confidence":3},{"trial_n":97,"span":14,"encoder":"89629214172303","distractor":"86629214172303","target":"absent","response":"absent","rt":"2543.3000000119","correct":true,"confidence":5},{"trial_n":98,"span":14,"encoder":"74117006378796","distractor":"74417006378796","target":"present","response":"present","rt":"2678.8999999762","correct":true,"confidence":5},{"trial_n":99,"span":15,"encoder":"909401840409114","distractor":"909401240409114","target":"absent","response":"absent","rt":"3627.5","correct":true,"confidence":4},{"trial_n":100,"span":15,"encoder":"989367622968143","distractor":"989367622968643","target":"absent","response":"absent","rt":"9876.2000000179","correct":true,"confidence":3},{"trial_n":101,"span":16,"encoder":"6108565782904752","distractor":"6108565732904752","target":"present","response":"present","rt":"3388.1999999881","correct":true,"confidence":3},{"trial_n":102,"span":16,"encoder":"5325442828303618","distractor":"5325442828308618","target":"absent","response":"absent","rt":"7799.8999999762","correct":true,"confidence":4},{"trial_n":103,"span":17,"encoder":"30894332792818384","distractor":"30894332792818386","target":"absent","response":"absent","rt":"8291.3000000119","correct":true,"confidence":3},{"trial_n":104,"span":17,"encoder":"51952486736217981","distractor":"51952486736217951","target":"present","response":"absent","rt":"5112.599999994","correct":false,"confidence":3},{"trial_n":105,"span":16,"encoder":"8233258523748076","distractor":"8233258527748076","target":"absent","response":"absent","rt":"10001.900000006","correct":true,"confidence":2},{"trial_n":106,"span":16,"encoder":"3053182734458414","distractor":"3055182734458414","target":"absent","response":"present","rt":"1708","correct":false,"confidence":4},{"trial_n":107,"span":15,"encoder":"300324129189942","distractor":"300324129129942","target":"absent","response":"present","rt":"9699","correct":false,"confidence":3},{"trial_n":108,"span":14,"encoder":"40008998965917","distractor":"40008998365917","target":"present","response":"present","rt":"5407.7000000179","correct":true,"confidence":4},{"trial_n":109,"span":14,"encoder":"95332207392197","distractor":"95332207392897","target":"absent","response":"present","rt":"10499.5","correct":false,"confidence":2},{"trial_n":110,"span":13,"encoder":"7481135390061","distractor":"7481135393061","target":"absent","response":"absent","rt":"2526.900000006","correct":true,"confidence":5},{"trial_n":111,"span":13,"encoder":"2460615873285","distractor":"2460615893285","target":"present","response":"present","rt":"4493.8000000119","correct":true,"confidence":4},{"trial_n":112,"span":14,"encoder":"94427176239160","distractor":"94427176239165","target":"absent","response":"present","rt":"5705.8000000119","correct":false,"confidence":3},{"trial_n":113,"span":13,"encoder":"0274816532488","distractor":"0274816132488","target":"present","response":"present","rt":"4747.6999999881","correct":true,"confidence":3},{"trial_n":114,"span":13,"encoder":"5011169259946","distractor":"5011149259946","target":"absent","response":"absent","rt":"3379.6999999881","correct":true,"confidence":4},{"trial_n":115,"span":14,"encoder":"00224009815828","distractor":"90224009815828","target":"present","response":"present","rt":"1799.6999999881","correct":true,"confidence":5},{"trial_n":116,"span":14,"encoder":"61439262092063","distractor":"60439262092063","target":"present","response":"absent","rt":"2971.599999994","correct":false,"confidence":3},{"trial_n":117,"span":13,"encoder":"4517601317032","distractor":"4517901317032","target":"absent","response":"absent","rt":"2952.599999994","correct":true,"confidence":2},{"trial_n":118,"span":13,"encoder":"8835908681661","distractor":"8835909681661","target":"present","response":"present","rt":"3384.6999999881","correct":true,"confidence":4},{"trial_n":119,"span":14,"encoder":"95685655156606","distractor":"97685655156606","target":"present","response":"present","rt":"3509.6000000238","correct":true,"confidence":4},{"trial_n":120,"span":14,"encoder":"96430617460855","distractor":"96430617420855","target":"absent","response":"absent","rt":"7892.5","correct":true,"confidence":4},{"trial_n":121,"span":15,"encoder":"548542161937671","distractor":"548542169937671","target":"absent","response":"absent","rt":"5230.6999999881","correct":true,"confidence":3},{"trial_n":122,"span":15,"encoder":"608778106394110","distractor":"698778106394110","target":"present","response":"present","rt":"3421.400000006","correct":true,"confidence":3},{"trial_n":123,"span":16,"encoder":"6226221566254241","distractor":"6226221566254201","target":"absent","response":"present","rt":"14822.300000012","correct":false,"confidence":3},{"trial_n":124,"span":15,"encoder":"369035973929290","distractor":"369735973929290","target":"present","response":"present","rt":"2145.7000000179","correct":true,"confidence":5},{"trial_n":125,"span":15,"encoder":"385314605075033","distractor":"365314605075033","target":"present","response":"absent","rt":"1763.3999999762","correct":false,"confidence":5},{"trial_n":126,"span":14,"encoder":"34557404245272","distractor":"34557004245272","target":"absent","response":"absent","rt":"3587.2000000179","correct":true,"confidence":4},{"trial_n":127,"span":14,"encoder":"84130738721791","distractor":"84130737721791","target":"absent","response":"absent","rt":"4426.099999994","correct":true,"confidence":3},{"trial_n":128,"span":15,"encoder":"744595842005206","distractor":"744595842001206","target":"absent","response":"absent","rt":"6369.8999999762","correct":true,"confidence":3},{"trial_n":129,"span":15,"encoder":"758368164316717","distractor":"258368164316717","target":"absent","response":"present","rt":"2904","correct":false,"confidence":5},{"trial_n":130,"span":14,"encoder":"43106059326003","distractor":"43106055326003","target":"absent","response":"present","rt":"5877","correct":false,"confidence":3},{"trial_n":131,"span":13,"encoder":"0125855982956","distractor":"0125855882956","target":"present","response":"present","rt":"3527","correct":true,"confidence":5},{"trial_n":132,"span":13,"encoder":"2690144920997","distractor":"2390144920997","target":"absent","response":"present","rt":"3236.900000006","correct":false,"confidence":3},{"trial_n":133,"span":12,"encoder":"449074863948","distractor":"449074863908","target":"present","response":"absent","rt":"4629.400000006","correct":false,"confidence":3},{"trial_n":134,"span":11,"encoder":"67845168690","distractor":"67849168690","target":"absent","response":"present","rt":"2879","correct":false,"confidence":4},{"trial_n":135,"span":10,"encoder":"6938017331","distractor":"6938017381","target":"present","response":"present","rt":"5727.900000006","correct":true,"confidence":3},{"trial_n":136,"span":10,"encoder":"2494689908","distractor":"2494689708","target":"present","response":"present","rt":"4856.599999994","correct":true,"confidence":4},{"trial_n":137,"span":11,"encoder":"39649398898","distractor":"37649398898","target":"present","response":"present","rt":"2890.2000000179","correct":true,"confidence":4},{"trial_n":138,"span":11,"encoder":"80712139393","distractor":"80712139396","target":"present","response":"present","rt":"4717.900000006","correct":true,"confidence":4},{"trial_n":139,"span":12,"encoder":"516207680632","distractor":"516507680632","target":"present","response":"present","rt":"2695.099999994","correct":true,"confidence":3},{"trial_n":140,"span":12,"encoder":"772340532998","distractor":"772340522998","target":"present","response":"present","rt":"6075.5","correct":true,"confidence":3}]