[{"trial_n":1,"n_dots":4.25,"target":"right","response":"left","rt":4473.8000000119,"correct":false,"confidence":-1},{"trial_n":2,"n_dots":4.25,"target":"right","response":"right","rt":1745.599999994,"correct":true,"confidence":-1},{"trial_n":3,"n_dots":4.25,"target":"right","response":"right","rt":995.59999999404,"correct":true,"confidence":-1},{"trial_n":4,"n_dots":3.85,"target":"left","response":"left","rt":455.5,"correct":true,"confidence":-1},{"trial_n":5,"n_dots":3.85,"target":"right","response":"right","rt":508.80000001192,"correct":true,"confidence":-1},{"trial_n":6,"n_dots":3.45,"target":"right","response":"right","rt":559.40000000596,"correct":true,"confidence":-1},{"trial_n":7,"n_dots":3.45,"target":"left","response":"left","rt":368.89999997616,"correct":true,"confidence":-1},{"trial_n":8,"n_dots":3.25,"target":"left","response":"left","rt":482.80000001192,"correct":true,"confidence":-1},{"trial_n":9,"n_dots":3.25,"target":"left","response":"left","rt":614.80000001192,"correct":true,"confidence":-1},{"trial_n":10,"n_dots":3.05,"target":"right","response":"right","rt":755.30000001192,"correct":true,"confidence":-1},{"trial_n":11,"n_dots":3.05,"target":"right","response":"right","rt":694.5,"correct":true,"confidence":-1},{"trial_n":12,"n_dots":2.85,"target":"right","response":"right","rt":743.09999999404,"correct":true,"confidence":-1},{"trial_n":13,"n_dots":2.85,"target":"right","response":"right","rt":790.90000000596,"correct":true,"confidence":-1},{"trial_n":14,"n_dots":2.75,"target":"right","response":"left","rt":592.59999999404,"correct":false,"confidence":-1},{"trial_n":15,"n_dots":2.85,"target":"right","response":"right","rt":1.8000000119209,"correct":true,"confidence":-1},{"trial_n":16,"n_dots":2.85,"target":"right","response":"right","rt":710.90000000596,"correct":true,"confidence":-1},{"trial_n":17,"n_dots":2.75,"target":"left","response":"left","rt":4771,"correct":true,"confidence":-1},{"trial_n":18,"n_dots":2.75,"target":"right","response":"right","rt":323.10000002384,"correct":true,"confidence":-1},{"trial_n":19,"n_dots":2.65,"target":"right","response":"right","rt":369,"correct":true,"confidence":-1},{"trial_n":20,"n_dots":2.65,"target":"right","response":"right","rt":515.09999999404,"correct":true,"confidence":-1},{"trial_n":21,"n_dots":2.55,"target":"left","response":"left","rt":1640.2999999821,"correct":true,"confidence":1},{"trial_n":22,"n_dots":2.55,"target":"left","response":"left","rt":1695.900000006,"correct":true,"confidence":2},{"trial_n":23,"n_dots":2.45,"target":"right","response":"right","rt":493.39999997616,"correct":true,"confidence":3},{"trial_n":24,"n_dots":2.45,"target":"left","response":"left","rt":552.90000000596,"correct":true,"confidence":3},{"trial_n":25,"n_dots":2.35,"target":"left","response":"left","rt":790.5,"correct":true,"confidence":4},{"trial_n":26,"n_dots":2.35,"target":"left","response":"right","rt":708.90000000596,"correct":false,"confidence":4},{"trial_n":27,"n_dots":2.45,"target":"right","response":"left","rt":332,"correct":false,"confidence":3},{"trial_n":28,"n_dots":2.55,"target":"left","response":"left","rt":3843.1999999881,"correct":true,"confidence":3},{"trial_n":29,"n_dots":2.55,"target":"left","response":"right","rt":889.70000001788,"correct":false,"confidence":4},{"trial_n":30,"n_dots":2.65,"target":"left","response":"left","rt":651.30000001192,"correct":true,"confidence":3},{"trial_n":31,"n_dots":2.65,"target":"right","response":"right","rt":485.59999999404,"correct":true,"confidence":2},{"trial_n":32,"n_dots":2.55,"target":"left","response":"left","rt":392.80000001192,"correct":true,"confidence":2},{"trial_n":33,"n_dots":2.55,"target":"right","response":"right","rt":952.09999999404,"correct":true,"confidence":2},{"trial_n":34,"n_dots":2.45,"target":"right","response":"right","rt":300.69999998808,"correct":true,"confidence":2},{"trial_n":35,"n_dots":2.45,"target":"right","response":"right","rt":512.5,"correct":true,"confidence":2},{"trial_n":36,"n_dots":2.35,"target":"right","response":"right","rt":892.79999998212,"correct":true,"confidence":2},{"trial_n":37,"n_dots":2.35,"target":"left","response":"left","rt":455.29999998212,"correct":true,"confidence":3},{"trial_n":38,"n_dots":2.25,"target":"left","response":"left","rt":351.90000000596,"correct":true,"confidence":3},{"trial_n":39,"n_dots":2.25,"target":"left","response":"left","rt":537.69999998808,"correct":true,"confidence":3},{"trial_n":40,"n_dots":2.15,"target":"left","response":"right","rt":290.89999997616,"correct":false,"confidence":1},{"trial_n":41,"n_dots":2.25,"target":"right","response":"right","rt":375.80000001192,"correct":true,"confidence":3},{"trial_n":42,"n_dots":2.25,"target":"right","response":"left","rt":668.30000001192,"correct":false,"confidence":3},{"trial_n":43,"n_dots":2.35,"target":"left","response":"left","rt":390.29999998212,"correct":true,"confidence":3},{"trial_n":44,"n_dots":2.35,"target":"left","response":"right","rt":524.10000002384,"correct":false,"confidence":3},{"trial_n":45,"n_dots":2.45,"target":"right","response":"left","rt":572.19999998808,"correct":false,"confidence":4},{"trial_n":46,"n_dots":2.55,"target":"left","response":"left","rt":846.09999999404,"correct":true,"confidence":4},{"trial_n":47,"n_dots":2.55,"target":"right","response":"right","rt":391.69999998808,"correct":true,"confidence":3},{"trial_n":48,"n_dots":2.45,"target":"left","response":"left","rt":441.69999998808,"correct":true,"confidence":3},{"trial_n":49,"n_dots":2.45,"target":"left","response":"left","rt":380.09999999404,"correct":true,"confidence":2},{"trial_n":50,"n_dots":2.35,"target":"right","response":"right","rt":790.59999999404,"correct":true,"confidence":4},{"trial_n":51,"n_dots":2.35,"target":"right","response":"right","rt":657.40000000596,"correct":true,"confidence":4},{"trial_n":52,"n_dots":2.25,"target":"right","response":"left","rt":1387.5,"correct":false,"confidence":2},{"trial_n":53,"n_dots":2.35,"target":"right","response":"right","rt":1345.6999999881,"correct":true,"confidence":4},{"trial_n":54,"n_dots":2.35,"target":"right","response":"right","rt":488.59999999404,"correct":true,"confidence":4},{"trial_n":55,"n_dots":2.25,"target":"left","response":"left","rt":310.5,"correct":true,"confidence":4},{"trial_n":56,"n_dots":2.25,"target":"right","response":"right","rt":461,"correct":true,"confidence":4},{"trial_n":57,"n_dots":2.15,"target":"left","response":"left","rt":399.59999999404,"correct":true,"confidence":4},{"trial_n":58,"n_dots":2.15,"target":"right","response":"left","rt":414.09999999404,"correct":false,"confidence":3},{"trial_n":59,"n_dots":2.25,"target":"right","response":"right","rt":666.59999999404,"correct":true,"confidence":4},{"trial_n":60,"n_dots":2.25,"target":"left","response":"left","rt":395.29999998212,"correct":true,"confidence":4},{"trial_n":61,"n_dots":2.15,"target":"left","response":"left","rt":320.30000001192,"correct":true,"confidence":3},{"trial_n":62,"n_dots":2.15,"target":"right","response":"right","rt":481.59999999404,"correct":true,"confidence":2},{"trial_n":63,"n_dots":2.05,"target":"left","response":"left","rt":357.29999998212,"correct":true,"confidence":4},{"trial_n":64,"n_dots":2.05,"target":"right","response":"right","rt":328.30000001192,"correct":true,"confidence":3},{"trial_n":65,"n_dots":1.95,"target":"left","response":"left","rt":500,"correct":true,"confidence":4},{"trial_n":66,"n_dots":1.95,"target":"left","response":"right","rt":486.90000000596,"correct":false,"confidence":4},{"trial_n":67,"n_dots":2.05,"target":"left","response":"right","rt":550.30000001192,"correct":false,"confidence":4},{"trial_n":68,"n_dots":2.15,"target":"left","response":"right","rt":626.90000000596,"correct":false,"confidence":3},{"trial_n":69,"n_dots":2.25,"target":"right","response":"right","rt":1345.3000000119,"correct":true,"confidence":3},{"trial_n":70,"n_dots":2.25,"target":"right","response":"left","rt":688.20000001788,"correct":false,"confidence":3},{"trial_n":71,"n_dots":2.35,"target":"left","response":"left","rt":699.30000001192,"correct":true,"confidence":3},{"trial_n":72,"n_dots":2.35,"target":"left","response":"right","rt":414.19999998808,"correct":false,"confidence":3},{"trial_n":73,"n_dots":2.45,"target":"right","response":"right","rt":385.40000000596,"correct":true,"confidence":4},{"trial_n":74,"n_dots":2.45,"target":"left","response":"left","rt":725.5,"correct":true,"confidence":4},{"trial_n":75,"n_dots":2.35,"target":"left","response":"right","rt":644.59999999404,"correct":false,"confidence":4},{"trial_n":76,"n_dots":2.45,"target":"left","response":"left","rt":1106,"correct":true,"confidence":4},{"trial_n":77,"n_dots":2.45,"target":"right","response":"right","rt":2310.1999999881,"correct":true,"confidence":2},{"trial_n":78,"n_dots":2.35,"target":"right","response":"right","rt":1320.5,"correct":true,"confidence":3},{"trial_n":79,"n_dots":2.35,"target":"left","response":"right","rt":1324.7999999821,"correct":false,"confidence":3},{"trial_n":80,"n_dots":2.45,"target":"left","response":"left","rt":1662.400000006,"correct":true,"confidence":4},{"trial_n":81,"n_dots":2.45,"target":"left","response":"right","rt":1651.3000000119,"correct":false,"confidence":2},{"trial_n":82,"n_dots":2.55,"target":"left","response":"left","rt":1746.900000006,"correct":true,"confidence":2},{"trial_n":83,"n_dots":2.55,"target":"left","response":"right","rt":888.5,"correct":false,"confidence":3},{"trial_n":84,"n_dots":2.65,"target":"right","response":"left","rt":320.20000001788,"correct":false,"confidence":3},{"trial_n":85,"n_dots":2.75,"target":"right","response":"right","rt":910.69999998808,"correct":true,"confidence":1},{"trial_n":86,"n_dots":2.75,"target":"right","response":"right","rt":1099.1999999881,"correct":true,"confidence":3},{"trial_n":87,"n_dots":2.65,"target":"left","response":"left","rt":540.69999998808,"correct":true,"confidence":3},{"trial_n":88,"n_dots":2.65,"target":"left","response":"left","rt":1193,"correct":true,"confidence":2},{"trial_n":89,"n_dots":2.55,"target":"right","response":"right","rt":707.90000000596,"correct":true,"confidence":4},{"trial_n":90,"n_dots":2.55,"target":"left","response":"left","rt":576.09999999404,"correct":true,"confidence":4},{"trial_n":91,"n_dots":2.45,"target":"left","response":"right","rt":476.10000002384,"correct":false,"confidence":2},{"trial_n":92,"n_dots":2.55,"target":"left","response":"left","rt":1432.6999999881,"correct":true,"confidence":3},{"trial_n":93,"n_dots":2.55,"target":"left","response":"right","rt":676.70000001788,"correct":false,"confidence":2},{"trial_n":94,"n_dots":2.65,"target":"right","response":"left","rt":430.80000001192,"correct":false,"confidence":3},{"trial_n":95,"n_dots":2.75,"target":"right","response":"right","rt":1118.599999994,"correct":true,"confidence":3},{"trial_n":96,"n_dots":2.75,"target":"left","response":"right","rt":1176.2000000179,"correct":false,"confidence":2},{"trial_n":97,"n_dots":2.85,"target":"left","response":"left","rt":1074.5,"correct":true,"confidence":3},{"trial_n":98,"n_dots":2.85,"target":"left","response":"right","rt":858.40000000596,"correct":false,"confidence":3},{"trial_n":99,"n_dots":2.95,"target":"right","response":"left","rt":885.60000002384,"correct":false,"confidence":2},{"trial_n":100,"n_dots":3.05,"target":"right","response":"right","rt":1029.400000006,"correct":true,"confidence":2},{"trial_n":101,"n_dots":3.05,"target":"left","response":"left","rt":765.90000000596,"correct":true,"confidence":3},{"trial_n":102,"n_dots":2.95,"target":"right","response":"right","rt":874,"correct":true,"confidence":2},{"trial_n":103,"n_dots":2.95,"target":"right","response":"right","rt":835.80000001192,"correct":true,"confidence":2},{"trial_n":104,"n_dots":2.85,"target":"right","response":"right","rt":827.29999998212,"correct":true,"confidence":2},{"trial_n":105,"n_dots":2.85,"target":"left","response":"left","rt":1016.3000000119,"correct":true,"confidence":2},{"trial_n":106,"n_dots":2.75,"target":"left","response":"left","rt":922.90000000596,"correct":true,"confidence":3},{"trial_n":107,"n_dots":2.75,"target":"right","response":"right","rt":1510.5,"correct":true,"confidence":3},{"trial_n":108,"n_dots":2.65,"target":"right","response":"right","rt":1131.1999999881,"correct":true,"confidence":3},{"trial_n":109,"n_dots":2.65,"target":"right","response":"left","rt":951.40000000596,"correct":false,"confidence":3},{"trial_n":110,"n_dots":2.75,"target":"left","response":"right","rt":946.19999998808,"correct":false,"confidence":3},{"trial_n":111,"n_dots":2.85,"target":"right","response":"right","rt":1220.900000006,"correct":true,"confidence":2},{"trial_n":112,"n_dots":2.85,"target":"right","response":"right","rt":1217.7999999821,"correct":true,"confidence":2},{"trial_n":113,"n_dots":2.75,"target":"left","response":"left","rt":1492.400000006,"correct":true,"confidence":3},{"trial_n":114,"n_dots":2.75,"target":"left","response":"right","rt":645,"correct":false,"confidence":3},{"trial_n":115,"n_dots":2.85,"target":"right","response":"left","rt":1036.5,"correct":false,"confidence":4},{"trial_n":116,"n_dots":2.95,"target":"left","response":"left","rt":1249.2000000179,"correct":true,"confidence":4},{"trial_n":117,"n_dots":2.95,"target":"left","response":"left","rt":1131.099999994,"correct":true,"confidence":3},{"trial_n":118,"n_dots":2.85,"target":"right","response":"right","rt":1079.2999999821,"correct":true,"confidence":4},{"trial_n":119,"n_dots":2.85,"target":"left","response":"left","rt":923.5,"correct":true,"confidence":2},{"trial_n":120,"n_dots":2.75,"target":"right","response":"right","rt":1609.3000000119,"correct":true,"confidence":4}]