[{"trial_n":1,"min":25,"max":230,"target":"present","response":"absent","rt":10905.200000018,"correct":false,"confidence":-1},{"trial_n":2,"min":25,"max":230,"target":"present","response":"present","rt":1515.2999999821,"correct":true,"confidence":-1},{"trial_n":3,"min":25,"max":230,"target":"absent","response":"absent","rt":535.30000001192,"correct":true,"confidence":-1},{"trial_n":4,"min":41,"max":214,"target":"absent","response":"absent","rt":385.40000000596,"correct":true,"confidence":-1},{"trial_n":5,"min":41,"max":214,"target":"present","response":"present","rt":485.20000001788,"correct":true,"confidence":-1},{"trial_n":6,"min":57,"max":198,"target":"absent","response":"absent","rt":580.59999999404,"correct":true,"confidence":-1},{"trial_n":7,"min":57,"max":198,"target":"absent","response":"absent","rt":380.70000001788,"correct":true,"confidence":-1},{"trial_n":8,"min":73,"max":182,"target":"present","response":"absent","rt":344,"correct":false,"confidence":-1},{"trial_n":9,"min":57,"max":198,"target":"absent","response":"absent","rt":246.20000001788,"correct":true,"confidence":-1},{"trial_n":10,"min":57,"max":198,"target":"present","response":"present","rt":443,"correct":true,"confidence":-1},{"trial_n":11,"min":65,"max":190,"target":"absent","response":"absent","rt":310.79999998212,"correct":true,"confidence":-1},{"trial_n":12,"min":65,"max":190,"target":"absent","response":"absent","rt":669.19999998808,"correct":true,"confidence":-1},{"trial_n":13,"min":73,"max":182,"target":"absent","response":"absent","rt":486,"correct":true,"confidence":-1},{"trial_n":14,"min":73,"max":182,"target":"present","response":"present","rt":592.60000002384,"correct":true,"confidence":-1},{"trial_n":15,"min":81,"max":174,"target":"present","response":"absent","rt":522.40000000596,"correct":false,"confidence":-1},{"trial_n":16,"min":73,"max":182,"target":"absent","response":"absent","rt":547.30000001192,"correct":true,"confidence":-1},{"trial_n":17,"min":73,"max":182,"target":"present","response":"present","rt":558.39999997616,"correct":true,"confidence":-1},{"trial_n":18,"min":81,"max":174,"target":"present","response":"absent","rt":503.5,"correct":false,"confidence":-1},{"trial_n":19,"min":73,"max":182,"target":"absent","response":"absent","rt":1118,"correct":true,"confidence":-1},{"trial_n":20,"min":73,"max":182,"target":"present","response":"absent","rt":1236.6000000238,"correct":false,"confidence":-1},{"trial_n":21,"min":69,"max":186,"target":"absent","response":"present","rt":1132,"correct":false,"confidence":2},{"trial_n":22,"min":65,"max":190,"target":"absent","response":"present","rt":3893.599999994,"correct":false,"confidence":2},{"trial_n":23,"min":61,"max":194,"target":"present","response":"present","rt":1700.099999994,"correct":true,"confidence":5},{"trial_n":24,"min":61,"max":194,"target":"present","response":"present","rt":6706.599999994,"correct":true,"confidence":3},{"trial_n":25,"min":65,"max":190,"target":"absent","response":"absent","rt":1355.400000006,"correct":true,"confidence":3},{"trial_n":26,"min":65,"max":190,"target":"absent","response":"absent","rt":1422.599999994,"correct":true,"confidence":3},{"trial_n":27,"min":69,"max":186,"target":"absent","response":"absent","rt":1516.2999999821,"correct":true,"confidence":4},{"trial_n":28,"min":69,"max":186,"target":"present","response":"present","rt":1654.3000000119,"correct":true,"confidence":4},{"trial_n":29,"min":73,"max":182,"target":"present","response":"absent","rt":5134.7999999821,"correct":false,"confidence":2},{"trial_n":30,"min":69,"max":186,"target":"absent","response":"absent","rt":1680.7999999821,"correct":true,"confidence":3},{"trial_n":31,"min":69,"max":186,"target":"present","response":"present","rt":1984.1999999881,"correct":true,"confidence":5},{"trial_n":32,"min":71,"max":184,"target":"present","response":"present","rt":2507.7999999821,"correct":true,"confidence":4},{"trial_n":33,"min":71,"max":184,"target":"present","response":"present","rt":1357.1000000238,"correct":true,"confidence":5},{"trial_n":34,"min":73,"max":182,"target":"present","response":"present","rt":1349.3000000119,"correct":true,"confidence":5},{"trial_n":35,"min":73,"max":182,"target":"present","response":"absent","rt":2039,"correct":false,"confidence":4},{"trial_n":36,"min":71,"max":184,"target":"absent","response":"present","rt":2685,"correct":false,"confidence":3},{"trial_n":37,"min":69,"max":186,"target":"present","response":"present","rt":1952.5,"correct":true,"confidence":3},{"trial_n":38,"min":69,"max":186,"target":"absent","response":"present","rt":1532.900000006,"correct":false,"confidence":3},{"trial_n":39,"min":67,"max":188,"target":"absent","response":"absent","rt":1413.599999994,"correct":true,"confidence":4},{"trial_n":40,"min":67,"max":188,"target":"absent","response":"absent","rt":1410.2999999821,"correct":true,"confidence":4},{"trial_n":41,"min":68,"max":187,"target":"present","response":"present","rt":1649.2999999821,"correct":true,"confidence":5},{"trial_n":42,"min":68,"max":187,"target":"present","response":"present","rt":1365.6999999881,"correct":true,"confidence":5},{"trial_n":43,"min":69,"max":186,"target":"present","response":"present","rt":1262.5,"correct":true,"confidence":5},{"trial_n":44,"min":69,"max":186,"target":"absent","response":"present","rt":1654.599999994,"correct":false,"confidence":4},{"trial_n":45,"min":68,"max":187,"target":"absent","response":"present","rt":1762.2999999821,"correct":false,"confidence":4},{"trial_n":46,"min":67,"max":188,"target":"absent","response":"present","rt":2662.6999999881,"correct":false,"confidence":3},{"trial_n":47,"min":66,"max":189,"target":"present","response":"present","rt":2840.599999994,"correct":true,"confidence":3},{"trial_n":48,"min":66,"max":189,"target":"absent","response":"present","rt":1404.7999999821,"correct":false,"confidence":3},{"trial_n":49,"min":65,"max":190,"target":"present","response":"present","rt":1387,"correct":true,"confidence":4},{"trial_n":50,"min":65,"max":190,"target":"present","response":"present","rt":749.5,"correct":true,"confidence":5},{"trial_n":51,"min":66,"max":189,"target":"absent","response":"present","rt":1133.599999994,"correct":false,"confidence":3},{"trial_n":52,"min":65,"max":190,"target":"absent","response":"absent","rt":1213.8000000119,"correct":true,"confidence":3},{"trial_n":53,"min":65,"max":190,"target":"absent","response":"absent","rt":828.90000000596,"correct":true,"confidence":5},{"trial_n":54,"min":66,"max":189,"target":"absent","response":"absent","rt":977.59999999404,"correct":true,"confidence":5},{"trial_n":55,"min":66,"max":189,"target":"absent","response":"absent","rt":878.5,"correct":true,"confidence":4},{"trial_n":56,"min":67,"max":188,"target":"absent","response":"absent","rt":1842.2000000179,"correct":true,"confidence":4},{"trial_n":57,"min":67,"max":188,"target":"present","response":"present","rt":1782.900000006,"correct":true,"confidence":5},{"trial_n":58,"min":68,"max":187,"target":"present","response":"present","rt":1602.099999994,"correct":true,"confidence":5},{"trial_n":59,"min":68,"max":187,"target":"present","response":"present","rt":1358.8999999762,"correct":true,"confidence":3},{"trial_n":60,"min":69,"max":186,"target":"present","response":"present","rt":1221.099999994,"correct":true,"confidence":4},{"trial_n":61,"min":69,"max":186,"target":"present","response":"present","rt":617,"correct":true,"confidence":5},{"trial_n":62,"min":70,"max":185,"target":"absent","response":"present","rt":1202.8000000119,"correct":false,"confidence":3},{"trial_n":63,"min":69,"max":186,"target":"present","response":"present","rt":1351.1999999881,"correct":true,"confidence":4},{"trial_n":64,"min":69,"max":186,"target":"present","response":"present","rt":776.59999999404,"correct":true,"confidence":4},{"trial_n":65,"min":70,"max":185,"target":"absent","response":"absent","rt":945.59999999404,"correct":true,"confidence":3},{"trial_n":66,"min":70,"max":185,"target":"absent","response":"absent","rt":912,"correct":true,"confidence":4},{"trial_n":67,"min":71,"max":184,"target":"present","response":"present","rt":1100.1000000238,"correct":true,"confidence":4},{"trial_n":68,"min":71,"max":184,"target":"present","response":"present","rt":679.20000001788,"correct":true,"confidence":4},{"trial_n":69,"min":72,"max":183,"target":"absent","response":"absent","rt":661.89999997616,"correct":true,"confidence":3},{"trial_n":70,"min":72,"max":183,"target":"present","response":"present","rt":1096.8999999762,"correct":true,"confidence":3},{"trial_n":71,"min":41,"max":214,"target":"present","response":"present","rt":2067.2999999821,"correct":true,"confidence":-1},{"trial_n":72,"min":41,"max":214,"target":"present","response":"present","rt":781,"correct":true,"confidence":-1},{"trial_n":73,"min":57,"max":198,"target":"absent","response":"absent","rt":977.79999998212,"correct":true,"confidence":-1},{"trial_n":74,"min":57,"max":198,"target":"absent","response":"absent","rt":506.19999998808,"correct":true,"confidence":-1},{"trial_n":75,"min":73,"max":182,"target":"present","response":"present","rt":671.29999998212,"correct":true,"confidence":-1},{"trial_n":76,"min":73,"max":182,"target":"absent","response":"absent","rt":574.59999999404,"correct":true,"confidence":-1},{"trial_n":77,"min":89,"max":166,"target":"present","response":"present","rt":383.39999997616,"correct":true,"confidence":-1},{"trial_n":78,"min":89,"max":166,"target":"present","response":"absent","rt":905.09999999404,"correct":false,"confidence":-1},{"trial_n":79,"min":73,"max":182,"target":"absent","response":"absent","rt":803.09999999404,"correct":true,"confidence":-1},{"trial_n":80,"min":73,"max":182,"target":"present","response":"absent","rt":575.09999999404,"correct":false,"confidence":-1},{"trial_n":81,"min":65,"max":190,"target":"absent","response":"absent","rt":537.90000000596,"correct":true,"confidence":-1},{"trial_n":82,"min":65,"max":190,"target":"present","response":"present","rt":378.59999999404,"correct":true,"confidence":-1},{"trial_n":83,"min":73,"max":182,"target":"present","response":"present","rt":394.09999999404,"correct":true,"confidence":-1},{"trial_n":84,"min":73,"max":182,"target":"absent","response":"absent","rt":1181.5,"correct":true,"confidence":-1},{"trial_n":85,"min":81,"max":174,"target":"present","response":"present","rt":383,"correct":true,"confidence":-1},{"trial_n":86,"min":81,"max":174,"target":"absent","response":"absent","rt":693,"correct":true,"confidence":-1},{"trial_n":87,"min":89,"max":166,"target":"present","response":"present","rt":1380.1999999881,"correct":true,"confidence":-1},{"trial_n":88,"min":89,"max":166,"target":"absent","response":"absent","rt":1054.599999994,"correct":true,"confidence":-1},{"trial_n":89,"min":97,"max":158,"target":"present","response":"absent","rt":640.59999999404,"correct":false,"confidence":-1},{"trial_n":90,"min":89,"max":166,"target":"absent","response":"present","rt":694.09999999404,"correct":false,"confidence":-1},{"trial_n":91,"min":85,"max":170,"target":"absent","response":"present","rt":842.59999999404,"correct":false,"confidence":2},{"trial_n":92,"min":81,"max":174,"target":"absent","response":"absent","rt":1073.599999994,"correct":true,"confidence":2},{"trial_n":93,"min":81,"max":174,"target":"absent","response":"absent","rt":1128.1999999881,"correct":true,"confidence":4},{"trial_n":94,"min":85,"max":170,"target":"present","response":"present","rt":780.09999999404,"correct":true,"confidence":4},{"trial_n":95,"min":85,"max":170,"target":"absent","response":"present","rt":471.90000000596,"correct":false,"confidence":5},{"trial_n":96,"min":81,"max":174,"target":"present","response":"present","rt":1335.1999999881,"correct":true,"confidence":4},{"trial_n":97,"min":81,"max":174,"target":"present","response":"present","rt":646.09999999404,"correct":true,"confidence":4},{"trial_n":98,"min":85,"max":170,"target":"present","response":"present","rt":684.69999998808,"correct":true,"confidence":5},{"trial_n":99,"min":85,"max":170,"target":"absent","response":"absent","rt":845.09999999404,"correct":true,"confidence":3},{"trial_n":100,"min":89,"max":166,"target":"absent","response":"present","rt":863.80000001192,"correct":false,"confidence":3},{"trial_n":101,"min":87,"max":168,"target":"absent","response":"absent","rt":2123.900000006,"correct":true,"confidence":5},{"trial_n":102,"min":87,"max":168,"target":"present","response":"present","rt":431.09999999404,"correct":true,"confidence":1},{"trial_n":103,"min":89,"max":166,"target":"present","response":"absent","rt":1183.599999994,"correct":false,"confidence":2},{"trial_n":104,"min":87,"max":168,"target":"present","response":"present","rt":412.70000001788,"correct":true,"confidence":4},{"trial_n":105,"min":87,"max":168,"target":"present","response":"present","rt":540.40000000596,"correct":true,"confidence":4},{"trial_n":106,"min":89,"max":166,"target":"present","response":"present","rt":1022.8000000119,"correct":true,"confidence":2},{"trial_n":107,"min":89,"max":166,"target":"absent","response":"absent","rt":607.40000000596,"correct":true,"confidence":3},{"trial_n":108,"min":91,"max":164,"target":"absent","response":"absent","rt":758.19999998808,"correct":true,"confidence":4},{"trial_n":109,"min":91,"max":164,"target":"absent","response":"present","rt":6137.8999999762,"correct":false,"confidence":4},{"trial_n":110,"min":89,"max":166,"target":"present","response":"present","rt":1064.7000000179,"correct":true,"confidence":3},{"trial_n":111,"min":89,"max":166,"target":"present","response":"present","rt":463.19999998808,"correct":true,"confidence":5},{"trial_n":112,"min":90,"max":165,"target":"present","response":"absent","rt":2470.599999994,"correct":false,"confidence":3},{"trial_n":113,"min":89,"max":166,"target":"absent","response":"present","rt":1715.5,"correct":false,"confidence":3},{"trial_n":114,"min":88,"max":167,"target":"present","response":"present","rt":4950.1999999881,"correct":true,"confidence":2},{"trial_n":115,"min":88,"max":167,"target":"present","response":"present","rt":473.10000002384,"correct":true,"confidence":3},{"trial_n":116,"min":89,"max":166,"target":"present","response":"absent","rt":1087.400000006,"correct":false,"confidence":4},{"trial_n":117,"min":88,"max":167,"target":"absent","response":"present","rt":792.20000001788,"correct":false,"confidence":3},{"trial_n":118,"min":87,"max":168,"target":"present","response":"present","rt":805.5,"correct":true,"confidence":4},{"trial_n":119,"min":87,"max":168,"target":"absent","response":"present","rt":742.59999999404,"correct":false,"confidence":5},{"trial_n":120,"min":86,"max":169,"target":"present","response":"present","rt":629.5,"correct":true,"confidence":5},{"trial_n":121,"min":86,"max":169,"target":"absent","response":"absent","rt":575.30000001192,"correct":true,"confidence":4},{"trial_n":122,"min":87,"max":168,"target":"absent","response":"present","rt":916.70000001788,"correct":false,"confidence":4},{"trial_n":123,"min":86,"max":169,"target":"present","response":"absent","rt":1469.1000000238,"correct":false,"confidence":4},{"trial_n":124,"min":85,"max":170,"target":"absent","response":"present","rt":1167.5,"correct":false,"confidence":2},{"trial_n":125,"min":84,"max":171,"target":"absent","response":"absent","rt":1378.8000000119,"correct":true,"confidence":1},{"trial_n":126,"min":84,"max":171,"target":"absent","response":"absent","rt":1062,"correct":true,"confidence":1},{"trial_n":127,"min":85,"max":170,"target":"present","response":"present","rt":633.20000001788,"correct":true,"confidence":4},{"trial_n":128,"min":85,"max":170,"target":"absent","response":"absent","rt":1656.599999994,"correct":true,"confidence":1},{"trial_n":129,"min":86,"max":169,"target":"present","response":"present","rt":880.40000000596,"correct":true,"confidence":2},{"trial_n":130,"min":86,"max":169,"target":"absent","response":"present","rt":1781.8000000119,"correct":false,"confidence":3},{"trial_n":131,"min":85,"max":170,"target":"present","response":"present","rt":369,"correct":true,"confidence":4},{"trial_n":132,"min":85,"max":170,"target":"present","response":"present","rt":738.90000000596,"correct":true,"confidence":4},{"trial_n":133,"min":86,"max":169,"target":"absent","response":"absent","rt":667.80000001192,"correct":true,"confidence":4},{"trial_n":134,"min":86,"max":169,"target":"present","response":"present","rt":587.09999999404,"correct":true,"confidence":4},{"trial_n":135,"min":87,"max":168,"target":"absent","response":"absent","rt":1564.8000000119,"correct":true,"confidence":2},{"trial_n":136,"min":87,"max":168,"target":"absent","response":"absent","rt":973.5,"correct":true,"confidence":2},{"trial_n":137,"min":88,"max":167,"target":"present","response":"present","rt":715.20000001788,"correct":true,"confidence":3},{"trial_n":138,"min":88,"max":167,"target":"absent","response":"present","rt":1166.900000006,"correct":false,"confidence":2},{"trial_n":139,"min":87,"max":168,"target":"absent","response":"present","rt":1326.900000006,"correct":false,"confidence":1},{"trial_n":140,"min":86,"max":169,"target":"present","response":"absent","rt":1017.599999994,"correct":false,"confidence":1}]