[{"trial_n":1,"span":8,"encoder":"57707414","distractor":"57701414","target":"present","response":"present","rt":"5164.8000000119","correct":true,"confidence":-1},{"trial_n":2,"span":8,"encoder":"59413465","distractor":"69413465","target":"present","response":"absent","rt":"3471.3000000119","correct":false,"confidence":-1},{"trial_n":3,"span":6,"encoder":"450048","distractor":"400048","target":"absent","response":"present","rt":"1724.2999999821","correct":false,"confidence":-1},{"trial_n":4,"span":4,"encoder":"8009","distractor":"8509","target":"absent","response":"present","rt":"3162.2000000179","correct":false,"confidence":-1},{"trial_n":5,"span":2,"encoder":"46","distractor":"49","target":"present","response":"present","rt":"5284.5","correct":true,"confidence":-1},{"trial_n":6,"span":2,"encoder":"73","distractor":"79","target":"absent","response":"absent","rt":"1307.2000000179","correct":true,"confidence":-1},{"trial_n":7,"span":4,"encoder":"6368","distractor":"6568","target":"present","response":"present","rt":"1664.7000000179","correct":true,"confidence":-1},{"trial_n":8,"span":4,"encoder":"3478","distractor":"0478","target":"present","response":"present","rt":"2522.900000006","correct":true,"confidence":-1},{"trial_n":9,"span":6,"encoder":"592033","distractor":"892033","target":"present","response":"present","rt":"1306.3000000119","correct":true,"confidence":-1},{"trial_n":10,"span":6,"encoder":"099830","distractor":"099839","target":"absent","response":"absent","rt":"2095.900000006","correct":true,"confidence":-1},{"trial_n":11,"span":8,"encoder":"00025415","distractor":"00025417","target":"present","response":"present","rt":"2316.099999994","correct":true,"confidence":-1},{"trial_n":12,"span":8,"encoder":"17279854","distractor":"17289854","target":"absent","response":"present","rt":"3259","correct":false,"confidence":-1},{"trial_n":13,"span":7,"encoder":"6633440","distractor":"6433440","target":"present","response":"present","rt":"2233","correct":true,"confidence":-1},{"trial_n":14,"span":7,"encoder":"8732571","distractor":"8732591","target":"absent","response":"absent","rt":"2768.400000006","correct":true,"confidence":-1},{"trial_n":15,"span":8,"encoder":"33044791","distractor":"33044793","target":"present","response":"present","rt":"2429.5","correct":true,"confidence":-1},{"trial_n":16,"span":8,"encoder":"92737527","distractor":"92037527","target":"present","response":"absent","rt":"1568.599999994","correct":false,"confidence":-1},{"trial_n":17,"span":7,"encoder":"7772974","distractor":"7772978","target":"absent","response":"present","rt":"1355.2999999821","correct":false,"confidence":-1},{"trial_n":18,"span":6,"encoder":"104019","distractor":"104419","target":"present","response":"present","rt":"1197.5","correct":true,"confidence":-1},{"trial_n":19,"span":6,"encoder":"126610","distractor":"526610","target":"absent","response":"present","rt":"903.69999998808","correct":false,"confidence":-1},{"trial_n":20,"span":5,"encoder":"53397","distractor":"56397","target":"absent","response":"absent","rt":"1788.599999994","correct":true,"confidence":-1},{"trial_n":21,"span":5,"encoder":"20718","distractor":"20018","target":"absent","response":"absent","rt":"2027.2000000179","correct":true,"confidence":4},{"trial_n":22,"span":6,"encoder":"404653","distractor":"474653","target":"present","response":"present","rt":"3159.099999994","correct":true,"confidence":3},{"trial_n":23,"span":6,"encoder":"449783","distractor":"449780","target":"present","response":"present","rt":"2269.400000006","correct":true,"confidence":5},{"trial_n":24,"span":7,"encoder":"6911104","distractor":"1911104","target":"present","response":"present","rt":"2279.3999999762","correct":true,"confidence":4},{"trial_n":25,"span":7,"encoder":"5659022","distractor":"5653022","target":"absent","response":"absent","rt":"2584.5","correct":true,"confidence":4},{"trial_n":26,"span":8,"encoder":"31899406","distractor":"31894406","target":"absent","response":"absent","rt":"3175.3000000119","correct":true,"confidence":3},{"trial_n":27,"span":8,"encoder":"63239415","distractor":"63230415","target":"present","response":"present","rt":"1861.599999994","correct":true,"confidence":2},{"trial_n":28,"span":9,"encoder":"299824270","distractor":"299825270","target":"present","response":"present","rt":"2173.6999999881","correct":true,"confidence":3},{"trial_n":29,"span":9,"encoder":"042193618","distractor":"042196618","target":"absent","response":"absent","rt":"1845.599999994","correct":true,"confidence":3},{"trial_n":30,"span":10,"encoder":"0681992047","distractor":"0691992047","target":"absent","response":"present","rt":"3358.900000006","correct":false,"confidence":2},{"trial_n":31,"span":9,"encoder":"155870948","distractor":"155270948","target":"present","response":"absent","rt":"5240.5","correct":false,"confidence":3},{"trial_n":32,"span":8,"encoder":"50144584","distractor":"50134584","target":"present","response":"present","rt":"2023.2999999821","correct":true,"confidence":4},{"trial_n":33,"span":8,"encoder":"90426866","distractor":"90426856","target":"present","response":"absent","rt":"2503.1999999881","correct":false,"confidence":4},{"trial_n":34,"span":7,"encoder":"2004984","distractor":"2004584","target":"present","response":"present","rt":"1796.2999999821","correct":true,"confidence":5},{"trial_n":35,"span":7,"encoder":"8412455","distractor":"8412415","target":"absent","response":"absent","rt":"3344.400000006","correct":true,"confidence":5},{"trial_n":36,"span":8,"encoder":"86626618","distractor":"86656618","target":"present","response":"present","rt":"2908.5","correct":true,"confidence":5},{"trial_n":37,"span":8,"encoder":"32657899","distractor":"62657899","target":"present","response":"present","rt":"5167.5","correct":true,"confidence":4},{"trial_n":38,"span":9,"encoder":"458473964","distractor":"455473964","target":"present","response":"absent","rt":"5129.6999999881","correct":false,"confidence":4},{"trial_n":39,"span":8,"encoder":"31713926","distractor":"31713626","target":"absent","response":"absent","rt":"3487.1999999881","correct":true,"confidence":3},{"trial_n":40,"span":8,"encoder":"66434079","distractor":"66434579","target":"absent","response":"absent","rt":"3797.599999994","correct":true,"confidence":5},{"trial_n":41,"span":9,"encoder":"572373912","distractor":"572173912","target":"absent","response":"absent","rt":"3301.8999999762","correct":true,"confidence":4},{"trial_n":42,"span":9,"encoder":"779065053","distractor":"779065753","target":"absent","response":"absent","rt":"43831.299999982","correct":true,"confidence":2},{"trial_n":43,"span":10,"encoder":"5742614108","distractor":"5742614408","target":"absent","response":"present","rt":"4432.2999999821","correct":false,"confidence":3},{"trial_n":44,"span":9,"encoder":"001692540","distractor":"009692540","target":"absent","response":"absent","rt":"4737.6000000238","correct":true,"confidence":2},{"trial_n":45,"span":9,"encoder":"181607064","distractor":"181207064","target":"absent","response":"absent","rt":"3281.599999994","correct":true,"confidence":4},{"trial_n":46,"span":10,"encoder":"4983926544","distractor":"4985926544","target":"absent","response":"absent","rt":"5348.099999994","correct":true,"confidence":3},{"trial_n":47,"span":10,"encoder":"5787845311","distractor":"5787845811","target":"absent","response":"absent","rt":"10868.600000024","correct":true,"confidence":5},{"trial_n":48,"span":11,"encoder":"55423092474","distractor":"55723092474","target":"absent","response":"present","rt":"9809.6000000238","correct":false,"confidence":2},{"trial_n":49,"span":10,"encoder":"3222464518","distractor":"9222464518","target":"present","response":"absent","rt":"2553.2999999821","correct":false,"confidence":5},{"trial_n":50,"span":9,"encoder":"428997858","distractor":"428996858","target":"present","response":"present","rt":"5002.400000006","correct":true,"confidence":3},{"trial_n":51,"span":9,"encoder":"083683454","distractor":"053683454","target":"absent","response":"absent","rt":"2046.5","correct":true,"confidence":5},{"trial_n":52,"span":10,"encoder":"5908544507","distractor":"5908144507","target":"present","response":"present","rt":"3219.2000000179","correct":true,"confidence":4},{"trial_n":53,"span":10,"encoder":"7824873546","distractor":"7828873546","target":"present","response":"absent","rt":"2068.1999999881","correct":false,"confidence":3},{"trial_n":54,"span":9,"encoder":"244270021","distractor":"242270021","target":"present","response":"absent","rt":"50999.900000006","correct":false,"confidence":1},{"trial_n":55,"span":8,"encoder":"68904627","distractor":"68904620","target":"absent","response":"absent","rt":"1470.900000006","correct":true,"confidence":5},{"trial_n":56,"span":8,"encoder":"02642741","distractor":"02642747","target":"absent","response":"absent","rt":"2070.1999999881","correct":true,"confidence":5},{"trial_n":57,"span":9,"encoder":"081552667","distractor":"081552267","target":"present","response":"absent","rt":"15985.699999988","correct":false,"confidence":1},{"trial_n":58,"span":8,"encoder":"80895971","distractor":"80895981","target":"absent","response":"present","rt":"3392.900000006","correct":false,"confidence":1},{"trial_n":59,"span":7,"encoder":"3860749","distractor":"3860649","target":"present","response":"absent","rt":"7949.6999999881","correct":false,"confidence":2},{"trial_n":60,"span":6,"encoder":"077721","distractor":"077761","target":"present","response":"absent","rt":"2884.6999999881","correct":false,"confidence":1},{"trial_n":61,"span":5,"encoder":"44351","distractor":"42351","target":"present","response":"present","rt":"1519.900000006","correct":true,"confidence":1},{"trial_n":62,"span":5,"encoder":"58361","distractor":"88361","target":"absent","response":"absent","rt":"2542.5","correct":true,"confidence":3},{"trial_n":63,"span":6,"encoder":"423545","distractor":"123545","target":"present","response":"present","rt":"2557.5","correct":true,"confidence":4},{"trial_n":64,"span":6,"encoder":"554101","distractor":"954101","target":"absent","response":"absent","rt":"1697","correct":true,"confidence":3},{"trial_n":65,"span":7,"encoder":"8230049","distractor":"6230049","target":"present","response":"absent","rt":"2277.599999994","correct":false,"confidence":2},{"trial_n":66,"span":6,"encoder":"415309","distractor":"475309","target":"absent","response":"absent","rt":"1914.7000000179","correct":true,"confidence":5},{"trial_n":67,"span":6,"encoder":"654674","distractor":"644674","target":"present","response":"present","rt":"2913.099999994","correct":true,"confidence":4},{"trial_n":68,"span":7,"encoder":"5789345","distractor":"5785345","target":"absent","response":"absent","rt":"2462.1000000238","correct":true,"confidence":5},{"trial_n":69,"span":7,"encoder":"8937138","distractor":"8917138","target":"absent","response":"absent","rt":"2765.900000006","correct":true,"confidence":5},{"trial_n":70,"span":8,"encoder":"72639075","distractor":"72659075","target":"present","response":"present","rt":"3727.8999999762","correct":true,"confidence":4},{"trial_n":71,"span":8,"encoder":"09836834","distractor":"01836834","target":"present","response":"present","rt":"9189.7000000179","correct":true,"confidence":-1},{"trial_n":72,"span":8,"encoder":"07742442","distractor":"07142442","target":"present","response":"present","rt":"3875.7000000179","correct":true,"confidence":-1},{"trial_n":73,"span":9,"encoder":"808187350","distractor":"808187390","target":"absent","response":"absent","rt":"1551.599999994","correct":true,"confidence":-1},{"trial_n":74,"span":9,"encoder":"053492933","distractor":"053490933","target":"absent","response":"absent","rt":"2730.900000006","correct":true,"confidence":-1},{"trial_n":75,"span":10,"encoder":"0936713015","distractor":"0986713015","target":"present","response":"present","rt":"5060.3000000119","correct":true,"confidence":-1},{"trial_n":76,"span":10,"encoder":"1714129165","distractor":"1714129065","target":"absent","response":"absent","rt":"1506.8999999762","correct":true,"confidence":-1},{"trial_n":77,"span":11,"encoder":"39347545605","distractor":"39347545305","target":"present","response":"present","rt":"2188.7000000179","correct":true,"confidence":-1},{"trial_n":78,"span":11,"encoder":"95747165026","distractor":"75747165026","target":"present","response":"present","rt":"2518.7000000179","correct":true,"confidence":-1},{"trial_n":79,"span":12,"encoder":"872409887086","distractor":"872409887056","target":"absent","response":"absent","rt":"4633.5","correct":true,"confidence":-1},{"trial_n":80,"span":12,"encoder":"671400660830","distractor":"673400660830","target":"present","response":"absent","rt":"7078.099999994","correct":false,"confidence":-1},{"trial_n":81,"span":11,"encoder":"03484663503","distractor":"03484663103","target":"present","response":"present","rt":"2848.7999999821","correct":true,"confidence":-1},{"trial_n":82,"span":11,"encoder":"65869192268","distractor":"65864192268","target":"present","response":"present","rt":"11268.5","correct":true,"confidence":-1},{"trial_n":83,"span":12,"encoder":"618606664406","distractor":"608606664406","target":"present","response":"absent","rt":"26175","correct":false,"confidence":-1},{"trial_n":84,"span":11,"encoder":"73550182869","distractor":"23550182869","target":"present","response":"absent","rt":"3626.099999994","correct":false,"confidence":-1},{"trial_n":85,"span":10,"encoder":"5659275734","distractor":"5659279734","target":"absent","response":"absent","rt":"39635.400000006","correct":true,"confidence":-1},{"trial_n":86,"span":10,"encoder":"3902663430","distractor":"2902663430","target":"present","response":"present","rt":"3173.7999999821","correct":true,"confidence":-1},{"trial_n":87,"span":11,"encoder":"72216643947","distractor":"62216643947","target":"absent","response":"present","rt":"5352.8000000119","correct":false,"confidence":-1},{"trial_n":88,"span":10,"encoder":"3338189064","distractor":"0338189064","target":"present","response":"absent","rt":"34668.100000024","correct":false,"confidence":-1},{"trial_n":89,"span":9,"encoder":"235394973","distractor":"235394977","target":"absent","response":"absent","rt":"2681.2000000179","correct":true,"confidence":-1},{"trial_n":90,"span":9,"encoder":"966481669","distractor":"966489669","target":"absent","response":"absent","rt":"2269","correct":true,"confidence":-1},{"trial_n":91,"span":10,"encoder":"3335703524","distractor":"3335701524","target":"absent","response":"absent","rt":"6664.2000000179","correct":true,"confidence":5},{"trial_n":92,"span":10,"encoder":"4313318111","distractor":"4313918111","target":"present","response":"present","rt":"4511.900000006","correct":true,"confidence":5},{"trial_n":93,"span":11,"encoder":"88177017986","distractor":"88177016986","target":"present","response":"present","rt":"6124.7000000179","correct":true,"confidence":2},{"trial_n":94,"span":11,"encoder":"29666036424","distractor":"29666036474","target":"absent","response":"present","rt":"4316.099999994","correct":false,"confidence":3},{"trial_n":95,"span":10,"encoder":"4980542577","distractor":"4960542577","target":"present","response":"present","rt":"3112.599999994","correct":true,"confidence":3},{"trial_n":96,"span":10,"encoder":"2951487079","distractor":"8951487079","target":"absent","response":"absent","rt":"6459.099999994","correct":true,"confidence":3},{"trial_n":97,"span":11,"encoder":"53276546148","distractor":"53276541148","target":"present","response":"present","rt":"4829.6999999881","correct":true,"confidence":3},{"trial_n":98,"span":11,"encoder":"79253774982","distractor":"79653774982","target":"absent","response":"absent","rt":"6396.7000000179","correct":true,"confidence":3},{"trial_n":99,"span":12,"encoder":"921260287114","distractor":"921260286114","target":"absent","response":"absent","rt":"8111","correct":true,"confidence":4},{"trial_n":100,"span":12,"encoder":"635729243315","distractor":"635727243315","target":"present","response":"present","rt":"9707.7999999821","correct":true,"confidence":3},{"trial_n":101,"span":13,"encoder":"7440032427021","distractor":"7440032447021","target":"absent","response":"absent","rt":"3543.6999999881","correct":true,"confidence":5},{"trial_n":102,"span":13,"encoder":"2435316583058","distractor":"2535316583058","target":"absent","response":"present","rt":"7518.5","correct":false,"confidence":3},{"trial_n":103,"span":12,"encoder":"572773446380","distractor":"572773446382","target":"present","response":"present","rt":"2727.900000006","correct":true,"confidence":5},{"trial_n":104,"span":12,"encoder":"602528184343","distractor":"602528184313","target":"absent","response":"absent","rt":"3904.400000006","correct":true,"confidence":5},{"trial_n":105,"span":13,"encoder":"4754065436166","distractor":"5754065436166","target":"absent","response":"absent","rt":"8026.6999999881","correct":true,"confidence":4},{"trial_n":106,"span":13,"encoder":"2410963872077","distractor":"9410963872077","target":"present","response":"present","rt":"5947.2000000179","correct":true,"confidence":4},{"trial_n":107,"span":14,"encoder":"30592365197690","distractor":"20592365197690","target":"present","response":"present","rt":"5639.2999999821","correct":true,"confidence":1},{"trial_n":108,"span":14,"encoder":"79954056955256","distractor":"79954056975256","target":"present","response":"present","rt":"5257.1999999881","correct":true,"confidence":2},{"trial_n":109,"span":15,"encoder":"227106617783551","distractor":"227107617783551","target":"absent","response":"absent","rt":"7423.5","correct":true,"confidence":3},{"trial_n":110,"span":15,"encoder":"335994995686224","distractor":"335194995686224","target":"present","response":"present","rt":"9800.900000006","correct":true,"confidence":5},{"trial_n":111,"span":16,"encoder":"7932316931292453","distractor":"7932316931292653","target":"absent","response":"present","rt":"6584.3000000119","correct":false,"confidence":5},{"trial_n":112,"span":15,"encoder":"560630645411995","distractor":"560630645411991","target":"absent","response":"absent","rt":"2637.1999999881","correct":true,"confidence":5},{"trial_n":113,"span":15,"encoder":"022627487944754","distractor":"022667487944754","target":"present","response":"present","rt":"5008","correct":true,"confidence":3},{"trial_n":114,"span":16,"encoder":"9310307114748197","distractor":"9310307113748197","target":"absent","response":"absent","rt":"6656.3000000119","correct":true,"confidence":4},{"trial_n":115,"span":16,"encoder":"9479883053398340","distractor":"9479883053391340","target":"absent","response":"present","rt":"7414.2000000179","correct":false,"confidence":4},{"trial_n":116,"span":15,"encoder":"025735035570211","distractor":"025755035570211","target":"present","response":"absent","rt":"9156.900000006","correct":false,"confidence":4},{"trial_n":117,"span":14,"encoder":"74066418228942","distractor":"74066418228442","target":"present","response":"absent","rt":"8112.6999999881","correct":false,"confidence":4},{"trial_n":118,"span":13,"encoder":"2244898235498","distractor":"2244892235498","target":"absent","response":"absent","rt":"3777.8999999762","correct":true,"confidence":5},{"trial_n":119,"span":13,"encoder":"1387079870525","distractor":"1387379870525","target":"present","response":"absent","rt":"6819.7000000179","correct":false,"confidence":4},{"trial_n":120,"span":12,"encoder":"035027746487","distractor":"039027746487","target":"present","response":"present","rt":"3509.599999994","correct":true,"confidence":5},{"trial_n":121,"span":12,"encoder":"568499721340","distractor":"568499731340","target":"absent","response":"present","rt":"8661.6999999881","correct":false,"confidence":5},{"trial_n":122,"span":11,"encoder":"12945888213","distractor":"12945388213","target":"absent","response":"absent","rt":"4896.5","correct":true,"confidence":4},{"trial_n":123,"span":11,"encoder":"37630200832","distractor":"37630230832","target":"present","response":"present","rt":"7376.5","correct":true,"confidence":5},{"trial_n":124,"span":12,"encoder":"435578962305","distractor":"435578962304","target":"present","response":"present","rt":"7579","correct":true,"confidence":5},{"trial_n":125,"span":12,"encoder":"760231020372","distractor":"760291020372","target":"absent","response":"absent","rt":"12044.599999994","correct":true,"confidence":3},{"trial_n":126,"span":13,"encoder":"4870370498974","distractor":"4870378498974","target":"present","response":"absent","rt":"2156.7000000179","correct":false,"confidence":3},{"trial_n":127,"span":12,"encoder":"553507758598","distractor":"553507258598","target":"absent","response":"absent","rt":"2959.8000000119","correct":true,"confidence":4},{"trial_n":128,"span":12,"encoder":"909425387641","distractor":"909425387601","target":"present","response":"present","rt":"3104.099999994","correct":true,"confidence":4},{"trial_n":129,"span":13,"encoder":"8467518325208","distractor":"8067518325208","target":"absent","response":"absent","rt":"8143.2999999821","correct":true,"confidence":5},{"trial_n":130,"span":13,"encoder":"6500592634059","distractor":"6500892634059","target":"absent","response":"absent","rt":"4417.1000000238","correct":true,"confidence":5},{"trial_n":131,"span":14,"encoder":"61609000783541","distractor":"61609000783241","target":"absent","response":"absent","rt":"5957.400000006","correct":true,"confidence":4},{"trial_n":132,"span":14,"encoder":"21467486692611","distractor":"21467486652611","target":"absent","response":"absent","rt":"3824.1999999881","correct":true,"confidence":5},{"trial_n":133,"span":15,"encoder":"841889579850664","distractor":"841809579850664","target":"present","response":"absent","rt":"7851.5","correct":false,"confidence":4},{"trial_n":134,"span":14,"encoder":"26672935997035","distractor":"26682935997035","target":"absent","response":"absent","rt":"4966.3000000119","correct":true,"confidence":5},{"trial_n":135,"span":14,"encoder":"21567002859682","distractor":"25567002859682","target":"present","response":"absent","rt":"8640","correct":false,"confidence":3},{"trial_n":136,"span":13,"encoder":"9055860601123","distractor":"9055360601123","target":"absent","response":"absent","rt":"7882.900000006","correct":true,"confidence":4},{"trial_n":137,"span":13,"encoder":"0939002185723","distractor":"0939502185723","target":"present","response":"present","rt":"17555.800000012","correct":true,"confidence":4},{"trial_n":138,"span":14,"encoder":"78206273331982","distractor":"78206273331989","target":"absent","response":"present","rt":"4786.400000006","correct":false,"confidence":4},{"trial_n":139,"span":13,"encoder":"6269135504608","distractor":"6269835504608","target":"present","response":"present","rt":"4225.2999999821","correct":true,"confidence":4},{"trial_n":140,"span":13,"encoder":"2995943774614","distractor":"1995943774614","target":"present","response":"present","rt":"3005.5","correct":true,"confidence":5}]