[{"trial_n":1,"min":25,"max":230,"target":"present","response":"present","rt":4916,"correct":true,"confidence":-1},{"trial_n":2,"min":25,"max":230,"target":"present","response":"present","rt":915,"correct":true,"confidence":-1},{"trial_n":3,"min":41,"max":214,"target":"absent","response":"absent","rt":1314,"correct":true,"confidence":-1},{"trial_n":4,"min":41,"max":214,"target":"absent","response":"absent","rt":706,"correct":true,"confidence":-1},{"trial_n":5,"min":57,"max":198,"target":"present","response":"present","rt":993,"correct":true,"confidence":-1},{"trial_n":6,"min":57,"max":198,"target":"present","response":"present","rt":568.00000000001,"correct":true,"confidence":-1},{"trial_n":7,"min":73,"max":182,"target":"present","response":"present","rt":657.00000000001,"correct":true,"confidence":-1},{"trial_n":8,"min":73,"max":182,"target":"absent","response":"absent","rt":1122,"correct":true,"confidence":-1},{"trial_n":9,"min":89,"max":166,"target":"absent","response":"absent","rt":561.99999999999,"correct":true,"confidence":-1},{"trial_n":10,"min":89,"max":166,"target":"absent","response":"absent","rt":589,"correct":true,"confidence":-1},{"trial_n":11,"min":97,"max":158,"target":"present","response":"absent","rt":514,"correct":false,"confidence":-1},{"trial_n":12,"min":89,"max":166,"target":"absent","response":"absent","rt":589.99999999999,"correct":true,"confidence":-1},{"trial_n":13,"min":89,"max":166,"target":"present","response":"absent","rt":506,"correct":false,"confidence":-1},{"trial_n":14,"min":81,"max":174,"target":"present","response":"absent","rt":603,"correct":false,"confidence":-1},{"trial_n":15,"min":73,"max":182,"target":"present","response":"absent","rt":722,"correct":false,"confidence":-1},{"trial_n":16,"min":65,"max":190,"target":"present","response":"present","rt":1175,"correct":true,"confidence":-1},{"trial_n":17,"min":65,"max":190,"target":"absent","response":"absent","rt":3253,"correct":true,"confidence":-1},{"trial_n":18,"min":73,"max":182,"target":"absent","response":"absent","rt":1656,"correct":true,"confidence":-1},{"trial_n":19,"min":73,"max":182,"target":"absent","response":"absent","rt":891,"correct":true,"confidence":-1},{"trial_n":20,"min":81,"max":174,"target":"present","response":"present","rt":1146,"correct":true,"confidence":-1},{"trial_n":21,"min":81,"max":174,"target":"absent","response":"present","rt":4668,"correct":false,"confidence":2},{"trial_n":22,"min":77,"max":178,"target":"present","response":"present","rt":1021,"correct":true,"confidence":3},{"trial_n":23,"min":77,"max":178,"target":"absent","response":"absent","rt":1412,"correct":true,"confidence":2},{"trial_n":24,"min":81,"max":174,"target":"absent","response":"absent","rt":1345,"correct":true,"confidence":2},{"trial_n":25,"min":81,"max":174,"target":"absent","response":"present","rt":928.99999999999,"correct":false,"confidence":3},{"trial_n":26,"min":77,"max":178,"target":"present","response":"present","rt":930,"correct":true,"confidence":4},{"trial_n":27,"min":77,"max":178,"target":"present","response":"present","rt":893,"correct":true,"confidence":4},{"trial_n":28,"min":81,"max":174,"target":"absent","response":"present","rt":1011,"correct":false,"confidence":4},{"trial_n":29,"min":77,"max":178,"target":"present","response":"present","rt":1003,"correct":true,"confidence":5},{"trial_n":30,"min":77,"max":178,"target":"absent","response":"present","rt":2041,"correct":false,"confidence":2},{"trial_n":31,"min":75,"max":180,"target":"absent","response":"absent","rt":1626,"correct":true,"confidence":2},{"trial_n":32,"min":75,"max":180,"target":"absent","response":"absent","rt":1404,"correct":true,"confidence":3},{"trial_n":33,"min":77,"max":178,"target":"absent","response":"present","rt":2006,"correct":false,"confidence":2},{"trial_n":34,"min":75,"max":180,"target":"absent","response":"present","rt":1168,"correct":false,"confidence":2},{"trial_n":35,"min":73,"max":182,"target":"present","response":"present","rt":1095,"correct":true,"confidence":3},{"trial_n":36,"min":73,"max":182,"target":"absent","response":"present","rt":1408,"correct":false,"confidence":4},{"trial_n":37,"min":71,"max":184,"target":"absent","response":"absent","rt":1323,"correct":true,"confidence":2},{"trial_n":38,"min":71,"max":184,"target":"present","response":"present","rt":985,"correct":true,"confidence":4},{"trial_n":39,"min":73,"max":182,"target":"present","response":"present","rt":945,"correct":true,"confidence":4},{"trial_n":40,"min":73,"max":182,"target":"present","response":"present","rt":937,"correct":true,"confidence":4},{"trial_n":41,"min":74,"max":181,"target":"present","response":"present","rt":1102,"correct":true,"confidence":5},{"trial_n":42,"min":74,"max":181,"target":"absent","response":"present","rt":972,"correct":false,"confidence":4},{"trial_n":43,"min":73,"max":182,"target":"absent","response":"absent","rt":1415,"correct":true,"confidence":3},{"trial_n":44,"min":73,"max":182,"target":"absent","response":"absent","rt":1630,"correct":true,"confidence":3},{"trial_n":45,"min":74,"max":181,"target":"absent","response":"absent","rt":1478,"correct":true,"confidence":3},{"trial_n":46,"min":74,"max":181,"target":"present","response":"present","rt":933,"correct":true,"confidence":3},{"trial_n":47,"min":75,"max":180,"target":"present","response":"present","rt":973,"correct":true,"confidence":4},{"trial_n":48,"min":75,"max":180,"target":"present","response":"present","rt":977,"correct":true,"confidence":4},{"trial_n":49,"min":76,"max":179,"target":"absent","response":"present","rt":2139,"correct":false,"confidence":3},{"trial_n":50,"min":75,"max":180,"target":"present","response":"present","rt":1068,"correct":true,"confidence":4},{"trial_n":51,"min":75,"max":180,"target":"present","response":"present","rt":1030,"correct":true,"confidence":4},{"trial_n":52,"min":76,"max":179,"target":"present","response":"present","rt":966,"correct":true,"confidence":4},{"trial_n":53,"min":76,"max":179,"target":"present","response":"present","rt":1118,"correct":true,"confidence":4},{"trial_n":54,"min":77,"max":178,"target":"absent","response":"absent","rt":1175,"correct":true,"confidence":3},{"trial_n":55,"min":77,"max":178,"target":"present","response":"present","rt":934.00000000003,"correct":true,"confidence":4},{"trial_n":56,"min":78,"max":177,"target":"absent","response":"absent","rt":1054,"correct":true,"confidence":3},{"trial_n":57,"min":78,"max":177,"target":"absent","response":"absent","rt":1006,"correct":true,"confidence":4},{"trial_n":58,"min":79,"max":176,"target":"present","response":"absent","rt":863,"correct":false,"confidence":4},{"trial_n":59,"min":78,"max":177,"target":"present","response":"present","rt":1038,"correct":true,"confidence":3},{"trial_n":60,"min":78,"max":177,"target":"absent","response":"absent","rt":1542,"correct":true,"confidence":3},{"trial_n":61,"min":79,"max":176,"target":"absent","response":"absent","rt":1060,"correct":true,"confidence":4},{"trial_n":62,"min":79,"max":176,"target":"absent","response":"absent","rt":950.00000000003,"correct":true,"confidence":4},{"trial_n":63,"min":80,"max":175,"target":"present","response":"present","rt":1162,"correct":true,"confidence":3},{"trial_n":64,"min":80,"max":175,"target":"present","response":"present","rt":1188.0000000001,"correct":true,"confidence":3},{"trial_n":65,"min":81,"max":174,"target":"present","response":"absent","rt":976,"correct":false,"confidence":3},{"trial_n":66,"min":80,"max":175,"target":"present","response":"present","rt":1046,"correct":true,"confidence":3},{"trial_n":67,"min":80,"max":175,"target":"absent","response":"absent","rt":1264,"correct":true,"confidence":3},{"trial_n":68,"min":81,"max":174,"target":"present","response":"absent","rt":894,"correct":false,"confidence":3},{"trial_n":69,"min":80,"max":175,"target":"absent","response":"absent","rt":948,"correct":true,"confidence":3},{"trial_n":70,"min":80,"max":175,"target":"present","response":"absent","rt":1874,"correct":false,"confidence":3},{"trial_n":71,"min":41,"max":214,"target":"present","response":"present","rt":1758.0000000001,"correct":true,"confidence":-1},{"trial_n":72,"min":41,"max":214,"target":"present","response":"present","rt":1600,"correct":true,"confidence":-1},{"trial_n":73,"min":57,"max":198,"target":"absent","response":"present","rt":1481,"correct":false,"confidence":-1},{"trial_n":74,"min":41,"max":214,"target":"absent","response":"absent","rt":742.00000000006,"correct":true,"confidence":-1},{"trial_n":75,"min":41,"max":214,"target":"present","response":"present","rt":460.00000000006,"correct":true,"confidence":-1},{"trial_n":76,"min":57,"max":198,"target":"present","response":"present","rt":458,"correct":true,"confidence":-1},{"trial_n":77,"min":57,"max":198,"target":"present","response":"absent","rt":480,"correct":false,"confidence":-1},{"trial_n":78,"min":41,"max":214,"target":"absent","response":"absent","rt":687,"correct":true,"confidence":-1},{"trial_n":79,"min":41,"max":214,"target":"present","response":"present","rt":429,"correct":true,"confidence":-1},{"trial_n":80,"min":57,"max":198,"target":"absent","response":"absent","rt":450.99999999994,"correct":true,"confidence":-1},{"trial_n":81,"min":57,"max":198,"target":"present","response":"present","rt":444,"correct":true,"confidence":-1},{"trial_n":82,"min":65,"max":190,"target":"present","response":"present","rt":1867.0000000001,"correct":true,"confidence":-1},{"trial_n":83,"min":65,"max":190,"target":"present","response":"present","rt":679,"correct":true,"confidence":-1},{"trial_n":84,"min":73,"max":182,"target":"present","response":"present","rt":532,"correct":true,"confidence":-1},{"trial_n":85,"min":73,"max":182,"target":"absent","response":"present","rt":1712,"correct":false,"confidence":-1},{"trial_n":86,"min":65,"max":190,"target":"present","response":"present","rt":520,"correct":true,"confidence":-1},{"trial_n":87,"min":65,"max":190,"target":"absent","response":"absent","rt":869,"correct":true,"confidence":-1},{"trial_n":88,"min":73,"max":182,"target":"absent","response":"absent","rt":1078,"correct":true,"confidence":-1},{"trial_n":89,"min":73,"max":182,"target":"present","response":"present","rt":449,"correct":true,"confidence":-1},{"trial_n":90,"min":81,"max":174,"target":"absent","response":"absent","rt":681,"correct":true,"confidence":-1},{"trial_n":91,"min":81,"max":174,"target":"absent","response":"absent","rt":782.00000000006,"correct":true,"confidence":2},{"trial_n":92,"min":85,"max":170,"target":"present","response":"present","rt":551,"correct":true,"confidence":3},{"trial_n":93,"min":85,"max":170,"target":"absent","response":"absent","rt":643,"correct":true,"confidence":3},{"trial_n":94,"min":89,"max":166,"target":"absent","response":"present","rt":709,"correct":false,"confidence":3},{"trial_n":95,"min":85,"max":170,"target":"present","response":"present","rt":949,"correct":true,"confidence":3},{"trial_n":96,"min":85,"max":170,"target":"absent","response":"present","rt":1354,"correct":false,"confidence":2},{"trial_n":97,"min":81,"max":174,"target":"absent","response":"absent","rt":577,"correct":true,"confidence":2},{"trial_n":98,"min":81,"max":174,"target":"present","response":"present","rt":1408,"correct":true,"confidence":2},{"trial_n":99,"min":85,"max":170,"target":"absent","response":"present","rt":953,"correct":false,"confidence":2},{"trial_n":100,"min":81,"max":174,"target":"present","response":"present","rt":1262,"correct":true,"confidence":3},{"trial_n":101,"min":81,"max":174,"target":"present","response":"present","rt":498,"correct":true,"confidence":3},{"trial_n":102,"min":83,"max":172,"target":"present","response":"present","rt":597.00000000006,"correct":true,"confidence":3},{"trial_n":103,"min":83,"max":172,"target":"present","response":"present","rt":410,"correct":true,"confidence":3},{"trial_n":104,"min":85,"max":170,"target":"present","response":"present","rt":626,"correct":true,"confidence":4},{"trial_n":105,"min":85,"max":170,"target":"present","response":"present","rt":1259,"correct":true,"confidence":3},{"trial_n":106,"min":87,"max":168,"target":"absent","response":"absent","rt":521,"correct":true,"confidence":4},{"trial_n":107,"min":87,"max":168,"target":"absent","response":"absent","rt":817,"correct":true,"confidence":3},{"trial_n":108,"min":89,"max":166,"target":"present","response":"present","rt":671,"correct":true,"confidence":3},{"trial_n":109,"min":89,"max":166,"target":"absent","response":"present","rt":1226,"correct":false,"confidence":3},{"trial_n":110,"min":87,"max":168,"target":"present","response":"present","rt":639,"correct":true,"confidence":3},{"trial_n":111,"min":87,"max":168,"target":"absent","response":"absent","rt":807.00000000006,"correct":true,"confidence":3},{"trial_n":112,"min":88,"max":167,"target":"absent","response":"present","rt":861.99999999994,"correct":false,"confidence":2},{"trial_n":113,"min":87,"max":168,"target":"present","response":"present","rt":747,"correct":true,"confidence":2},{"trial_n":114,"min":87,"max":168,"target":"present","response":"present","rt":428,"correct":true,"confidence":2},{"trial_n":115,"min":88,"max":167,"target":"absent","response":"absent","rt":687,"correct":true,"confidence":3},{"trial_n":116,"min":88,"max":167,"target":"present","response":"absent","rt":588,"correct":false,"confidence":3},{"trial_n":117,"min":87,"max":168,"target":"absent","response":"present","rt":717,"correct":false,"confidence":1},{"trial_n":118,"min":86,"max":169,"target":"absent","response":"absent","rt":812,"correct":true,"confidence":3},{"trial_n":119,"min":86,"max":169,"target":"present","response":"present","rt":696,"correct":true,"confidence":3},{"trial_n":120,"min":87,"max":168,"target":"absent","response":"present","rt":1983,"correct":false,"confidence":2},{"trial_n":121,"min":86,"max":169,"target":"absent","response":"present","rt":1077,"correct":false,"confidence":1},{"trial_n":122,"min":85,"max":170,"target":"absent","response":"absent","rt":707,"correct":true,"confidence":2},{"trial_n":123,"min":85,"max":170,"target":"present","response":"present","rt":758.00000000006,"correct":true,"confidence":2},{"trial_n":124,"min":86,"max":169,"target":"present","response":"absent","rt":632,"correct":false,"confidence":2},{"trial_n":125,"min":85,"max":170,"target":"absent","response":"absent","rt":760,"correct":true,"confidence":3},{"trial_n":126,"min":85,"max":170,"target":"absent","response":"absent","rt":827,"correct":true,"confidence":3},{"trial_n":127,"min":86,"max":169,"target":"present","response":"absent","rt":949.00000000006,"correct":false,"confidence":3},{"trial_n":128,"min":85,"max":170,"target":"absent","response":"absent","rt":1742.9999999999,"correct":true,"confidence":2},{"trial_n":129,"min":85,"max":170,"target":"present","response":"present","rt":654.00000000006,"correct":true,"confidence":2},{"trial_n":130,"min":86,"max":169,"target":"absent","response":"present","rt":717,"correct":false,"confidence":3},{"trial_n":131,"min":85,"max":170,"target":"absent","response":"absent","rt":695.00000000006,"correct":true,"confidence":2},{"trial_n":132,"min":85,"max":170,"target":"absent","response":"absent","rt":905,"correct":true,"confidence":3},{"trial_n":133,"min":86,"max":169,"target":"present","response":"absent","rt":777.99999999994,"correct":false,"confidence":3},{"trial_n":134,"min":85,"max":170,"target":"present","response":"present","rt":1157,"correct":true,"confidence":2},{"trial_n":135,"min":85,"max":170,"target":"absent","response":"absent","rt":650.99999999994,"correct":true,"confidence":3},{"trial_n":136,"min":86,"max":169,"target":"absent","response":"absent","rt":762,"correct":true,"confidence":3},{"trial_n":137,"min":86,"max":169,"target":"present","response":"present","rt":863,"correct":true,"confidence":1},{"trial_n":138,"min":87,"max":168,"target":"present","response":"present","rt":1026.9999999999,"correct":true,"confidence":2},{"trial_n":139,"min":87,"max":168,"target":"absent","response":"absent","rt":640.99999999994,"correct":true,"confidence":2},{"trial_n":140,"min":88,"max":167,"target":"present","response":"absent","rt":1148.0000000001,"correct":false,"confidence":3}]