[{"trial_n":1,"span":8,"encoder":"35948542","distractor":"35958542","target":"present","response":"present","rt":"3532","correct":true,"confidence":-1},{"trial_n":2,"span":8,"encoder":"03753856","distractor":"03753886","target":"present","response":"present","rt":"3211","correct":true,"confidence":-1},{"trial_n":3,"span":10,"encoder":"4923730060","distractor":"4963730060","target":"absent","response":"absent","rt":"2573","correct":true,"confidence":-1},{"trial_n":4,"span":10,"encoder":"4277505081","distractor":"1277505081","target":"absent","response":"present","rt":"1862","correct":false,"confidence":-1},{"trial_n":5,"span":8,"encoder":"76355534","distractor":"76855534","target":"present","response":"absent","rt":"2401","correct":false,"confidence":-1},{"trial_n":6,"span":6,"encoder":"823143","distractor":"823173","target":"absent","response":"present","rt":"2302","correct":false,"confidence":-1},{"trial_n":7,"span":4,"encoder":"3672","distractor":"5672","target":"absent","response":"absent","rt":"1944","correct":true,"confidence":-1},{"trial_n":8,"span":4,"encoder":"2950","distractor":"2957","target":"present","response":"present","rt":"1290","correct":true,"confidence":-1},{"trial_n":9,"span":6,"encoder":"708719","distractor":"708759","target":"absent","response":"absent","rt":"1473","correct":true,"confidence":-1},{"trial_n":10,"span":6,"encoder":"709728","distractor":"709726","target":"absent","response":"absent","rt":"1759","correct":true,"confidence":-1},{"trial_n":11,"span":8,"encoder":"88835215","distractor":"78835215","target":"absent","response":"absent","rt":"1715","correct":true,"confidence":-1},{"trial_n":12,"span":8,"encoder":"91364186","distractor":"91369186","target":"absent","response":"absent","rt":"2111","correct":true,"confidence":-1},{"trial_n":13,"span":9,"encoder":"833673310","distractor":"833973310","target":"present","response":"absent","rt":"1153","correct":false,"confidence":-1},{"trial_n":14,"span":8,"encoder":"65844142","distractor":"65844172","target":"present","response":"present","rt":"1692","correct":true,"confidence":-1},{"trial_n":15,"span":8,"encoder":"44877341","distractor":"44877041","target":"absent","response":"present","rt":"2347","correct":false,"confidence":-1},{"trial_n":16,"span":7,"encoder":"6446418","distractor":"6846418","target":"present","response":"present","rt":"2220","correct":true,"confidence":-1},{"trial_n":17,"span":7,"encoder":"6052588","distractor":"6052584","target":"present","response":"present","rt":"2405","correct":true,"confidence":-1},{"trial_n":18,"span":8,"encoder":"82463226","distractor":"82463526","target":"present","response":"absent","rt":"2664","correct":false,"confidence":-1},{"trial_n":19,"span":7,"encoder":"7439682","distractor":"7449682","target":"absent","response":"absent","rt":"2466","correct":true,"confidence":-1},{"trial_n":20,"span":7,"encoder":"7757995","distractor":"7757994","target":"present","response":"absent","rt":"2925","correct":false,"confidence":-1},{"trial_n":21,"span":6,"encoder":"295856","distractor":"265856","target":"present","response":"absent","rt":"4993","correct":false,"confidence":3},{"trial_n":22,"span":5,"encoder":"05648","distractor":"05628","target":"absent","response":"absent","rt":"3940","correct":true,"confidence":3},{"trial_n":23,"span":5,"encoder":"29167","distractor":"29177","target":"present","response":"present","rt":"1833","correct":true,"confidence":1},{"trial_n":24,"span":6,"encoder":"264738","distractor":"264038","target":"present","response":"present","rt":"2460","correct":true,"confidence":4},{"trial_n":25,"span":6,"encoder":"213305","distractor":"212305","target":"present","response":"absent","rt":"1966","correct":false,"confidence":2},{"trial_n":26,"span":5,"encoder":"92636","distractor":"92686","target":"absent","response":"absent","rt":"2992","correct":true,"confidence":3},{"trial_n":27,"span":5,"encoder":"98555","distractor":"98554","target":"present","response":"present","rt":"5985","correct":true,"confidence":3},{"trial_n":28,"span":6,"encoder":"524403","distractor":"524413","target":"present","response":"present","rt":"2507","correct":true,"confidence":3},{"trial_n":29,"span":6,"encoder":"196275","distractor":"186275","target":"present","response":"present","rt":"2207","correct":true,"confidence":5},{"trial_n":30,"span":7,"encoder":"8012409","distractor":"8016409","target":"present","response":"present","rt":"3836","correct":true,"confidence":4},{"trial_n":31,"span":7,"encoder":"0006476","distractor":"0006472","target":"present","response":"present","rt":"3759","correct":true,"confidence":3},{"trial_n":32,"span":8,"encoder":"89523929","distractor":"89523429","target":"absent","response":"absent","rt":"2381","correct":true,"confidence":3},{"trial_n":33,"span":8,"encoder":"42916495","distractor":"42916492","target":"present","response":"present","rt":"3577","correct":true,"confidence":2},{"trial_n":34,"span":9,"encoder":"012613583","distractor":"212613583","target":"absent","response":"absent","rt":"2211.9999999999","correct":true,"confidence":2},{"trial_n":35,"span":9,"encoder":"500393257","distractor":"400393257","target":"present","response":"present","rt":"5077.9999999999","correct":true,"confidence":3},{"trial_n":36,"span":10,"encoder":"8590961046","distractor":"8590921046","target":"present","response":"present","rt":"2745","correct":true,"confidence":3},{"trial_n":37,"span":10,"encoder":"9291498769","distractor":"9292498769","target":"absent","response":"absent","rt":"3552","correct":true,"confidence":2},{"trial_n":38,"span":11,"encoder":"55201362244","distractor":"55401362244","target":"present","response":"present","rt":"2031.0000000001","correct":true,"confidence":2},{"trial_n":39,"span":11,"encoder":"20448415648","distractor":"20448315648","target":"present","response":"present","rt":"2555","correct":true,"confidence":2},{"trial_n":40,"span":12,"encoder":"661174170459","distractor":"661174170429","target":"present","response":"present","rt":"2817.9999999999","correct":true,"confidence":2},{"trial_n":41,"span":12,"encoder":"057874508963","distractor":"055874508963","target":"absent","response":"absent","rt":"3176.0000000001","correct":true,"confidence":2},{"trial_n":42,"span":13,"encoder":"8062297467018","distractor":"8062997467018","target":"present","response":"absent","rt":"2182","correct":false,"confidence":1},{"trial_n":43,"span":12,"encoder":"110419628101","distractor":"110419628109","target":"absent","response":"present","rt":"4854.0000000001","correct":false,"confidence":2},{"trial_n":44,"span":11,"encoder":"50152424577","distractor":"50112424577","target":"present","response":"absent","rt":"4419","correct":false,"confidence":3},{"trial_n":45,"span":10,"encoder":"3327394905","distractor":"3324394905","target":"absent","response":"present","rt":"1338","correct":false,"confidence":3},{"trial_n":46,"span":9,"encoder":"473297072","distractor":"473297071","target":"absent","response":"absent","rt":"3104","correct":true,"confidence":4},{"trial_n":47,"span":9,"encoder":"312468224","distractor":"392468224","target":"absent","response":"present","rt":"1578","correct":false,"confidence":2},{"trial_n":48,"span":8,"encoder":"61443983","distractor":"66443983","target":"absent","response":"present","rt":"3772.9999999999","correct":false,"confidence":2},{"trial_n":49,"span":7,"encoder":"8682842","distractor":"8882842","target":"absent","response":"present","rt":"1882","correct":false,"confidence":2},{"trial_n":50,"span":6,"encoder":"005691","distractor":"005621","target":"absent","response":"absent","rt":"3834","correct":true,"confidence":3},{"trial_n":51,"span":6,"encoder":"508548","distractor":"508598","target":"present","response":"present","rt":"1759","correct":true,"confidence":3},{"trial_n":52,"span":7,"encoder":"1965813","distractor":"1945813","target":"absent","response":"absent","rt":"2048","correct":true,"confidence":3},{"trial_n":53,"span":7,"encoder":"3811188","distractor":"3813188","target":"absent","response":"absent","rt":"3740.0000000001","correct":true,"confidence":4},{"trial_n":54,"span":8,"encoder":"02677613","distractor":"03677613","target":"present","response":"present","rt":"3528","correct":true,"confidence":3},{"trial_n":55,"span":8,"encoder":"08185188","distractor":"08185688","target":"present","response":"absent","rt":"3232","correct":false,"confidence":3},{"trial_n":56,"span":7,"encoder":"6544181","distractor":"6544182","target":"present","response":"present","rt":"7091.0000000001","correct":true,"confidence":2},{"trial_n":57,"span":7,"encoder":"4490172","distractor":"4490112","target":"present","response":"present","rt":"3170","correct":true,"confidence":3},{"trial_n":58,"span":8,"encoder":"64851096","distractor":"64851036","target":"absent","response":"absent","rt":"5699","correct":true,"confidence":3},{"trial_n":59,"span":8,"encoder":"89886245","distractor":"89886244","target":"absent","response":"absent","rt":"3635","correct":true,"confidence":3},{"trial_n":60,"span":9,"encoder":"627588128","distractor":"697588128","target":"absent","response":"present","rt":"7899","correct":false,"confidence":2},{"trial_n":61,"span":8,"encoder":"76860557","distractor":"76860857","target":"present","response":"present","rt":"2334","correct":true,"confidence":2},{"trial_n":62,"span":8,"encoder":"92868535","distractor":"92468535","target":"absent","response":"absent","rt":"3497","correct":true,"confidence":3},{"trial_n":63,"span":9,"encoder":"747975104","distractor":"747975194","target":"absent","response":"absent","rt":"3694","correct":true,"confidence":5},{"trial_n":64,"span":9,"encoder":"279609691","distractor":"279603691","target":"present","response":"present","rt":"1625.9999999999","correct":true,"confidence":3},{"trial_n":65,"span":10,"encoder":"5290128467","distractor":"5210128467","target":"present","response":"present","rt":"2432.9999999999","correct":true,"confidence":2},{"trial_n":66,"span":10,"encoder":"0909640528","distractor":"0900640528","target":"absent","response":"absent","rt":"2497","correct":true,"confidence":3},{"trial_n":67,"span":11,"encoder":"54469755595","distractor":"54467755595","target":"absent","response":"present","rt":"1823","correct":false,"confidence":3},{"trial_n":68,"span":10,"encoder":"8901324460","distractor":"8001324460","target":"present","response":"present","rt":"4028","correct":true,"confidence":3},{"trial_n":69,"span":10,"encoder":"6742262681","distractor":"6742262081","target":"absent","response":"present","rt":"4435","correct":false,"confidence":3},{"trial_n":70,"span":9,"encoder":"724688818","distractor":"724688848","target":"absent","response":"absent","rt":"2362","correct":true,"confidence":4},{"trial_n":71,"span":8,"encoder":"47904292","distractor":"47504292","target":"present","response":"present","rt":"2709","correct":true,"confidence":-1},{"trial_n":72,"span":8,"encoder":"84649883","distractor":"84641883","target":"present","response":"present","rt":"2733","correct":true,"confidence":-1},{"trial_n":73,"span":9,"encoder":"177756645","distractor":"177756045","target":"absent","response":"absent","rt":"3344","correct":true,"confidence":-1},{"trial_n":74,"span":9,"encoder":"024816413","distractor":"024816443","target":"absent","response":"absent","rt":"1643","correct":true,"confidence":-1},{"trial_n":75,"span":10,"encoder":"4295257635","distractor":"4295257638","target":"present","response":"present","rt":"3614","correct":true,"confidence":-1},{"trial_n":76,"span":10,"encoder":"9145213057","distractor":"9145213017","target":"present","response":"absent","rt":"6143","correct":false,"confidence":-1},{"trial_n":77,"span":9,"encoder":"562882729","distractor":"562882709","target":"present","response":"present","rt":"2082","correct":true,"confidence":-1},{"trial_n":78,"span":9,"encoder":"041755566","distractor":"041755866","target":"present","response":"present","rt":"1848.0000000001","correct":true,"confidence":-1},{"trial_n":79,"span":10,"encoder":"4288708529","distractor":"4288701529","target":"absent","response":"absent","rt":"3062","correct":true,"confidence":-1},{"trial_n":80,"span":10,"encoder":"8658805244","distractor":"8658805248","target":"absent","response":"absent","rt":"2451","correct":true,"confidence":-1},{"trial_n":81,"span":11,"encoder":"79041896669","distractor":"79041896663","target":"present","response":"present","rt":"2937","correct":true,"confidence":-1},{"trial_n":82,"span":11,"encoder":"92161268818","distractor":"92161268858","target":"present","response":"present","rt":"1363","correct":true,"confidence":-1},{"trial_n":83,"span":12,"encoder":"965340801932","distractor":"962340801932","target":"present","response":"absent","rt":"4494","correct":false,"confidence":-1},{"trial_n":84,"span":11,"encoder":"73570081141","distractor":"73570051141","target":"present","response":"absent","rt":"1788","correct":false,"confidence":-1},{"trial_n":85,"span":10,"encoder":"9772777107","distractor":"7772777107","target":"absent","response":"present","rt":"1519.9999999999","correct":false,"confidence":-1},{"trial_n":86,"span":9,"encoder":"448678210","distractor":"448278210","target":"absent","response":"present","rt":"2412","correct":false,"confidence":-1},{"trial_n":87,"span":8,"encoder":"35893676","distractor":"35893616","target":"absent","response":"present","rt":"2665.9999999999","correct":false,"confidence":-1},{"trial_n":88,"span":7,"encoder":"7338832","distractor":"7438832","target":"absent","response":"absent","rt":"896","correct":true,"confidence":-1},{"trial_n":89,"span":7,"encoder":"8616509","distractor":"8616501","target":"absent","response":"absent","rt":"2264","correct":true,"confidence":-1},{"trial_n":90,"span":8,"encoder":"26411437","distractor":"46411437","target":"absent","response":"present","rt":"5266","correct":false,"confidence":-1},{"trial_n":91,"span":7,"encoder":"1536974","distractor":"1536976","target":"present","response":"present","rt":"7002.0000000001","correct":true,"confidence":3},{"trial_n":92,"span":7,"encoder":"8693640","distractor":"8693644","target":"absent","response":"absent","rt":"6449","correct":true,"confidence":2},{"trial_n":93,"span":8,"encoder":"72906437","distractor":"72966437","target":"absent","response":"absent","rt":"4310.0000000001","correct":true,"confidence":2},{"trial_n":94,"span":8,"encoder":"43410512","distractor":"43410516","target":"present","response":"present","rt":"4941","correct":true,"confidence":2},{"trial_n":95,"span":9,"encoder":"006562876","distractor":"006562076","target":"absent","response":"absent","rt":"4532.9999999999","correct":true,"confidence":2},{"trial_n":96,"span":9,"encoder":"348290313","distractor":"346290313","target":"present","response":"present","rt":"3845","correct":true,"confidence":2},{"trial_n":97,"span":10,"encoder":"9137069904","distractor":"9137969904","target":"present","response":"present","rt":"7214","correct":true,"confidence":2},{"trial_n":98,"span":10,"encoder":"3165502763","distractor":"3165502363","target":"present","response":"present","rt":"4035.9999999999","correct":true,"confidence":2},{"trial_n":99,"span":11,"encoder":"29490942656","distractor":"29490942256","target":"present","response":"present","rt":"3006.0000000001","correct":true,"confidence":5},{"trial_n":100,"span":11,"encoder":"83540513636","distractor":"83540513631","target":"absent","response":"absent","rt":"1396","correct":true,"confidence":2},{"trial_n":101,"span":12,"encoder":"398581653536","distractor":"390581653536","target":"absent","response":"absent","rt":"5752","correct":true,"confidence":2},{"trial_n":102,"span":12,"encoder":"867064257175","distractor":"867064257775","target":"absent","response":"present","rt":"6395","correct":false,"confidence":2},{"trial_n":103,"span":11,"encoder":"50922588587","distractor":"50929588587","target":"present","response":"present","rt":"3488.9999999999","correct":true,"confidence":4},{"trial_n":104,"span":11,"encoder":"29805003571","distractor":"29805003551","target":"present","response":"present","rt":"9012.0000000001","correct":true,"confidence":3},{"trial_n":105,"span":12,"encoder":"095698559576","distractor":"095698554576","target":"absent","response":"absent","rt":"3347","correct":true,"confidence":2},{"trial_n":106,"span":12,"encoder":"048051824153","distractor":"048011824153","target":"absent","response":"absent","rt":"1882.9999999998","correct":true,"confidence":2},{"trial_n":107,"span":13,"encoder":"3872059744955","distractor":"3872059044955","target":"absent","response":"present","rt":"3638","correct":false,"confidence":1},{"trial_n":108,"span":12,"encoder":"734961821965","distractor":"734261821965","target":"present","response":"present","rt":"4715","correct":true,"confidence":5},{"trial_n":109,"span":12,"encoder":"085967272632","distractor":"085667272632","target":"absent","response":"absent","rt":"2903","correct":true,"confidence":5},{"trial_n":110,"span":13,"encoder":"1015238041119","distractor":"1013238041119","target":"absent","response":"absent","rt":"3710","correct":true,"confidence":4},{"trial_n":111,"span":13,"encoder":"8620398996386","distractor":"8690398996386","target":"present","response":"present","rt":"3599","correct":true,"confidence":5},{"trial_n":112,"span":14,"encoder":"24683117033376","distractor":"24683117033377","target":"absent","response":"absent","rt":"1548","correct":true,"confidence":5},{"trial_n":113,"span":14,"encoder":"80657645181866","distractor":"80657646181866","target":"absent","response":"present","rt":"10546","correct":false,"confidence":1},{"trial_n":114,"span":13,"encoder":"3592564999058","distractor":"3592564919058","target":"present","response":"absent","rt":"7545","correct":false,"confidence":2},{"trial_n":115,"span":12,"encoder":"740650657574","distractor":"740650657594","target":"present","response":"present","rt":"6386.0000000002","correct":true,"confidence":2},{"trial_n":116,"span":12,"encoder":"435964341612","distractor":"635964341612","target":"absent","response":"absent","rt":"1751","correct":true,"confidence":5},{"trial_n":117,"span":13,"encoder":"1608187136449","distractor":"1608187139449","target":"present","response":"present","rt":"16722","correct":true,"confidence":1},{"trial_n":118,"span":13,"encoder":"3515107312286","distractor":"3517107312286","target":"absent","response":"absent","rt":"1972","correct":true,"confidence":3},{"trial_n":119,"span":14,"encoder":"59730197546363","distractor":"59730197746363","target":"present","response":"present","rt":"10181","correct":true,"confidence":1},{"trial_n":120,"span":14,"encoder":"40618215399154","distractor":"40618215399152","target":"absent","response":"absent","rt":"2853","correct":true,"confidence":1},{"trial_n":121,"span":15,"encoder":"017066948710148","distractor":"017066945710148","target":"present","response":"absent","rt":"3347","correct":false,"confidence":1},{"trial_n":122,"span":14,"encoder":"78366953754154","distractor":"78366953754134","target":"present","response":"absent","rt":"4731","correct":false,"confidence":1},{"trial_n":123,"span":13,"encoder":"0768784926103","distractor":"0768584926103","target":"present","response":"absent","rt":"9539.0000000002","correct":false,"confidence":2},{"trial_n":124,"span":12,"encoder":"732752528623","distractor":"732752528673","target":"absent","response":"present","rt":"3572","correct":false,"confidence":1},{"trial_n":125,"span":11,"encoder":"77775894109","distractor":"77775394109","target":"present","response":"present","rt":"11819","correct":true,"confidence":1},{"trial_n":126,"span":11,"encoder":"56704960697","distractor":"58704960697","target":"present","response":"present","rt":"3709","correct":true,"confidence":1},{"trial_n":127,"span":12,"encoder":"988821687987","distractor":"988821687287","target":"present","response":"present","rt":"4325","correct":true,"confidence":1},{"trial_n":128,"span":12,"encoder":"045000944733","distractor":"045000444733","target":"present","response":"present","rt":"2954.9999999998","correct":true,"confidence":5},{"trial_n":129,"span":13,"encoder":"6325900273792","distractor":"6225900273792","target":"absent","response":"present","rt":"2490","correct":false,"confidence":1},{"trial_n":130,"span":12,"encoder":"726998915826","distractor":"728998915826","target":"present","response":"present","rt":"5109","correct":true,"confidence":1},{"trial_n":131,"span":12,"encoder":"574247571858","distractor":"574247371858","target":"absent","response":"absent","rt":"1905","correct":true,"confidence":5},{"trial_n":132,"span":13,"encoder":"9413350797171","distractor":"9413354797171","target":"absent","response":"absent","rt":"2314","correct":true,"confidence":5},{"trial_n":133,"span":13,"encoder":"6423833741833","distractor":"6483833741833","target":"present","response":"absent","rt":"4128.9999999998","correct":false,"confidence":1},{"trial_n":134,"span":12,"encoder":"170283613296","distractor":"170283683296","target":"absent","response":"absent","rt":"2314.9999999998","correct":true,"confidence":4},{"trial_n":135,"span":12,"encoder":"763525999278","distractor":"763125999278","target":"absent","response":"present","rt":"4851","correct":false,"confidence":1},{"trial_n":136,"span":11,"encoder":"14024514145","distractor":"10024514145","target":"present","response":"absent","rt":"8059","correct":false,"confidence":2},{"trial_n":137,"span":10,"encoder":"4177989484","distractor":"4177984484","target":"absent","response":"absent","rt":"3447.9999999998","correct":true,"confidence":4},{"trial_n":138,"span":10,"encoder":"4937743184","distractor":"4937743183","target":"present","response":"present","rt":"4775.0000000002","correct":true,"confidence":3},{"trial_n":139,"span":11,"encoder":"06968065065","distractor":"06968165065","target":"present","response":"present","rt":"3523.0000000002","correct":true,"confidence":1},{"trial_n":140,"span":11,"encoder":"09174832083","distractor":"09074832083","target":"absent","response":"absent","rt":"1861","correct":true,"confidence":5}]