[{"trial_n":1,"n_dots":4.25,"target":"left","response":"left","rt":2843,"correct":true,"confidence":-1},{"trial_n":2,"n_dots":4.25,"target":"left","response":"left","rt":1098,"correct":true,"confidence":-1},{"trial_n":3,"n_dots":3.85,"target":"right","response":"left","rt":681,"correct":false,"confidence":-1},{"trial_n":4,"n_dots":4.25,"target":"right","response":"left","rt":1137,"correct":false,"confidence":-1},{"trial_n":5,"n_dots":4.65,"target":"right","response":"left","rt":1001,"correct":false,"confidence":-1},{"trial_n":6,"n_dots":5.05,"target":"right","response":"right","rt":986,"correct":true,"confidence":-1},{"trial_n":7,"n_dots":5.05,"target":"left","response":"left","rt":507,"correct":true,"confidence":-1},{"trial_n":8,"n_dots":4.85,"target":"right","response":"right","rt":933,"correct":true,"confidence":-1},{"trial_n":9,"n_dots":4.85,"target":"right","response":"right","rt":560,"correct":true,"confidence":-1},{"trial_n":10,"n_dots":4.65,"target":"right","response":"right","rt":521.00000000001,"correct":true,"confidence":-1},{"trial_n":11,"n_dots":4.65,"target":"left","response":"left","rt":714,"correct":true,"confidence":-1},{"trial_n":12,"n_dots":4.45,"target":"right","response":"right","rt":950.00000000001,"correct":true,"confidence":-1},{"trial_n":13,"n_dots":4.45,"target":"left","response":"left","rt":391.99999999999,"correct":true,"confidence":-1},{"trial_n":14,"n_dots":4.35,"target":"right","response":"left","rt":762.99999999999,"correct":false,"confidence":-1},{"trial_n":15,"n_dots":4.45,"target":"right","response":"right","rt":481,"correct":true,"confidence":-1},{"trial_n":16,"n_dots":4.45,"target":"right","response":"right","rt":801,"correct":true,"confidence":-1},{"trial_n":17,"n_dots":4.35,"target":"left","response":"left","rt":521.99999999999,"correct":true,"confidence":-1},{"trial_n":18,"n_dots":4.35,"target":"right","response":"left","rt":714,"correct":false,"confidence":-1},{"trial_n":19,"n_dots":4.45,"target":"right","response":"right","rt":447,"correct":true,"confidence":-1},{"trial_n":20,"n_dots":4.45,"target":"right","response":"right","rt":650,"correct":true,"confidence":-1},{"trial_n":21,"n_dots":4.35,"target":"right","response":"right","rt":898,"correct":true,"confidence":3},{"trial_n":22,"n_dots":4.35,"target":"right","response":"left","rt":805,"correct":false,"confidence":3},{"trial_n":23,"n_dots":4.45,"target":"left","response":"left","rt":1440,"correct":true,"confidence":4},{"trial_n":24,"n_dots":4.45,"target":"right","response":"left","rt":1745,"correct":false,"confidence":4},{"trial_n":25,"n_dots":4.55,"target":"right","response":"left","rt":1391,"correct":false,"confidence":3},{"trial_n":26,"n_dots":4.65,"target":"left","response":"left","rt":1000,"correct":true,"confidence":5},{"trial_n":27,"n_dots":4.65,"target":"left","response":"left","rt":826.00000000001,"correct":true,"confidence":5},{"trial_n":28,"n_dots":4.55,"target":"right","response":"right","rt":969,"correct":true,"confidence":3},{"trial_n":29,"n_dots":4.55,"target":"right","response":"right","rt":906,"correct":true,"confidence":3},{"trial_n":30,"n_dots":4.45,"target":"left","response":"left","rt":650,"correct":true,"confidence":4},{"trial_n":31,"n_dots":4.45,"target":"right","response":"right","rt":1041,"correct":true,"confidence":3},{"trial_n":32,"n_dots":4.35,"target":"right","response":"left","rt":945.00000000001,"correct":false,"confidence":3},{"trial_n":33,"n_dots":4.45,"target":"right","response":"right","rt":1242,"correct":true,"confidence":3},{"trial_n":34,"n_dots":4.45,"target":"right","response":"right","rt":2000,"correct":true,"confidence":3},{"trial_n":35,"n_dots":4.35,"target":"left","response":"left","rt":954,"correct":true,"confidence":3},{"trial_n":36,"n_dots":4.35,"target":"left","response":"left","rt":905,"correct":true,"confidence":4},{"trial_n":37,"n_dots":4.25,"target":"right","response":"right","rt":786,"correct":true,"confidence":3},{"trial_n":38,"n_dots":4.25,"target":"right","response":"right","rt":778,"correct":true,"confidence":3},{"trial_n":39,"n_dots":4.15,"target":"right","response":"right","rt":874,"correct":true,"confidence":3},{"trial_n":40,"n_dots":4.15,"target":"right","response":"right","rt":1657,"correct":true,"confidence":3},{"trial_n":41,"n_dots":4.05,"target":"left","response":"left","rt":729.99999999997,"correct":true,"confidence":5},{"trial_n":42,"n_dots":4.05,"target":"right","response":"left","rt":746,"correct":false,"confidence":5},{"trial_n":43,"n_dots":4.15,"target":"right","response":"right","rt":979,"correct":true,"confidence":3},{"trial_n":44,"n_dots":4.15,"target":"left","response":"left","rt":692,"correct":true,"confidence":5},{"trial_n":45,"n_dots":4.05,"target":"right","response":"right","rt":874,"correct":true,"confidence":4},{"trial_n":46,"n_dots":4.05,"target":"left","response":"left","rt":916,"correct":true,"confidence":4},{"trial_n":47,"n_dots":3.95,"target":"left","response":"left","rt":797,"correct":true,"confidence":4},{"trial_n":48,"n_dots":3.95,"target":"left","response":"left","rt":452,"correct":true,"confidence":5},{"trial_n":49,"n_dots":3.85,"target":"left","response":"left","rt":444,"correct":true,"confidence":5},{"trial_n":50,"n_dots":3.85,"target":"right","response":"left","rt":1668,"correct":false,"confidence":3},{"trial_n":51,"n_dots":3.95,"target":"right","response":"right","rt":829,"correct":true,"confidence":3},{"trial_n":52,"n_dots":3.95,"target":"right","response":"left","rt":1091,"correct":false,"confidence":2},{"trial_n":53,"n_dots":4.05,"target":"left","response":"left","rt":676.00000000003,"correct":true,"confidence":3},{"trial_n":54,"n_dots":4.05,"target":"left","response":"left","rt":716,"correct":true,"confidence":4},{"trial_n":55,"n_dots":3.95,"target":"left","response":"left","rt":723.99999999997,"correct":true,"confidence":4},{"trial_n":56,"n_dots":3.95,"target":"left","response":"left","rt":748,"correct":true,"confidence":4},{"trial_n":57,"n_dots":3.85,"target":"right","response":"right","rt":965.00000000003,"correct":true,"confidence":3},{"trial_n":58,"n_dots":3.85,"target":"right","response":"left","rt":1687,"correct":false,"confidence":2},{"trial_n":59,"n_dots":3.95,"target":"right","response":"right","rt":995,"correct":true,"confidence":2},{"trial_n":60,"n_dots":3.95,"target":"left","response":"left","rt":735.00000000003,"correct":true,"confidence":4},{"trial_n":61,"n_dots":3.85,"target":"right","response":"right","rt":887,"correct":true,"confidence":3},{"trial_n":62,"n_dots":3.85,"target":"left","response":"left","rt":640,"correct":true,"confidence":4},{"trial_n":63,"n_dots":3.75,"target":"left","response":"left","rt":769.99999999994,"correct":true,"confidence":5},{"trial_n":64,"n_dots":3.75,"target":"left","response":"left","rt":1307,"correct":true,"confidence":5},{"trial_n":65,"n_dots":3.65,"target":"right","response":"left","rt":1143,"correct":false,"confidence":2},{"trial_n":66,"n_dots":3.75,"target":"left","response":"left","rt":1054.9999999999,"correct":true,"confidence":2},{"trial_n":67,"n_dots":3.75,"target":"left","response":"left","rt":658.00000000006,"correct":true,"confidence":3},{"trial_n":68,"n_dots":3.65,"target":"right","response":"right","rt":822,"correct":true,"confidence":4},{"trial_n":69,"n_dots":3.65,"target":"right","response":"left","rt":1163,"correct":false,"confidence":2},{"trial_n":70,"n_dots":3.75,"target":"right","response":"left","rt":11184,"correct":false,"confidence":1},{"trial_n":71,"n_dots":3.85,"target":"right","response":"right","rt":1099,"correct":true,"confidence":2},{"trial_n":72,"n_dots":3.85,"target":"left","response":"left","rt":790.99999999994,"correct":true,"confidence":4},{"trial_n":73,"n_dots":3.75,"target":"left","response":"left","rt":785,"correct":true,"confidence":4},{"trial_n":74,"n_dots":3.75,"target":"right","response":"right","rt":992,"correct":true,"confidence":3},{"trial_n":75,"n_dots":3.65,"target":"left","response":"left","rt":469,"correct":true,"confidence":3},{"trial_n":76,"n_dots":3.65,"target":"right","response":"left","rt":873,"correct":false,"confidence":3},{"trial_n":77,"n_dots":3.75,"target":"right","response":"left","rt":1182,"correct":false,"confidence":4},{"trial_n":78,"n_dots":3.85,"target":"left","response":"left","rt":541,"correct":true,"confidence":5},{"trial_n":79,"n_dots":3.85,"target":"left","response":"left","rt":617,"correct":true,"confidence":5},{"trial_n":80,"n_dots":3.75,"target":"left","response":"left","rt":618,"correct":true,"confidence":5},{"trial_n":81,"n_dots":3.75,"target":"right","response":"right","rt":1138,"correct":true,"confidence":2},{"trial_n":82,"n_dots":3.65,"target":"right","response":"right","rt":810.00000000006,"correct":true,"confidence":3},{"trial_n":83,"n_dots":3.65,"target":"right","response":"left","rt":660,"correct":false,"confidence":3},{"trial_n":84,"n_dots":3.75,"target":"left","response":"left","rt":453,"correct":true,"confidence":4},{"trial_n":85,"n_dots":3.75,"target":"left","response":"left","rt":761,"correct":true,"confidence":4},{"trial_n":86,"n_dots":3.65,"target":"right","response":"right","rt":910.00000000006,"correct":true,"confidence":4},{"trial_n":87,"n_dots":3.65,"target":"left","response":"left","rt":427,"correct":true,"confidence":4},{"trial_n":88,"n_dots":3.55,"target":"left","response":"left","rt":406,"correct":true,"confidence":4},{"trial_n":89,"n_dots":3.55,"target":"left","response":"left","rt":263,"correct":true,"confidence":3},{"trial_n":90,"n_dots":3.45,"target":"right","response":"left","rt":552,"correct":false,"confidence":3},{"trial_n":91,"n_dots":3.55,"target":"right","response":"right","rt":1132.9999999999,"correct":true,"confidence":3},{"trial_n":92,"n_dots":3.55,"target":"right","response":"left","rt":876,"correct":false,"confidence":3},{"trial_n":93,"n_dots":3.65,"target":"left","response":"left","rt":730,"correct":true,"confidence":3},{"trial_n":94,"n_dots":3.65,"target":"left","response":"left","rt":714,"correct":true,"confidence":4},{"trial_n":95,"n_dots":3.55,"target":"right","response":"right","rt":830.00000000006,"correct":true,"confidence":3},{"trial_n":96,"n_dots":3.55,"target":"left","response":"left","rt":696,"correct":true,"confidence":3},{"trial_n":97,"n_dots":3.45,"target":"left","response":"left","rt":885,"correct":true,"confidence":4},{"trial_n":98,"n_dots":3.45,"target":"left","response":"left","rt":730,"correct":true,"confidence":4},{"trial_n":99,"n_dots":3.35,"target":"left","response":"left","rt":850,"correct":true,"confidence":4},{"trial_n":100,"n_dots":3.35,"target":"left","response":"left","rt":795,"correct":true,"confidence":4},{"trial_n":101,"n_dots":3.25,"target":"left","response":"left","rt":747,"correct":true,"confidence":5},{"trial_n":102,"n_dots":3.25,"target":"left","response":"left","rt":597,"correct":true,"confidence":4},{"trial_n":103,"n_dots":3.15,"target":"left","response":"left","rt":687.99999999994,"correct":true,"confidence":4},{"trial_n":104,"n_dots":3.15,"target":"right","response":"left","rt":748,"correct":false,"confidence":4},{"trial_n":105,"n_dots":3.25,"target":"right","response":"left","rt":665.00000000006,"correct":false,"confidence":3},{"trial_n":106,"n_dots":3.35,"target":"left","response":"left","rt":650.99999999994,"correct":true,"confidence":3},{"trial_n":107,"n_dots":3.35,"target":"left","response":"left","rt":589,"correct":true,"confidence":5},{"trial_n":108,"n_dots":3.25,"target":"left","response":"left","rt":982,"correct":true,"confidence":4},{"trial_n":109,"n_dots":3.25,"target":"right","response":"left","rt":696.99999999994,"correct":false,"confidence":4},{"trial_n":110,"n_dots":3.35,"target":"left","response":"left","rt":697.99999999994,"correct":true,"confidence":3},{"trial_n":111,"n_dots":3.35,"target":"left","response":"left","rt":683,"correct":true,"confidence":3},{"trial_n":112,"n_dots":3.25,"target":"left","response":"left","rt":543,"correct":true,"confidence":4},{"trial_n":113,"n_dots":3.25,"target":"right","response":"left","rt":528,"correct":false,"confidence":3},{"trial_n":114,"n_dots":3.35,"target":"left","response":"left","rt":415,"correct":true,"confidence":4},{"trial_n":115,"n_dots":3.35,"target":"left","response":"left","rt":401,"correct":true,"confidence":4},{"trial_n":116,"n_dots":3.25,"target":"left","response":"left","rt":984,"correct":true,"confidence":5},{"trial_n":117,"n_dots":3.25,"target":"left","response":"left","rt":580,"correct":true,"confidence":5},{"trial_n":118,"n_dots":3.15,"target":"right","response":"left","rt":886,"correct":false,"confidence":4},{"trial_n":119,"n_dots":3.25,"target":"right","response":"right","rt":729,"correct":true,"confidence":4},{"trial_n":120,"n_dots":3.25,"target":"left","response":"left","rt":1274,"correct":true,"confidence":3}]