[{"trial_n":1,"n_dots":4.25,"target":"right","response":"left","rt":11295.5,"correct":false,"confidence":-1},{"trial_n":2,"n_dots":4.25,"target":"left","response":"left","rt":1304.1000000238,"correct":true,"confidence":-1},{"trial_n":3,"n_dots":4.25,"target":"left","response":"right","rt":1068.2000000477,"correct":false,"confidence":-1},{"trial_n":4,"n_dots":4.65,"target":"right","response":"right","rt":941.39999997616,"correct":true,"confidence":-1},{"trial_n":5,"n_dots":4.65,"target":"right","response":"right","rt":891.5,"correct":true,"confidence":-1},{"trial_n":6,"n_dots":4.25,"target":"left","response":"left","rt":1603,"correct":true,"confidence":-1},{"trial_n":7,"n_dots":4.25,"target":"right","response":"right","rt":951.60000002384,"correct":true,"confidence":-1},{"trial_n":8,"n_dots":4.05,"target":"right","response":"left","rt":1044.8999999762,"correct":false,"confidence":-1},{"trial_n":9,"n_dots":4.25,"target":"left","response":"left","rt":1044.5,"correct":true,"confidence":-1},{"trial_n":10,"n_dots":4.25,"target":"left","response":"left","rt":805.80000007153,"correct":true,"confidence":-1},{"trial_n":11,"n_dots":4.05,"target":"left","response":"left","rt":763.39999997616,"correct":true,"confidence":-1},{"trial_n":12,"n_dots":4.05,"target":"left","response":"left","rt":779.09999990463,"correct":true,"confidence":-1},{"trial_n":13,"n_dots":3.95,"target":"left","response":"left","rt":730.69999992847,"correct":true,"confidence":-1},{"trial_n":14,"n_dots":3.95,"target":"right","response":"left","rt":834.60000002384,"correct":false,"confidence":-1},{"trial_n":15,"n_dots":4.05,"target":"right","response":"right","rt":1030.8000000715,"correct":true,"confidence":-1},{"trial_n":16,"n_dots":4.05,"target":"right","response":"right","rt":1215.6999999285,"correct":true,"confidence":-1},{"trial_n":17,"n_dots":3.95,"target":"right","response":"left","rt":1306.4000000954,"correct":false,"confidence":-1},{"trial_n":18,"n_dots":4.05,"target":"left","response":"left","rt":478.89999997616,"correct":true,"confidence":-1},{"trial_n":19,"n_dots":4.05,"target":"left","response":"left","rt":339.70000004768,"correct":true,"confidence":-1},{"trial_n":20,"n_dots":3.95,"target":"right","response":"right","rt":1028.5,"correct":true,"confidence":-1},{"trial_n":21,"n_dots":3.95,"target":"right","response":"right","rt":1093,"correct":true,"confidence":1},{"trial_n":22,"n_dots":3.85,"target":"right","response":"left","rt":1091.3999999762,"correct":false,"confidence":4},{"trial_n":23,"n_dots":3.95,"target":"left","response":"left","rt":1872.2000000477,"correct":true,"confidence":2},{"trial_n":24,"n_dots":3.95,"target":"right","response":"left","rt":1856.7999999523,"correct":false,"confidence":2},{"trial_n":25,"n_dots":4.05,"target":"left","response":"right","rt":1387.2000000477,"correct":false,"confidence":1},{"trial_n":26,"n_dots":4.15,"target":"left","response":"left","rt":1245.6000000238,"correct":true,"confidence":3},{"trial_n":27,"n_dots":4.15,"target":"right","response":"right","rt":1998.2000000477,"correct":true,"confidence":3},{"trial_n":28,"n_dots":4.05,"target":"left","response":"left","rt":1151.6000000238,"correct":true,"confidence":4},{"trial_n":29,"n_dots":4.05,"target":"left","response":"left","rt":1192.3999999762,"correct":true,"confidence":4},{"trial_n":30,"n_dots":3.95,"target":"left","response":"left","rt":1215.7999999523,"correct":true,"confidence":3},{"trial_n":31,"n_dots":3.95,"target":"right","response":"right","rt":1212.2000000477,"correct":true,"confidence":2},{"trial_n":32,"n_dots":3.85,"target":"right","response":"right","rt":1605.5,"correct":true,"confidence":2},{"trial_n":33,"n_dots":3.85,"target":"right","response":"left","rt":1479.2999999523,"correct":false,"confidence":1},{"trial_n":34,"n_dots":3.95,"target":"right","response":"right","rt":1077,"correct":true,"confidence":3},{"trial_n":35,"n_dots":3.95,"target":"left","response":"left","rt":1491.4000000954,"correct":true,"confidence":2},{"trial_n":36,"n_dots":3.85,"target":"right","response":"right","rt":1120.6000000238,"correct":true,"confidence":3},{"trial_n":37,"n_dots":3.85,"target":"right","response":"right","rt":1093.5,"correct":true,"confidence":3},{"trial_n":38,"n_dots":3.75,"target":"left","response":"left","rt":1136,"correct":true,"confidence":4},{"trial_n":39,"n_dots":3.75,"target":"left","response":"left","rt":1325.6000000238,"correct":true,"confidence":3},{"trial_n":40,"n_dots":3.65,"target":"left","response":"left","rt":1278.3999999762,"correct":true,"confidence":2},{"trial_n":41,"n_dots":3.65,"target":"right","response":"right","rt":982.79999995232,"correct":true,"confidence":3},{"trial_n":42,"n_dots":3.55,"target":"right","response":"left","rt":1314.7999999523,"correct":false,"confidence":2},{"trial_n":43,"n_dots":3.65,"target":"left","response":"right","rt":1376.2000000477,"correct":false,"confidence":2},{"trial_n":44,"n_dots":3.75,"target":"right","response":"left","rt":1002.7000000477,"correct":false,"confidence":3},{"trial_n":45,"n_dots":3.85,"target":"left","response":"left","rt":996.39999997616,"correct":true,"confidence":3},{"trial_n":46,"n_dots":3.85,"target":"right","response":"right","rt":1354.7000000477,"correct":true,"confidence":3},{"trial_n":47,"n_dots":3.75,"target":"right","response":"right","rt":1305.7999999523,"correct":true,"confidence":3},{"trial_n":48,"n_dots":3.75,"target":"right","response":"left","rt":985,"correct":false,"confidence":3},{"trial_n":49,"n_dots":3.85,"target":"left","response":"left","rt":1077.1999999285,"correct":true,"confidence":4},{"trial_n":50,"n_dots":3.85,"target":"right","response":"right","rt":1082.1000000238,"correct":true,"confidence":4},{"trial_n":51,"n_dots":3.75,"target":"left","response":"left","rt":1136.1000000238,"correct":true,"confidence":4},{"trial_n":52,"n_dots":3.75,"target":"left","response":"left","rt":1191,"correct":true,"confidence":4},{"trial_n":53,"n_dots":3.65,"target":"left","response":"left","rt":1027.6000000238,"correct":true,"confidence":4},{"trial_n":54,"n_dots":3.65,"target":"right","response":"left","rt":1377.2000000477,"correct":false,"confidence":3},{"trial_n":55,"n_dots":3.75,"target":"left","response":"right","rt":1308.6999999285,"correct":false,"confidence":1},{"trial_n":56,"n_dots":3.85,"target":"left","response":"left","rt":1157.5,"correct":true,"confidence":4},{"trial_n":57,"n_dots":3.85,"target":"left","response":"left","rt":893.5,"correct":true,"confidence":4},{"trial_n":58,"n_dots":3.75,"target":"right","response":"right","rt":1027.9000000954,"correct":true,"confidence":4},{"trial_n":59,"n_dots":3.75,"target":"right","response":"right","rt":1049.2000000477,"correct":true,"confidence":4},{"trial_n":60,"n_dots":3.65,"target":"right","response":"right","rt":1067.4000000954,"correct":true,"confidence":4},{"trial_n":61,"n_dots":3.65,"target":"left","response":"left","rt":981.20000004768,"correct":true,"confidence":4},{"trial_n":62,"n_dots":3.55,"target":"right","response":"right","rt":870.10000002384,"correct":true,"confidence":4},{"trial_n":63,"n_dots":3.55,"target":"left","response":"left","rt":863.89999997616,"correct":true,"confidence":4},{"trial_n":64,"n_dots":3.45,"target":"right","response":"right","rt":917.5,"correct":true,"confidence":4},{"trial_n":65,"n_dots":3.45,"target":"right","response":"right","rt":825,"correct":true,"confidence":3},{"trial_n":66,"n_dots":3.35,"target":"right","response":"left","rt":1774.6000000238,"correct":false,"confidence":3},{"trial_n":67,"n_dots":3.45,"target":"right","response":"right","rt":905.39999997616,"correct":true,"confidence":4},{"trial_n":68,"n_dots":3.45,"target":"left","response":"left","rt":1030.8999999762,"correct":true,"confidence":4},{"trial_n":69,"n_dots":3.35,"target":"right","response":"right","rt":853.70000004768,"correct":true,"confidence":3},{"trial_n":70,"n_dots":3.35,"target":"right","response":"right","rt":1209.2000000477,"correct":true,"confidence":2},{"trial_n":71,"n_dots":3.25,"target":"left","response":"left","rt":1400.9000000954,"correct":true,"confidence":2},{"trial_n":72,"n_dots":3.25,"target":"left","response":"right","rt":1303,"correct":false,"confidence":3},{"trial_n":73,"n_dots":3.35,"target":"left","response":"left","rt":1229.2999999523,"correct":true,"confidence":4},{"trial_n":74,"n_dots":3.35,"target":"right","response":"left","rt":1363.8999999762,"correct":false,"confidence":3},{"trial_n":75,"n_dots":3.45,"target":"left","response":"left","rt":862.39999997616,"correct":true,"confidence":4},{"trial_n":76,"n_dots":3.45,"target":"left","response":"right","rt":969,"correct":false,"confidence":3},{"trial_n":77,"n_dots":3.55,"target":"right","response":"left","rt":1074.3999999762,"correct":false,"confidence":4},{"trial_n":78,"n_dots":3.65,"target":"right","response":"right","rt":905.10000002384,"correct":true,"confidence":3},{"trial_n":79,"n_dots":3.65,"target":"right","response":"right","rt":1044.1000000238,"correct":true,"confidence":3},{"trial_n":80,"n_dots":3.55,"target":"left","response":"left","rt":1089.1000000238,"correct":true,"confidence":3},{"trial_n":81,"n_dots":3.55,"target":"right","response":"left","rt":1359.5999999046,"correct":false,"confidence":1},{"trial_n":82,"n_dots":3.65,"target":"left","response":"left","rt":961.29999995232,"correct":true,"confidence":4},{"trial_n":83,"n_dots":3.65,"target":"left","response":"left","rt":1344.7999999523,"correct":true,"confidence":4},{"trial_n":84,"n_dots":3.55,"target":"left","response":"left","rt":1545,"correct":true,"confidence":4},{"trial_n":85,"n_dots":3.55,"target":"right","response":"right","rt":2006.2999999523,"correct":true,"confidence":3},{"trial_n":86,"n_dots":3.45,"target":"right","response":"right","rt":935.29999995232,"correct":true,"confidence":4},{"trial_n":87,"n_dots":3.45,"target":"left","response":"left","rt":1127.7999999523,"correct":true,"confidence":4},{"trial_n":88,"n_dots":3.35,"target":"left","response":"right","rt":1308.6999999285,"correct":false,"confidence":3},{"trial_n":89,"n_dots":3.45,"target":"right","response":"left","rt":1282.3000000715,"correct":false,"confidence":3},{"trial_n":90,"n_dots":3.55,"target":"left","response":"left","rt":1263.8999999762,"correct":true,"confidence":4},{"trial_n":91,"n_dots":3.55,"target":"right","response":"right","rt":1011.7000000477,"correct":true,"confidence":3},{"trial_n":92,"n_dots":3.45,"target":"left","response":"left","rt":1042.1999999285,"correct":true,"confidence":4},{"trial_n":93,"n_dots":3.45,"target":"left","response":"left","rt":1147.5999999046,"correct":true,"confidence":4},{"trial_n":94,"n_dots":3.35,"target":"right","response":"right","rt":1080.1999999285,"correct":true,"confidence":4},{"trial_n":95,"n_dots":3.35,"target":"right","response":"right","rt":1104.6000000238,"correct":true,"confidence":3},{"trial_n":96,"n_dots":3.25,"target":"right","response":"left","rt":1573.2999999523,"correct":false,"confidence":2},{"trial_n":97,"n_dots":3.35,"target":"left","response":"left","rt":1346.7999999523,"correct":true,"confidence":3},{"trial_n":98,"n_dots":3.35,"target":"right","response":"right","rt":826.39999997616,"correct":true,"confidence":3},{"trial_n":99,"n_dots":3.25,"target":"right","response":"left","rt":1252.6000000238,"correct":false,"confidence":2},{"trial_n":100,"n_dots":3.35,"target":"left","response":"left","rt":1092,"correct":true,"confidence":3},{"trial_n":101,"n_dots":3.35,"target":"left","response":"left","rt":1183.6000000238,"correct":true,"confidence":3},{"trial_n":102,"n_dots":3.25,"target":"left","response":"left","rt":1008.8000000715,"correct":true,"confidence":4},{"trial_n":103,"n_dots":3.25,"target":"left","response":"left","rt":1371.6000000238,"correct":true,"confidence":3},{"trial_n":104,"n_dots":3.15,"target":"right","response":"left","rt":1918.0999999046,"correct":false,"confidence":3},{"trial_n":105,"n_dots":3.25,"target":"right","response":"right","rt":1006.7000000477,"correct":true,"confidence":3},{"trial_n":106,"n_dots":3.25,"target":"right","response":"right","rt":1014,"correct":true,"confidence":4},{"trial_n":107,"n_dots":3.15,"target":"left","response":"left","rt":1092.7000000477,"correct":true,"confidence":3},{"trial_n":108,"n_dots":3.15,"target":"left","response":"right","rt":918.89999997616,"correct":false,"confidence":4},{"trial_n":109,"n_dots":3.25,"target":"left","response":"left","rt":1126.6000000238,"correct":true,"confidence":4},{"trial_n":110,"n_dots":3.25,"target":"right","response":"right","rt":1013.6000000238,"correct":true,"confidence":4},{"trial_n":111,"n_dots":3.15,"target":"right","response":"right","rt":1029,"correct":true,"confidence":4},{"trial_n":112,"n_dots":3.15,"target":"right","response":"right","rt":843.89999997616,"correct":true,"confidence":4},{"trial_n":113,"n_dots":3.05,"target":"left","response":"left","rt":1218.7999999523,"correct":true,"confidence":4},{"trial_n":114,"n_dots":3.05,"target":"left","response":"right","rt":988.69999992847,"correct":false,"confidence":4},{"trial_n":115,"n_dots":3.15,"target":"right","response":"right","rt":950.29999995232,"correct":true,"confidence":4},{"trial_n":116,"n_dots":3.15,"target":"left","response":"left","rt":887.79999995232,"correct":true,"confidence":4},{"trial_n":117,"n_dots":3.05,"target":"left","response":"left","rt":1024.7000000477,"correct":true,"confidence":4},{"trial_n":118,"n_dots":3.05,"target":"left","response":"left","rt":880,"correct":true,"confidence":4},{"trial_n":119,"n_dots":2.95,"target":"right","response":"right","rt":885.09999990463,"correct":true,"confidence":4},{"trial_n":120,"n_dots":2.95,"target":"left","response":"left","rt":1079.6000000238,"correct":true,"confidence":3}]