[{"trial_n":1,"min":25,"max":230,"target":"present","response":"absent","rt":4470.6000000238,"correct":false,"confidence":-1},{"trial_n":2,"min":25,"max":230,"target":"present","response":"present","rt":1348.6000000238,"correct":true,"confidence":-1},{"trial_n":3,"min":25,"max":230,"target":"absent","response":"absent","rt":1938.5,"correct":true,"confidence":-1},{"trial_n":4,"min":41,"max":214,"target":"absent","response":"absent","rt":1274.6999999285,"correct":true,"confidence":-1},{"trial_n":5,"min":41,"max":214,"target":"present","response":"present","rt":1280.8999999762,"correct":true,"confidence":-1},{"trial_n":6,"min":57,"max":198,"target":"absent","response":"absent","rt":1782.6999999285,"correct":true,"confidence":-1},{"trial_n":7,"min":57,"max":198,"target":"present","response":"present","rt":1838.1000000238,"correct":true,"confidence":-1},{"trial_n":8,"min":73,"max":182,"target":"absent","response":"absent","rt":1405.1000000238,"correct":true,"confidence":-1},{"trial_n":9,"min":73,"max":182,"target":"present","response":"present","rt":1146.5,"correct":true,"confidence":-1},{"trial_n":10,"min":89,"max":166,"target":"absent","response":"absent","rt":1168.4000000954,"correct":true,"confidence":-1},{"trial_n":11,"min":89,"max":166,"target":"absent","response":"absent","rt":1419.7999999523,"correct":true,"confidence":-1},{"trial_n":12,"min":97,"max":158,"target":"absent","response":"absent","rt":863.20000004768,"correct":true,"confidence":-1},{"trial_n":13,"min":97,"max":158,"target":"present","response":"absent","rt":904.89999997616,"correct":false,"confidence":-1},{"trial_n":14,"min":89,"max":166,"target":"present","response":"present","rt":1400.8999999762,"correct":true,"confidence":-1},{"trial_n":15,"min":89,"max":166,"target":"absent","response":"absent","rt":965.79999995232,"correct":true,"confidence":-1},{"trial_n":16,"min":97,"max":158,"target":"present","response":"present","rt":1358.1000000238,"correct":true,"confidence":-1},{"trial_n":17,"min":97,"max":158,"target":"absent","response":"absent","rt":1117.6000000238,"correct":true,"confidence":-1},{"trial_n":18,"min":105,"max":150,"target":"absent","response":"present","rt":1305.5,"correct":false,"confidence":-1},{"trial_n":19,"min":97,"max":158,"target":"absent","response":"absent","rt":1369.8000000715,"correct":true,"confidence":-1},{"trial_n":20,"min":97,"max":158,"target":"absent","response":"absent","rt":762.19999992847,"correct":true,"confidence":-1},{"trial_n":21,"min":101,"max":154,"target":"absent","response":"absent","rt":1092.3999999762,"correct":true,"confidence":3},{"trial_n":22,"min":101,"max":154,"target":"absent","response":"absent","rt":1494.1000000238,"correct":true,"confidence":3},{"trial_n":23,"min":105,"max":150,"target":"absent","response":"absent","rt":1665.6999999285,"correct":true,"confidence":3},{"trial_n":24,"min":105,"max":150,"target":"present","response":"present","rt":1421.3999999762,"correct":true,"confidence":3},{"trial_n":25,"min":109,"max":146,"target":"absent","response":"present","rt":1291.8000000715,"correct":false,"confidence":4},{"trial_n":26,"min":105,"max":150,"target":"absent","response":"present","rt":1480.2999999523,"correct":false,"confidence":4},{"trial_n":27,"min":101,"max":154,"target":"present","response":"present","rt":1710.7000000477,"correct":true,"confidence":4},{"trial_n":28,"min":101,"max":154,"target":"present","response":"present","rt":1481.7999999523,"correct":true,"confidence":3},{"trial_n":29,"min":105,"max":150,"target":"present","response":"present","rt":1966.1000000238,"correct":true,"confidence":2},{"trial_n":30,"min":105,"max":150,"target":"present","response":"present","rt":2181.7999999523,"correct":true,"confidence":4},{"trial_n":31,"min":107,"max":148,"target":"absent","response":"absent","rt":1867.1000000238,"correct":true,"confidence":3},{"trial_n":32,"min":107,"max":148,"target":"absent","response":"present","rt":1416.5,"correct":false,"confidence":3},{"trial_n":33,"min":105,"max":150,"target":"present","response":"present","rt":1355,"correct":true,"confidence":3},{"trial_n":34,"min":105,"max":150,"target":"absent","response":"present","rt":1516.7999999523,"correct":false,"confidence":2},{"trial_n":35,"min":103,"max":152,"target":"present","response":"present","rt":1326.6000000238,"correct":true,"confidence":4},{"trial_n":36,"min":103,"max":152,"target":"present","response":"present","rt":1326,"correct":true,"confidence":3},{"trial_n":37,"min":105,"max":150,"target":"present","response":"absent","rt":2199.3000000715,"correct":false,"confidence":2},{"trial_n":38,"min":103,"max":152,"target":"present","response":"absent","rt":1260.3999999762,"correct":false,"confidence":1},{"trial_n":39,"min":101,"max":154,"target":"absent","response":"absent","rt":1762.7000000477,"correct":true,"confidence":2},{"trial_n":40,"min":101,"max":154,"target":"present","response":"present","rt":1296.5,"correct":true,"confidence":2},{"trial_n":41,"min":102,"max":153,"target":"present","response":"absent","rt":1461.7999999523,"correct":false,"confidence":3},{"trial_n":42,"min":101,"max":154,"target":"present","response":"absent","rt":1135.1000000238,"correct":false,"confidence":3},{"trial_n":43,"min":100,"max":155,"target":"absent","response":"absent","rt":2168.1999999285,"correct":true,"confidence":2},{"trial_n":44,"min":100,"max":155,"target":"present","response":"absent","rt":1664.1000000238,"correct":false,"confidence":1},{"trial_n":45,"min":99,"max":156,"target":"present","response":"present","rt":1341,"correct":true,"confidence":3},{"trial_n":46,"min":99,"max":156,"target":"present","response":"present","rt":1462.3000000715,"correct":true,"confidence":3},{"trial_n":47,"min":100,"max":155,"target":"present","response":"absent","rt":1528.5,"correct":false,"confidence":2},{"trial_n":48,"min":99,"max":156,"target":"present","response":"present","rt":1423,"correct":true,"confidence":3},{"trial_n":49,"min":99,"max":156,"target":"absent","response":"present","rt":1310.7000000477,"correct":false,"confidence":3},{"trial_n":50,"min":98,"max":157,"target":"present","response":"absent","rt":1604.0999999046,"correct":false,"confidence":2},{"trial_n":51,"min":97,"max":158,"target":"present","response":"absent","rt":1775.5,"correct":false,"confidence":4},{"trial_n":52,"min":96,"max":159,"target":"absent","response":"absent","rt":1369.7999999523,"correct":true,"confidence":3},{"trial_n":53,"min":96,"max":159,"target":"absent","response":"absent","rt":1651.5999999046,"correct":true,"confidence":3},{"trial_n":54,"min":97,"max":158,"target":"absent","response":"present","rt":1633.8999999762,"correct":false,"confidence":2},{"trial_n":55,"min":96,"max":159,"target":"present","response":"present","rt":1353.1000000238,"correct":true,"confidence":3},{"trial_n":56,"min":96,"max":159,"target":"present","response":"present","rt":1314.6000000238,"correct":true,"confidence":3},{"trial_n":57,"min":97,"max":158,"target":"present","response":"present","rt":1155.2999999523,"correct":true,"confidence":3},{"trial_n":58,"min":97,"max":158,"target":"absent","response":"absent","rt":1380.2000000477,"correct":true,"confidence":2},{"trial_n":59,"min":98,"max":157,"target":"present","response":"present","rt":1262.8999999762,"correct":true,"confidence":3},{"trial_n":60,"min":98,"max":157,"target":"absent","response":"absent","rt":2428.3000000715,"correct":true,"confidence":2},{"trial_n":61,"min":99,"max":156,"target":"absent","response":"absent","rt":1599.3999999762,"correct":true,"confidence":1},{"trial_n":62,"min":99,"max":156,"target":"absent","response":"absent","rt":1381.7000000477,"correct":true,"confidence":2},{"trial_n":63,"min":100,"max":155,"target":"absent","response":"present","rt":2259.5999999046,"correct":false,"confidence":3},{"trial_n":64,"min":99,"max":156,"target":"absent","response":"present","rt":1228.8999999762,"correct":false,"confidence":3},{"trial_n":65,"min":98,"max":157,"target":"present","response":"present","rt":1135.2000000477,"correct":true,"confidence":3},{"trial_n":66,"min":98,"max":157,"target":"present","response":"absent","rt":2192.5,"correct":false,"confidence":1},{"trial_n":67,"min":97,"max":158,"target":"present","response":"absent","rt":1356.6000000238,"correct":false,"confidence":3},{"trial_n":68,"min":96,"max":159,"target":"present","response":"absent","rt":1683.3000000715,"correct":false,"confidence":3},{"trial_n":69,"min":95,"max":160,"target":"absent","response":"absent","rt":1480.1000000238,"correct":true,"confidence":3},{"trial_n":70,"min":95,"max":160,"target":"absent","response":"present","rt":1493.5,"correct":false,"confidence":2},{"trial_n":71,"min":41,"max":214,"target":"present","response":"present","rt":1867.3000000715,"correct":true,"confidence":-1},{"trial_n":72,"min":41,"max":214,"target":"present","response":"present","rt":1010.6000000238,"correct":true,"confidence":-1},{"trial_n":73,"min":57,"max":198,"target":"absent","response":"present","rt":947.70000004768,"correct":false,"confidence":-1},{"trial_n":74,"min":41,"max":214,"target":"absent","response":"absent","rt":1644,"correct":true,"confidence":-1},{"trial_n":75,"min":41,"max":214,"target":"present","response":"present","rt":1054.2000000477,"correct":true,"confidence":-1},{"trial_n":76,"min":57,"max":198,"target":"absent","response":"absent","rt":1277.1000000238,"correct":true,"confidence":-1},{"trial_n":77,"min":57,"max":198,"target":"present","response":"present","rt":1286.3000000715,"correct":true,"confidence":-1},{"trial_n":78,"min":73,"max":182,"target":"absent","response":"absent","rt":1306.3000000715,"correct":true,"confidence":-1},{"trial_n":79,"min":73,"max":182,"target":"absent","response":"present","rt":1339.7999999523,"correct":false,"confidence":-1},{"trial_n":80,"min":57,"max":198,"target":"absent","response":"absent","rt":1152.6000000238,"correct":true,"confidence":-1},{"trial_n":81,"min":57,"max":198,"target":"absent","response":"absent","rt":841.80000007153,"correct":true,"confidence":-1},{"trial_n":82,"min":65,"max":190,"target":"present","response":"present","rt":1073,"correct":true,"confidence":-1},{"trial_n":83,"min":65,"max":190,"target":"present","response":"present","rt":1232,"correct":true,"confidence":-1},{"trial_n":84,"min":73,"max":182,"target":"present","response":"present","rt":1677.7000000477,"correct":true,"confidence":-1},{"trial_n":85,"min":73,"max":182,"target":"absent","response":"absent","rt":1214.3999999762,"correct":true,"confidence":-1},{"trial_n":86,"min":81,"max":174,"target":"present","response":"present","rt":1806.6000000238,"correct":true,"confidence":-1},{"trial_n":87,"min":81,"max":174,"target":"absent","response":"present","rt":1137.3999999762,"correct":false,"confidence":-1},{"trial_n":88,"min":73,"max":182,"target":"absent","response":"absent","rt":1233.2000000477,"correct":true,"confidence":-1},{"trial_n":89,"min":73,"max":182,"target":"present","response":"present","rt":1453,"correct":true,"confidence":-1},{"trial_n":90,"min":81,"max":174,"target":"present","response":"present","rt":1065.5,"correct":true,"confidence":-1},{"trial_n":91,"min":81,"max":174,"target":"present","response":"present","rt":1071.1000000238,"correct":true,"confidence":5},{"trial_n":92,"min":85,"max":170,"target":"absent","response":"absent","rt":1588,"correct":true,"confidence":4},{"trial_n":93,"min":85,"max":170,"target":"present","response":"present","rt":1647.8999999762,"correct":true,"confidence":4},{"trial_n":94,"min":89,"max":166,"target":"present","response":"present","rt":1297.5,"correct":true,"confidence":5},{"trial_n":95,"min":89,"max":166,"target":"present","response":"present","rt":1754,"correct":true,"confidence":5},{"trial_n":96,"min":93,"max":162,"target":"absent","response":"absent","rt":2054.8000000715,"correct":true,"confidence":3},{"trial_n":97,"min":93,"max":162,"target":"absent","response":"present","rt":1229.3999999762,"correct":false,"confidence":3},{"trial_n":98,"min":89,"max":166,"target":"absent","response":"absent","rt":1529.1999999285,"correct":true,"confidence":3},{"trial_n":99,"min":89,"max":166,"target":"present","response":"present","rt":1716.5,"correct":true,"confidence":5},{"trial_n":100,"min":93,"max":162,"target":"absent","response":"present","rt":2009.5,"correct":false,"confidence":4},{"trial_n":101,"min":91,"max":164,"target":"absent","response":"present","rt":2144.2000000477,"correct":false,"confidence":3},{"trial_n":102,"min":89,"max":166,"target":"present","response":"present","rt":1196.1000000238,"correct":true,"confidence":5},{"trial_n":103,"min":89,"max":166,"target":"present","response":"present","rt":1201.5,"correct":true,"confidence":5},{"trial_n":104,"min":91,"max":164,"target":"present","response":"present","rt":1436.6000000238,"correct":true,"confidence":3},{"trial_n":105,"min":91,"max":164,"target":"present","response":"present","rt":1119.8999999762,"correct":true,"confidence":5},{"trial_n":106,"min":93,"max":162,"target":"absent","response":"present","rt":1679,"correct":false,"confidence":3},{"trial_n":107,"min":91,"max":164,"target":"absent","response":"present","rt":2005.8999999762,"correct":false,"confidence":2},{"trial_n":108,"min":89,"max":166,"target":"absent","response":"present","rt":1524.5,"correct":false,"confidence":2},{"trial_n":109,"min":87,"max":168,"target":"present","response":"present","rt":1226.4000000954,"correct":true,"confidence":2},{"trial_n":110,"min":87,"max":168,"target":"present","response":"present","rt":1088.1000000238,"correct":true,"confidence":4},{"trial_n":111,"min":88,"max":167,"target":"present","response":"present","rt":1274.9000000954,"correct":true,"confidence":5},{"trial_n":112,"min":88,"max":167,"target":"absent","response":"absent","rt":2555.1000000238,"correct":true,"confidence":3},{"trial_n":113,"min":89,"max":166,"target":"present","response":"present","rt":1231.8999999762,"correct":true,"confidence":4},{"trial_n":114,"min":89,"max":166,"target":"present","response":"present","rt":1462.5,"correct":true,"confidence":4},{"trial_n":115,"min":90,"max":165,"target":"absent","response":"present","rt":1185.5,"correct":false,"confidence":5},{"trial_n":116,"min":89,"max":166,"target":"absent","response":"present","rt":1263,"correct":false,"confidence":5},{"trial_n":117,"min":88,"max":167,"target":"absent","response":"absent","rt":1825.2999999523,"correct":true,"confidence":3},{"trial_n":118,"min":88,"max":167,"target":"absent","response":"absent","rt":1450.2000000477,"correct":true,"confidence":3},{"trial_n":119,"min":89,"max":166,"target":"present","response":"present","rt":1232.1000000238,"correct":true,"confidence":5},{"trial_n":120,"min":89,"max":166,"target":"present","response":"present","rt":1277.8999999762,"correct":true,"confidence":2},{"trial_n":121,"min":90,"max":165,"target":"absent","response":"present","rt":1009.3999999762,"correct":false,"confidence":1},{"trial_n":122,"min":89,"max":166,"target":"present","response":"present","rt":1167.7000000477,"correct":true,"confidence":4},{"trial_n":123,"min":89,"max":166,"target":"absent","response":"present","rt":1182.2999999523,"correct":false,"confidence":3},{"trial_n":124,"min":88,"max":167,"target":"present","response":"present","rt":1153.6000000238,"correct":true,"confidence":2},{"trial_n":125,"min":88,"max":167,"target":"absent","response":"present","rt":1165.4000000954,"correct":false,"confidence":5},{"trial_n":126,"min":87,"max":168,"target":"present","response":"present","rt":1107.6000000238,"correct":true,"confidence":5},{"trial_n":127,"min":87,"max":168,"target":"absent","response":"absent","rt":1604.5,"correct":true,"confidence":3},{"trial_n":128,"min":88,"max":167,"target":"absent","response":"present","rt":1279,"correct":false,"confidence":2},{"trial_n":129,"min":87,"max":168,"target":"present","response":"present","rt":1508.3999999762,"correct":true,"confidence":1},{"trial_n":130,"min":87,"max":168,"target":"absent","response":"present","rt":1746,"correct":false,"confidence":1},{"trial_n":131,"min":86,"max":169,"target":"present","response":"present","rt":1274.4000000954,"correct":true,"confidence":5},{"trial_n":132,"min":86,"max":169,"target":"present","response":"absent","rt":3889.8999999762,"correct":false,"confidence":3},{"trial_n":133,"min":85,"max":170,"target":"absent","response":"absent","rt":1668.1000000238,"correct":true,"confidence":2},{"trial_n":134,"min":85,"max":170,"target":"absent","response":"present","rt":1677.8999999762,"correct":false,"confidence":1},{"trial_n":135,"min":84,"max":171,"target":"present","response":"present","rt":1086.2000000477,"correct":true,"confidence":4},{"trial_n":136,"min":84,"max":171,"target":"present","response":"present","rt":1183.2999999523,"correct":true,"confidence":4},{"trial_n":137,"min":85,"max":170,"target":"absent","response":"absent","rt":1946.3999999762,"correct":true,"confidence":3},{"trial_n":138,"min":85,"max":170,"target":"present","response":"present","rt":1093.7999999523,"correct":true,"confidence":4},{"trial_n":139,"min":86,"max":169,"target":"present","response":"present","rt":1087.8999999762,"correct":true,"confidence":3},{"trial_n":140,"min":86,"max":169,"target":"absent","response":"absent","rt":2153.2999999523,"correct":true,"confidence":3}]