[{"trial_n":1,"span":8,"encoder":"17742333","distractor":"18742333","target":"present","response":"absent","rt":"6948.1000000238","correct":false,"confidence":-1},{"trial_n":2,"span":6,"encoder":"203578","distractor":"223578","target":"present","response":"present","rt":"3833.9000000954","correct":true,"confidence":-1},{"trial_n":3,"span":6,"encoder":"882684","distractor":"882784","target":"absent","response":"present","rt":"1884.6000000238","correct":false,"confidence":-1},{"trial_n":4,"span":4,"encoder":"7726","distractor":"7729","target":"absent","response":"absent","rt":"3049.6000000238","correct":true,"confidence":-1},{"trial_n":5,"span":4,"encoder":"4536","distractor":"4531","target":"present","response":"present","rt":"1973.8000000715","correct":true,"confidence":-1},{"trial_n":6,"span":6,"encoder":"244601","distractor":"344601","target":"present","response":"present","rt":"3330.8999999762","correct":true,"confidence":-1},{"trial_n":7,"span":6,"encoder":"859687","distractor":"857687","target":"present","response":"present","rt":"2649.1000000238","correct":true,"confidence":-1},{"trial_n":8,"span":8,"encoder":"62243219","distractor":"22243219","target":"present","response":"present","rt":"2490.8999999762","correct":true,"confidence":-1},{"trial_n":9,"span":8,"encoder":"50127728","distractor":"50627728","target":"present","response":"present","rt":"1235.7999999523","correct":true,"confidence":-1},{"trial_n":10,"span":10,"encoder":"2568855234","distractor":"2568855534","target":"absent","response":"present","rt":"1636.2000000477","correct":false,"confidence":-1},{"trial_n":11,"span":8,"encoder":"56795444","distractor":"56791444","target":"absent","response":"present","rt":"1426.7999999523","correct":false,"confidence":-1},{"trial_n":12,"span":7,"encoder":"1785040","distractor":"9785040","target":"absent","response":"absent","rt":"2185.2999999523","correct":true,"confidence":-1},{"trial_n":13,"span":7,"encoder":"0507838","distractor":"0507837","target":"present","response":"present","rt":"1916.5999999046","correct":true,"confidence":-1},{"trial_n":14,"span":8,"encoder":"86435139","distractor":"86435939","target":"present","response":"present","rt":"1682.7000000477","correct":true,"confidence":-1},{"trial_n":15,"span":8,"encoder":"57504141","distractor":"57504341","target":"absent","response":"present","rt":"1214.1999999285","correct":false,"confidence":-1},{"trial_n":16,"span":7,"encoder":"9635722","distractor":"0635722","target":"present","response":"present","rt":"2116.3999999762","correct":true,"confidence":-1},{"trial_n":17,"span":7,"encoder":"8439768","distractor":"8479768","target":"present","response":"present","rt":"2554.7999999523","correct":true,"confidence":-1},{"trial_n":18,"span":8,"encoder":"53469343","distractor":"53469333","target":"absent","response":"present","rt":"1167.1000000238","correct":false,"confidence":-1},{"trial_n":19,"span":7,"encoder":"0106488","distractor":"4106488","target":"present","response":"present","rt":"1044.2999999523","correct":true,"confidence":-1},{"trial_n":20,"span":7,"encoder":"8244301","distractor":"7244301","target":"present","response":"present","rt":"1771.1000000238","correct":true,"confidence":-1},{"trial_n":21,"span":8,"encoder":"33780101","distractor":"33789101","target":"present","response":"present","rt":"1761","correct":true,"confidence":3},{"trial_n":22,"span":8,"encoder":"99743686","distractor":"99743626","target":"present","response":"present","rt":"2910","correct":true,"confidence":3},{"trial_n":23,"span":9,"encoder":"606798722","distractor":"606598722","target":"absent","response":"absent","rt":"2759.1000000238","correct":true,"confidence":4},{"trial_n":24,"span":9,"encoder":"615626782","distractor":"614626782","target":"present","response":"present","rt":"4084","correct":true,"confidence":3},{"trial_n":25,"span":10,"encoder":"0637161966","distractor":"0637861966","target":"absent","response":"present","rt":"2393.3000000715","correct":false,"confidence":2},{"trial_n":26,"span":9,"encoder":"476995456","distractor":"476995454","target":"present","response":"present","rt":"2243.8999999762","correct":true,"confidence":3},{"trial_n":27,"span":9,"encoder":"062129209","distractor":"062129409","target":"absent","response":"present","rt":"1882.6999999285","correct":false,"confidence":3},{"trial_n":28,"span":8,"encoder":"93770910","distractor":"93770410","target":"absent","response":"present","rt":"3170","correct":false,"confidence":3},{"trial_n":29,"span":7,"encoder":"5852030","distractor":"5852036","target":"absent","response":"present","rt":"3365.2999999523","correct":false,"confidence":3},{"trial_n":30,"span":6,"encoder":"856720","distractor":"859720","target":"absent","response":"present","rt":"2129.3000000715","correct":false,"confidence":4},{"trial_n":31,"span":5,"encoder":"81545","distractor":"81505","target":"present","response":"present","rt":"1868.2999999523","correct":true,"confidence":4},{"trial_n":32,"span":5,"encoder":"72254","distractor":"72252","target":"absent","response":"absent","rt":"3471.8999999762","correct":true,"confidence":4},{"trial_n":33,"span":6,"encoder":"303015","distractor":"303017","target":"present","response":"present","rt":"1891","correct":true,"confidence":4},{"trial_n":34,"span":6,"encoder":"407899","distractor":"497899","target":"absent","response":"present","rt":"4183.3999999762","correct":false,"confidence":4},{"trial_n":35,"span":5,"encoder":"27507","distractor":"27501","target":"absent","response":"absent","rt":"2008.3999999762","correct":true,"confidence":4},{"trial_n":36,"span":5,"encoder":"56987","distractor":"06987","target":"present","response":"present","rt":"2082.3000000715","correct":true,"confidence":5},{"trial_n":37,"span":6,"encoder":"442793","distractor":"462793","target":"present","response":"present","rt":"2274.5","correct":true,"confidence":4},{"trial_n":38,"span":6,"encoder":"243514","distractor":"243554","target":"present","response":"present","rt":"3164","correct":true,"confidence":5},{"trial_n":39,"span":7,"encoder":"8512145","distractor":"8572145","target":"present","response":"present","rt":"2814.7999999523","correct":true,"confidence":5},{"trial_n":40,"span":7,"encoder":"8089956","distractor":"6089956","target":"absent","response":"absent","rt":"3167.3000000715","correct":true,"confidence":5},{"trial_n":41,"span":8,"encoder":"71778802","distractor":"78778802","target":"absent","response":"present","rt":"2321","correct":false,"confidence":1},{"trial_n":42,"span":7,"encoder":"3842669","distractor":"3822669","target":"absent","response":"absent","rt":"3482.4000000954","correct":true,"confidence":3},{"trial_n":43,"span":7,"encoder":"3857685","distractor":"3851685","target":"present","response":"present","rt":"3815.2000000477","correct":true,"confidence":3},{"trial_n":44,"span":8,"encoder":"63755095","distractor":"63655095","target":"present","response":"present","rt":"3046.3999999762","correct":true,"confidence":4},{"trial_n":45,"span":8,"encoder":"32037923","distractor":"32337923","target":"present","response":"present","rt":"2619","correct":true,"confidence":3},{"trial_n":46,"span":9,"encoder":"378770296","distractor":"378770896","target":"present","response":"present","rt":"2081.2000000477","correct":true,"confidence":3},{"trial_n":47,"span":9,"encoder":"551674746","distractor":"551674786","target":"present","response":"present","rt":"2262.8999999762","correct":true,"confidence":3},{"trial_n":48,"span":10,"encoder":"2364493293","distractor":"2064493293","target":"absent","response":"absent","rt":"2354.3000000715","correct":true,"confidence":4},{"trial_n":49,"span":10,"encoder":"6355731773","distractor":"6855731773","target":"absent","response":"absent","rt":"2430.6999999285","correct":true,"confidence":4},{"trial_n":50,"span":11,"encoder":"77343097821","distractor":"77343094821","target":"absent","response":"absent","rt":"3702.7000000477","correct":true,"confidence":3},{"trial_n":51,"span":11,"encoder":"17167688877","distractor":"17567688877","target":"absent","response":"present","rt":"2659.2999999523","correct":false,"confidence":3},{"trial_n":52,"span":10,"encoder":"2971536836","distractor":"2977536836","target":"absent","response":"present","rt":"2161.5","correct":false,"confidence":3},{"trial_n":53,"span":9,"encoder":"935594698","distractor":"935590698","target":"present","response":"present","rt":"2601.1000000238","correct":true,"confidence":4},{"trial_n":54,"span":9,"encoder":"778839099","distractor":"778839090","target":"present","response":"present","rt":"3070.2000000477","correct":true,"confidence":3},{"trial_n":55,"span":10,"encoder":"4510565756","distractor":"4510569756","target":"absent","response":"present","rt":"2996.8999999762","correct":false,"confidence":4},{"trial_n":56,"span":9,"encoder":"685860366","distractor":"685660366","target":"present","response":"present","rt":"2409.6000000238","correct":true,"confidence":3},{"trial_n":57,"span":9,"encoder":"040717940","distractor":"042717940","target":"present","response":"absent","rt":"3345.0999999046","correct":false,"confidence":2},{"trial_n":58,"span":8,"encoder":"62741707","distractor":"62741787","target":"absent","response":"absent","rt":"4779.1000000238","correct":true,"confidence":4},{"trial_n":59,"span":8,"encoder":"83737139","distractor":"83637139","target":"absent","response":"absent","rt":"2718.7999999523","correct":true,"confidence":4},{"trial_n":60,"span":9,"encoder":"200401227","distractor":"200401287","target":"absent","response":"absent","rt":"2729.8999999762","correct":true,"confidence":3},{"trial_n":61,"span":9,"encoder":"803223165","distractor":"803223145","target":"absent","response":"absent","rt":"4217.8999999762","correct":true,"confidence":3},{"trial_n":62,"span":10,"encoder":"2554510048","distractor":"2454510048","target":"absent","response":"absent","rt":"4119.8999999762","correct":true,"confidence":3},{"trial_n":63,"span":10,"encoder":"7574586238","distractor":"7574587238","target":"present","response":"present","rt":"3200.2999999523","correct":true,"confidence":3},{"trial_n":64,"span":11,"encoder":"18791249393","distractor":"18751249393","target":"present","response":"absent","rt":"3098.0999999046","correct":false,"confidence":1},{"trial_n":65,"span":10,"encoder":"6904458265","distractor":"6904458865","target":"absent","response":"present","rt":"2366.1000000238","correct":false,"confidence":3},{"trial_n":66,"span":9,"encoder":"971648076","distractor":"971648070","target":"absent","response":"present","rt":"3270.8999999762","correct":false,"confidence":3},{"trial_n":67,"span":8,"encoder":"62150860","distractor":"62550860","target":"absent","response":"absent","rt":"2440.2000000477","correct":true,"confidence":2},{"trial_n":68,"span":8,"encoder":"18652682","distractor":"18652982","target":"absent","response":"present","rt":"1968.5","correct":false,"confidence":3},{"trial_n":69,"span":7,"encoder":"4353428","distractor":"4393428","target":"present","response":"present","rt":"2072.2999999523","correct":true,"confidence":4},{"trial_n":70,"span":7,"encoder":"0690159","distractor":"0690155","target":"present","response":"present","rt":"2026.5","correct":true,"confidence":4},{"trial_n":71,"span":8,"encoder":"75089556","distractor":"79089556","target":"present","response":"present","rt":"8724","correct":true,"confidence":-1},{"trial_n":72,"span":8,"encoder":"10570248","distractor":"10579248","target":"present","response":"absent","rt":"5577","correct":false,"confidence":-1},{"trial_n":73,"span":7,"encoder":"7085122","distractor":"7005122","target":"absent","response":"absent","rt":"3364.3999999762","correct":true,"confidence":-1},{"trial_n":74,"span":7,"encoder":"4686478","distractor":"4686438","target":"absent","response":"absent","rt":"2909.0999999046","correct":true,"confidence":-1},{"trial_n":75,"span":8,"encoder":"00369331","distractor":"03369331","target":"present","response":"absent","rt":"8936.6000000238","correct":false,"confidence":-1},{"trial_n":76,"span":7,"encoder":"3664552","distractor":"3364552","target":"absent","response":"absent","rt":"1743.2999999523","correct":true,"confidence":-1},{"trial_n":77,"span":7,"encoder":"5209489","distractor":"5209189","target":"present","response":"present","rt":"1277.0999999046","correct":true,"confidence":-1},{"trial_n":78,"span":8,"encoder":"26665775","distractor":"26665773","target":"present","response":"absent","rt":"2444.6000000238","correct":false,"confidence":-1},{"trial_n":79,"span":7,"encoder":"5786443","distractor":"9786443","target":"absent","response":"absent","rt":"1739","correct":true,"confidence":-1},{"trial_n":80,"span":7,"encoder":"4410847","distractor":"6410847","target":"absent","response":"absent","rt":"1753.5","correct":true,"confidence":-1},{"trial_n":81,"span":8,"encoder":"72608205","distractor":"72601205","target":"absent","response":"present","rt":"4786.5999999046","correct":false,"confidence":-1},{"trial_n":82,"span":7,"encoder":"1922986","distractor":"6922986","target":"absent","response":"absent","rt":"2257","correct":true,"confidence":-1},{"trial_n":83,"span":7,"encoder":"9363216","distractor":"9333216","target":"absent","response":"absent","rt":"2208.3999999762","correct":true,"confidence":-1},{"trial_n":84,"span":8,"encoder":"61502369","distractor":"61202369","target":"present","response":"present","rt":"2628.1000000238","correct":true,"confidence":-1},{"trial_n":85,"span":8,"encoder":"25961085","distractor":"75961085","target":"present","response":"present","rt":"2148.5","correct":true,"confidence":-1},{"trial_n":86,"span":9,"encoder":"209059951","distractor":"239059951","target":"absent","response":"absent","rt":"2137.5","correct":true,"confidence":-1},{"trial_n":87,"span":9,"encoder":"300505393","distractor":"300005393","target":"present","response":"present","rt":"2491.7000000477","correct":true,"confidence":-1},{"trial_n":88,"span":10,"encoder":"0326859048","distractor":"0326859049","target":"present","response":"present","rt":"1625.3000000715","correct":true,"confidence":-1},{"trial_n":89,"span":10,"encoder":"4172141348","distractor":"4172741348","target":"present","response":"present","rt":"2234.1000000238","correct":true,"confidence":-1},{"trial_n":90,"span":11,"encoder":"65946963774","distractor":"15946963774","target":"absent","response":"absent","rt":"1509.5","correct":true,"confidence":-1},{"trial_n":91,"span":11,"encoder":"78048309444","distractor":"78028309444","target":"absent","response":"present","rt":"10591","correct":false,"confidence":1},{"trial_n":92,"span":10,"encoder":"6503149986","distractor":"6503149985","target":"present","response":"present","rt":"5623.6999999285","correct":true,"confidence":3},{"trial_n":93,"span":10,"encoder":"8884174713","distractor":"8884174013","target":"absent","response":"present","rt":"5196.8000000715","correct":false,"confidence":2},{"trial_n":94,"span":9,"encoder":"765171803","distractor":"765172803","target":"present","response":"present","rt":"8427","correct":true,"confidence":1},{"trial_n":95,"span":9,"encoder":"656491412","distractor":"656491812","target":"absent","response":"present","rt":"4719.8000000715","correct":false,"confidence":1},{"trial_n":96,"span":8,"encoder":"79257067","distractor":"79157067","target":"present","response":"present","rt":"4876.6000000238","correct":true,"confidence":4},{"trial_n":97,"span":8,"encoder":"49582943","distractor":"49582903","target":"absent","response":"present","rt":"8313.5999999046","correct":false,"confidence":1},{"trial_n":98,"span":7,"encoder":"4304804","distractor":"7304804","target":"absent","response":"absent","rt":"2052.7000000477","correct":true,"confidence":5},{"trial_n":99,"span":7,"encoder":"7458588","distractor":"7456588","target":"absent","response":"absent","rt":"5853.8000000715","correct":true,"confidence":1},{"trial_n":100,"span":8,"encoder":"14703903","distractor":"14704903","target":"present","response":"present","rt":"4221.6000000238","correct":true,"confidence":4},{"trial_n":101,"span":8,"encoder":"51307158","distractor":"91307158","target":"absent","response":"present","rt":"1976.8000000715","correct":false,"confidence":4},{"trial_n":102,"span":7,"encoder":"4426798","distractor":"4426796","target":"present","response":"present","rt":"3791.1999999285","correct":true,"confidence":2},{"trial_n":103,"span":7,"encoder":"0688555","distractor":"3688555","target":"absent","response":"absent","rt":"2024.2000000477","correct":true,"confidence":5},{"trial_n":104,"span":8,"encoder":"19520098","distractor":"19524098","target":"absent","response":"absent","rt":"5158.4000000954","correct":true,"confidence":4},{"trial_n":105,"span":8,"encoder":"81549641","distractor":"81569641","target":"present","response":"present","rt":"3763.5","correct":true,"confidence":1},{"trial_n":106,"span":9,"encoder":"040187354","distractor":"040187154","target":"absent","response":"absent","rt":"4408.7000000477","correct":true,"confidence":1},{"trial_n":107,"span":9,"encoder":"522500924","distractor":"522500944","target":"present","response":"present","rt":"4427.7000000477","correct":true,"confidence":1},{"trial_n":108,"span":10,"encoder":"9082996015","distractor":"9082996018","target":"present","response":"present","rt":"2202.4000000954","correct":true,"confidence":5},{"trial_n":109,"span":10,"encoder":"9615432235","distractor":"9615432230","target":"absent","response":"absent","rt":"2655.8000000715","correct":true,"confidence":4},{"trial_n":110,"span":11,"encoder":"49993097215","distractor":"41993097215","target":"present","response":"present","rt":"5184","correct":true,"confidence":3},{"trial_n":111,"span":11,"encoder":"81900979350","distractor":"81300979350","target":"present","response":"present","rt":"3583.9000000954","correct":true,"confidence":4},{"trial_n":112,"span":12,"encoder":"186604070059","distractor":"186504070059","target":"present","response":"present","rt":"4226.6999999285","correct":true,"confidence":3},{"trial_n":113,"span":12,"encoder":"160268271977","distractor":"160068271977","target":"present","response":"present","rt":"3072.3999999762","correct":true,"confidence":4},{"trial_n":114,"span":13,"encoder":"8125780094058","distractor":"8125789094058","target":"absent","response":"absent","rt":"4868.3999999762","correct":true,"confidence":4},{"trial_n":115,"span":13,"encoder":"8091670683258","distractor":"8091670685258","target":"absent","response":"present","rt":"5858.6000000238","correct":false,"confidence":1},{"trial_n":116,"span":12,"encoder":"351797845351","distractor":"351757845351","target":"present","response":"present","rt":"4737.5","correct":true,"confidence":4},{"trial_n":117,"span":12,"encoder":"979852844722","distractor":"979852844729","target":"present","response":"present","rt":"2655.7000000477","correct":true,"confidence":5},{"trial_n":118,"span":13,"encoder":"8922974861288","distractor":"8922674861288","target":"absent","response":"absent","rt":"3754.6000000238","correct":true,"confidence":5},{"trial_n":119,"span":13,"encoder":"7717445008458","distractor":"7717445002458","target":"absent","response":"absent","rt":"11654.899999976","correct":true,"confidence":2},{"trial_n":120,"span":14,"encoder":"04137261991689","distractor":"04135261991689","target":"present","response":"present","rt":"7711.3999999762","correct":true,"confidence":4},{"trial_n":121,"span":14,"encoder":"60780582770783","distractor":"64780582770783","target":"present","response":"present","rt":"3311.5999999046","correct":true,"confidence":5},{"trial_n":122,"span":15,"encoder":"723232292826095","distractor":"723231292826095","target":"absent","response":"present","rt":"7717.8000000715","correct":false,"confidence":2},{"trial_n":123,"span":14,"encoder":"17200133143299","distractor":"17200138143299","target":"present","response":"absent","rt":"9540","correct":false,"confidence":2},{"trial_n":124,"span":13,"encoder":"3622788136551","distractor":"3622788146551","target":"absent","response":"absent","rt":"6912.3999999762","correct":true,"confidence":1},{"trial_n":125,"span":13,"encoder":"9209402199697","distractor":"9709402199697","target":"absent","response":"absent","rt":"4703.8999999762","correct":true,"confidence":5},{"trial_n":126,"span":14,"encoder":"08989301159619","distractor":"08989701159619","target":"present","response":"absent","rt":"7702.9000000954","correct":false,"confidence":2},{"trial_n":127,"span":13,"encoder":"1851682602953","distractor":"1851282602953","target":"absent","response":"absent","rt":"3647.1999999285","correct":true,"confidence":4},{"trial_n":128,"span":13,"encoder":"2788861331396","distractor":"2788861333396","target":"present","response":"present","rt":"6640.2999999523","correct":true,"confidence":3},{"trial_n":129,"span":14,"encoder":"07930301070695","distractor":"07930001070695","target":"present","response":"present","rt":"4790.2000000477","correct":true,"confidence":3},{"trial_n":130,"span":14,"encoder":"06384108276251","distractor":"66384108276251","target":"present","response":"present","rt":"6739.7999999523","correct":true,"confidence":4},{"trial_n":131,"span":15,"encoder":"641995434727083","distractor":"671995434727083","target":"absent","response":"absent","rt":"2971.6999999285","correct":true,"confidence":5},{"trial_n":132,"span":15,"encoder":"149295961133951","distractor":"149295961133351","target":"absent","response":"present","rt":"4904","correct":false,"confidence":3},{"trial_n":133,"span":14,"encoder":"56777227230985","distractor":"56777227230980","target":"present","response":"present","rt":"11261.699999928","correct":true,"confidence":2},{"trial_n":134,"span":14,"encoder":"96833743296962","distractor":"96823743296962","target":"present","response":"present","rt":"4419.2999999523","correct":true,"confidence":4},{"trial_n":135,"span":15,"encoder":"371142159480278","distractor":"371147159480278","target":"present","response":"present","rt":"6352.6000000238","correct":true,"confidence":3},{"trial_n":136,"span":15,"encoder":"594116420139174","distractor":"594116420739174","target":"absent","response":"absent","rt":"11105.399999976","correct":true,"confidence":3},{"trial_n":137,"span":16,"encoder":"2774653003074075","distractor":"2474653003074075","target":"absent","response":"absent","rt":"5494.5","correct":true,"confidence":4},{"trial_n":138,"span":16,"encoder":"7261437914604035","distractor":"7861437914604035","target":"present","response":"present","rt":"3868","correct":true,"confidence":5},{"trial_n":139,"span":17,"encoder":"05417186504855830","distractor":"05417186504858830","target":"present","response":"present","rt":"9818.8999999762","correct":true,"confidence":2},{"trial_n":140,"span":17,"encoder":"39876410053784691","distractor":"39676410053784691","target":"absent","response":"present","rt":"3689.2999999523","correct":false,"confidence":3}]