[{"trial_n":1,"span":8,"encoder":"94312738","distractor":"94312748","target":"present","response":"present","rt":"4148.8000000007","correct":true,"confidence":-1},{"trial_n":2,"span":8,"encoder":"11975186","distractor":"14975186","target":"present","response":"present","rt":"3599.3000000007","correct":true,"confidence":-1},{"trial_n":3,"span":10,"encoder":"4136805423","distractor":"4136805723","target":"absent","response":"present","rt":"11012.799999997","correct":false,"confidence":-1},{"trial_n":4,"span":8,"encoder":"98175775","distractor":"98375775","target":"absent","response":"absent","rt":"1848.3000000007","correct":true,"confidence":-1},{"trial_n":5,"span":8,"encoder":"30603343","distractor":"39603343","target":"present","response":"present","rt":"2283.8000000007","correct":true,"confidence":-1},{"trial_n":6,"span":10,"encoder":"2597834388","distractor":"2397834388","target":"present","response":"absent","rt":"2322.8999999985","correct":false,"confidence":-1},{"trial_n":7,"span":8,"encoder":"36511538","distractor":"36521538","target":"absent","response":"present","rt":"1225.8000000007","correct":false,"confidence":-1},{"trial_n":8,"span":6,"encoder":"984866","distractor":"984966","target":"absent","response":"present","rt":"1438","correct":false,"confidence":-1},{"trial_n":9,"span":4,"encoder":"1957","distractor":"1857","target":"absent","response":"present","rt":"1432.1999999993","correct":false,"confidence":-1},{"trial_n":10,"span":2,"encoder":"61","distractor":"67","target":"present","response":"present","rt":"1079.5","correct":true,"confidence":-1},{"trial_n":11,"span":2,"encoder":"45","distractor":"40","target":"absent","response":"absent","rt":"949.69999999925","correct":true,"confidence":-1},{"trial_n":12,"span":3,"encoder":"758","distractor":"558","target":"present","response":"present","rt":"2094.1000000015","correct":true,"confidence":-1},{"trial_n":13,"span":3,"encoder":"621","distractor":"661","target":"present","response":"present","rt":"1304","correct":true,"confidence":-1},{"trial_n":14,"span":4,"encoder":"7358","distractor":"7958","target":"present","response":"present","rt":"1644.700000003","correct":true,"confidence":-1},{"trial_n":15,"span":4,"encoder":"3325","distractor":"3326","target":"present","response":"present","rt":"1411.6999999993","correct":true,"confidence":-1},{"trial_n":16,"span":5,"encoder":"34318","distractor":"44318","target":"present","response":"present","rt":"1625.1000000015","correct":true,"confidence":-1},{"trial_n":17,"span":5,"encoder":"02472","distractor":"02372","target":"present","response":"present","rt":"1509.5","correct":true,"confidence":-1},{"trial_n":18,"span":6,"encoder":"763665","distractor":"703665","target":"present","response":"present","rt":"1864.6999999993","correct":true,"confidence":-1},{"trial_n":19,"span":6,"encoder":"481014","distractor":"481018","target":"present","response":"present","rt":"1628.5","correct":true,"confidence":-1},{"trial_n":20,"span":7,"encoder":"6637575","distractor":"3637575","target":"absent","response":"present","rt":"2043.5","correct":false,"confidence":-1},{"trial_n":21,"span":6,"encoder":"700322","distractor":"700922","target":"absent","response":"absent","rt":"2700","correct":true,"confidence":5},{"trial_n":22,"span":6,"encoder":"148325","distractor":"148625","target":"present","response":"present","rt":"2464.9000000022","correct":true,"confidence":5},{"trial_n":23,"span":7,"encoder":"4430841","distractor":"4410841","target":"present","response":"present","rt":"2777.1000000015","correct":true,"confidence":3},{"trial_n":24,"span":7,"encoder":"8398665","distractor":"8398615","target":"absent","response":"absent","rt":"3214.3000000007","correct":true,"confidence":5},{"trial_n":25,"span":8,"encoder":"65183742","distractor":"65183782","target":"present","response":"present","rt":"2718.6000000015","correct":true,"confidence":4},{"trial_n":26,"span":8,"encoder":"90875800","distractor":"90825800","target":"present","response":"absent","rt":"1468.1000000015","correct":false,"confidence":5},{"trial_n":27,"span":7,"encoder":"0091722","distractor":"4091722","target":"present","response":"present","rt":"2639.1000000015","correct":true,"confidence":3},{"trial_n":28,"span":7,"encoder":"5657916","distractor":"5657936","target":"absent","response":"absent","rt":"1711.3000000007","correct":true,"confidence":5},{"trial_n":29,"span":8,"encoder":"75392335","distractor":"75392385","target":"absent","response":"absent","rt":"1581.8000000007","correct":true,"confidence":5},{"trial_n":30,"span":8,"encoder":"69656189","distractor":"63656189","target":"present","response":"absent","rt":"1596.5","correct":false,"confidence":5},{"trial_n":31,"span":7,"encoder":"3595631","distractor":"3695631","target":"absent","response":"absent","rt":"1751.8999999985","correct":true,"confidence":5},{"trial_n":32,"span":7,"encoder":"1224907","distractor":"1225907","target":"present","response":"present","rt":"1521.3999999985","correct":true,"confidence":2},{"trial_n":33,"span":8,"encoder":"87068067","distractor":"87028067","target":"present","response":"present","rt":"1294.6000000015","correct":true,"confidence":1},{"trial_n":34,"span":8,"encoder":"90232110","distractor":"90242110","target":"absent","response":"present","rt":"1017.1000000015","correct":false,"confidence":4},{"trial_n":35,"span":7,"encoder":"5817049","distractor":"5817048","target":"present","response":"present","rt":"3059.700000003","correct":true,"confidence":1},{"trial_n":36,"span":7,"encoder":"1738271","distractor":"1768271","target":"present","response":"present","rt":"1906.700000003","correct":true,"confidence":5},{"trial_n":37,"span":8,"encoder":"86052004","distractor":"86852004","target":"present","response":"present","rt":"6545.8999999985","correct":true,"confidence":1},{"trial_n":38,"span":8,"encoder":"25156095","distractor":"35156095","target":"present","response":"present","rt":"1776.9000000022","correct":true,"confidence":5},{"trial_n":39,"span":9,"encoder":"563346283","distractor":"567346283","target":"absent","response":"absent","rt":"11638.300000001","correct":true,"confidence":1},{"trial_n":40,"span":9,"encoder":"075056017","distractor":"075556017","target":"absent","response":"present","rt":"1543","correct":false,"confidence":4},{"trial_n":41,"span":8,"encoder":"04862941","distractor":"04762941","target":"absent","response":"absent","rt":"2086.3999999985","correct":true,"confidence":5},{"trial_n":42,"span":8,"encoder":"59388727","distractor":"59383727","target":"absent","response":"absent","rt":"1480.3000000007","correct":true,"confidence":1},{"trial_n":43,"span":9,"encoder":"488069975","distractor":"288069975","target":"absent","response":"absent","rt":"1211.4000000022","correct":true,"confidence":5},{"trial_n":44,"span":9,"encoder":"221985577","distractor":"221965577","target":"present","response":"present","rt":"2174.6999999993","correct":true,"confidence":5},{"trial_n":45,"span":10,"encoder":"3609504481","distractor":"3603504481","target":"present","response":"present","rt":"1497.1999999993","correct":true,"confidence":3},{"trial_n":46,"span":10,"encoder":"2269988525","distractor":"2269980525","target":"absent","response":"present","rt":"1985.0999999978","correct":false,"confidence":3},{"trial_n":47,"span":9,"encoder":"693210145","distractor":"693230145","target":"absent","response":"present","rt":"2917.8000000007","correct":false,"confidence":5},{"trial_n":48,"span":8,"encoder":"36514603","distractor":"36514609","target":"absent","response":"present","rt":"14061.300000001","correct":false,"confidence":1},{"trial_n":49,"span":7,"encoder":"4945063","distractor":"6945063","target":"absent","response":"present","rt":"1616.6999999993","correct":false,"confidence":1},{"trial_n":50,"span":6,"encoder":"310410","distractor":"370410","target":"present","response":"present","rt":"1004.299999997","correct":true,"confidence":1},{"trial_n":51,"span":6,"encoder":"388569","distractor":"388529","target":"present","response":"present","rt":"1118.5999999978","correct":true,"confidence":1},{"trial_n":52,"span":7,"encoder":"6933869","distractor":"6933839","target":"present","response":"present","rt":"816.59999999776","correct":true,"confidence":1},{"trial_n":53,"span":7,"encoder":"4689328","distractor":"4689325","target":"absent","response":"present","rt":"15021.800000001","correct":false,"confidence":1},{"trial_n":54,"span":6,"encoder":"134167","distractor":"134367","target":"absent","response":"absent","rt":"1584.5","correct":true,"confidence":1},{"trial_n":55,"span":6,"encoder":"801109","distractor":"801149","target":"absent","response":"present","rt":"33171.300000001","correct":false,"confidence":1},{"trial_n":56,"span":5,"encoder":"55439","distractor":"55139","target":"present","response":"present","rt":"44293.599999998","correct":true,"confidence":1},{"trial_n":57,"span":5,"encoder":"78874","distractor":"78870","target":"present","response":"absent","rt":"2754.1999999993","correct":false,"confidence":1},{"trial_n":58,"span":4,"encoder":"0121","distractor":"0821","target":"absent","response":"present","rt":"3682.3000000007","correct":false,"confidence":1},{"trial_n":59,"span":3,"encoder":"940","distractor":"640","target":"absent","response":"present","rt":"1783.1999999993","correct":false,"confidence":1},{"trial_n":60,"span":2,"encoder":"48","distractor":"08","target":"present","response":"present","rt":"906.29999999702","correct":true,"confidence":5},{"trial_n":61,"span":2,"encoder":"32","distractor":"42","target":"absent","response":"present","rt":"1239.1000000015","correct":false,"confidence":1},{"trial_n":62,"span":2,"encoder":"92","distractor":"93","target":"absent","response":"absent","rt":"1083","correct":true,"confidence":5},{"trial_n":63,"span":2,"encoder":"02","distractor":"01","target":"absent","response":"absent","rt":"1198.1000000015","correct":true,"confidence":5},{"trial_n":64,"span":3,"encoder":"147","distractor":"947","target":"present","response":"present","rt":"1034","correct":true,"confidence":5},{"trial_n":65,"span":3,"encoder":"655","distractor":"658","target":"absent","response":"absent","rt":"1208.1999999993","correct":true,"confidence":5},{"trial_n":66,"span":4,"encoder":"2789","distractor":"0789","target":"present","response":"present","rt":"1301.6999999993","correct":true,"confidence":5},{"trial_n":67,"span":4,"encoder":"9099","distractor":"9699","target":"absent","response":"absent","rt":"1487.3000000007","correct":true,"confidence":5},{"trial_n":68,"span":5,"encoder":"82981","distractor":"82911","target":"present","response":"present","rt":"1654.3999999985","correct":true,"confidence":5},{"trial_n":69,"span":5,"encoder":"95087","distractor":"45087","target":"absent","response":"present","rt":"1397.8000000007","correct":false,"confidence":1},{"trial_n":70,"span":4,"encoder":"6588","distractor":"6188","target":"absent","response":"present","rt":"1888","correct":false,"confidence":1},{"trial_n":71,"span":8,"encoder":"69815892","distractor":"79815892","target":"present","response":"absent","rt":"1644.3000000007","correct":false,"confidence":-1},{"trial_n":72,"span":7,"encoder":"1461822","distractor":"1461522","target":"present","response":"present","rt":"1846.1999999993","correct":true,"confidence":-1},{"trial_n":73,"span":7,"encoder":"1436238","distractor":"6436238","target":"absent","response":"absent","rt":"3158.5999999978","correct":true,"confidence":-1},{"trial_n":74,"span":8,"encoder":"84398330","distractor":"84388330","target":"absent","response":"absent","rt":"2030.4000000022","correct":true,"confidence":-1},{"trial_n":75,"span":8,"encoder":"77811927","distractor":"77811947","target":"present","response":"absent","rt":"716","correct":false,"confidence":-1},{"trial_n":76,"span":7,"encoder":"5113621","distractor":"2113621","target":"present","response":"present","rt":"4321.5","correct":true,"confidence":-1},{"trial_n":77,"span":7,"encoder":"2116981","distractor":"2115981","target":"absent","response":"absent","rt":"3875.3000000007","correct":true,"confidence":-1},{"trial_n":78,"span":8,"encoder":"45215092","distractor":"45115092","target":"absent","response":"present","rt":"4327.5","correct":false,"confidence":-1},{"trial_n":79,"span":7,"encoder":"5190219","distractor":"5196219","target":"absent","response":"absent","rt":"862.79999999702","correct":true,"confidence":-1},{"trial_n":80,"span":7,"encoder":"5394029","distractor":"5314029","target":"absent","response":"present","rt":"2875.5","correct":false,"confidence":-1},{"trial_n":81,"span":6,"encoder":"209708","distractor":"201708","target":"absent","response":"present","rt":"5044.9000000022","correct":false,"confidence":-1},{"trial_n":82,"span":5,"encoder":"82277","distractor":"22277","target":"absent","response":"present","rt":"1577.3000000007","correct":false,"confidence":-1},{"trial_n":83,"span":4,"encoder":"3114","distractor":"3124","target":"present","response":"absent","rt":"803","correct":false,"confidence":-1},{"trial_n":84,"span":3,"encoder":"106","distractor":"101","target":"present","response":"present","rt":"1306.3000000007","correct":true,"confidence":-1},{"trial_n":85,"span":3,"encoder":"129","distractor":"109","target":"present","response":"present","rt":"1765.3000000007","correct":true,"confidence":-1},{"trial_n":86,"span":4,"encoder":"4138","distractor":"1138","target":"absent","response":"absent","rt":"3990.200000003","correct":true,"confidence":-1},{"trial_n":87,"span":4,"encoder":"2703","distractor":"2701","target":"present","response":"present","rt":"872.80000000075","correct":true,"confidence":-1},{"trial_n":88,"span":5,"encoder":"43834","distractor":"48834","target":"present","response":"present","rt":"2869.6000000015","correct":true,"confidence":-1},{"trial_n":89,"span":5,"encoder":"26587","distractor":"26583","target":"present","response":"present","rt":"4682.8999999985","correct":true,"confidence":-1},{"trial_n":90,"span":6,"encoder":"091257","distractor":"098257","target":"present","response":"present","rt":"2022.8000000007","correct":true,"confidence":-1},{"trial_n":91,"span":6,"encoder":"917413","distractor":"917493","target":"absent","response":"absent","rt":"4594.299999997","correct":true,"confidence":3},{"trial_n":92,"span":7,"encoder":"6205676","distractor":"6205686","target":"absent","response":"present","rt":"2432.6999999993","correct":false,"confidence":3},{"trial_n":93,"span":6,"encoder":"281613","distractor":"281913","target":"present","response":"present","rt":"2478.1000000015","correct":true,"confidence":3},{"trial_n":94,"span":6,"encoder":"726811","distractor":"726818","target":"present","response":"present","rt":"1658.3999999985","correct":true,"confidence":5},{"trial_n":95,"span":7,"encoder":"0403048","distractor":"0703048","target":"present","response":"absent","rt":"1530","correct":false,"confidence":4},{"trial_n":96,"span":6,"encoder":"566426","distractor":"567426","target":"absent","response":"absent","rt":"1500.1000000015","correct":true,"confidence":5},{"trial_n":97,"span":6,"encoder":"870833","distractor":"879833","target":"present","response":"present","rt":"1950.6999999993","correct":true,"confidence":5},{"trial_n":98,"span":7,"encoder":"9192513","distractor":"9992513","target":"absent","response":"absent","rt":"3690","correct":true,"confidence":4},{"trial_n":99,"span":7,"encoder":"8731986","distractor":"8731946","target":"absent","response":"absent","rt":"1705","correct":true,"confidence":5},{"trial_n":100,"span":8,"encoder":"96449265","distractor":"16449265","target":"absent","response":"absent","rt":"2055","correct":true,"confidence":5},{"trial_n":101,"span":8,"encoder":"26708981","distractor":"26708951","target":"present","response":"present","rt":"1452","correct":true,"confidence":5},{"trial_n":102,"span":9,"encoder":"812385048","distractor":"812380048","target":"present","response":"present","rt":"2220.9000000022","correct":true,"confidence":5},{"trial_n":103,"span":9,"encoder":"852950582","distractor":"052950582","target":"present","response":"present","rt":"5783.5","correct":true,"confidence":5},{"trial_n":104,"span":10,"encoder":"4687229333","distractor":"4687269333","target":"absent","response":"absent","rt":"7899.5999999978","correct":true,"confidence":4},{"trial_n":105,"span":10,"encoder":"3036387098","distractor":"3036387088","target":"absent","response":"absent","rt":"4509.4000000022","correct":true,"confidence":5},{"trial_n":106,"span":11,"encoder":"70031407241","distractor":"70031407211","target":"present","response":"present","rt":"2561.1999999993","correct":true,"confidence":5},{"trial_n":107,"span":11,"encoder":"92947804445","distractor":"92947804448","target":"present","response":"present","rt":"6264.3000000007","correct":true,"confidence":4},{"trial_n":108,"span":12,"encoder":"327232555575","distractor":"327234555575","target":"present","response":"present","rt":"4287","correct":true,"confidence":5},{"trial_n":109,"span":12,"encoder":"700723768311","distractor":"700623768311","target":"absent","response":"absent","rt":"3896.6999999993","correct":true,"confidence":4},{"trial_n":110,"span":13,"encoder":"8652986314982","distractor":"8652936314982","target":"present","response":"absent","rt":"3814.3999999985","correct":false,"confidence":5},{"trial_n":111,"span":12,"encoder":"282058718006","distractor":"282058788006","target":"absent","response":"absent","rt":"6892.5","correct":true,"confidence":3},{"trial_n":112,"span":12,"encoder":"818424503212","distractor":"818429503212","target":"absent","response":"absent","rt":"3755.3000000007","correct":true,"confidence":4},{"trial_n":113,"span":13,"encoder":"7048069399148","distractor":"7048069399108","target":"absent","response":"absent","rt":"2111.5","correct":true,"confidence":5},{"trial_n":114,"span":13,"encoder":"9935126347351","distractor":"9935126747351","target":"present","response":"absent","rt":"14174.300000001","correct":false,"confidence":4},{"trial_n":115,"span":12,"encoder":"139465163578","distractor":"139365163578","target":"present","response":"present","rt":"5517","correct":true,"confidence":5},{"trial_n":116,"span":12,"encoder":"189245770079","distractor":"169245770079","target":"absent","response":"present","rt":"5981.8999999985","correct":false,"confidence":4},{"trial_n":117,"span":11,"encoder":"00800859904","distractor":"00800854904","target":"present","response":"present","rt":"5260.1000000015","correct":true,"confidence":5},{"trial_n":118,"span":11,"encoder":"23096341212","distractor":"21096341212","target":"present","response":"present","rt":"2473.1999999993","correct":true,"confidence":4},{"trial_n":119,"span":12,"encoder":"854659767702","distractor":"854657767702","target":"present","response":"present","rt":"2178.4000000022","correct":true,"confidence":4},{"trial_n":120,"span":12,"encoder":"669827519134","distractor":"669828519134","target":"present","response":"present","rt":"5007.8000000007","correct":true,"confidence":4},{"trial_n":121,"span":13,"encoder":"1869517347814","distractor":"1869517348814","target":"present","response":"present","rt":"6289.6999999993","correct":true,"confidence":3},{"trial_n":122,"span":13,"encoder":"4475553488812","distractor":"4475553488512","target":"absent","response":"present","rt":"2719.1999999993","correct":false,"confidence":5},{"trial_n":123,"span":12,"encoder":"509533574714","distractor":"509533594714","target":"absent","response":"present","rt":"7296.6999999993","correct":false,"confidence":3},{"trial_n":124,"span":11,"encoder":"45261813055","distractor":"45261883055","target":"absent","response":"absent","rt":"5760.8000000007","correct":true,"confidence":2},{"trial_n":125,"span":11,"encoder":"10497103434","distractor":"10493103434","target":"present","response":"absent","rt":"5322.1999999993","correct":false,"confidence":3},{"trial_n":126,"span":10,"encoder":"5909058753","distractor":"5909058750","target":"absent","response":"absent","rt":"1385.3000000007","correct":true,"confidence":5},{"trial_n":127,"span":10,"encoder":"6553429594","distractor":"8553429594","target":"present","response":"absent","rt":"6146.5","correct":false,"confidence":4},{"trial_n":128,"span":9,"encoder":"337590019","distractor":"337591019","target":"absent","response":"present","rt":"4476.6999999993","correct":false,"confidence":4},{"trial_n":129,"span":8,"encoder":"19357683","distractor":"19657683","target":"absent","response":"absent","rt":"5643.6000000015","correct":true,"confidence":4},{"trial_n":130,"span":8,"encoder":"97746851","distractor":"97746451","target":"absent","response":"absent","rt":"3545.9000000022","correct":true,"confidence":5},{"trial_n":131,"span":9,"encoder":"758726090","distractor":"755726090","target":"absent","response":"absent","rt":"2246.1999999993","correct":true,"confidence":5},{"trial_n":132,"span":9,"encoder":"487442810","distractor":"487442710","target":"absent","response":"absent","rt":"1996.1999999993","correct":true,"confidence":4},{"trial_n":133,"span":10,"encoder":"8687988399","distractor":"8687908399","target":"present","response":"absent","rt":"1899.8000000007","correct":false,"confidence":4},{"trial_n":134,"span":9,"encoder":"151663773","distractor":"151660773","target":"absent","response":"absent","rt":"14485.599999998","correct":true,"confidence":3},{"trial_n":135,"span":9,"encoder":"086402713","distractor":"086402712","target":"present","response":"present","rt":"2047.8999999985","correct":true,"confidence":5},{"trial_n":136,"span":10,"encoder":"3604485912","distractor":"3604485212","target":"absent","response":"absent","rt":"2157.6000000015","correct":true,"confidence":5},{"trial_n":137,"span":10,"encoder":"0486816286","distractor":"7486816286","target":"present","response":"absent","rt":"3410.6999999993","correct":false,"confidence":3},{"trial_n":138,"span":9,"encoder":"603771549","distractor":"603774549","target":"present","response":"present","rt":"1275.8000000007","correct":true,"confidence":3},{"trial_n":139,"span":9,"encoder":"664759639","distractor":"664759659","target":"absent","response":"absent","rt":"2603.5999999978","correct":true,"confidence":5},{"trial_n":140,"span":10,"encoder":"9564335252","distractor":"9564335352","target":"present","response":"absent","rt":"2768.8000000007","correct":false,"confidence":3}]