[{"trial_n":1,"span":8,"encoder":"88162335","distractor":"58162335","target":"present","response":"absent","rt":"3647.1999999285","correct":false,"confidence":-1},{"trial_n":2,"span":6,"encoder":"331278","distractor":"531278","target":"present","response":"present","rt":"1823.1000000238","correct":true,"confidence":-1},{"trial_n":3,"span":6,"encoder":"536230","distractor":"506230","target":"absent","response":"absent","rt":"2355.2000000477","correct":true,"confidence":-1},{"trial_n":4,"span":8,"encoder":"84272045","distractor":"84272015","target":"absent","response":"absent","rt":"1732","correct":true,"confidence":-1},{"trial_n":5,"span":8,"encoder":"50060479","distractor":"70060479","target":"present","response":"present","rt":"1542.1999999285","correct":true,"confidence":-1},{"trial_n":6,"span":10,"encoder":"0209738692","distractor":"0205738692","target":"present","response":"present","rt":"1846.3999999762","correct":true,"confidence":-1},{"trial_n":7,"span":10,"encoder":"7473294362","distractor":"7473294312","target":"present","response":"present","rt":"1767.6000000238","correct":true,"confidence":-1},{"trial_n":8,"span":12,"encoder":"291596435445","distractor":"291591435445","target":"absent","response":"absent","rt":"2936.6000000238","correct":true,"confidence":-1},{"trial_n":9,"span":12,"encoder":"692590242247","distractor":"092590242247","target":"present","response":"present","rt":"1389","correct":true,"confidence":-1},{"trial_n":10,"span":14,"encoder":"13604345199337","distractor":"13604345199637","target":"absent","response":"absent","rt":"7177","correct":true,"confidence":-1},{"trial_n":11,"span":14,"encoder":"41836726268137","distractor":"41836776268137","target":"present","response":"present","rt":"2916","correct":true,"confidence":-1},{"trial_n":12,"span":15,"encoder":"297079768963848","distractor":"297079768961848","target":"present","response":"absent","rt":"14252","correct":false,"confidence":-1},{"trial_n":13,"span":14,"encoder":"30627797001783","distractor":"30627797007783","target":"absent","response":"present","rt":"1497.8999999762","correct":false,"confidence":-1},{"trial_n":14,"span":13,"encoder":"5025263740266","distractor":"0025263740266","target":"absent","response":"present","rt":"1723.7999999523","correct":false,"confidence":-1},{"trial_n":15,"span":12,"encoder":"359075873054","distractor":"359075873052","target":"absent","response":"absent","rt":"2564.9000000954","correct":true,"confidence":-1},{"trial_n":16,"span":12,"encoder":"738072496709","distractor":"438072496709","target":"absent","response":"present","rt":"1507.2999999523","correct":false,"confidence":-1},{"trial_n":17,"span":11,"encoder":"26593457599","distractor":"26593467599","target":"present","response":"present","rt":"1231.2999999523","correct":true,"confidence":-1},{"trial_n":18,"span":11,"encoder":"90952670380","distractor":"90952660380","target":"absent","response":"present","rt":"1563.3999999762","correct":false,"confidence":-1},{"trial_n":19,"span":10,"encoder":"5460874834","distractor":"5460874864","target":"present","response":"absent","rt":"16.300000071526","correct":false,"confidence":-1},{"trial_n":20,"span":9,"encoder":"190538671","distractor":"100538671","target":"absent","response":"absent","rt":"3416.6999999285","correct":true,"confidence":-1},{"trial_n":21,"span":9,"encoder":"473935443","distractor":"476935443","target":"present","response":"present","rt":"2089.3999999762","correct":true,"confidence":4},{"trial_n":22,"span":10,"encoder":"2735576152","distractor":"2775576152","target":"present","response":"present","rt":"1688.2999999523","correct":true,"confidence":5},{"trial_n":23,"span":10,"encoder":"4903674481","distractor":"4903874481","target":"present","response":"present","rt":"2461.2000000477","correct":true,"confidence":4},{"trial_n":24,"span":11,"encoder":"22550182375","distractor":"22550184375","target":"absent","response":"present","rt":"2056.8999999762","correct":false,"confidence":4},{"trial_n":25,"span":10,"encoder":"4684940125","distractor":"4684940425","target":"present","response":"present","rt":"5361.5","correct":true,"confidence":5},{"trial_n":26,"span":10,"encoder":"9279478348","distractor":"9579478348","target":"present","response":"present","rt":"3617.8999999762","correct":true,"confidence":4},{"trial_n":27,"span":11,"encoder":"81523930138","distractor":"81523936138","target":"present","response":"present","rt":"5065.5","correct":true,"confidence":4},{"trial_n":28,"span":11,"encoder":"14773201050","distractor":"74773201050","target":"absent","response":"present","rt":"1928.2999999523","correct":false,"confidence":3},{"trial_n":29,"span":10,"encoder":"9130029228","distractor":"9130039228","target":"present","response":"present","rt":"1725.6000000238","correct":true,"confidence":5},{"trial_n":30,"span":10,"encoder":"3564848356","distractor":"3564148356","target":"absent","response":"present","rt":"2649.2000000477","correct":false,"confidence":4},{"trial_n":31,"span":9,"encoder":"546608623","distractor":"546608683","target":"present","response":"present","rt":"1606.7999999523","correct":true,"confidence":4},{"trial_n":32,"span":9,"encoder":"478084786","distractor":"428084786","target":"absent","response":"absent","rt":"3090.2999999523","correct":true,"confidence":2},{"trial_n":33,"span":10,"encoder":"7680751949","distractor":"7686751949","target":"absent","response":"absent","rt":"4867.1999999285","correct":true,"confidence":4},{"trial_n":34,"span":10,"encoder":"3249280884","distractor":"3249285884","target":"present","response":"present","rt":"5188.2000000477","correct":true,"confidence":5},{"trial_n":35,"span":11,"encoder":"69006736255","distractor":"69006836255","target":"present","response":"present","rt":"7327.5","correct":true,"confidence":4},{"trial_n":36,"span":11,"encoder":"25683537067","distractor":"25613537067","target":"present","response":"absent","rt":"2587.1000000238","correct":false,"confidence":4},{"trial_n":37,"span":10,"encoder":"3887985948","distractor":"3887985648","target":"present","response":"present","rt":"2769.5","correct":true,"confidence":5},{"trial_n":38,"span":10,"encoder":"1414988585","distractor":"1414983585","target":"absent","response":"absent","rt":"1748.3999999762","correct":true,"confidence":1},{"trial_n":39,"span":11,"encoder":"02603686858","distractor":"02693686858","target":"present","response":"present","rt":"6109.1999999285","correct":true,"confidence":3},{"trial_n":40,"span":11,"encoder":"24688376873","distractor":"24688372873","target":"present","response":"absent","rt":"4747.7999999523","correct":false,"confidence":4},{"trial_n":41,"span":10,"encoder":"9464870664","distractor":"9464870668","target":"absent","response":"present","rt":"2968.1999999285","correct":false,"confidence":4},{"trial_n":42,"span":9,"encoder":"214505463","distractor":"210505463","target":"present","response":"absent","rt":"5568.2000000477","correct":false,"confidence":2},{"trial_n":43,"span":8,"encoder":"73770038","distractor":"73780038","target":"absent","response":"absent","rt":"2916.5","correct":true,"confidence":5},{"trial_n":44,"span":8,"encoder":"81422153","distractor":"81422157","target":"absent","response":"present","rt":"3146.3000000715","correct":false,"confidence":4},{"trial_n":45,"span":7,"encoder":"0281075","distractor":"0288075","target":"present","response":"absent","rt":"2513.8999999762","correct":false,"confidence":3},{"trial_n":46,"span":6,"encoder":"835461","distractor":"835061","target":"absent","response":"absent","rt":"2406.6000000238","correct":true,"confidence":5},{"trial_n":47,"span":6,"encoder":"191149","distractor":"199149","target":"present","response":"absent","rt":"1871.5999999046","correct":false,"confidence":2},{"trial_n":48,"span":5,"encoder":"77636","distractor":"75636","target":"absent","response":"absent","rt":"1795.6999999285","correct":true,"confidence":5},{"trial_n":49,"span":5,"encoder":"79068","distractor":"79468","target":"present","response":"present","rt":"2920.8000000715","correct":true,"confidence":5},{"trial_n":50,"span":6,"encoder":"808310","distractor":"308310","target":"absent","response":"absent","rt":"2975.2000000477","correct":true,"confidence":5},{"trial_n":51,"span":6,"encoder":"175793","distractor":"175794","target":"absent","response":"absent","rt":"1447","correct":true,"confidence":5},{"trial_n":52,"span":7,"encoder":"6819417","distractor":"6819407","target":"present","response":"present","rt":"3956.5","correct":true,"confidence":5},{"trial_n":53,"span":7,"encoder":"2204515","distractor":"2204545","target":"absent","response":"absent","rt":"5676.3999999762","correct":true,"confidence":4},{"trial_n":54,"span":8,"encoder":"92971338","distractor":"92971332","target":"absent","response":"absent","rt":"4053.1999999285","correct":true,"confidence":4},{"trial_n":55,"span":8,"encoder":"64714487","distractor":"64714486","target":"absent","response":"absent","rt":"1916","correct":true,"confidence":4},{"trial_n":56,"span":9,"encoder":"705377158","distractor":"705377758","target":"present","response":"present","rt":"1531.4000000954","correct":true,"confidence":2},{"trial_n":57,"span":9,"encoder":"603597207","distractor":"603537207","target":"absent","response":"absent","rt":"3683.2000000477","correct":true,"confidence":5},{"trial_n":58,"span":10,"encoder":"8172887694","distractor":"8172687694","target":"present","response":"present","rt":"4966.7999999523","correct":true,"confidence":5},{"trial_n":59,"span":10,"encoder":"6229468692","distractor":"6229468492","target":"absent","response":"absent","rt":"5298.5","correct":true,"confidence":4},{"trial_n":60,"span":11,"encoder":"25224706370","distractor":"25024706370","target":"present","response":"present","rt":"4942.2000000477","correct":true,"confidence":3},{"trial_n":61,"span":11,"encoder":"04859486025","distractor":"04859486325","target":"absent","response":"absent","rt":"3456.6999999285","correct":true,"confidence":5},{"trial_n":62,"span":12,"encoder":"408138424376","distractor":"406138424376","target":"absent","response":"absent","rt":"2406.7000000477","correct":true,"confidence":5},{"trial_n":63,"span":12,"encoder":"100128540254","distractor":"100123540254","target":"present","response":"present","rt":"2622.7000000477","correct":true,"confidence":5},{"trial_n":64,"span":13,"encoder":"9751728080013","distractor":"9751724080013","target":"absent","response":"absent","rt":"5479.2999999523","correct":true,"confidence":4},{"trial_n":65,"span":13,"encoder":"2273623126428","distractor":"2373623126428","target":"absent","response":"present","rt":"7758.8999999762","correct":false,"confidence":3},{"trial_n":66,"span":12,"encoder":"818930640580","distractor":"818930640080","target":"present","response":"present","rt":"1597","correct":true,"confidence":3},{"trial_n":67,"span":12,"encoder":"052234504822","distractor":"052237504822","target":"present","response":"present","rt":"1235.8999999762","correct":true,"confidence":3},{"trial_n":68,"span":13,"encoder":"1179959408480","distractor":"1179956408480","target":"present","response":"present","rt":"4603.5","correct":true,"confidence":2},{"trial_n":69,"span":13,"encoder":"6684550135722","distractor":"6684150135722","target":"absent","response":"present","rt":"1125","correct":false,"confidence":2},{"trial_n":70,"span":12,"encoder":"994078976924","distractor":"994075976924","target":"absent","response":"present","rt":"1075.2000000477","correct":false,"confidence":2},{"trial_n":71,"span":8,"encoder":"17611021","distractor":"16611021","target":"present","response":"present","rt":"2474.5","correct":true,"confidence":-1},{"trial_n":72,"span":8,"encoder":"16110002","distractor":"16110052","target":"present","response":"present","rt":"3317.7000000477","correct":true,"confidence":-1},{"trial_n":73,"span":9,"encoder":"950780540","distractor":"950780530","target":"absent","response":"absent","rt":"3527.9000000954","correct":true,"confidence":-1},{"trial_n":74,"span":9,"encoder":"329230238","distractor":"329230235","target":"absent","response":"absent","rt":"1831.6000000238","correct":true,"confidence":-1},{"trial_n":75,"span":10,"encoder":"9209556679","distractor":"8209556679","target":"present","response":"absent","rt":"4267.9000000954","correct":false,"confidence":-1},{"trial_n":76,"span":9,"encoder":"475707303","distractor":"475707305","target":"present","response":"present","rt":"1918","correct":true,"confidence":-1},{"trial_n":77,"span":9,"encoder":"304351494","distractor":"304451494","target":"absent","response":"present","rt":"1165.8999999762","correct":false,"confidence":-1},{"trial_n":78,"span":8,"encoder":"20090320","distractor":"20090326","target":"present","response":"absent","rt":"980.90000009537","correct":false,"confidence":-1},{"trial_n":79,"span":7,"encoder":"7182012","distractor":"7182092","target":"absent","response":"present","rt":"1015.8000000715","correct":false,"confidence":-1},{"trial_n":80,"span":6,"encoder":"107562","distractor":"101562","target":"present","response":"present","rt":"1679.5","correct":true,"confidence":-1},{"trial_n":81,"span":6,"encoder":"259731","distractor":"959731","target":"present","response":"absent","rt":"1011.4000000954","correct":false,"confidence":-1},{"trial_n":82,"span":5,"encoder":"26909","distractor":"26908","target":"present","response":"present","rt":"1567.4000000954","correct":true,"confidence":-1},{"trial_n":83,"span":5,"encoder":"09729","distractor":"03729","target":"present","response":"present","rt":"1289.6000000238","correct":true,"confidence":-1},{"trial_n":84,"span":6,"encoder":"824559","distractor":"821559","target":"absent","response":"present","rt":"1337.7000000477","correct":false,"confidence":-1},{"trial_n":85,"span":5,"encoder":"90223","distractor":"90423","target":"present","response":"absent","rt":"1445.2999999523","correct":false,"confidence":-1},{"trial_n":86,"span":4,"encoder":"3051","distractor":"3050","target":"absent","response":"present","rt":"1394.7000000477","correct":false,"confidence":-1},{"trial_n":87,"span":3,"encoder":"341","distractor":"342","target":"absent","response":"absent","rt":"1022.6000000238","correct":true,"confidence":-1},{"trial_n":88,"span":3,"encoder":"638","distractor":"632","target":"absent","response":"absent","rt":"799.70000004768","correct":true,"confidence":-1},{"trial_n":89,"span":4,"encoder":"1681","distractor":"1181","target":"present","response":"present","rt":"1288.8999999762","correct":true,"confidence":-1},{"trial_n":90,"span":4,"encoder":"4277","distractor":"4177","target":"present","response":"present","rt":"1163","correct":true,"confidence":-1},{"trial_n":91,"span":5,"encoder":"39589","distractor":"59589","target":"present","response":"present","rt":"3297.2000000477","correct":true,"confidence":5},{"trial_n":92,"span":5,"encoder":"44495","distractor":"74495","target":"present","response":"present","rt":"2182.7999999523","correct":true,"confidence":5},{"trial_n":93,"span":6,"encoder":"306805","distractor":"316805","target":"present","response":"present","rt":"1826.7999999523","correct":true,"confidence":5},{"trial_n":94,"span":6,"encoder":"070619","distractor":"070219","target":"absent","response":"absent","rt":"2071.5","correct":true,"confidence":5},{"trial_n":95,"span":7,"encoder":"0420510","distractor":"0420513","target":"absent","response":"absent","rt":"2604.8000000715","correct":true,"confidence":5},{"trial_n":96,"span":7,"encoder":"9345015","distractor":"9315015","target":"absent","response":"absent","rt":"2598.7999999523","correct":true,"confidence":5},{"trial_n":97,"span":8,"encoder":"62960629","distractor":"62960229","target":"absent","response":"absent","rt":"3463.5999999046","correct":true,"confidence":5},{"trial_n":98,"span":8,"encoder":"56410632","distractor":"56410622","target":"present","response":"present","rt":"1429.1999999285","correct":true,"confidence":5},{"trial_n":99,"span":9,"encoder":"755468211","distractor":"755468411","target":"present","response":"present","rt":"4011.2000000477","correct":true,"confidence":2},{"trial_n":100,"span":9,"encoder":"751713019","distractor":"751717019","target":"absent","response":"absent","rt":"3446.8000000715","correct":true,"confidence":4},{"trial_n":101,"span":10,"encoder":"4288487630","distractor":"4288487600","target":"absent","response":"absent","rt":"1905.2000000477","correct":true,"confidence":5},{"trial_n":102,"span":10,"encoder":"7617583694","distractor":"7617183694","target":"present","response":"present","rt":"2809.1000000238","correct":true,"confidence":4},{"trial_n":103,"span":11,"encoder":"06055708302","distractor":"06058708302","target":"absent","response":"present","rt":"6362.7999999523","correct":false,"confidence":4},{"trial_n":104,"span":10,"encoder":"0861591538","distractor":"0161591538","target":"present","response":"present","rt":"2900.4000000954","correct":true,"confidence":2},{"trial_n":105,"span":10,"encoder":"0634979498","distractor":"0604979498","target":"present","response":"present","rt":"3430.7000000477","correct":true,"confidence":5},{"trial_n":106,"span":11,"encoder":"80524763231","distractor":"80524763631","target":"absent","response":"present","rt":"3283.6000000238","correct":false,"confidence":5},{"trial_n":107,"span":10,"encoder":"0843515093","distractor":"0843515095","target":"present","response":"present","rt":"4803.3999999762","correct":true,"confidence":5},{"trial_n":108,"span":10,"encoder":"7437480573","distractor":"7437450573","target":"absent","response":"absent","rt":"2987.6000000238","correct":true,"confidence":5},{"trial_n":109,"span":11,"encoder":"61039748145","distractor":"61039748146","target":"absent","response":"absent","rt":"3095.7000000477","correct":true,"confidence":5},{"trial_n":110,"span":11,"encoder":"14738729081","distractor":"14738729381","target":"present","response":"present","rt":"3529.6000000238","correct":true,"confidence":5},{"trial_n":111,"span":12,"encoder":"702056335473","distractor":"702096335473","target":"absent","response":"absent","rt":"4503.2999999523","correct":true,"confidence":5},{"trial_n":112,"span":12,"encoder":"682457037715","distractor":"682457037815","target":"present","response":"present","rt":"1515.2999999523","correct":true,"confidence":5},{"trial_n":113,"span":13,"encoder":"0825251550624","distractor":"0825256550624","target":"present","response":"present","rt":"17338.700000048","correct":true,"confidence":2},{"trial_n":114,"span":13,"encoder":"2530180723789","distractor":"2830180723789","target":"absent","response":"present","rt":"8412.6000000238","correct":false,"confidence":2},{"trial_n":115,"span":12,"encoder":"348377993780","distractor":"348377993783","target":"absent","response":"absent","rt":"1215.5","correct":true,"confidence":5},{"trial_n":116,"span":12,"encoder":"517271863703","distractor":"517278863703","target":"absent","response":"present","rt":"5800.6999999285","correct":false,"confidence":2},{"trial_n":117,"span":11,"encoder":"60570449823","distractor":"60570446823","target":"present","response":"absent","rt":"2492.9000000954","correct":false,"confidence":3},{"trial_n":118,"span":10,"encoder":"7206922984","distractor":"7206922924","target":"absent","response":"absent","rt":"1841.7000000477","correct":true,"confidence":5},{"trial_n":119,"span":10,"encoder":"1041368939","distractor":"1341368939","target":"absent","response":"present","rt":"4075.3999999762","correct":false,"confidence":3},{"trial_n":120,"span":9,"encoder":"146901373","distractor":"146101373","target":"present","response":"present","rt":"6174.3000000715","correct":true,"confidence":2},{"trial_n":121,"span":9,"encoder":"427750538","distractor":"427750518","target":"present","response":"present","rt":"7717.0999999046","correct":true,"confidence":4},{"trial_n":122,"span":10,"encoder":"9470621737","distractor":"9490621737","target":"present","response":"absent","rt":"5460.8999999762","correct":false,"confidence":4},{"trial_n":123,"span":9,"encoder":"742814990","distractor":"742014990","target":"present","response":"present","rt":"4385.6000000238","correct":true,"confidence":5},{"trial_n":124,"span":9,"encoder":"159940148","distractor":"199940148","target":"absent","response":"absent","rt":"3887.6000000238","correct":true,"confidence":3},{"trial_n":125,"span":10,"encoder":"2035088915","distractor":"2035088965","target":"absent","response":"absent","rt":"4585.2999999523","correct":true,"confidence":3},{"trial_n":126,"span":10,"encoder":"1786776750","distractor":"1786776740","target":"present","response":"present","rt":"1274.5","correct":true,"confidence":5},{"trial_n":127,"span":11,"encoder":"91444703493","distractor":"91444703293","target":"absent","response":"absent","rt":"3286.1000000238","correct":true,"confidence":5},{"trial_n":128,"span":11,"encoder":"19037272718","distractor":"19037472718","target":"absent","response":"present","rt":"7781.1000000238","correct":false,"confidence":5},{"trial_n":129,"span":10,"encoder":"7075597733","distractor":"6075597733","target":"present","response":"present","rt":"3822.3000000715","correct":true,"confidence":5},{"trial_n":130,"span":10,"encoder":"9202837825","distractor":"9202832825","target":"present","response":"present","rt":"3834.1999999285","correct":true,"confidence":3},{"trial_n":131,"span":11,"encoder":"10488603232","distractor":"10488606232","target":"present","response":"present","rt":"5068","correct":true,"confidence":2},{"trial_n":132,"span":11,"encoder":"78788473013","distractor":"78788473003","target":"absent","response":"absent","rt":"2247.1000000238","correct":true,"confidence":5},{"trial_n":133,"span":12,"encoder":"580055864838","distractor":"580051864838","target":"absent","response":"present","rt":"3977.1999999285","correct":false,"confidence":3},{"trial_n":134,"span":11,"encoder":"72216732007","distractor":"72216738007","target":"absent","response":"absent","rt":"2282.8000000715","correct":true,"confidence":5},{"trial_n":135,"span":11,"encoder":"98065658010","distractor":"38065658010","target":"absent","response":"absent","rt":"3227","correct":true,"confidence":5},{"trial_n":136,"span":12,"encoder":"782737475333","distractor":"782737475335","target":"absent","response":"absent","rt":"2191","correct":true,"confidence":2},{"trial_n":137,"span":12,"encoder":"826970260484","distractor":"826970260486","target":"present","response":"present","rt":"1381.8000000715","correct":true,"confidence":4},{"trial_n":138,"span":13,"encoder":"8977501375197","distractor":"8977501379197","target":"present","response":"absent","rt":"2394.6999999285","correct":false,"confidence":3},{"trial_n":139,"span":12,"encoder":"640914279821","distractor":"645914279821","target":"absent","response":"absent","rt":"3818.8999999762","correct":true,"confidence":3},{"trial_n":140,"span":12,"encoder":"993486897004","distractor":"993486897002","target":"present","response":"present","rt":"1121.5","correct":true,"confidence":5}]