[{"trial_n":1,"min":25,"max":230,"target":"present","response":"absent","rt":11935.300000072,"correct":false,"confidence":-1},{"trial_n":2,"min":25,"max":230,"target":"present","response":"present","rt":1527.2999999523,"correct":true,"confidence":-1},{"trial_n":3,"min":25,"max":230,"target":"absent","response":"absent","rt":601,"correct":true,"confidence":-1},{"trial_n":4,"min":41,"max":214,"target":"absent","response":"absent","rt":442.89999997616,"correct":true,"confidence":-1},{"trial_n":5,"min":41,"max":214,"target":"present","response":"present","rt":555.10000002384,"correct":true,"confidence":-1},{"trial_n":6,"min":57,"max":198,"target":"absent","response":"absent","rt":458.10000002384,"correct":true,"confidence":-1},{"trial_n":7,"min":57,"max":198,"target":"present","response":"present","rt":456.10000002384,"correct":true,"confidence":-1},{"trial_n":8,"min":73,"max":182,"target":"absent","response":"absent","rt":330.5,"correct":true,"confidence":-1},{"trial_n":9,"min":73,"max":182,"target":"absent","response":"absent","rt":411.20000004768,"correct":true,"confidence":-1},{"trial_n":10,"min":89,"max":166,"target":"present","response":"present","rt":661.70000004768,"correct":true,"confidence":-1},{"trial_n":11,"min":89,"max":166,"target":"present","response":"absent","rt":484.79999995232,"correct":false,"confidence":-1},{"trial_n":12,"min":81,"max":174,"target":"absent","response":"absent","rt":765.90000009537,"correct":true,"confidence":-1},{"trial_n":13,"min":81,"max":174,"target":"absent","response":"absent","rt":436.5,"correct":true,"confidence":-1},{"trial_n":14,"min":89,"max":166,"target":"absent","response":"absent","rt":659.29999995232,"correct":true,"confidence":-1},{"trial_n":15,"min":89,"max":166,"target":"present","response":"absent","rt":382.89999997616,"correct":false,"confidence":-1},{"trial_n":16,"min":81,"max":174,"target":"absent","response":"absent","rt":454.39999997616,"correct":true,"confidence":-1},{"trial_n":17,"min":81,"max":174,"target":"absent","response":"present","rt":526.5,"correct":false,"confidence":-1},{"trial_n":18,"min":73,"max":182,"target":"present","response":"present","rt":488.89999997616,"correct":true,"confidence":-1},{"trial_n":19,"min":73,"max":182,"target":"absent","response":"absent","rt":337.30000007153,"correct":true,"confidence":-1},{"trial_n":20,"min":81,"max":174,"target":"absent","response":"present","rt":502,"correct":false,"confidence":-1},{"trial_n":21,"min":77,"max":178,"target":"present","response":"present","rt":840.20000004768,"correct":true,"confidence":4},{"trial_n":22,"min":77,"max":178,"target":"present","response":"present","rt":515.19999992847,"correct":true,"confidence":5},{"trial_n":23,"min":81,"max":174,"target":"present","response":"present","rt":623,"correct":true,"confidence":4},{"trial_n":24,"min":81,"max":174,"target":"present","response":"present","rt":1533.6000000238,"correct":true,"confidence":3},{"trial_n":25,"min":85,"max":170,"target":"present","response":"present","rt":1037.8000000715,"correct":true,"confidence":3},{"trial_n":26,"min":85,"max":170,"target":"absent","response":"present","rt":1206.6999999285,"correct":false,"confidence":3},{"trial_n":27,"min":81,"max":174,"target":"present","response":"present","rt":2606.1000000238,"correct":true,"confidence":3},{"trial_n":28,"min":81,"max":174,"target":"present","response":"absent","rt":6694.8999999762,"correct":false,"confidence":2},{"trial_n":29,"min":77,"max":178,"target":"present","response":"absent","rt":2629.0999999046,"correct":false,"confidence":2},{"trial_n":30,"min":73,"max":182,"target":"absent","response":"absent","rt":1974.1000000238,"correct":true,"confidence":2},{"trial_n":31,"min":73,"max":182,"target":"absent","response":"absent","rt":1374.5999999046,"correct":true,"confidence":4},{"trial_n":32,"min":75,"max":180,"target":"absent","response":"absent","rt":2099.2000000477,"correct":true,"confidence":4},{"trial_n":33,"min":75,"max":180,"target":"present","response":"present","rt":772.69999992847,"correct":true,"confidence":5},{"trial_n":34,"min":77,"max":178,"target":"present","response":"present","rt":909.60000002384,"correct":true,"confidence":5},{"trial_n":35,"min":77,"max":178,"target":"present","response":"present","rt":1117.1999999285,"correct":true,"confidence":5},{"trial_n":36,"min":79,"max":176,"target":"present","response":"absent","rt":3024,"correct":false,"confidence":2},{"trial_n":37,"min":77,"max":178,"target":"absent","response":"absent","rt":1350.7000000477,"correct":true,"confidence":2},{"trial_n":38,"min":77,"max":178,"target":"absent","response":"present","rt":991,"correct":false,"confidence":3},{"trial_n":39,"min":75,"max":180,"target":"absent","response":"present","rt":1542.6999999285,"correct":false,"confidence":3},{"trial_n":40,"min":73,"max":182,"target":"absent","response":"present","rt":1657,"correct":false,"confidence":3},{"trial_n":41,"min":72,"max":183,"target":"present","response":"present","rt":872.39999997616,"correct":true,"confidence":5},{"trial_n":42,"min":72,"max":183,"target":"present","response":"present","rt":2952.0999999046,"correct":true,"confidence":2},{"trial_n":43,"min":73,"max":182,"target":"present","response":"present","rt":1123.2000000477,"correct":true,"confidence":5},{"trial_n":44,"min":73,"max":182,"target":"absent","response":"absent","rt":914.69999992847,"correct":true,"confidence":3},{"trial_n":45,"min":74,"max":181,"target":"absent","response":"absent","rt":869.60000002384,"correct":true,"confidence":3},{"trial_n":46,"min":74,"max":181,"target":"absent","response":"absent","rt":1524.5,"correct":true,"confidence":5},{"trial_n":47,"min":75,"max":180,"target":"absent","response":"absent","rt":778.89999997616,"correct":true,"confidence":2},{"trial_n":48,"min":75,"max":180,"target":"present","response":"present","rt":941.80000007153,"correct":true,"confidence":5},{"trial_n":49,"min":76,"max":179,"target":"present","response":"present","rt":790.39999997616,"correct":true,"confidence":5},{"trial_n":50,"min":76,"max":179,"target":"absent","response":"present","rt":1675.7999999523,"correct":false,"confidence":3},{"trial_n":51,"min":75,"max":180,"target":"present","response":"present","rt":1035.5,"correct":true,"confidence":5},{"trial_n":52,"min":75,"max":180,"target":"present","response":"present","rt":897.20000004768,"correct":true,"confidence":5},{"trial_n":53,"min":76,"max":179,"target":"present","response":"present","rt":1352.4000000954,"correct":true,"confidence":5},{"trial_n":54,"min":76,"max":179,"target":"present","response":"present","rt":1794.7000000477,"correct":true,"confidence":5},{"trial_n":55,"min":77,"max":178,"target":"absent","response":"absent","rt":1105.2000000477,"correct":true,"confidence":5},{"trial_n":56,"min":77,"max":178,"target":"present","response":"present","rt":1204.6999999285,"correct":true,"confidence":5},{"trial_n":57,"min":78,"max":177,"target":"absent","response":"absent","rt":729.30000007153,"correct":true,"confidence":3},{"trial_n":58,"min":78,"max":177,"target":"absent","response":"present","rt":1500.2999999523,"correct":false,"confidence":4},{"trial_n":59,"min":77,"max":178,"target":"present","response":"present","rt":843.30000007153,"correct":true,"confidence":5},{"trial_n":60,"min":77,"max":178,"target":"absent","response":"absent","rt":864.5,"correct":true,"confidence":2},{"trial_n":61,"min":78,"max":177,"target":"absent","response":"present","rt":814.80000007153,"correct":false,"confidence":4},{"trial_n":62,"min":77,"max":178,"target":"present","response":"present","rt":1289,"correct":true,"confidence":4},{"trial_n":63,"min":77,"max":178,"target":"absent","response":"absent","rt":779.90000009537,"correct":true,"confidence":4},{"trial_n":64,"min":78,"max":177,"target":"present","response":"present","rt":644.29999995232,"correct":true,"confidence":5},{"trial_n":65,"min":78,"max":177,"target":"absent","response":"absent","rt":1284.3999999762,"correct":true,"confidence":3},{"trial_n":66,"min":79,"max":176,"target":"present","response":"absent","rt":953.40000009537,"correct":false,"confidence":2},{"trial_n":67,"min":78,"max":177,"target":"absent","response":"absent","rt":816.90000009537,"correct":true,"confidence":2},{"trial_n":68,"min":78,"max":177,"target":"absent","response":"absent","rt":1370.6000000238,"correct":true,"confidence":1},{"trial_n":69,"min":79,"max":176,"target":"present","response":"absent","rt":1535.5,"correct":false,"confidence":4},{"trial_n":70,"min":78,"max":177,"target":"present","response":"present","rt":924.5,"correct":true,"confidence":5},{"trial_n":71,"min":41,"max":214,"target":"present","response":"present","rt":1304.8000000715,"correct":true,"confidence":-1},{"trial_n":72,"min":41,"max":214,"target":"present","response":"present","rt":1485.6000000238,"correct":true,"confidence":-1},{"trial_n":73,"min":57,"max":198,"target":"absent","response":"absent","rt":2959.8999999762,"correct":true,"confidence":-1},{"trial_n":74,"min":57,"max":198,"target":"absent","response":"absent","rt":570.29999995232,"correct":true,"confidence":-1},{"trial_n":75,"min":73,"max":182,"target":"present","response":"present","rt":495,"correct":true,"confidence":-1},{"trial_n":76,"min":73,"max":182,"target":"absent","response":"present","rt":1537.1999999285,"correct":false,"confidence":-1},{"trial_n":77,"min":57,"max":198,"target":"absent","response":"present","rt":491.5,"correct":false,"confidence":-1},{"trial_n":78,"min":41,"max":214,"target":"absent","response":"absent","rt":428.29999995232,"correct":true,"confidence":-1},{"trial_n":79,"min":41,"max":214,"target":"present","response":"present","rt":254.70000004768,"correct":true,"confidence":-1},{"trial_n":80,"min":57,"max":198,"target":"absent","response":"absent","rt":544.60000002384,"correct":true,"confidence":-1},{"trial_n":81,"min":57,"max":198,"target":"absent","response":"present","rt":377.5,"correct":false,"confidence":-1},{"trial_n":82,"min":49,"max":206,"target":"present","response":"present","rt":363.19999992847,"correct":true,"confidence":-1},{"trial_n":83,"min":49,"max":206,"target":"present","response":"present","rt":404,"correct":true,"confidence":-1},{"trial_n":84,"min":57,"max":198,"target":"absent","response":"present","rt":506.60000002384,"correct":false,"confidence":-1},{"trial_n":85,"min":49,"max":206,"target":"absent","response":"absent","rt":512.89999997616,"correct":true,"confidence":-1},{"trial_n":86,"min":49,"max":206,"target":"absent","response":"absent","rt":484.19999992847,"correct":true,"confidence":-1},{"trial_n":87,"min":57,"max":198,"target":"present","response":"present","rt":386.39999997616,"correct":true,"confidence":-1},{"trial_n":88,"min":57,"max":198,"target":"present","response":"present","rt":534.39999997616,"correct":true,"confidence":-1},{"trial_n":89,"min":65,"max":190,"target":"present","response":"present","rt":184.20000004768,"correct":true,"confidence":-1},{"trial_n":90,"min":65,"max":190,"target":"absent","response":"present","rt":477.20000004768,"correct":false,"confidence":-1},{"trial_n":91,"min":61,"max":194,"target":"present","response":"present","rt":547.10000002384,"correct":true,"confidence":5},{"trial_n":92,"min":61,"max":194,"target":"absent","response":"absent","rt":1057.8000000715,"correct":true,"confidence":5},{"trial_n":93,"min":65,"max":190,"target":"absent","response":"absent","rt":684,"correct":true,"confidence":5},{"trial_n":94,"min":65,"max":190,"target":"present","response":"present","rt":307.60000002384,"correct":true,"confidence":5},{"trial_n":95,"min":69,"max":186,"target":"present","response":"present","rt":462.39999997616,"correct":true,"confidence":5},{"trial_n":96,"min":69,"max":186,"target":"present","response":"present","rt":219.39999997616,"correct":true,"confidence":5},{"trial_n":97,"min":73,"max":182,"target":"present","response":"present","rt":267.69999992847,"correct":true,"confidence":5},{"trial_n":98,"min":73,"max":182,"target":"present","response":"present","rt":427.29999995232,"correct":true,"confidence":5},{"trial_n":99,"min":77,"max":178,"target":"absent","response":"absent","rt":413.79999995232,"correct":true,"confidence":5},{"trial_n":100,"min":77,"max":178,"target":"absent","response":"absent","rt":988.79999995232,"correct":true,"confidence":4},{"trial_n":101,"min":79,"max":176,"target":"absent","response":"present","rt":1376.1999999285,"correct":false,"confidence":1},{"trial_n":102,"min":77,"max":178,"target":"present","response":"present","rt":310.39999997616,"correct":true,"confidence":5},{"trial_n":103,"min":77,"max":178,"target":"absent","response":"present","rt":1020.5,"correct":false,"confidence":3},{"trial_n":104,"min":75,"max":180,"target":"absent","response":"absent","rt":579.89999997616,"correct":true,"confidence":2},{"trial_n":105,"min":75,"max":180,"target":"present","response":"present","rt":495.60000002384,"correct":true,"confidence":3},{"trial_n":106,"min":77,"max":178,"target":"absent","response":"absent","rt":1458.2999999523,"correct":true,"confidence":2},{"trial_n":107,"min":77,"max":178,"target":"present","response":"present","rt":429.70000004768,"correct":true,"confidence":5},{"trial_n":108,"min":79,"max":176,"target":"present","response":"present","rt":636.10000002384,"correct":true,"confidence":2},{"trial_n":109,"min":79,"max":176,"target":"present","response":"present","rt":882.30000007153,"correct":true,"confidence":3},{"trial_n":110,"min":81,"max":174,"target":"absent","response":"absent","rt":621.79999995232,"correct":true,"confidence":3},{"trial_n":111,"min":81,"max":174,"target":"present","response":"present","rt":298.60000002384,"correct":true,"confidence":5},{"trial_n":112,"min":82,"max":173,"target":"absent","response":"absent","rt":1170.3999999762,"correct":true,"confidence":2},{"trial_n":113,"min":82,"max":173,"target":"absent","response":"absent","rt":566.89999997616,"correct":true,"confidence":3},{"trial_n":114,"min":83,"max":172,"target":"present","response":"present","rt":654.70000004768,"correct":true,"confidence":4},{"trial_n":115,"min":83,"max":172,"target":"present","response":"present","rt":243.10000002384,"correct":true,"confidence":5},{"trial_n":116,"min":84,"max":171,"target":"absent","response":"absent","rt":1210.6000000238,"correct":true,"confidence":2},{"trial_n":117,"min":84,"max":171,"target":"present","response":"present","rt":1075.3000000715,"correct":true,"confidence":3},{"trial_n":118,"min":85,"max":170,"target":"absent","response":"present","rt":1082.7999999523,"correct":false,"confidence":2},{"trial_n":119,"min":84,"max":171,"target":"present","response":"present","rt":1070.2999999523,"correct":true,"confidence":3},{"trial_n":120,"min":84,"max":171,"target":"present","response":"absent","rt":2696.7999999523,"correct":false,"confidence":1},{"trial_n":121,"min":83,"max":172,"target":"absent","response":"present","rt":2539,"correct":false,"confidence":2},{"trial_n":122,"min":82,"max":173,"target":"absent","response":"absent","rt":623.39999997616,"correct":true,"confidence":2},{"trial_n":123,"min":82,"max":173,"target":"present","response":"present","rt":453.19999992847,"correct":true,"confidence":1},{"trial_n":124,"min":83,"max":172,"target":"absent","response":"absent","rt":678.89999997616,"correct":true,"confidence":3},{"trial_n":125,"min":83,"max":172,"target":"present","response":"present","rt":477.5,"correct":true,"confidence":5},{"trial_n":126,"min":84,"max":171,"target":"absent","response":"absent","rt":888.80000007153,"correct":true,"confidence":2},{"trial_n":127,"min":84,"max":171,"target":"present","response":"present","rt":673.19999992847,"correct":true,"confidence":2},{"trial_n":128,"min":85,"max":170,"target":"present","response":"absent","rt":702.30000007153,"correct":false,"confidence":3},{"trial_n":129,"min":84,"max":171,"target":"present","response":"present","rt":1445.2999999523,"correct":true,"confidence":3},{"trial_n":130,"min":84,"max":171,"target":"present","response":"present","rt":539,"correct":true,"confidence":5},{"trial_n":131,"min":85,"max":170,"target":"absent","response":"present","rt":718.39999997616,"correct":false,"confidence":1},{"trial_n":132,"min":84,"max":171,"target":"present","response":"present","rt":338.19999992847,"correct":true,"confidence":4},{"trial_n":133,"min":84,"max":171,"target":"absent","response":"present","rt":1307.8999999762,"correct":false,"confidence":2},{"trial_n":134,"min":83,"max":172,"target":"absent","response":"present","rt":978.59999990463,"correct":false,"confidence":1},{"trial_n":135,"min":82,"max":173,"target":"absent","response":"present","rt":520.10000002384,"correct":false,"confidence":1},{"trial_n":136,"min":81,"max":174,"target":"present","response":"present","rt":307.29999995232,"correct":true,"confidence":5},{"trial_n":137,"min":81,"max":174,"target":"absent","response":"absent","rt":769.40000009537,"correct":true,"confidence":1},{"trial_n":138,"min":82,"max":173,"target":"present","response":"present","rt":2304.7000000477,"correct":true,"confidence":1},{"trial_n":139,"min":82,"max":173,"target":"absent","response":"present","rt":462.89999997616,"correct":false,"confidence":3},{"trial_n":140,"min":81,"max":174,"target":"present","response":"present","rt":835.5,"correct":true,"confidence":4}]