[{"trial_n":1,"n_dots":4.25,"target":"right","response":"left","rt":6601,"correct":false,"confidence":-1},{"trial_n":2,"n_dots":4.25,"target":"left","response":"left","rt":668.69999992847,"correct":true,"confidence":-1},{"trial_n":3,"n_dots":4.25,"target":"left","response":"right","rt":481.70000004768,"correct":false,"confidence":-1},{"trial_n":4,"n_dots":4.65,"target":"left","response":"left","rt":296.89999997616,"correct":true,"confidence":-1},{"trial_n":5,"n_dots":4.65,"target":"right","response":"right","rt":286.70000004768,"correct":true,"confidence":-1},{"trial_n":6,"n_dots":4.25,"target":"right","response":"right","rt":271.80000007153,"correct":true,"confidence":-1},{"trial_n":7,"n_dots":4.25,"target":"left","response":"left","rt":672.5,"correct":true,"confidence":-1},{"trial_n":8,"n_dots":4.05,"target":"right","response":"right","rt":601,"correct":true,"confidence":-1},{"trial_n":9,"n_dots":4.05,"target":"right","response":"right","rt":517.39999997616,"correct":true,"confidence":-1},{"trial_n":10,"n_dots":3.85,"target":"left","response":"left","rt":342.20000004768,"correct":true,"confidence":-1},{"trial_n":11,"n_dots":3.85,"target":"right","response":"right","rt":472.79999995232,"correct":true,"confidence":-1},{"trial_n":12,"n_dots":3.65,"target":"left","response":"right","rt":464.80000007153,"correct":false,"confidence":-1},{"trial_n":13,"n_dots":3.75,"target":"right","response":"right","rt":30,"correct":true,"confidence":-1},{"trial_n":14,"n_dots":3.75,"target":"right","response":"right","rt":542.10000002384,"correct":true,"confidence":-1},{"trial_n":15,"n_dots":3.65,"target":"left","response":"left","rt":114.09999990463,"correct":true,"confidence":-1},{"trial_n":16,"n_dots":3.65,"target":"left","response":"left","rt":14.700000047684,"correct":true,"confidence":-1},{"trial_n":17,"n_dots":3.55,"target":"right","response":"right","rt":2484.3000000715,"correct":true,"confidence":-1},{"trial_n":18,"n_dots":3.55,"target":"left","response":"left","rt":27.099999904633,"correct":true,"confidence":-1},{"trial_n":19,"n_dots":3.45,"target":"right","response":"right","rt":763.60000002384,"correct":true,"confidence":-1},{"trial_n":20,"n_dots":3.45,"target":"right","response":"left","rt":625.89999997616,"correct":false,"confidence":-1},{"trial_n":21,"n_dots":3.55,"target":"right","response":"right","rt":2196.2999999523,"correct":true,"confidence":3},{"trial_n":22,"n_dots":3.55,"target":"left","response":"left","rt":1460.2000000477,"correct":true,"confidence":2},{"trial_n":23,"n_dots":3.45,"target":"left","response":"left","rt":662,"correct":true,"confidence":2},{"trial_n":24,"n_dots":3.45,"target":"left","response":"left","rt":764.70000004768,"correct":true,"confidence":5},{"trial_n":25,"n_dots":3.35,"target":"right","response":"right","rt":1652.6000000238,"correct":true,"confidence":5},{"trial_n":26,"n_dots":3.35,"target":"right","response":"left","rt":1007.7000000477,"correct":false,"confidence":1},{"trial_n":27,"n_dots":3.45,"target":"right","response":"right","rt":956.20000004768,"correct":true,"confidence":4},{"trial_n":28,"n_dots":3.45,"target":"right","response":"right","rt":1095.1000000238,"correct":true,"confidence":4},{"trial_n":29,"n_dots":3.35,"target":"right","response":"right","rt":2096.3999999762,"correct":true,"confidence":3},{"trial_n":30,"n_dots":3.35,"target":"right","response":"right","rt":1328.7999999523,"correct":true,"confidence":3},{"trial_n":31,"n_dots":3.25,"target":"right","response":"right","rt":3772.5,"correct":true,"confidence":3},{"trial_n":32,"n_dots":3.25,"target":"right","response":"right","rt":670.60000002384,"correct":true,"confidence":2},{"trial_n":33,"n_dots":3.15,"target":"left","response":"left","rt":254.40000009537,"correct":true,"confidence":4},{"trial_n":34,"n_dots":3.15,"target":"left","response":"left","rt":312.90000009537,"correct":true,"confidence":5},{"trial_n":35,"n_dots":3.05,"target":"left","response":"left","rt":308.89999997616,"correct":true,"confidence":5},{"trial_n":36,"n_dots":3.05,"target":"right","response":"left","rt":904.5,"correct":false,"confidence":5},{"trial_n":37,"n_dots":3.15,"target":"left","response":"left","rt":336.39999997616,"correct":true,"confidence":5},{"trial_n":38,"n_dots":3.15,"target":"left","response":"left","rt":619.20000004768,"correct":true,"confidence":5},{"trial_n":39,"n_dots":3.05,"target":"right","response":"left","rt":486.79999995232,"correct":false,"confidence":5},{"trial_n":40,"n_dots":3.15,"target":"left","response":"left","rt":393.5,"correct":true,"confidence":5},{"trial_n":41,"n_dots":3.15,"target":"right","response":"left","rt":377.89999997616,"correct":false,"confidence":5},{"trial_n":42,"n_dots":3.25,"target":"left","response":"left","rt":341.30000007153,"correct":true,"confidence":5},{"trial_n":43,"n_dots":3.25,"target":"right","response":"left","rt":608.10000002384,"correct":false,"confidence":5},{"trial_n":44,"n_dots":3.35,"target":"right","response":"left","rt":1513.3000000715,"correct":false,"confidence":3},{"trial_n":45,"n_dots":3.45,"target":"left","response":"left","rt":297.29999995232,"correct":true,"confidence":5},{"trial_n":46,"n_dots":3.45,"target":"right","response":"left","rt":234.70000004768,"correct":false,"confidence":4},{"trial_n":47,"n_dots":3.55,"target":"left","response":"left","rt":321.09999990463,"correct":true,"confidence":5},{"trial_n":48,"n_dots":3.55,"target":"left","response":"left","rt":432,"correct":true,"confidence":5},{"trial_n":49,"n_dots":3.45,"target":"left","response":"left","rt":4.6000000238419,"correct":true,"confidence":4},{"trial_n":50,"n_dots":3.45,"target":"right","response":"right","rt":779.5,"correct":true,"confidence":3},{"trial_n":51,"n_dots":3.35,"target":"left","response":"left","rt":466.19999992847,"correct":true,"confidence":4},{"trial_n":52,"n_dots":3.35,"target":"left","response":"left","rt":926.60000002384,"correct":true,"confidence":5},{"trial_n":53,"n_dots":3.25,"target":"left","response":"left","rt":400.89999997616,"correct":true,"confidence":3},{"trial_n":54,"n_dots":3.25,"target":"right","response":"left","rt":293.5,"correct":false,"confidence":5},{"trial_n":55,"n_dots":3.35,"target":"left","response":"left","rt":1905.2000000477,"correct":true,"confidence":2},{"trial_n":56,"n_dots":3.35,"target":"right","response":"left","rt":334.29999995232,"correct":false,"confidence":3},{"trial_n":57,"n_dots":3.45,"target":"left","response":"left","rt":203.89999997616,"correct":true,"confidence":5},{"trial_n":58,"n_dots":3.45,"target":"left","response":"left","rt":301.60000002384,"correct":true,"confidence":5},{"trial_n":59,"n_dots":3.35,"target":"right","response":"right","rt":575,"correct":true,"confidence":5},{"trial_n":60,"n_dots":3.35,"target":"left","response":"left","rt":362.70000004768,"correct":true,"confidence":5},{"trial_n":61,"n_dots":3.25,"target":"right","response":"right","rt":863.80000007153,"correct":true,"confidence":2},{"trial_n":62,"n_dots":3.25,"target":"left","response":"left","rt":304.60000002384,"correct":true,"confidence":5},{"trial_n":63,"n_dots":3.15,"target":"right","response":"right","rt":596.39999997616,"correct":true,"confidence":2},{"trial_n":64,"n_dots":3.15,"target":"right","response":"right","rt":926.5,"correct":true,"confidence":3},{"trial_n":65,"n_dots":3.05,"target":"right","response":"left","rt":2271.3999999762,"correct":false,"confidence":2},{"trial_n":66,"n_dots":3.15,"target":"left","response":"left","rt":465,"correct":true,"confidence":2},{"trial_n":67,"n_dots":3.15,"target":"left","response":"left","rt":1337.3999999762,"correct":true,"confidence":5},{"trial_n":68,"n_dots":3.05,"target":"left","response":"left","rt":1016.2000000477,"correct":true,"confidence":3},{"trial_n":69,"n_dots":3.05,"target":"right","response":"left","rt":559.5,"correct":false,"confidence":2},{"trial_n":70,"n_dots":3.15,"target":"right","response":"right","rt":1637.1999999285,"correct":true,"confidence":3},{"trial_n":71,"n_dots":3.15,"target":"right","response":"right","rt":1974.8999999762,"correct":true,"confidence":3},{"trial_n":72,"n_dots":3.05,"target":"right","response":"right","rt":567.5,"correct":true,"confidence":5},{"trial_n":73,"n_dots":3.05,"target":"left","response":"left","rt":904.89999997616,"correct":true,"confidence":5},{"trial_n":74,"n_dots":2.95,"target":"left","response":"left","rt":1223.3999999762,"correct":true,"confidence":3},{"trial_n":75,"n_dots":2.95,"target":"left","response":"left","rt":533,"correct":true,"confidence":2},{"trial_n":76,"n_dots":2.85,"target":"right","response":"left","rt":444.89999997616,"correct":false,"confidence":2},{"trial_n":77,"n_dots":2.95,"target":"right","response":"right","rt":1342.6000000238,"correct":true,"confidence":2},{"trial_n":78,"n_dots":2.95,"target":"right","response":"right","rt":1008,"correct":true,"confidence":5},{"trial_n":79,"n_dots":2.85,"target":"left","response":"left","rt":1068.2000000477,"correct":true,"confidence":2},{"trial_n":80,"n_dots":2.85,"target":"left","response":"left","rt":546.39999997616,"correct":true,"confidence":3},{"trial_n":81,"n_dots":2.75,"target":"right","response":"right","rt":695.10000002384,"correct":true,"confidence":3},{"trial_n":82,"n_dots":2.75,"target":"left","response":"left","rt":699.19999992847,"correct":true,"confidence":3},{"trial_n":83,"n_dots":2.65,"target":"right","response":"right","rt":641.90000009537,"correct":true,"confidence":3},{"trial_n":84,"n_dots":2.65,"target":"right","response":"left","rt":440.89999997616,"correct":false,"confidence":4},{"trial_n":85,"n_dots":2.75,"target":"left","response":"left","rt":273.39999997616,"correct":true,"confidence":4},{"trial_n":86,"n_dots":2.75,"target":"left","response":"right","rt":614.19999992847,"correct":false,"confidence":4},{"trial_n":87,"n_dots":2.85,"target":"left","response":"left","rt":363.60000002384,"correct":true,"confidence":4},{"trial_n":88,"n_dots":2.85,"target":"right","response":"left","rt":417.5,"correct":false,"confidence":4},{"trial_n":89,"n_dots":2.95,"target":"left","response":"left","rt":337.10000002384,"correct":true,"confidence":4},{"trial_n":90,"n_dots":2.95,"target":"left","response":"left","rt":516.79999995232,"correct":true,"confidence":4},{"trial_n":91,"n_dots":2.85,"target":"left","response":"left","rt":471.20000004768,"correct":true,"confidence":2},{"trial_n":92,"n_dots":2.85,"target":"right","response":"right","rt":1445.8000000715,"correct":true,"confidence":2},{"trial_n":93,"n_dots":2.75,"target":"right","response":"left","rt":361.69999992847,"correct":false,"confidence":3},{"trial_n":94,"n_dots":2.85,"target":"left","response":"left","rt":645.19999992847,"correct":true,"confidence":3},{"trial_n":95,"n_dots":2.85,"target":"right","response":"right","rt":609.29999995232,"correct":true,"confidence":3},{"trial_n":96,"n_dots":2.75,"target":"right","response":"left","rt":413.20000004768,"correct":false,"confidence":2},{"trial_n":97,"n_dots":2.85,"target":"right","response":"right","rt":463.30000007153,"correct":true,"confidence":4},{"trial_n":98,"n_dots":2.85,"target":"right","response":"right","rt":1765.1000000238,"correct":true,"confidence":2},{"trial_n":99,"n_dots":2.75,"target":"left","response":"left","rt":345.39999997616,"correct":true,"confidence":3},{"trial_n":100,"n_dots":2.75,"target":"right","response":"right","rt":414,"correct":true,"confidence":3},{"trial_n":101,"n_dots":2.65,"target":"right","response":"right","rt":673.10000002384,"correct":true,"confidence":3},{"trial_n":102,"n_dots":2.65,"target":"left","response":"left","rt":329,"correct":true,"confidence":4},{"trial_n":103,"n_dots":2.55,"target":"left","response":"right","rt":425.30000007153,"correct":false,"confidence":3},{"trial_n":104,"n_dots":2.65,"target":"left","response":"left","rt":302.90000009537,"correct":true,"confidence":2},{"trial_n":105,"n_dots":2.65,"target":"right","response":"right","rt":564.60000002384,"correct":true,"confidence":3},{"trial_n":106,"n_dots":2.55,"target":"right","response":"right","rt":408.79999995232,"correct":true,"confidence":2},{"trial_n":107,"n_dots":2.55,"target":"left","response":"left","rt":589,"correct":true,"confidence":3},{"trial_n":108,"n_dots":2.45,"target":"left","response":"right","rt":661,"correct":false,"confidence":4},{"trial_n":109,"n_dots":2.55,"target":"left","response":"right","rt":1394.6999999285,"correct":false,"confidence":2},{"trial_n":110,"n_dots":2.65,"target":"left","response":"right","rt":1819.5999999046,"correct":false,"confidence":3},{"trial_n":111,"n_dots":2.75,"target":"right","response":"right","rt":577.40000009537,"correct":true,"confidence":4},{"trial_n":112,"n_dots":2.75,"target":"right","response":"right","rt":678.89999997616,"correct":true,"confidence":4},{"trial_n":113,"n_dots":2.65,"target":"left","response":"right","rt":1946.5,"correct":false,"confidence":4},{"trial_n":114,"n_dots":2.75,"target":"left","response":"left","rt":690.69999992847,"correct":true,"confidence":4},{"trial_n":115,"n_dots":2.75,"target":"left","response":"left","rt":364.90000009537,"correct":true,"confidence":5},{"trial_n":116,"n_dots":2.65,"target":"right","response":"right","rt":655.39999997616,"correct":true,"confidence":5},{"trial_n":117,"n_dots":2.65,"target":"right","response":"right","rt":533.59999990463,"correct":true,"confidence":5},{"trial_n":118,"n_dots":2.55,"target":"right","response":"left","rt":2038.1000000238,"correct":false,"confidence":3},{"trial_n":119,"n_dots":2.65,"target":"left","response":"left","rt":552.70000004768,"correct":true,"confidence":5},{"trial_n":120,"n_dots":2.65,"target":"left","response":"left","rt":349.10000002384,"correct":true,"confidence":5}]