[{"trial_n":1,"min":25,"max":230,"target":"present","response":"absent","rt":32801,"correct":false,"confidence":-1},{"trial_n":2,"min":25,"max":230,"target":"present","response":"absent","rt":7477,"correct":false,"confidence":-1},{"trial_n":3,"min":9,"max":246,"target":"absent","response":"present","rt":2265,"correct":false,"confidence":-1},{"trial_n":4,"min":0,"max":255,"target":"absent","response":"present","rt":13758,"correct":false,"confidence":-1},{"trial_n":5,"min":0,"max":255,"target":"present","response":"present","rt":2315,"correct":true,"confidence":-1},{"trial_n":6,"min":0,"max":255,"target":"present","response":"present","rt":391,"correct":true,"confidence":-1},{"trial_n":7,"min":16,"max":239,"target":"present","response":"present","rt":442.00000000003,"correct":true,"confidence":-1},{"trial_n":8,"min":16,"max":239,"target":"absent","response":"absent","rt":681,"correct":true,"confidence":-1},{"trial_n":9,"min":32,"max":223,"target":"present","response":"present","rt":513,"correct":true,"confidence":-1},{"trial_n":10,"min":32,"max":223,"target":"present","response":"present","rt":466.99999999997,"correct":true,"confidence":-1},{"trial_n":11,"min":40,"max":215,"target":"absent","response":"absent","rt":442,"correct":true,"confidence":-1},{"trial_n":12,"min":40,"max":215,"target":"absent","response":"absent","rt":320,"correct":true,"confidence":-1},{"trial_n":13,"min":48,"max":207,"target":"absent","response":"absent","rt":213,"correct":true,"confidence":-1},{"trial_n":14,"min":48,"max":207,"target":"absent","response":"absent","rt":238.99999999997,"correct":true,"confidence":-1},{"trial_n":15,"min":56,"max":199,"target":"present","response":"present","rt":760,"correct":true,"confidence":-1},{"trial_n":16,"min":56,"max":199,"target":"absent","response":"absent","rt":468,"correct":true,"confidence":-1},{"trial_n":17,"min":64,"max":191,"target":"absent","response":"absent","rt":485.00000000003,"correct":true,"confidence":-1},{"trial_n":18,"min":64,"max":191,"target":"absent","response":"absent","rt":205,"correct":true,"confidence":-1},{"trial_n":19,"min":72,"max":183,"target":"present","response":"absent","rt":158,"correct":false,"confidence":-1},{"trial_n":20,"min":64,"max":191,"target":"absent","response":"absent","rt":876,"correct":true,"confidence":-1},{"trial_n":21,"min":64,"max":191,"target":"present","response":"absent","rt":1047,"correct":false,"confidence":4},{"trial_n":22,"min":60,"max":195,"target":"present","response":"present","rt":2713,"correct":true,"confidence":3},{"trial_n":23,"min":60,"max":195,"target":"present","response":"absent","rt":615,"correct":false,"confidence":3},{"trial_n":24,"min":56,"max":199,"target":"absent","response":"absent","rt":483,"correct":true,"confidence":4},{"trial_n":25,"min":56,"max":199,"target":"present","response":"present","rt":474,"correct":true,"confidence":3},{"trial_n":26,"min":60,"max":195,"target":"present","response":"present","rt":712,"correct":true,"confidence":3},{"trial_n":27,"min":60,"max":195,"target":"absent","response":"absent","rt":728,"correct":true,"confidence":4},{"trial_n":28,"min":64,"max":191,"target":"absent","response":"absent","rt":995,"correct":true,"confidence":4},{"trial_n":29,"min":64,"max":191,"target":"absent","response":"absent","rt":988,"correct":true,"confidence":4},{"trial_n":30,"min":68,"max":187,"target":"absent","response":"absent","rt":737.00000000003,"correct":true,"confidence":4},{"trial_n":31,"min":68,"max":187,"target":"present","response":"present","rt":662,"correct":true,"confidence":3},{"trial_n":32,"min":70,"max":185,"target":"present","response":"present","rt":1062,"correct":true,"confidence":4},{"trial_n":33,"min":70,"max":185,"target":"present","response":"present","rt":639,"correct":true,"confidence":4},{"trial_n":34,"min":72,"max":183,"target":"present","response":"present","rt":655.00000000003,"correct":true,"confidence":4},{"trial_n":35,"min":72,"max":183,"target":"present","response":"absent","rt":891.99999999997,"correct":false,"confidence":4},{"trial_n":36,"min":70,"max":185,"target":"present","response":"present","rt":779,"correct":true,"confidence":4},{"trial_n":37,"min":70,"max":185,"target":"absent","response":"absent","rt":541.99999999994,"correct":true,"confidence":4},{"trial_n":38,"min":72,"max":183,"target":"present","response":"present","rt":3340,"correct":true,"confidence":3},{"trial_n":39,"min":72,"max":183,"target":"present","response":"absent","rt":1349,"correct":false,"confidence":4},{"trial_n":40,"min":70,"max":185,"target":"absent","response":"absent","rt":1359,"correct":true,"confidence":4},{"trial_n":41,"min":70,"max":185,"target":"absent","response":"absent","rt":880,"correct":true,"confidence":4},{"trial_n":42,"min":71,"max":184,"target":"absent","response":"absent","rt":1299,"correct":true,"confidence":4},{"trial_n":43,"min":71,"max":184,"target":"absent","response":"absent","rt":676.99999999994,"correct":true,"confidence":4},{"trial_n":44,"min":72,"max":183,"target":"absent","response":"absent","rt":748,"correct":true,"confidence":4},{"trial_n":45,"min":72,"max":183,"target":"absent","response":"absent","rt":959.00000000006,"correct":true,"confidence":4},{"trial_n":46,"min":73,"max":182,"target":"present","response":"present","rt":699,"correct":true,"confidence":3},{"trial_n":47,"min":73,"max":182,"target":"absent","response":"absent","rt":1041,"correct":true,"confidence":3},{"trial_n":48,"min":74,"max":181,"target":"present","response":"present","rt":792,"correct":true,"confidence":3},{"trial_n":49,"min":74,"max":181,"target":"present","response":"absent","rt":863,"correct":false,"confidence":3},{"trial_n":50,"min":73,"max":182,"target":"absent","response":"absent","rt":912,"correct":true,"confidence":3},{"trial_n":51,"min":73,"max":182,"target":"present","response":"absent","rt":550,"correct":false,"confidence":3},{"trial_n":52,"min":72,"max":183,"target":"absent","response":"absent","rt":1055,"correct":true,"confidence":3},{"trial_n":53,"min":72,"max":183,"target":"present","response":"present","rt":552,"correct":true,"confidence":3},{"trial_n":54,"min":73,"max":182,"target":"present","response":"present","rt":744,"correct":true,"confidence":3},{"trial_n":55,"min":73,"max":182,"target":"present","response":"present","rt":702,"correct":true,"confidence":3},{"trial_n":56,"min":74,"max":181,"target":"present","response":"present","rt":3149,"correct":true,"confidence":3},{"trial_n":57,"min":74,"max":181,"target":"absent","response":"absent","rt":704,"correct":true,"confidence":3},{"trial_n":58,"min":75,"max":180,"target":"absent","response":"absent","rt":856.00000000006,"correct":true,"confidence":3},{"trial_n":59,"min":75,"max":180,"target":"present","response":"present","rt":551.00000000006,"correct":true,"confidence":3},{"trial_n":60,"min":76,"max":179,"target":"present","response":"absent","rt":780,"correct":false,"confidence":3},{"trial_n":61,"min":75,"max":180,"target":"present","response":"absent","rt":997.99999999994,"correct":false,"confidence":3},{"trial_n":62,"min":74,"max":181,"target":"present","response":"absent","rt":1091.0000000001,"correct":false,"confidence":3},{"trial_n":63,"min":73,"max":182,"target":"present","response":"present","rt":683,"correct":true,"confidence":3},{"trial_n":64,"min":73,"max":182,"target":"absent","response":"absent","rt":751,"correct":true,"confidence":3},{"trial_n":65,"min":74,"max":181,"target":"absent","response":"absent","rt":671,"correct":true,"confidence":3},{"trial_n":66,"min":74,"max":181,"target":"absent","response":"absent","rt":998.00000000006,"correct":true,"confidence":3},{"trial_n":67,"min":75,"max":180,"target":"absent","response":"absent","rt":713.00000000006,"correct":true,"confidence":3},{"trial_n":68,"min":75,"max":180,"target":"absent","response":"absent","rt":673,"correct":true,"confidence":3},{"trial_n":69,"min":76,"max":179,"target":"present","response":"present","rt":550,"correct":true,"confidence":3},{"trial_n":70,"min":76,"max":179,"target":"absent","response":"present","rt":515,"correct":false,"confidence":3},{"trial_n":71,"min":41,"max":214,"target":"present","response":"present","rt":5556,"correct":true,"confidence":-1},{"trial_n":72,"min":41,"max":214,"target":"present","response":"absent","rt":468,"correct":false,"confidence":-1},{"trial_n":73,"min":25,"max":230,"target":"absent","response":"absent","rt":871.00000000006,"correct":true,"confidence":-1},{"trial_n":74,"min":25,"max":230,"target":"absent","response":"absent","rt":734,"correct":true,"confidence":-1},{"trial_n":75,"min":41,"max":214,"target":"present","response":"present","rt":511,"correct":true,"confidence":-1},{"trial_n":76,"min":41,"max":214,"target":"present","response":"absent","rt":811,"correct":false,"confidence":-1},{"trial_n":77,"min":25,"max":230,"target":"present","response":"present","rt":2747,"correct":true,"confidence":-1},{"trial_n":78,"min":25,"max":230,"target":"present","response":"present","rt":668,"correct":true,"confidence":-1},{"trial_n":79,"min":41,"max":214,"target":"present","response":"present","rt":612,"correct":true,"confidence":-1},{"trial_n":80,"min":41,"max":214,"target":"absent","response":"absent","rt":860,"correct":true,"confidence":-1},{"trial_n":81,"min":49,"max":206,"target":"absent","response":"absent","rt":723,"correct":true,"confidence":-1},{"trial_n":82,"min":49,"max":206,"target":"present","response":"present","rt":828.99999999994,"correct":true,"confidence":-1},{"trial_n":83,"min":57,"max":198,"target":"absent","response":"absent","rt":1266,"correct":true,"confidence":-1},{"trial_n":84,"min":57,"max":198,"target":"absent","response":"absent","rt":605,"correct":true,"confidence":-1},{"trial_n":85,"min":65,"max":190,"target":"absent","response":"present","rt":836,"correct":false,"confidence":-1},{"trial_n":86,"min":57,"max":198,"target":"present","response":"present","rt":703.99999999994,"correct":true,"confidence":-1},{"trial_n":87,"min":57,"max":198,"target":"absent","response":"absent","rt":775.00000000006,"correct":true,"confidence":-1},{"trial_n":88,"min":65,"max":190,"target":"present","response":"present","rt":609,"correct":true,"confidence":-1},{"trial_n":89,"min":65,"max":190,"target":"present","response":"present","rt":1130.9999999999,"correct":true,"confidence":-1},{"trial_n":90,"min":73,"max":182,"target":"absent","response":"absent","rt":1077,"correct":true,"confidence":-1},{"trial_n":91,"min":73,"max":182,"target":"absent","response":"absent","rt":723.99999999994,"correct":true,"confidence":3},{"trial_n":92,"min":77,"max":178,"target":"absent","response":"present","rt":1411,"correct":false,"confidence":3},{"trial_n":93,"min":73,"max":182,"target":"present","response":"present","rt":645.00000000006,"correct":true,"confidence":3},{"trial_n":94,"min":73,"max":182,"target":"absent","response":"absent","rt":728.99999999994,"correct":true,"confidence":4},{"trial_n":95,"min":77,"max":178,"target":"present","response":"present","rt":748,"correct":true,"confidence":3},{"trial_n":96,"min":77,"max":178,"target":"present","response":"present","rt":804,"correct":true,"confidence":3},{"trial_n":97,"min":81,"max":174,"target":"absent","response":"absent","rt":1183.0000000001,"correct":true,"confidence":3},{"trial_n":98,"min":81,"max":174,"target":"present","response":"present","rt":716,"correct":true,"confidence":3},{"trial_n":99,"min":85,"max":170,"target":"present","response":"absent","rt":943.99999999994,"correct":false,"confidence":3},{"trial_n":100,"min":81,"max":174,"target":"present","response":"present","rt":881,"correct":true,"confidence":3},{"trial_n":101,"min":81,"max":174,"target":"absent","response":"absent","rt":604,"correct":true,"confidence":3},{"trial_n":102,"min":83,"max":172,"target":"absent","response":"present","rt":1174.9999999999,"correct":false,"confidence":4},{"trial_n":103,"min":81,"max":174,"target":"present","response":"present","rt":623,"correct":true,"confidence":3},{"trial_n":104,"min":81,"max":174,"target":"absent","response":"present","rt":8097.9999999999,"correct":false,"confidence":3},{"trial_n":105,"min":79,"max":176,"target":"present","response":"present","rt":7237,"correct":true,"confidence":3},{"trial_n":106,"min":79,"max":176,"target":"absent","response":"absent","rt":1547,"correct":true,"confidence":3},{"trial_n":107,"min":81,"max":174,"target":"present","response":"present","rt":654.99999999988,"correct":true,"confidence":3},{"trial_n":108,"min":81,"max":174,"target":"present","response":"present","rt":523,"correct":true,"confidence":3},{"trial_n":109,"min":83,"max":172,"target":"present","response":"present","rt":814,"correct":true,"confidence":3},{"trial_n":110,"min":83,"max":172,"target":"absent","response":"absent","rt":1738,"correct":true,"confidence":4},{"trial_n":111,"min":84,"max":171,"target":"absent","response":"present","rt":503,"correct":false,"confidence":4},{"trial_n":112,"min":83,"max":172,"target":"absent","response":"absent","rt":656,"correct":true,"confidence":3},{"trial_n":113,"min":83,"max":172,"target":"absent","response":"absent","rt":650,"correct":true,"confidence":3},{"trial_n":114,"min":84,"max":171,"target":"present","response":"present","rt":374,"correct":true,"confidence":3},{"trial_n":115,"min":84,"max":171,"target":"present","response":"absent","rt":853,"correct":false,"confidence":3},{"trial_n":116,"min":83,"max":172,"target":"absent","response":"absent","rt":873.99999999988,"correct":true,"confidence":3},{"trial_n":117,"min":83,"max":172,"target":"present","response":"present","rt":1092,"correct":true,"confidence":3},{"trial_n":118,"min":84,"max":171,"target":"present","response":"absent","rt":2091,"correct":false,"confidence":2},{"trial_n":119,"min":83,"max":172,"target":"absent","response":"absent","rt":763,"correct":true,"confidence":3},{"trial_n":120,"min":83,"max":172,"target":"absent","response":"absent","rt":680,"correct":true,"confidence":3},{"trial_n":121,"min":84,"max":171,"target":"present","response":"present","rt":1050,"correct":true,"confidence":3},{"trial_n":122,"min":84,"max":171,"target":"absent","response":"absent","rt":941,"correct":true,"confidence":3},{"trial_n":123,"min":85,"max":170,"target":"absent","response":"present","rt":1082,"correct":false,"confidence":3},{"trial_n":124,"min":84,"max":171,"target":"absent","response":"absent","rt":257,"correct":true,"confidence":3},{"trial_n":125,"min":84,"max":171,"target":"present","response":"absent","rt":462.99999999988,"correct":false,"confidence":3},{"trial_n":126,"min":83,"max":172,"target":"absent","response":"present","rt":1719.0000000001,"correct":false,"confidence":3},{"trial_n":127,"min":82,"max":173,"target":"present","response":"present","rt":466,"correct":true,"confidence":3},{"trial_n":128,"min":82,"max":173,"target":"absent","response":"absent","rt":1977.9999999999,"correct":true,"confidence":3},{"trial_n":129,"min":83,"max":172,"target":"absent","response":"absent","rt":1853,"correct":true,"confidence":3},{"trial_n":130,"min":83,"max":172,"target":"absent","response":"present","rt":1103,"correct":false,"confidence":2},{"trial_n":131,"min":82,"max":173,"target":"present","response":"present","rt":466.99999999988,"correct":true,"confidence":4},{"trial_n":132,"min":82,"max":173,"target":"present","response":"present","rt":968,"correct":true,"confidence":4},{"trial_n":133,"min":83,"max":172,"target":"present","response":"present","rt":635.99999999988,"correct":true,"confidence":3},{"trial_n":134,"min":83,"max":172,"target":"present","response":"present","rt":356,"correct":true,"confidence":3},{"trial_n":135,"min":84,"max":171,"target":"present","response":"present","rt":706,"correct":true,"confidence":3},{"trial_n":136,"min":84,"max":171,"target":"absent","response":"absent","rt":458,"correct":true,"confidence":3},{"trial_n":137,"min":85,"max":170,"target":"present","response":"present","rt":509.00000000012,"correct":true,"confidence":3},{"trial_n":138,"min":85,"max":170,"target":"present","response":"present","rt":288.00000000012,"correct":true,"confidence":3},{"trial_n":139,"min":86,"max":169,"target":"absent","response":"absent","rt":1612,"correct":true,"confidence":3},{"trial_n":140,"min":86,"max":169,"target":"absent","response":"present","rt":1596,"correct":false,"confidence":3}]