[{"trial_n":1,"n_dots":4.25,"target":"right","response":"left","rt":11332,"correct":false,"confidence":-1},{"trial_n":2,"n_dots":4.25,"target":"left","response":"right","rt":23264,"correct":false,"confidence":-1},{"trial_n":3,"n_dots":4.65,"target":"left","response":"left","rt":18816,"correct":true,"confidence":-1},{"trial_n":4,"n_dots":4.65,"target":"right","response":"right","rt":5802,"correct":true,"confidence":-1},{"trial_n":5,"n_dots":4.25,"target":"right","response":"right","rt":12763,"correct":true,"confidence":-1},{"trial_n":6,"n_dots":4.25,"target":"right","response":"left","rt":8883,"correct":false,"confidence":-1},{"trial_n":7,"n_dots":4.65,"target":"right","response":"right","rt":2199,"correct":true,"confidence":-1},{"trial_n":8,"n_dots":4.65,"target":"right","response":"right","rt":2984,"correct":true,"confidence":-1},{"trial_n":9,"n_dots":4.45,"target":"right","response":"right","rt":6333,"correct":true,"confidence":-1},{"trial_n":10,"n_dots":4.45,"target":"left","response":"left","rt":4017,"correct":true,"confidence":-1},{"trial_n":11,"n_dots":4.25,"target":"right","response":"right","rt":1550,"correct":true,"confidence":-1},{"trial_n":12,"n_dots":4.25,"target":"right","response":"right","rt":1235,"correct":true,"confidence":-1},{"trial_n":13,"n_dots":4.15,"target":"right","response":"right","rt":1901,"correct":true,"confidence":-1},{"trial_n":14,"n_dots":4.15,"target":"left","response":"left","rt":2218,"correct":true,"confidence":-1},{"trial_n":15,"n_dots":4.05,"target":"left","response":"left","rt":4072,"correct":true,"confidence":-1},{"trial_n":16,"n_dots":4.05,"target":"right","response":"right","rt":817,"correct":true,"confidence":-1},{"trial_n":17,"n_dots":3.95,"target":"right","response":"right","rt":1453,"correct":true,"confidence":-1},{"trial_n":18,"n_dots":3.95,"target":"left","response":"left","rt":1033,"correct":true,"confidence":-1},{"trial_n":19,"n_dots":3.85,"target":"right","response":"right","rt":1486,"correct":true,"confidence":-1},{"trial_n":20,"n_dots":3.85,"target":"left","response":"left","rt":501,"correct":true,"confidence":-1},{"trial_n":21,"n_dots":3.75,"target":"left","response":"left","rt":1073,"correct":true,"confidence":3},{"trial_n":22,"n_dots":3.75,"target":"left","response":"left","rt":1471,"correct":true,"confidence":3},{"trial_n":23,"n_dots":3.65,"target":"left","response":"right","rt":1071,"correct":false,"confidence":4},{"trial_n":24,"n_dots":3.75,"target":"right","response":"right","rt":1490,"correct":true,"confidence":3},{"trial_n":25,"n_dots":3.75,"target":"right","response":"right","rt":356,"correct":true,"confidence":3},{"trial_n":26,"n_dots":3.65,"target":"left","response":"right","rt":274,"correct":false,"confidence":3},{"trial_n":27,"n_dots":3.75,"target":"left","response":"left","rt":873,"correct":true,"confidence":3},{"trial_n":28,"n_dots":3.75,"target":"left","response":"left","rt":908,"correct":true,"confidence":3},{"trial_n":29,"n_dots":3.65,"target":"left","response":"left","rt":275.99999999994,"correct":true,"confidence":3},{"trial_n":30,"n_dots":3.65,"target":"right","response":"left","rt":991.99999999994,"correct":false,"confidence":3},{"trial_n":31,"n_dots":3.75,"target":"right","response":"right","rt":1173,"correct":true,"confidence":3},{"trial_n":32,"n_dots":3.75,"target":"left","response":"left","rt":293.99999999994,"correct":true,"confidence":3},{"trial_n":33,"n_dots":3.65,"target":"left","response":"right","rt":2158.0000000001,"correct":false,"confidence":3},{"trial_n":34,"n_dots":3.75,"target":"right","response":"left","rt":2110,"correct":false,"confidence":3},{"trial_n":35,"n_dots":3.85,"target":"left","response":"left","rt":1025,"correct":true,"confidence":3},{"trial_n":36,"n_dots":3.85,"target":"right","response":"right","rt":892,"correct":true,"confidence":3},{"trial_n":37,"n_dots":3.75,"target":"right","response":"right","rt":995,"correct":true,"confidence":3},{"trial_n":38,"n_dots":3.75,"target":"right","response":"right","rt":876,"correct":true,"confidence":3},{"trial_n":39,"n_dots":3.65,"target":"left","response":"right","rt":1112,"correct":false,"confidence":3},{"trial_n":40,"n_dots":3.75,"target":"right","response":"right","rt":828,"correct":true,"confidence":3},{"trial_n":41,"n_dots":3.75,"target":"right","response":"right","rt":862,"correct":true,"confidence":3},{"trial_n":42,"n_dots":3.65,"target":"right","response":"right","rt":1080,"correct":true,"confidence":3},{"trial_n":43,"n_dots":3.65,"target":"left","response":"left","rt":1578,"correct":true,"confidence":3},{"trial_n":44,"n_dots":3.55,"target":"right","response":"right","rt":1046,"correct":true,"confidence":3},{"trial_n":45,"n_dots":3.55,"target":"right","response":"right","rt":1012,"correct":true,"confidence":3},{"trial_n":46,"n_dots":3.45,"target":"right","response":"right","rt":963,"correct":true,"confidence":3},{"trial_n":47,"n_dots":3.45,"target":"left","response":"right","rt":1179,"correct":false,"confidence":3},{"trial_n":48,"n_dots":3.55,"target":"right","response":"right","rt":1530,"correct":true,"confidence":3},{"trial_n":49,"n_dots":3.55,"target":"left","response":"right","rt":1114,"correct":false,"confidence":3},{"trial_n":50,"n_dots":3.65,"target":"right","response":"right","rt":983,"correct":true,"confidence":3},{"trial_n":51,"n_dots":3.65,"target":"left","response":"left","rt":815.99999999994,"correct":true,"confidence":3},{"trial_n":52,"n_dots":3.55,"target":"left","response":"right","rt":1382,"correct":false,"confidence":3},{"trial_n":53,"n_dots":3.65,"target":"left","response":"left","rt":949,"correct":true,"confidence":3},{"trial_n":54,"n_dots":3.65,"target":"right","response":"right","rt":914,"correct":true,"confidence":3},{"trial_n":55,"n_dots":3.55,"target":"right","response":"right","rt":931,"correct":true,"confidence":3},{"trial_n":56,"n_dots":3.55,"target":"left","response":"left","rt":931.00000000006,"correct":true,"confidence":3},{"trial_n":57,"n_dots":3.45,"target":"left","response":"left","rt":964,"correct":true,"confidence":3},{"trial_n":58,"n_dots":3.45,"target":"left","response":"right","rt":1116,"correct":false,"confidence":3},{"trial_n":59,"n_dots":3.55,"target":"right","response":"right","rt":1116.9999999999,"correct":true,"confidence":3},{"trial_n":60,"n_dots":3.55,"target":"left","response":"right","rt":1167.0000000001,"correct":false,"confidence":3},{"trial_n":61,"n_dots":3.65,"target":"left","response":"right","rt":1652,"correct":false,"confidence":3},{"trial_n":62,"n_dots":3.75,"target":"right","response":"right","rt":548,"correct":true,"confidence":3},{"trial_n":63,"n_dots":3.75,"target":"right","response":"right","rt":899,"correct":true,"confidence":3},{"trial_n":64,"n_dots":3.65,"target":"left","response":"left","rt":1283,"correct":true,"confidence":3},{"trial_n":65,"n_dots":3.65,"target":"right","response":"right","rt":865.00000000006,"correct":true,"confidence":3},{"trial_n":66,"n_dots":3.55,"target":"left","response":"left","rt":682.99999999994,"correct":true,"confidence":3},{"trial_n":67,"n_dots":3.55,"target":"left","response":"left","rt":2501,"correct":true,"confidence":3},{"trial_n":68,"n_dots":3.45,"target":"right","response":"right","rt":685,"correct":true,"confidence":3},{"trial_n":69,"n_dots":3.45,"target":"right","response":"right","rt":919.99999999994,"correct":true,"confidence":3},{"trial_n":70,"n_dots":3.35,"target":"left","response":"left","rt":687,"correct":true,"confidence":3},{"trial_n":71,"n_dots":3.35,"target":"right","response":"left","rt":735.99999999994,"correct":false,"confidence":3},{"trial_n":72,"n_dots":3.45,"target":"right","response":"right","rt":484,"correct":true,"confidence":3},{"trial_n":73,"n_dots":3.45,"target":"left","response":"left","rt":768,"correct":true,"confidence":3},{"trial_n":74,"n_dots":3.35,"target":"right","response":"left","rt":44588,"correct":false,"confidence":3},{"trial_n":75,"n_dots":3.45,"target":"right","response":"left","rt":1658,"correct":false,"confidence":3},{"trial_n":76,"n_dots":3.55,"target":"right","response":"right","rt":1060,"correct":true,"confidence":3},{"trial_n":77,"n_dots":3.55,"target":"left","response":"left","rt":1078,"correct":true,"confidence":5},{"trial_n":78,"n_dots":3.45,"target":"right","response":"left","rt":821,"correct":false,"confidence":5},{"trial_n":79,"n_dots":3.55,"target":"right","response":"left","rt":774,"correct":false,"confidence":3},{"trial_n":80,"n_dots":3.65,"target":"right","response":"left","rt":554,"correct":false,"confidence":5},{"trial_n":81,"n_dots":3.75,"target":"right","response":"left","rt":710,"correct":false,"confidence":3},{"trial_n":82,"n_dots":3.85,"target":"right","response":"right","rt":541.99999999988,"correct":true,"confidence":3},{"trial_n":83,"n_dots":3.85,"target":"left","response":"left","rt":641.00000000012,"correct":true,"confidence":4},{"trial_n":84,"n_dots":3.75,"target":"left","response":"left","rt":443,"correct":true,"confidence":5},{"trial_n":85,"n_dots":3.75,"target":"right","response":"left","rt":192,"correct":false,"confidence":4},{"trial_n":86,"n_dots":3.85,"target":"left","response":"left","rt":340,"correct":true,"confidence":5},{"trial_n":87,"n_dots":3.85,"target":"left","response":"left","rt":373,"correct":true,"confidence":4},{"trial_n":88,"n_dots":3.75,"target":"left","response":"left","rt":576,"correct":true,"confidence":5},{"trial_n":89,"n_dots":3.75,"target":"left","response":"left","rt":573.99999999988,"correct":true,"confidence":4},{"trial_n":90,"n_dots":3.65,"target":"right","response":"right","rt":806,"correct":true,"confidence":2},{"trial_n":91,"n_dots":3.65,"target":"right","response":"left","rt":543,"correct":false,"confidence":5},{"trial_n":92,"n_dots":3.75,"target":"left","response":"left","rt":211,"correct":true,"confidence":5},{"trial_n":93,"n_dots":3.75,"target":"right","response":"right","rt":1094,"correct":true,"confidence":4},{"trial_n":94,"n_dots":3.65,"target":"right","response":"left","rt":740,"correct":false,"confidence":3},{"trial_n":95,"n_dots":3.75,"target":"left","response":"left","rt":527,"correct":true,"confidence":5},{"trial_n":96,"n_dots":3.75,"target":"left","response":"left","rt":536.99999999988,"correct":true,"confidence":5},{"trial_n":97,"n_dots":3.65,"target":"left","response":"left","rt":177,"correct":true,"confidence":5},{"trial_n":98,"n_dots":3.65,"target":"left","response":"left","rt":413,"correct":true,"confidence":3},{"trial_n":99,"n_dots":3.55,"target":"left","response":"left","rt":728,"correct":true,"confidence":2},{"trial_n":100,"n_dots":3.55,"target":"left","response":"left","rt":580,"correct":true,"confidence":4},{"trial_n":101,"n_dots":3.45,"target":"left","response":"left","rt":717.00000000012,"correct":true,"confidence":4},{"trial_n":102,"n_dots":3.45,"target":"right","response":"right","rt":278,"correct":true,"confidence":5},{"trial_n":103,"n_dots":3.35,"target":"right","response":"right","rt":595,"correct":true,"confidence":4},{"trial_n":104,"n_dots":3.35,"target":"left","response":"left","rt":525,"correct":true,"confidence":2},{"trial_n":105,"n_dots":3.25,"target":"left","response":"left","rt":546,"correct":true,"confidence":4},{"trial_n":106,"n_dots":3.25,"target":"right","response":"left","rt":546,"correct":false,"confidence":5},{"trial_n":107,"n_dots":3.35,"target":"left","response":"left","rt":1913,"correct":true,"confidence":5},{"trial_n":108,"n_dots":3.35,"target":"right","response":"left","rt":545.99999999988,"correct":false,"confidence":4},{"trial_n":109,"n_dots":3.45,"target":"left","response":"left","rt":647,"correct":true,"confidence":3},{"trial_n":110,"n_dots":3.45,"target":"right","response":"left","rt":479.99999999988,"correct":false,"confidence":4},{"trial_n":111,"n_dots":3.55,"target":"left","response":"left","rt":1696.0000000001,"correct":true,"confidence":3},{"trial_n":112,"n_dots":3.55,"target":"left","response":"left","rt":796,"correct":true,"confidence":5},{"trial_n":113,"n_dots":3.45,"target":"left","response":"left","rt":496.99999999988,"correct":true,"confidence":4},{"trial_n":114,"n_dots":3.45,"target":"right","response":"right","rt":582,"correct":true,"confidence":5},{"trial_n":115,"n_dots":3.35,"target":"left","response":"left","rt":528,"correct":true,"confidence":5},{"trial_n":116,"n_dots":3.35,"target":"left","response":"left","rt":514,"correct":true,"confidence":3},{"trial_n":117,"n_dots":3.25,"target":"left","response":"left","rt":481,"correct":true,"confidence":3},{"trial_n":118,"n_dots":3.25,"target":"right","response":"right","rt":779.99999999988,"correct":true,"confidence":4},{"trial_n":119,"n_dots":3.15,"target":"right","response":"left","rt":597,"correct":false,"confidence":3},{"trial_n":120,"n_dots":3.25,"target":"left","response":"left","rt":482,"correct":true,"confidence":5}]