[{"trial_n":1,"span":8,"encoder":"02746543","distractor":"02744543","target":"present","response":"present","rt":"6543","correct":true,"confidence":-1},{"trial_n":2,"span":8,"encoder":"76645106","distractor":"76645136","target":"present","response":"absent","rt":"3102","correct":false,"confidence":-1},{"trial_n":3,"span":6,"encoder":"053006","distractor":"093006","target":"absent","response":"absent","rt":"2023","correct":true,"confidence":-1},{"trial_n":4,"span":6,"encoder":"885648","distractor":"885548","target":"absent","response":"absent","rt":"2329","correct":true,"confidence":-1},{"trial_n":5,"span":8,"encoder":"54337429","distractor":"55337429","target":"present","response":"absent","rt":"3412","correct":false,"confidence":-1},{"trial_n":6,"span":6,"encoder":"448007","distractor":"448077","target":"absent","response":"present","rt":"2155","correct":false,"confidence":-1},{"trial_n":7,"span":4,"encoder":"5516","distractor":"5016","target":"absent","response":"present","rt":"516","correct":false,"confidence":-1},{"trial_n":8,"span":2,"encoder":"44","distractor":"34","target":"absent","response":"absent","rt":"664.99999999997","correct":true,"confidence":-1},{"trial_n":9,"span":2,"encoder":"70","distractor":"10","target":"absent","response":"absent","rt":"501","correct":true,"confidence":-1},{"trial_n":10,"span":4,"encoder":"2677","distractor":"2477","target":"absent","response":"present","rt":"1955","correct":false,"confidence":-1},{"trial_n":11,"span":2,"encoder":"62","distractor":"68","target":"absent","response":"present","rt":"511","correct":false,"confidence":-1},{"trial_n":12,"span":2,"encoder":"26","distractor":"16","target":"absent","response":"absent","rt":"459.00000000003","correct":true,"confidence":-1},{"trial_n":13,"span":2,"encoder":"43","distractor":"40","target":"absent","response":"absent","rt":"671","correct":true,"confidence":-1},{"trial_n":14,"span":3,"encoder":"562","distractor":"560","target":"absent","response":"absent","rt":"744","correct":true,"confidence":-1},{"trial_n":15,"span":3,"encoder":"809","distractor":"879","target":"present","response":"present","rt":"775.99999999997","correct":true,"confidence":-1},{"trial_n":16,"span":4,"encoder":"0535","distractor":"0531","target":"present","response":"absent","rt":"673","correct":false,"confidence":-1},{"trial_n":17,"span":3,"encoder":"399","distractor":"699","target":"present","response":"absent","rt":"731","correct":false,"confidence":-1},{"trial_n":18,"span":2,"encoder":"58","distractor":"68","target":"absent","response":"present","rt":"912","correct":false,"confidence":-1},{"trial_n":19,"span":2,"encoder":"16","distractor":"96","target":"absent","response":"absent","rt":"871","correct":true,"confidence":-1},{"trial_n":20,"span":2,"encoder":"83","distractor":"13","target":"present","response":"absent","rt":"566.99999999997","correct":false,"confidence":-1},{"trial_n":21,"span":2,"encoder":"18","distractor":"19","target":"present","response":"present","rt":"1091","correct":true,"confidence":3},{"trial_n":22,"span":2,"encoder":"77","distractor":"07","target":"absent","response":"absent","rt":"1612","correct":true,"confidence":4},{"trial_n":23,"span":3,"encoder":"279","distractor":"229","target":"present","response":"absent","rt":"766","correct":false,"confidence":3},{"trial_n":24,"span":2,"encoder":"81","distractor":"82","target":"present","response":"absent","rt":"2897","correct":false,"confidence":3},{"trial_n":25,"span":2,"encoder":"39","distractor":"99","target":"absent","response":"absent","rt":"1382","correct":true,"confidence":3},{"trial_n":26,"span":2,"encoder":"59","distractor":"58","target":"absent","response":"absent","rt":"1510","correct":true,"confidence":3},{"trial_n":27,"span":3,"encoder":"187","distractor":"687","target":"absent","response":"absent","rt":"1386","correct":true,"confidence":3},{"trial_n":28,"span":3,"encoder":"621","distractor":"721","target":"present","response":"absent","rt":"1784","correct":false,"confidence":4},{"trial_n":29,"span":2,"encoder":"57","distractor":"55","target":"absent","response":"absent","rt":"1627","correct":true,"confidence":3},{"trial_n":30,"span":2,"encoder":"22","distractor":"20","target":"present","response":"present","rt":"1845","correct":true,"confidence":2},{"trial_n":31,"span":3,"encoder":"546","distractor":"246","target":"present","response":"present","rt":"1512","correct":true,"confidence":3},{"trial_n":32,"span":3,"encoder":"947","distractor":"943","target":"present","response":"present","rt":"1284","correct":true,"confidence":3},{"trial_n":33,"span":4,"encoder":"8907","distractor":"8007","target":"present","response":"present","rt":"1188","correct":true,"confidence":3},{"trial_n":34,"span":4,"encoder":"4211","distractor":"4251","target":"absent","response":"absent","rt":"1752","correct":true,"confidence":4},{"trial_n":35,"span":5,"encoder":"78568","distractor":"71568","target":"present","response":"present","rt":"2291","correct":true,"confidence":3},{"trial_n":36,"span":5,"encoder":"88722","distractor":"88725","target":"absent","response":"absent","rt":"1611","correct":true,"confidence":3},{"trial_n":37,"span":6,"encoder":"336230","distractor":"336233","target":"present","response":"present","rt":"2682","correct":true,"confidence":3},{"trial_n":38,"span":6,"encoder":"581097","distractor":"881097","target":"present","response":"present","rt":"2448","correct":true,"confidence":3},{"trial_n":39,"span":7,"encoder":"1809221","distractor":"5809221","target":"present","response":"present","rt":"3135.9999999999","correct":true,"confidence":3},{"trial_n":40,"span":7,"encoder":"9299588","distractor":"9294588","target":"absent","response":"absent","rt":"2303","correct":true,"confidence":3},{"trial_n":41,"span":8,"encoder":"14013513","distractor":"14011513","target":"absent","response":"absent","rt":"4843.0000000001","correct":true,"confidence":3},{"trial_n":42,"span":8,"encoder":"18210864","distractor":"18210464","target":"present","response":"present","rt":"3243","correct":true,"confidence":5},{"trial_n":43,"span":9,"encoder":"881709499","distractor":"881509499","target":"present","response":"absent","rt":"2763","correct":false,"confidence":3},{"trial_n":44,"span":8,"encoder":"78519051","distractor":"78517051","target":"present","response":"present","rt":"3145.9999999999","correct":true,"confidence":3},{"trial_n":45,"span":8,"encoder":"69448865","distractor":"69448867","target":"present","response":"present","rt":"3316","correct":true,"confidence":3},{"trial_n":46,"span":9,"encoder":"810358783","distractor":"810058783","target":"present","response":"present","rt":"3287","correct":true,"confidence":3},{"trial_n":47,"span":9,"encoder":"642436238","distractor":"662436238","target":"present","response":"present","rt":"3187.9999999999","correct":true,"confidence":3},{"trial_n":48,"span":10,"encoder":"3966165366","distractor":"3962165366","target":"present","response":"absent","rt":"7907.9999999999","correct":false,"confidence":3},{"trial_n":49,"span":9,"encoder":"753211070","distractor":"753211370","target":"present","response":"absent","rt":"5689","correct":false,"confidence":3},{"trial_n":50,"span":8,"encoder":"97209431","distractor":"17209431","target":"absent","response":"present","rt":"1718.0000000001","correct":false,"confidence":3},{"trial_n":51,"span":7,"encoder":"8106217","distractor":"8106215","target":"absent","response":"absent","rt":"2478","correct":true,"confidence":3},{"trial_n":52,"span":7,"encoder":"8172734","distractor":"8173734","target":"absent","response":"absent","rt":"2711.9999999999","correct":true,"confidence":3},{"trial_n":53,"span":8,"encoder":"36434503","distractor":"36434563","target":"absent","response":"absent","rt":"1719.9999999999","correct":true,"confidence":3},{"trial_n":54,"span":8,"encoder":"57011024","distractor":"57011054","target":"present","response":"present","rt":"2568","correct":true,"confidence":3},{"trial_n":55,"span":9,"encoder":"187633639","distractor":"887633639","target":"absent","response":"absent","rt":"2555","correct":true,"confidence":1},{"trial_n":56,"span":9,"encoder":"567512719","distractor":"567512799","target":"present","response":"present","rt":"3288","correct":true,"confidence":3},{"trial_n":57,"span":10,"encoder":"8369780508","distractor":"3369780508","target":"present","response":"present","rt":"5440","correct":true,"confidence":4},{"trial_n":58,"span":10,"encoder":"2865279390","distractor":"2865279350","target":"absent","response":"absent","rt":"5128.0000000001","correct":true,"confidence":3},{"trial_n":59,"span":11,"encoder":"75223368931","distractor":"75223348931","target":"present","response":"present","rt":"4730","correct":true,"confidence":3},{"trial_n":60,"span":11,"encoder":"54473477271","distractor":"54573477271","target":"absent","response":"present","rt":"1433","correct":false,"confidence":3},{"trial_n":61,"span":10,"encoder":"7730357213","distractor":"7730351213","target":"present","response":"present","rt":"1311","correct":true,"confidence":1},{"trial_n":62,"span":10,"encoder":"7849272278","distractor":"7949272278","target":"absent","response":"present","rt":"1112","correct":false,"confidence":1},{"trial_n":63,"span":9,"encoder":"328281050","distractor":"328281051","target":"present","response":"absent","rt":"1192","correct":false,"confidence":1},{"trial_n":64,"span":8,"encoder":"04119213","distractor":"34119213","target":"absent","response":"absent","rt":"9818","correct":true,"confidence":3},{"trial_n":65,"span":8,"encoder":"08752406","distractor":"08752106","target":"absent","response":"absent","rt":"2051","correct":true,"confidence":1},{"trial_n":66,"span":9,"encoder":"758413443","distractor":"458413443","target":"absent","response":"absent","rt":"2358","correct":true,"confidence":4},{"trial_n":67,"span":9,"encoder":"975124896","distractor":"975824896","target":"absent","response":"absent","rt":"3361","correct":true,"confidence":3},{"trial_n":68,"span":10,"encoder":"1022937658","distractor":"1022937608","target":"present","response":"present","rt":"2225","correct":true,"confidence":3},{"trial_n":69,"span":10,"encoder":"7584024160","distractor":"7584024180","target":"present","response":"present","rt":"1258","correct":true,"confidence":4},{"trial_n":70,"span":11,"encoder":"81767713440","distractor":"81067713440","target":"present","response":"absent","rt":"1765.9999999999","correct":false,"confidence":3},{"trial_n":71,"span":8,"encoder":"53049720","distractor":"53049727","target":"present","response":"absent","rt":"1757.0000000001","correct":false,"confidence":-1},{"trial_n":72,"span":7,"encoder":"1971659","distractor":"5971659","target":"present","response":"absent","rt":"1031","correct":false,"confidence":-1},{"trial_n":73,"span":6,"encoder":"943617","distractor":"943611","target":"absent","response":"absent","rt":"577","correct":true,"confidence":-1},{"trial_n":74,"span":6,"encoder":"949702","distractor":"959702","target":"absent","response":"absent","rt":"742","correct":true,"confidence":-1},{"trial_n":75,"span":7,"encoder":"2084383","distractor":"2084387","target":"present","response":"absent","rt":"732","correct":false,"confidence":-1},{"trial_n":76,"span":6,"encoder":"862725","distractor":"852725","target":"present","response":"absent","rt":"1160","correct":false,"confidence":-1},{"trial_n":77,"span":5,"encoder":"22598","distractor":"22548","target":"absent","response":"present","rt":"723","correct":false,"confidence":-1},{"trial_n":78,"span":4,"encoder":"2948","distractor":"2941","target":"absent","response":"present","rt":"1049","correct":false,"confidence":-1},{"trial_n":79,"span":3,"encoder":"386","distractor":"086","target":"absent","response":"present","rt":"2980","correct":false,"confidence":-1},{"trial_n":80,"span":2,"encoder":"37","distractor":"67","target":"present","response":"present","rt":"3741","correct":true,"confidence":-1},{"trial_n":81,"span":2,"encoder":"16","distractor":"18","target":"absent","response":"present","rt":"793","correct":false,"confidence":-1},{"trial_n":82,"span":2,"encoder":"07","distractor":"47","target":"absent","response":"present","rt":"1774","correct":false,"confidence":-1},{"trial_n":83,"span":2,"encoder":"65","distractor":"85","target":"absent","response":"present","rt":"672.99999999988","correct":false,"confidence":-1},{"trial_n":84,"span":2,"encoder":"37","distractor":"34","target":"absent","response":"present","rt":"1159","correct":false,"confidence":-1},{"trial_n":85,"span":2,"encoder":"54","distractor":"57","target":"absent","response":"present","rt":"1340","correct":false,"confidence":-1},{"trial_n":86,"span":2,"encoder":"42","distractor":"40","target":"present","response":"absent","rt":"957","correct":false,"confidence":-1},{"trial_n":87,"span":2,"encoder":"84","distractor":"86","target":"present","response":"absent","rt":"1640","correct":false,"confidence":-1},{"trial_n":88,"span":2,"encoder":"84","distractor":"64","target":"absent","response":"absent","rt":"724.00000000012","correct":true,"confidence":-1},{"trial_n":89,"span":2,"encoder":"21","distractor":"71","target":"present","response":"absent","rt":"356.99999999988","correct":false,"confidence":-1},{"trial_n":90,"span":2,"encoder":"27","distractor":"29","target":"present","response":"absent","rt":"923","correct":false,"confidence":-1},{"trial_n":91,"span":2,"encoder":"08","distractor":"38","target":"present","response":"absent","rt":"876","correct":false,"confidence":4},{"trial_n":92,"span":2,"encoder":"39","distractor":"19","target":"absent","response":"absent","rt":"4477","correct":true,"confidence":1},{"trial_n":93,"span":2,"encoder":"55","distractor":"65","target":"present","response":"absent","rt":"841.00000000012","correct":false,"confidence":3},{"trial_n":94,"span":2,"encoder":"40","distractor":"00","target":"absent","response":"absent","rt":"1710.0000000001","correct":true,"confidence":3},{"trial_n":95,"span":2,"encoder":"85","distractor":"89","target":"absent","response":"absent","rt":"1441","correct":true,"confidence":3},{"trial_n":96,"span":3,"encoder":"974","distractor":"574","target":"absent","response":"absent","rt":"2197","correct":true,"confidence":1},{"trial_n":97,"span":3,"encoder":"317","distractor":"387","target":"present","response":"absent","rt":"17031","correct":false,"confidence":3},{"trial_n":98,"span":2,"encoder":"66","distractor":"67","target":"absent","response":"present","rt":"2010.0000000001","correct":false,"confidence":3},{"trial_n":99,"span":2,"encoder":"33","distractor":"23","target":"absent","response":"absent","rt":"2024","correct":true,"confidence":1},{"trial_n":100,"span":2,"encoder":"45","distractor":"48","target":"absent","response":"absent","rt":"1774","correct":true,"confidence":4},{"trial_n":101,"span":3,"encoder":"662","distractor":"622","target":"present","response":"absent","rt":"742","correct":false,"confidence":3},{"trial_n":102,"span":2,"encoder":"55","distractor":"59","target":"present","response":"absent","rt":"2176","correct":false,"confidence":3},{"trial_n":103,"span":2,"encoder":"83","distractor":"81","target":"present","response":"absent","rt":"1361","correct":false,"confidence":3},{"trial_n":104,"span":2,"encoder":"45","distractor":"65","target":"present","response":"absent","rt":"961","correct":false,"confidence":3},{"trial_n":105,"span":2,"encoder":"40","distractor":"46","target":"absent","response":"absent","rt":"1694","correct":true,"confidence":1},{"trial_n":106,"span":2,"encoder":"50","distractor":"60","target":"absent","response":"absent","rt":"1093.9999999999","correct":true,"confidence":3},{"trial_n":107,"span":3,"encoder":"016","distractor":"816","target":"present","response":"present","rt":"1380.9999999999","correct":true,"confidence":3},{"trial_n":108,"span":3,"encoder":"185","distractor":"585","target":"present","response":"present","rt":"1149","correct":true,"confidence":3},{"trial_n":109,"span":4,"encoder":"4809","distractor":"4803","target":"absent","response":"present","rt":"1236","correct":false,"confidence":1},{"trial_n":110,"span":3,"encoder":"994","distractor":"494","target":"present","response":"present","rt":"1295.9999999999","correct":true,"confidence":4},{"trial_n":111,"span":3,"encoder":"368","distractor":"360","target":"present","response":"absent","rt":"1051","correct":false,"confidence":1},{"trial_n":112,"span":2,"encoder":"70","distractor":"60","target":"present","response":"absent","rt":"1628","correct":false,"confidence":3},{"trial_n":113,"span":2,"encoder":"32","distractor":"82","target":"present","response":"absent","rt":"911.99999999988","correct":false,"confidence":3},{"trial_n":114,"span":2,"encoder":"83","distractor":"88","target":"absent","response":"absent","rt":"729","correct":true,"confidence":4},{"trial_n":115,"span":2,"encoder":"71","distractor":"81","target":"absent","response":"absent","rt":"595","correct":true,"confidence":4},{"trial_n":116,"span":3,"encoder":"178","distractor":"174","target":"present","response":"present","rt":"1167","correct":true,"confidence":4},{"trial_n":117,"span":3,"encoder":"304","distractor":"306","target":"present","response":"absent","rt":"966","correct":false,"confidence":3},{"trial_n":118,"span":2,"encoder":"84","distractor":"14","target":"present","response":"absent","rt":"928.99999999988","correct":false,"confidence":4},{"trial_n":119,"span":2,"encoder":"62","distractor":"32","target":"absent","response":"absent","rt":"1161.9999999999","correct":true,"confidence":3},{"trial_n":120,"span":2,"encoder":"82","distractor":"89","target":"absent","response":"absent","rt":"1460.0000000001","correct":true,"confidence":4},{"trial_n":121,"span":3,"encoder":"516","distractor":"816","target":"present","response":"present","rt":"1566.9999999999","correct":true,"confidence":3},{"trial_n":122,"span":3,"encoder":"962","distractor":"162","target":"present","response":"present","rt":"1698.9999999999","correct":true,"confidence":3},{"trial_n":123,"span":4,"encoder":"9223","distractor":"5223","target":"absent","response":"absent","rt":"1722","correct":true,"confidence":3},{"trial_n":124,"span":4,"encoder":"1933","distractor":"1913","target":"absent","response":"absent","rt":"1338","correct":true,"confidence":3},{"trial_n":125,"span":5,"encoder":"57497","distractor":"17497","target":"present","response":"present","rt":"1626","correct":true,"confidence":3},{"trial_n":126,"span":5,"encoder":"96602","distractor":"96600","target":"present","response":"present","rt":"1491.9999999999","correct":true,"confidence":4},{"trial_n":127,"span":6,"encoder":"434965","distractor":"484965","target":"absent","response":"absent","rt":"981.99999999988","correct":true,"confidence":3},{"trial_n":128,"span":6,"encoder":"079126","distractor":"079127","target":"present","response":"absent","rt":"912.99999999977","correct":false,"confidence":3},{"trial_n":129,"span":5,"encoder":"22578","distractor":"22571","target":"present","response":"absent","rt":"1176.9999999999","correct":false,"confidence":3},{"trial_n":130,"span":4,"encoder":"2677","distractor":"2679","target":"present","response":"absent","rt":"1223","correct":false,"confidence":3},{"trial_n":131,"span":3,"encoder":"690","distractor":"695","target":"present","response":"absent","rt":"902","correct":false,"confidence":1},{"trial_n":132,"span":2,"encoder":"36","distractor":"56","target":"absent","response":"absent","rt":"1146.9999999998","correct":true,"confidence":4},{"trial_n":133,"span":2,"encoder":"43","distractor":"23","target":"absent","response":"absent","rt":"746","correct":true,"confidence":4},{"trial_n":134,"span":3,"encoder":"004","distractor":"204","target":"absent","response":"absent","rt":"934","correct":true,"confidence":3},{"trial_n":135,"span":3,"encoder":"199","distractor":"192","target":"absent","response":"absent","rt":"1099","correct":true,"confidence":4},{"trial_n":136,"span":4,"encoder":"5392","distractor":"5391","target":"present","response":"absent","rt":"871.99999999977","correct":false,"confidence":3},{"trial_n":137,"span":3,"encoder":"330","distractor":"334","target":"absent","response":"absent","rt":"784.99999999977","correct":true,"confidence":3},{"trial_n":138,"span":3,"encoder":"346","distractor":"946","target":"present","response":"absent","rt":"715","correct":false,"confidence":3},{"trial_n":139,"span":2,"encoder":"14","distractor":"15","target":"absent","response":"absent","rt":"810","correct":true,"confidence":3},{"trial_n":140,"span":2,"encoder":"51","distractor":"71","target":"present","response":"absent","rt":"963","correct":false,"confidence":3}]