[{"trial_n":1,"span":8,"encoder":"32005360","distractor":"32025360","target":"present","response":"absent","rt":"9543","correct":false,"confidence":-1},{"trial_n":2,"span":6,"encoder":"081417","distractor":"082417","target":"present","response":"present","rt":"4586","correct":true,"confidence":-1},{"trial_n":3,"span":6,"encoder":"722884","distractor":"422884","target":"absent","response":"absent","rt":"3484","correct":true,"confidence":-1},{"trial_n":4,"span":8,"encoder":"74232238","distractor":"34232238","target":"absent","response":"present","rt":"3849","correct":false,"confidence":-1},{"trial_n":5,"span":6,"encoder":"758112","distractor":"755112","target":"present","response":"present","rt":"3468","correct":true,"confidence":-1},{"trial_n":6,"span":6,"encoder":"746639","distractor":"746659","target":"absent","response":"absent","rt":"2539","correct":true,"confidence":-1},{"trial_n":7,"span":8,"encoder":"06822057","distractor":"66822057","target":"present","response":"present","rt":"1948","correct":true,"confidence":-1},{"trial_n":8,"span":8,"encoder":"74753214","distractor":"74753014","target":"present","response":"present","rt":"3339","correct":true,"confidence":-1},{"trial_n":9,"span":10,"encoder":"7491565370","distractor":"7491565170","target":"absent","response":"absent","rt":"2294","correct":true,"confidence":-1},{"trial_n":10,"span":10,"encoder":"3580862504","distractor":"3580861504","target":"absent","response":"absent","rt":"3848","correct":true,"confidence":-1},{"trial_n":11,"span":12,"encoder":"737582852355","distractor":"737592852355","target":"present","response":"absent","rt":"4579","correct":false,"confidence":-1},{"trial_n":12,"span":11,"encoder":"77127337889","distractor":"77127347889","target":"absent","response":"absent","rt":"1969","correct":true,"confidence":-1},{"trial_n":13,"span":11,"encoder":"69710632727","distractor":"69770632727","target":"present","response":"present","rt":"5027","correct":true,"confidence":-1},{"trial_n":14,"span":12,"encoder":"785298205036","distractor":"285298205036","target":"absent","response":"absent","rt":"1864","correct":true,"confidence":-1},{"trial_n":15,"span":12,"encoder":"779899495752","distractor":"779899445752","target":"present","response":"absent","rt":"1787","correct":false,"confidence":-1},{"trial_n":16,"span":11,"encoder":"92057275420","distractor":"92057975420","target":"absent","response":"present","rt":"1887","correct":false,"confidence":-1},{"trial_n":17,"span":10,"encoder":"9606144260","distractor":"9606144267","target":"present","response":"absent","rt":"962","correct":false,"confidence":-1},{"trial_n":18,"span":9,"encoder":"315699676","distractor":"315694676","target":"absent","response":"present","rt":"792","correct":false,"confidence":-1},{"trial_n":19,"span":8,"encoder":"84300688","distractor":"84330688","target":"present","response":"absent","rt":"2587","correct":false,"confidence":-1},{"trial_n":20,"span":7,"encoder":"6177716","distractor":"6177816","target":"present","response":"present","rt":"1742","correct":true,"confidence":-1},{"trial_n":21,"span":7,"encoder":"2283893","distractor":"7283893","target":"absent","response":"present","rt":"3590","correct":false,"confidence":4},{"trial_n":22,"span":6,"encoder":"339889","distractor":"379889","target":"absent","response":"absent","rt":"2589","correct":true,"confidence":5},{"trial_n":23,"span":6,"encoder":"309378","distractor":"609378","target":"present","response":"present","rt":"2023","correct":true,"confidence":5},{"trial_n":24,"span":7,"encoder":"7317446","distractor":"7337446","target":"present","response":"absent","rt":"2762","correct":false,"confidence":3},{"trial_n":25,"span":6,"encoder":"144591","distractor":"140591","target":"present","response":"absent","rt":"4715","correct":false,"confidence":4},{"trial_n":26,"span":5,"encoder":"28902","distractor":"58902","target":"absent","response":"absent","rt":"2921","correct":true,"confidence":4},{"trial_n":27,"span":5,"encoder":"49993","distractor":"49943","target":"present","response":"absent","rt":"2153","correct":false,"confidence":5},{"trial_n":28,"span":4,"encoder":"3539","distractor":"3739","target":"present","response":"present","rt":"3456","correct":true,"confidence":2},{"trial_n":29,"span":4,"encoder":"6569","distractor":"6529","target":"present","response":"present","rt":"2187","correct":true,"confidence":4},{"trial_n":30,"span":5,"encoder":"99008","distractor":"99068","target":"absent","response":"absent","rt":"3064","correct":true,"confidence":5},{"trial_n":31,"span":5,"encoder":"92305","distractor":"52305","target":"absent","response":"absent","rt":"2387","correct":true,"confidence":5},{"trial_n":32,"span":6,"encoder":"167164","distractor":"967164","target":"present","response":"present","rt":"2809","correct":true,"confidence":3},{"trial_n":33,"span":6,"encoder":"122356","distractor":"922356","target":"absent","response":"absent","rt":"1712","correct":true,"confidence":5},{"trial_n":34,"span":7,"encoder":"0958043","distractor":"0458043","target":"present","response":"absent","rt":"5036","correct":false,"confidence":2},{"trial_n":35,"span":6,"encoder":"619050","distractor":"669050","target":"present","response":"present","rt":"2039","correct":true,"confidence":4},{"trial_n":36,"span":6,"encoder":"666508","distractor":"566508","target":"absent","response":"absent","rt":"2096.0000000001","correct":true,"confidence":5},{"trial_n":37,"span":7,"encoder":"0079490","distractor":"4079490","target":"absent","response":"present","rt":"1562.9999999999","correct":false,"confidence":1},{"trial_n":38,"span":6,"encoder":"112268","distractor":"119268","target":"absent","response":"absent","rt":"1365.0000000001","correct":true,"confidence":5},{"trial_n":39,"span":6,"encoder":"279160","distractor":"279163","target":"absent","response":"absent","rt":"6295","correct":true,"confidence":4},{"trial_n":40,"span":7,"encoder":"7571326","distractor":"7571321","target":"present","response":"absent","rt":"5776","correct":false,"confidence":3},{"trial_n":41,"span":6,"encoder":"752432","distractor":"754432","target":"present","response":"present","rt":"2945","correct":true,"confidence":3},{"trial_n":42,"span":6,"encoder":"378224","distractor":"378924","target":"absent","response":"absent","rt":"3407","correct":true,"confidence":4},{"trial_n":43,"span":7,"encoder":"6772460","distractor":"6776460","target":"present","response":"present","rt":"2232","correct":true,"confidence":5},{"trial_n":44,"span":7,"encoder":"5959685","distractor":"5159685","target":"present","response":"present","rt":"3548","correct":true,"confidence":5},{"trial_n":45,"span":8,"encoder":"61738653","distractor":"61798653","target":"present","response":"present","rt":"4822.0000000001","correct":true,"confidence":4},{"trial_n":46,"span":8,"encoder":"92312210","distractor":"97312210","target":"absent","response":"absent","rt":"3938","correct":true,"confidence":1},{"trial_n":47,"span":9,"encoder":"828099797","distractor":"820099797","target":"present","response":"absent","rt":"2705","correct":false,"confidence":5},{"trial_n":48,"span":8,"encoder":"23405175","distractor":"53405175","target":"absent","response":"absent","rt":"2860","correct":true,"confidence":5},{"trial_n":49,"span":8,"encoder":"78951968","distractor":"78951988","target":"absent","response":"absent","rt":"1996","correct":true,"confidence":1},{"trial_n":50,"span":9,"encoder":"183389338","distractor":"183389738","target":"present","response":"absent","rt":"3394","correct":false,"confidence":5},{"trial_n":51,"span":8,"encoder":"81721975","distractor":"01721975","target":"present","response":"present","rt":"3623.0000000001","correct":true,"confidence":5},{"trial_n":52,"span":8,"encoder":"62405846","distractor":"62905846","target":"absent","response":"absent","rt":"2383.9999999999","correct":true,"confidence":1},{"trial_n":53,"span":9,"encoder":"338897717","distractor":"338897787","target":"absent","response":"absent","rt":"4377","correct":true,"confidence":5},{"trial_n":54,"span":9,"encoder":"512271209","distractor":"518271209","target":"absent","response":"absent","rt":"3423.9999999999","correct":true,"confidence":1},{"trial_n":55,"span":10,"encoder":"4682131692","distractor":"4682131682","target":"absent","response":"absent","rt":"2482","correct":true,"confidence":1},{"trial_n":56,"span":10,"encoder":"1447899194","distractor":"1447898194","target":"absent","response":"absent","rt":"4845","correct":true,"confidence":5},{"trial_n":57,"span":11,"encoder":"32977716495","distractor":"32477716495","target":"present","response":"absent","rt":"7596.9999999999","correct":false,"confidence":5},{"trial_n":58,"span":10,"encoder":"4784305919","distractor":"4794305919","target":"absent","response":"absent","rt":"9725","correct":true,"confidence":4},{"trial_n":59,"span":10,"encoder":"4797123049","distractor":"4797113049","target":"absent","response":"absent","rt":"1967","correct":true,"confidence":3},{"trial_n":60,"span":11,"encoder":"79433812190","distractor":"79033812190","target":"absent","response":"absent","rt":"7526","correct":true,"confidence":2},{"trial_n":61,"span":11,"encoder":"36728277650","distractor":"36748277650","target":"present","response":"absent","rt":"3743","correct":false,"confidence":5},{"trial_n":62,"span":10,"encoder":"6568273572","distractor":"6568873572","target":"absent","response":"absent","rt":"4906.9999999999","correct":true,"confidence":4},{"trial_n":63,"span":10,"encoder":"8119142966","distractor":"8119122966","target":"present","response":"absent","rt":"4882","correct":false,"confidence":4},{"trial_n":64,"span":9,"encoder":"474856433","distractor":"473856433","target":"present","response":"present","rt":"4506","correct":true,"confidence":4},{"trial_n":65,"span":9,"encoder":"016261984","distractor":"016241984","target":"present","response":"absent","rt":"6270.0000000001","correct":false,"confidence":3},{"trial_n":66,"span":8,"encoder":"22172931","distractor":"22172731","target":"present","response":"present","rt":"15315","correct":true,"confidence":3},{"trial_n":67,"span":8,"encoder":"96890634","distractor":"96090634","target":"present","response":"present","rt":"3053","correct":true,"confidence":3},{"trial_n":68,"span":9,"encoder":"629795283","distractor":"639795283","target":"absent","response":"absent","rt":"4782","correct":true,"confidence":3},{"trial_n":69,"span":9,"encoder":"742957847","distractor":"742957827","target":"present","response":"present","rt":"5333","correct":true,"confidence":4},{"trial_n":70,"span":10,"encoder":"4530232940","distractor":"4330232940","target":"absent","response":"present","rt":"4999","correct":false,"confidence":2},{"trial_n":71,"span":8,"encoder":"89408956","distractor":"83408956","target":"present","response":"present","rt":"4357","correct":true,"confidence":-1},{"trial_n":72,"span":8,"encoder":"50609970","distractor":"50699970","target":"present","response":"present","rt":"4717","correct":true,"confidence":-1},{"trial_n":73,"span":9,"encoder":"634276701","distractor":"614276701","target":"absent","response":"absent","rt":"5274.9999999999","correct":true,"confidence":-1},{"trial_n":74,"span":9,"encoder":"731470885","distractor":"731470835","target":"absent","response":"absent","rt":"6693.0000000001","correct":true,"confidence":-1},{"trial_n":75,"span":10,"encoder":"0925803684","distractor":"0925703684","target":"present","response":"present","rt":"7311","correct":true,"confidence":-1},{"trial_n":76,"span":10,"encoder":"4612745880","distractor":"4672745880","target":"absent","response":"absent","rt":"2530","correct":true,"confidence":-1},{"trial_n":77,"span":11,"encoder":"29517554793","distractor":"29517557793","target":"present","response":"present","rt":"12142","correct":true,"confidence":-1},{"trial_n":78,"span":11,"encoder":"47992334714","distractor":"46992334714","target":"present","response":"present","rt":"3524","correct":true,"confidence":-1},{"trial_n":79,"span":12,"encoder":"271460324076","distractor":"272460324076","target":"present","response":"absent","rt":"499","correct":false,"confidence":-1},{"trial_n":80,"span":11,"encoder":"20523011916","distractor":"20523011986","target":"present","response":"absent","rt":"6113","correct":false,"confidence":-1},{"trial_n":81,"span":10,"encoder":"6728920200","distractor":"6728921200","target":"absent","response":"absent","rt":"6913","correct":true,"confidence":-1},{"trial_n":82,"span":10,"encoder":"9557217996","distractor":"9257217996","target":"absent","response":"absent","rt":"3196.0000000001","correct":true,"confidence":-1},{"trial_n":83,"span":11,"encoder":"13598718297","distractor":"16598718297","target":"absent","response":"absent","rt":"2527","correct":true,"confidence":-1},{"trial_n":84,"span":11,"encoder":"81485694517","distractor":"81485694519","target":"absent","response":"absent","rt":"7802.0000000001","correct":true,"confidence":-1},{"trial_n":85,"span":12,"encoder":"787566356698","distractor":"787566355698","target":"absent","response":"absent","rt":"2040","correct":true,"confidence":-1},{"trial_n":86,"span":12,"encoder":"152799806250","distractor":"152799802250","target":"absent","response":"absent","rt":"9716","correct":true,"confidence":-1},{"trial_n":87,"span":13,"encoder":"9385365053766","distractor":"2385365053766","target":"present","response":"absent","rt":"671","correct":false,"confidence":-1},{"trial_n":88,"span":12,"encoder":"993556379837","distractor":"993556279837","target":"present","response":"present","rt":"2261","correct":true,"confidence":-1},{"trial_n":89,"span":12,"encoder":"693102543905","distractor":"693502543905","target":"present","response":"absent","rt":"551","correct":false,"confidence":-1},{"trial_n":90,"span":11,"encoder":"83874269156","distractor":"33874269156","target":"absent","response":"present","rt":"589","correct":false,"confidence":-1},{"trial_n":91,"span":10,"encoder":"9283717140","distractor":"9283767140","target":"absent","response":"absent","rt":"4260.9999999999","correct":true,"confidence":5},{"trial_n":92,"span":10,"encoder":"4977736326","distractor":"4977739326","target":"present","response":"absent","rt":"6861.9999999999","correct":false,"confidence":2},{"trial_n":93,"span":9,"encoder":"958216104","distractor":"958210104","target":"present","response":"present","rt":"9022.9999999999","correct":true,"confidence":5},{"trial_n":94,"span":9,"encoder":"425637659","distractor":"425638659","target":"present","response":"present","rt":"7677.9999999999","correct":true,"confidence":3},{"trial_n":95,"span":10,"encoder":"6614380711","distractor":"1614380711","target":"present","response":"present","rt":"5039","correct":true,"confidence":5},{"trial_n":96,"span":10,"encoder":"3228150008","distractor":"3228157008","target":"absent","response":"absent","rt":"5934","correct":true,"confidence":5},{"trial_n":97,"span":11,"encoder":"36912180703","distractor":"36912180708","target":"present","response":"absent","rt":"4385","correct":false,"confidence":2},{"trial_n":98,"span":10,"encoder":"4965155120","distractor":"3965155120","target":"present","response":"absent","rt":"9219","correct":false,"confidence":4},{"trial_n":99,"span":9,"encoder":"230201397","distractor":"238201397","target":"absent","response":"absent","rt":"3731","correct":true,"confidence":4},{"trial_n":100,"span":9,"encoder":"808305661","distractor":"808303661","target":"absent","response":"absent","rt":"8580","correct":true,"confidence":4},{"trial_n":101,"span":10,"encoder":"7339294544","distractor":"7389294544","target":"absent","response":"absent","rt":"7593","correct":true,"confidence":4},{"trial_n":102,"span":10,"encoder":"4560592353","distractor":"4560592853","target":"absent","response":"absent","rt":"4844.9999999998","correct":true,"confidence":5},{"trial_n":103,"span":11,"encoder":"21385826538","distractor":"28385826538","target":"absent","response":"absent","rt":"2564.0000000002","correct":true,"confidence":5},{"trial_n":104,"span":11,"encoder":"52763471010","distractor":"52769471010","target":"present","response":"absent","rt":"9774","correct":false,"confidence":5},{"trial_n":105,"span":10,"encoder":"2158451310","distractor":"2558451310","target":"present","response":"present","rt":"6892.9999999998","correct":true,"confidence":4},{"trial_n":106,"span":10,"encoder":"5543181344","distractor":"5843181344","target":"present","response":"absent","rt":"3460","correct":false,"confidence":4},{"trial_n":107,"span":9,"encoder":"812333122","distractor":"812333132","target":"absent","response":"present","rt":"4627","correct":false,"confidence":4},{"trial_n":108,"span":8,"encoder":"14264730","distractor":"14064730","target":"absent","response":"absent","rt":"4299","correct":true,"confidence":1},{"trial_n":109,"span":8,"encoder":"85521961","distractor":"85591961","target":"absent","response":"absent","rt":"3779","correct":true,"confidence":5},{"trial_n":110,"span":9,"encoder":"283208071","distractor":"283208771","target":"absent","response":"absent","rt":"11454","correct":true,"confidence":3},{"trial_n":111,"span":9,"encoder":"615638876","distractor":"615638871","target":"present","response":"absent","rt":"8811","correct":false,"confidence":4},{"trial_n":112,"span":8,"encoder":"21204379","distractor":"61204379","target":"present","response":"present","rt":"15442","correct":true,"confidence":5},{"trial_n":113,"span":8,"encoder":"41247910","distractor":"41277910","target":"absent","response":"absent","rt":"2889","correct":true,"confidence":1},{"trial_n":114,"span":9,"encoder":"969873810","distractor":"919873810","target":"absent","response":"absent","rt":"4180","correct":true,"confidence":5},{"trial_n":115,"span":9,"encoder":"271461480","distractor":"271161480","target":"absent","response":"absent","rt":"3869","correct":true,"confidence":5},{"trial_n":116,"span":10,"encoder":"3797533424","distractor":"3797533464","target":"absent","response":"absent","rt":"5222","correct":true,"confidence":5},{"trial_n":117,"span":10,"encoder":"4673145539","distractor":"4663145539","target":"absent","response":"absent","rt":"2854","correct":true,"confidence":4},{"trial_n":118,"span":11,"encoder":"42221059768","distractor":"42221059738","target":"present","response":"present","rt":"6432","correct":true,"confidence":4},{"trial_n":119,"span":11,"encoder":"10181365803","distractor":"10180365803","target":"absent","response":"absent","rt":"8373","correct":true,"confidence":4},{"trial_n":120,"span":12,"encoder":"720719130887","distractor":"720719130882","target":"present","response":"absent","rt":"3933","correct":false,"confidence":1},{"trial_n":121,"span":11,"encoder":"62939492009","distractor":"62939192009","target":"present","response":"present","rt":"7179.9999999998","correct":true,"confidence":4},{"trial_n":122,"span":11,"encoder":"16436956080","distractor":"16436956780","target":"present","response":"absent","rt":"4269","correct":false,"confidence":4},{"trial_n":123,"span":10,"encoder":"2846381438","distractor":"2846381638","target":"absent","response":"absent","rt":"10136","correct":true,"confidence":1},{"trial_n":124,"span":10,"encoder":"1286474820","distractor":"1286474890","target":"absent","response":"absent","rt":"2362","correct":true,"confidence":4},{"trial_n":125,"span":11,"encoder":"30510130166","distractor":"30510150166","target":"present","response":"present","rt":"7477","correct":true,"confidence":4},{"trial_n":126,"span":11,"encoder":"36311994237","distractor":"36311992237","target":"present","response":"present","rt":"4135","correct":true,"confidence":4},{"trial_n":127,"span":12,"encoder":"943465378589","distractor":"943065378589","target":"absent","response":"absent","rt":"890.00000000023","correct":true,"confidence":4},{"trial_n":128,"span":12,"encoder":"354345809918","distractor":"354346809918","target":"present","response":"absent","rt":"14542","correct":false,"confidence":5},{"trial_n":129,"span":11,"encoder":"50927357103","distractor":"00927357103","target":"present","response":"present","rt":"1713","correct":true,"confidence":4},{"trial_n":130,"span":11,"encoder":"69416279592","distractor":"69476279592","target":"present","response":"present","rt":"9885","correct":true,"confidence":1},{"trial_n":131,"span":12,"encoder":"780006057862","distractor":"786006057862","target":"absent","response":"absent","rt":"13139","correct":true,"confidence":5},{"trial_n":132,"span":12,"encoder":"350911073470","distractor":"350914073470","target":"present","response":"present","rt":"2500","correct":true,"confidence":5},{"trial_n":133,"span":13,"encoder":"2632053363308","distractor":"5632053363308","target":"present","response":"present","rt":"2610","correct":true,"confidence":5},{"trial_n":134,"span":13,"encoder":"1982547995198","distractor":"1982543995198","target":"present","response":"absent","rt":"11779","correct":false,"confidence":3},{"trial_n":135,"span":12,"encoder":"105845039960","distractor":"105845009960","target":"present","response":"present","rt":"12455","correct":true,"confidence":2},{"trial_n":136,"span":12,"encoder":"322282379327","distractor":"322282379324","target":"absent","response":"present","rt":"7413","correct":false,"confidence":2},{"trial_n":137,"span":11,"encoder":"55726501638","distractor":"95726501638","target":"absent","response":"absent","rt":"2394","correct":true,"confidence":4},{"trial_n":138,"span":11,"encoder":"36193368870","distractor":"36193368879","target":"absent","response":"absent","rt":"11396","correct":true,"confidence":4},{"trial_n":139,"span":12,"encoder":"855905031453","distractor":"855905051453","target":"present","response":"present","rt":"6474","correct":true,"confidence":4},{"trial_n":140,"span":12,"encoder":"256038722073","distractor":"256038722075","target":"present","response":"present","rt":"2468.9999999998","correct":true,"confidence":4}]