[{"trial_n":1,"min":25,"max":230,"target":"present","response":"present","rt":3426,"correct":true,"confidence":-1},{"trial_n":2,"min":25,"max":230,"target":"present","response":"present","rt":285,"correct":true,"confidence":-1},{"trial_n":3,"min":41,"max":214,"target":"absent","response":"absent","rt":714,"correct":true,"confidence":-1},{"trial_n":4,"min":41,"max":214,"target":"absent","response":"absent","rt":396,"correct":true,"confidence":-1},{"trial_n":5,"min":57,"max":198,"target":"present","response":"present","rt":22,"correct":true,"confidence":-1},{"trial_n":6,"min":57,"max":198,"target":"present","response":"present","rt":221,"correct":true,"confidence":-1},{"trial_n":7,"min":73,"max":182,"target":"present","response":"present","rt":373,"correct":true,"confidence":-1},{"trial_n":8,"min":73,"max":182,"target":"absent","response":"absent","rt":508,"correct":true,"confidence":-1},{"trial_n":9,"min":89,"max":166,"target":"present","response":"present","rt":205,"correct":true,"confidence":-1},{"trial_n":10,"min":89,"max":166,"target":"present","response":"present","rt":302,"correct":true,"confidence":-1},{"trial_n":11,"min":97,"max":158,"target":"present","response":"present","rt":789,"correct":true,"confidence":-1},{"trial_n":12,"min":97,"max":158,"target":"absent","response":"absent","rt":396,"correct":true,"confidence":-1},{"trial_n":13,"min":105,"max":150,"target":"absent","response":"absent","rt":244,"correct":true,"confidence":-1},{"trial_n":14,"min":105,"max":150,"target":"present","response":"absent","rt":341,"correct":false,"confidence":-1},{"trial_n":15,"min":97,"max":158,"target":"absent","response":"present","rt":548,"correct":false,"confidence":-1},{"trial_n":16,"min":89,"max":166,"target":"absent","response":"absent","rt":884,"correct":true,"confidence":-1},{"trial_n":17,"min":89,"max":166,"target":"present","response":"absent","rt":277,"correct":false,"confidence":-1},{"trial_n":18,"min":81,"max":174,"target":"present","response":"present","rt":741,"correct":true,"confidence":-1},{"trial_n":19,"min":81,"max":174,"target":"present","response":"present","rt":317,"correct":true,"confidence":-1},{"trial_n":20,"min":89,"max":166,"target":"present","response":"present","rt":420,"correct":true,"confidence":-1},{"trial_n":21,"min":89,"max":166,"target":"absent","response":"absent","rt":423,"correct":true,"confidence":5},{"trial_n":22,"min":93,"max":162,"target":"absent","response":"absent","rt":472,"correct":true,"confidence":3},{"trial_n":23,"min":93,"max":162,"target":"absent","response":"absent","rt":1129,"correct":true,"confidence":5},{"trial_n":24,"min":97,"max":158,"target":"present","response":"present","rt":1488,"correct":true,"confidence":3},{"trial_n":25,"min":97,"max":158,"target":"absent","response":"absent","rt":483,"correct":true,"confidence":4},{"trial_n":26,"min":101,"max":154,"target":"absent","response":"absent","rt":430.99999999999,"correct":true,"confidence":3},{"trial_n":27,"min":101,"max":154,"target":"present","response":"present","rt":335,"correct":true,"confidence":4},{"trial_n":28,"min":105,"max":150,"target":"present","response":"absent","rt":317,"correct":false,"confidence":2},{"trial_n":29,"min":101,"max":154,"target":"absent","response":"present","rt":398,"correct":false,"confidence":1},{"trial_n":30,"min":97,"max":158,"target":"absent","response":"absent","rt":598,"correct":true,"confidence":3},{"trial_n":31,"min":97,"max":158,"target":"present","response":"present","rt":351,"correct":true,"confidence":4},{"trial_n":32,"min":99,"max":156,"target":"present","response":"absent","rt":944,"correct":false,"confidence":1},{"trial_n":33,"min":97,"max":158,"target":"present","response":"absent","rt":674,"correct":false,"confidence":2},{"trial_n":34,"min":95,"max":160,"target":"present","response":"present","rt":254,"correct":true,"confidence":4},{"trial_n":35,"min":95,"max":160,"target":"absent","response":"absent","rt":387,"correct":true,"confidence":2},{"trial_n":36,"min":97,"max":158,"target":"absent","response":"absent","rt":395,"correct":true,"confidence":1},{"trial_n":37,"min":97,"max":158,"target":"absent","response":"present","rt":613,"correct":false,"confidence":4},{"trial_n":38,"min":95,"max":160,"target":"absent","response":"absent","rt":364,"correct":true,"confidence":3},{"trial_n":39,"min":95,"max":160,"target":"absent","response":"absent","rt":504,"correct":true,"confidence":4},{"trial_n":40,"min":97,"max":158,"target":"absent","response":"present","rt":577,"correct":false,"confidence":4},{"trial_n":41,"min":96,"max":159,"target":"present","response":"absent","rt":1585,"correct":false,"confidence":3},{"trial_n":42,"min":95,"max":160,"target":"present","response":"absent","rt":796,"correct":false,"confidence":4},{"trial_n":43,"min":94,"max":161,"target":"absent","response":"absent","rt":1196,"correct":true,"confidence":4},{"trial_n":44,"min":94,"max":161,"target":"present","response":"absent","rt":502,"correct":false,"confidence":4},{"trial_n":45,"min":93,"max":162,"target":"absent","response":"absent","rt":499,"correct":true,"confidence":2},{"trial_n":46,"min":93,"max":162,"target":"absent","response":"absent","rt":442.00000000001,"correct":true,"confidence":3},{"trial_n":47,"min":94,"max":161,"target":"absent","response":"absent","rt":329,"correct":true,"confidence":4},{"trial_n":48,"min":94,"max":161,"target":"present","response":"absent","rt":930.99999999999,"correct":false,"confidence":4},{"trial_n":49,"min":93,"max":162,"target":"present","response":"present","rt":582.00000000001,"correct":true,"confidence":4},{"trial_n":50,"min":93,"max":162,"target":"absent","response":"absent","rt":440.99999999997,"correct":true,"confidence":5},{"trial_n":51,"min":94,"max":161,"target":"present","response":"absent","rt":625,"correct":false,"confidence":4},{"trial_n":52,"min":93,"max":162,"target":"absent","response":"absent","rt":816,"correct":true,"confidence":2},{"trial_n":53,"min":93,"max":162,"target":"absent","response":"present","rt":482,"correct":false,"confidence":2},{"trial_n":54,"min":92,"max":163,"target":"present","response":"absent","rt":356,"correct":false,"confidence":1},{"trial_n":55,"min":91,"max":164,"target":"absent","response":"absent","rt":599,"correct":true,"confidence":1},{"trial_n":56,"min":91,"max":164,"target":"absent","response":"absent","rt":598,"correct":true,"confidence":1},{"trial_n":57,"min":92,"max":163,"target":"absent","response":"absent","rt":1412,"correct":true,"confidence":3},{"trial_n":58,"min":92,"max":163,"target":"present","response":"absent","rt":806.99999999997,"correct":false,"confidence":3},{"trial_n":59,"min":91,"max":164,"target":"present","response":"absent","rt":706,"correct":false,"confidence":3},{"trial_n":60,"min":90,"max":165,"target":"present","response":"absent","rt":825.99999999997,"correct":false,"confidence":3},{"trial_n":61,"min":89,"max":166,"target":"absent","response":"absent","rt":686,"correct":true,"confidence":3},{"trial_n":62,"min":89,"max":166,"target":"present","response":"present","rt":350,"correct":true,"confidence":4},{"trial_n":63,"min":90,"max":165,"target":"present","response":"present","rt":414.99999999997,"correct":true,"confidence":1},{"trial_n":64,"min":90,"max":165,"target":"present","response":"present","rt":299,"correct":true,"confidence":5},{"trial_n":65,"min":91,"max":164,"target":"absent","response":"absent","rt":1450,"correct":true,"confidence":4},{"trial_n":66,"min":91,"max":164,"target":"absent","response":"present","rt":576,"correct":false,"confidence":4},{"trial_n":67,"min":90,"max":165,"target":"present","response":"absent","rt":530.00000000003,"correct":false,"confidence":2},{"trial_n":68,"min":89,"max":166,"target":"absent","response":"present","rt":336.00000000003,"correct":false,"confidence":3},{"trial_n":69,"min":88,"max":167,"target":"present","response":"present","rt":379,"correct":true,"confidence":4},{"trial_n":70,"min":88,"max":167,"target":"present","response":"present","rt":400,"correct":true,"confidence":5},{"trial_n":71,"min":41,"max":214,"target":"present","response":"present","rt":828.99999999997,"correct":true,"confidence":-1},{"trial_n":72,"min":41,"max":214,"target":"present","response":"present","rt":76,"correct":true,"confidence":-1},{"trial_n":73,"min":57,"max":198,"target":"absent","response":"present","rt":129,"correct":false,"confidence":-1},{"trial_n":74,"min":41,"max":214,"target":"absent","response":"absent","rt":136,"correct":true,"confidence":-1},{"trial_n":75,"min":41,"max":214,"target":"present","response":"present","rt":127,"correct":true,"confidence":-1},{"trial_n":76,"min":57,"max":198,"target":"present","response":"absent","rt":104,"correct":false,"confidence":-1},{"trial_n":77,"min":41,"max":214,"target":"present","response":"present","rt":193.99999999997,"correct":true,"confidence":-1},{"trial_n":78,"min":41,"max":214,"target":"present","response":"present","rt":336,"correct":true,"confidence":-1},{"trial_n":79,"min":57,"max":198,"target":"absent","response":"absent","rt":409,"correct":true,"confidence":-1},{"trial_n":80,"min":57,"max":198,"target":"present","response":"present","rt":167.99999999997,"correct":true,"confidence":-1},{"trial_n":81,"min":65,"max":190,"target":"present","response":"present","rt":489,"correct":true,"confidence":-1},{"trial_n":82,"min":65,"max":190,"target":"present","response":"present","rt":575,"correct":true,"confidence":-1},{"trial_n":83,"min":73,"max":182,"target":"present","response":"present","rt":199,"correct":true,"confidence":-1},{"trial_n":84,"min":73,"max":182,"target":"absent","response":"absent","rt":531,"correct":true,"confidence":-1},{"trial_n":85,"min":81,"max":174,"target":"absent","response":"present","rt":551,"correct":false,"confidence":-1},{"trial_n":86,"min":73,"max":182,"target":"present","response":"absent","rt":232,"correct":false,"confidence":-1},{"trial_n":87,"min":65,"max":190,"target":"absent","response":"absent","rt":1192,"correct":true,"confidence":-1},{"trial_n":88,"min":65,"max":190,"target":"absent","response":"absent","rt":215.99999999997,"correct":true,"confidence":-1},{"trial_n":89,"min":73,"max":182,"target":"present","response":"present","rt":104,"correct":true,"confidence":-1},{"trial_n":90,"min":73,"max":182,"target":"absent","response":"absent","rt":494.99999999997,"correct":true,"confidence":-1},{"trial_n":91,"min":77,"max":178,"target":"absent","response":"absent","rt":1106,"correct":true,"confidence":5},{"trial_n":92,"min":77,"max":178,"target":"present","response":"absent","rt":181.00000000003,"correct":false,"confidence":1},{"trial_n":93,"min":73,"max":182,"target":"absent","response":"absent","rt":2050,"correct":true,"confidence":3},{"trial_n":94,"min":73,"max":182,"target":"absent","response":"absent","rt":751,"correct":true,"confidence":3},{"trial_n":95,"min":77,"max":178,"target":"present","response":"present","rt":18,"correct":true,"confidence":4},{"trial_n":96,"min":77,"max":178,"target":"present","response":"present","rt":659.99999999994,"correct":true,"confidence":5},{"trial_n":97,"min":81,"max":174,"target":"absent","response":"present","rt":369.00000000006,"correct":false,"confidence":1},{"trial_n":98,"min":77,"max":178,"target":"absent","response":"present","rt":611,"correct":false,"confidence":4},{"trial_n":99,"min":73,"max":182,"target":"present","response":"present","rt":700,"correct":true,"confidence":1},{"trial_n":100,"min":73,"max":182,"target":"absent","response":"absent","rt":780,"correct":true,"confidence":5},{"trial_n":101,"min":75,"max":180,"target":"absent","response":"present","rt":420.00000000006,"correct":false,"confidence":1},{"trial_n":102,"min":73,"max":182,"target":"present","response":"present","rt":539,"correct":true,"confidence":5},{"trial_n":103,"min":73,"max":182,"target":"absent","response":"present","rt":676,"correct":false,"confidence":4},{"trial_n":104,"min":71,"max":184,"target":"absent","response":"present","rt":1203,"correct":false,"confidence":1},{"trial_n":105,"min":69,"max":186,"target":"absent","response":"absent","rt":871,"correct":true,"confidence":4},{"trial_n":106,"min":69,"max":186,"target":"present","response":"present","rt":1483,"correct":true,"confidence":1},{"trial_n":107,"min":71,"max":184,"target":"present","response":"present","rt":532,"correct":true,"confidence":5},{"trial_n":108,"min":71,"max":184,"target":"present","response":"present","rt":1961.9999999999,"correct":true,"confidence":3},{"trial_n":109,"min":73,"max":182,"target":"absent","response":"present","rt":2828,"correct":false,"confidence":4},{"trial_n":110,"min":71,"max":184,"target":"present","response":"present","rt":306,"correct":true,"confidence":4},{"trial_n":111,"min":71,"max":184,"target":"present","response":"present","rt":87.999999999942,"correct":true,"confidence":4},{"trial_n":112,"min":72,"max":183,"target":"absent","response":"absent","rt":926,"correct":true,"confidence":4},{"trial_n":113,"min":72,"max":183,"target":"absent","response":"absent","rt":834,"correct":true,"confidence":4},{"trial_n":114,"min":73,"max":182,"target":"present","response":"present","rt":5.9999999999418,"correct":true,"confidence":4},{"trial_n":115,"min":73,"max":182,"target":"present","response":"present","rt":435,"correct":true,"confidence":4},{"trial_n":116,"min":74,"max":181,"target":"present","response":"present","rt":911,"correct":true,"confidence":4},{"trial_n":117,"min":74,"max":181,"target":"present","response":"present","rt":1277,"correct":true,"confidence":4},{"trial_n":118,"min":75,"max":180,"target":"absent","response":"absent","rt":476,"correct":true,"confidence":4},{"trial_n":119,"min":75,"max":180,"target":"absent","response":"absent","rt":416.99999999994,"correct":true,"confidence":4},{"trial_n":120,"min":76,"max":179,"target":"absent","response":"absent","rt":9457,"correct":true,"confidence":3},{"trial_n":121,"min":76,"max":179,"target":"absent","response":"present","rt":949.99999999994,"correct":false,"confidence":2},{"trial_n":122,"min":75,"max":180,"target":"present","response":"present","rt":198,"correct":true,"confidence":4},{"trial_n":123,"min":75,"max":180,"target":"absent","response":"absent","rt":677,"correct":true,"confidence":2},{"trial_n":124,"min":76,"max":179,"target":"present","response":"present","rt":2848,"correct":true,"confidence":3},{"trial_n":125,"min":76,"max":179,"target":"present","response":"present","rt":734,"correct":true,"confidence":4},{"trial_n":126,"min":77,"max":178,"target":"absent","response":"absent","rt":603,"correct":true,"confidence":4},{"trial_n":127,"min":77,"max":178,"target":"present","response":"present","rt":90,"correct":true,"confidence":4},{"trial_n":128,"min":78,"max":177,"target":"absent","response":"absent","rt":528,"correct":true,"confidence":3},{"trial_n":129,"min":78,"max":177,"target":"absent","response":"present","rt":891.99999999994,"correct":false,"confidence":4},{"trial_n":130,"min":77,"max":178,"target":"present","response":"present","rt":215,"correct":true,"confidence":5},{"trial_n":131,"min":77,"max":178,"target":"present","response":"present","rt":119,"correct":true,"confidence":4},{"trial_n":132,"min":78,"max":177,"target":"absent","response":"present","rt":342,"correct":false,"confidence":4},{"trial_n":133,"min":77,"max":178,"target":"absent","response":"present","rt":466,"correct":false,"confidence":4},{"trial_n":134,"min":76,"max":179,"target":"absent","response":"present","rt":462,"correct":false,"confidence":2},{"trial_n":135,"min":75,"max":180,"target":"absent","response":"absent","rt":739,"correct":true,"confidence":4},{"trial_n":136,"min":75,"max":180,"target":"present","response":"present","rt":291,"correct":true,"confidence":5},{"trial_n":137,"min":76,"max":179,"target":"present","response":"present","rt":1114,"correct":true,"confidence":5},{"trial_n":138,"min":76,"max":179,"target":"present","response":"present","rt":841,"correct":true,"confidence":5},{"trial_n":139,"min":77,"max":178,"target":"absent","response":"absent","rt":1075,"correct":true,"confidence":4},{"trial_n":140,"min":77,"max":178,"target":"present","response":"present","rt":980.99999999994,"correct":true,"confidence":5}]