[{"trial_n":1,"n_dots":4.25,"target":"left","response":"left","rt":5033,"correct":true,"confidence":-1},{"trial_n":2,"n_dots":4.25,"target":"right","response":"right","rt":764,"correct":true,"confidence":-1},{"trial_n":3,"n_dots":3.85,"target":"right","response":"right","rt":301,"correct":true,"confidence":-1},{"trial_n":4,"n_dots":3.85,"target":"right","response":"left","rt":276,"correct":false,"confidence":-1},{"trial_n":5,"n_dots":4.25,"target":"right","response":"left","rt":-75.999999999996,"correct":false,"confidence":-1},{"trial_n":6,"n_dots":4.65,"target":"right","response":"right","rt":-5.0000000000036,"correct":true,"confidence":-1},{"trial_n":7,"n_dots":4.65,"target":"left","response":"left","rt":148,"correct":true,"confidence":-1},{"trial_n":8,"n_dots":4.45,"target":"right","response":"right","rt":53.000000000007,"correct":true,"confidence":-1},{"trial_n":9,"n_dots":4.45,"target":"left","response":"left","rt":3974,"correct":true,"confidence":-1},{"trial_n":10,"n_dots":4.25,"target":"right","response":"left","rt":412.00000000001,"correct":false,"confidence":-1},{"trial_n":11,"n_dots":4.45,"target":"right","response":"right","rt":443,"correct":true,"confidence":-1},{"trial_n":12,"n_dots":4.45,"target":"right","response":"right","rt":445,"correct":true,"confidence":-1},{"trial_n":13,"n_dots":4.35,"target":"right","response":"right","rt":660,"correct":true,"confidence":-1},{"trial_n":14,"n_dots":4.35,"target":"left","response":"left","rt":-27,"correct":true,"confidence":-1},{"trial_n":15,"n_dots":4.25,"target":"left","response":"left","rt":10.000000000007,"correct":true,"confidence":-1},{"trial_n":16,"n_dots":4.25,"target":"right","response":"left","rt":237,"correct":false,"confidence":-1},{"trial_n":17,"n_dots":4.35,"target":"right","response":"right","rt":210.99999999999,"correct":true,"confidence":-1},{"trial_n":18,"n_dots":4.35,"target":"left","response":"left","rt":-76,"correct":true,"confidence":-1},{"trial_n":19,"n_dots":4.25,"target":"left","response":"left","rt":-43,"correct":true,"confidence":-1},{"trial_n":20,"n_dots":4.25,"target":"right","response":"right","rt":83,"correct":true,"confidence":-1},{"trial_n":21,"n_dots":4.15,"target":"right","response":"right","rt":258,"correct":true,"confidence":3},{"trial_n":22,"n_dots":4.15,"target":"right","response":"right","rt":-148.00000000001,"correct":true,"confidence":5},{"trial_n":23,"n_dots":4.05,"target":"left","response":"left","rt":626,"correct":true,"confidence":4},{"trial_n":24,"n_dots":4.05,"target":"left","response":"right","rt":738,"correct":false,"confidence":4},{"trial_n":25,"n_dots":4.15,"target":"right","response":"right","rt":-13,"correct":true,"confidence":5},{"trial_n":26,"n_dots":4.15,"target":"right","response":"right","rt":38.999999999985,"correct":true,"confidence":5},{"trial_n":27,"n_dots":4.05,"target":"left","response":"left","rt":274,"correct":true,"confidence":3},{"trial_n":28,"n_dots":4.05,"target":"left","response":"left","rt":244,"correct":true,"confidence":3},{"trial_n":29,"n_dots":3.95,"target":"right","response":"left","rt":4186,"correct":false,"confidence":3},{"trial_n":30,"n_dots":4.05,"target":"left","response":"left","rt":1263,"correct":true,"confidence":4},{"trial_n":31,"n_dots":4.05,"target":"left","response":"left","rt":1341,"correct":true,"confidence":4},{"trial_n":32,"n_dots":3.95,"target":"right","response":"right","rt":745.99999999997,"correct":true,"confidence":4},{"trial_n":33,"n_dots":3.95,"target":"left","response":"left","rt":101,"correct":true,"confidence":4},{"trial_n":34,"n_dots":3.85,"target":"left","response":"right","rt":1037,"correct":false,"confidence":4},{"trial_n":35,"n_dots":3.95,"target":"left","response":"left","rt":17,"correct":true,"confidence":5},{"trial_n":36,"n_dots":3.95,"target":"left","response":"left","rt":-158,"correct":true,"confidence":5},{"trial_n":37,"n_dots":3.85,"target":"right","response":"right","rt":274,"correct":true,"confidence":5},{"trial_n":38,"n_dots":3.85,"target":"right","response":"right","rt":375,"correct":true,"confidence":4},{"trial_n":39,"n_dots":3.75,"target":"right","response":"right","rt":-74,"correct":true,"confidence":4},{"trial_n":40,"n_dots":3.75,"target":"right","response":"right","rt":-56,"correct":true,"confidence":5},{"trial_n":41,"n_dots":3.65,"target":"right","response":"right","rt":27,"correct":true,"confidence":5},{"trial_n":42,"n_dots":3.65,"target":"right","response":"right","rt":286,"correct":true,"confidence":5},{"trial_n":43,"n_dots":3.55,"target":"left","response":"left","rt":1939,"correct":true,"confidence":1},{"trial_n":44,"n_dots":3.55,"target":"right","response":"right","rt":303.99999999997,"correct":true,"confidence":1},{"trial_n":45,"n_dots":3.45,"target":"left","response":"left","rt":159,"correct":true,"confidence":3},{"trial_n":46,"n_dots":3.45,"target":"left","response":"left","rt":486,"correct":true,"confidence":3},{"trial_n":47,"n_dots":3.35,"target":"left","response":"left","rt":2006,"correct":true,"confidence":1},{"trial_n":48,"n_dots":3.35,"target":"left","response":"right","rt":-24,"correct":false,"confidence":3},{"trial_n":49,"n_dots":3.45,"target":"right","response":"right","rt":229,"correct":true,"confidence":4},{"trial_n":50,"n_dots":3.45,"target":"left","response":"left","rt":-34.999999999971,"correct":true,"confidence":4},{"trial_n":51,"n_dots":3.35,"target":"right","response":"left","rt":254.99999999997,"correct":false,"confidence":4},{"trial_n":52,"n_dots":3.45,"target":"right","response":"left","rt":507.00000000003,"correct":false,"confidence":4},{"trial_n":53,"n_dots":3.55,"target":"left","response":"left","rt":199,"correct":true,"confidence":4},{"trial_n":54,"n_dots":3.55,"target":"right","response":"right","rt":380,"correct":true,"confidence":4},{"trial_n":55,"n_dots":3.45,"target":"left","response":"left","rt":90,"correct":true,"confidence":5},{"trial_n":56,"n_dots":3.45,"target":"left","response":"left","rt":243,"correct":true,"confidence":5},{"trial_n":57,"n_dots":3.35,"target":"left","response":"left","rt":-71.000000000029,"correct":true,"confidence":5},{"trial_n":58,"n_dots":3.35,"target":"right","response":"left","rt":489,"correct":false,"confidence":5},{"trial_n":59,"n_dots":3.45,"target":"right","response":"right","rt":-10.999999999971,"correct":true,"confidence":5},{"trial_n":60,"n_dots":3.45,"target":"left","response":"left","rt":-13.000000000029,"correct":true,"confidence":5},{"trial_n":61,"n_dots":3.35,"target":"left","response":"left","rt":113,"correct":true,"confidence":4},{"trial_n":62,"n_dots":3.35,"target":"left","response":"left","rt":-126,"correct":true,"confidence":5},{"trial_n":63,"n_dots":3.25,"target":"left","response":"left","rt":-89,"correct":true,"confidence":5},{"trial_n":64,"n_dots":3.25,"target":"left","response":"left","rt":49,"correct":true,"confidence":5},{"trial_n":65,"n_dots":3.15,"target":"left","response":"left","rt":65,"correct":true,"confidence":5},{"trial_n":66,"n_dots":3.15,"target":"right","response":"left","rt":40.000000000058,"correct":false,"confidence":5},{"trial_n":67,"n_dots":3.25,"target":"right","response":"right","rt":210,"correct":true,"confidence":5},{"trial_n":68,"n_dots":3.25,"target":"right","response":"right","rt":113,"correct":true,"confidence":5},{"trial_n":69,"n_dots":3.15,"target":"right","response":"right","rt":214,"correct":true,"confidence":5},{"trial_n":70,"n_dots":3.15,"target":"left","response":"left","rt":-7,"correct":true,"confidence":5},{"trial_n":71,"n_dots":3.05,"target":"left","response":"right","rt":308,"correct":false,"confidence":4},{"trial_n":72,"n_dots":3.15,"target":"right","response":"right","rt":373,"correct":true,"confidence":4},{"trial_n":73,"n_dots":3.15,"target":"left","response":"right","rt":679,"correct":false,"confidence":4},{"trial_n":74,"n_dots":3.25,"target":"left","response":"right","rt":413,"correct":false,"confidence":5},{"trial_n":75,"n_dots":3.35,"target":"left","response":"left","rt":1293,"correct":true,"confidence":4},{"trial_n":76,"n_dots":3.35,"target":"left","response":"left","rt":458,"correct":true,"confidence":4},{"trial_n":77,"n_dots":3.25,"target":"right","response":"right","rt":231,"correct":true,"confidence":4},{"trial_n":78,"n_dots":3.25,"target":"left","response":"left","rt":860.00000000006,"correct":true,"confidence":4},{"trial_n":79,"n_dots":3.15,"target":"left","response":"left","rt":766,"correct":true,"confidence":4},{"trial_n":80,"n_dots":3.15,"target":"right","response":"left","rt":1350,"correct":false,"confidence":4},{"trial_n":81,"n_dots":3.25,"target":"left","response":"right","rt":250.99999999994,"correct":false,"confidence":4},{"trial_n":82,"n_dots":3.35,"target":"right","response":"right","rt":662.00000000006,"correct":true,"confidence":4},{"trial_n":83,"n_dots":3.35,"target":"left","response":"left","rt":1028,"correct":true,"confidence":4},{"trial_n":84,"n_dots":3.25,"target":"right","response":"right","rt":456,"correct":true,"confidence":4},{"trial_n":85,"n_dots":3.25,"target":"left","response":"right","rt":619,"correct":false,"confidence":4},{"trial_n":86,"n_dots":3.35,"target":"left","response":"left","rt":172.00000000006,"correct":true,"confidence":4},{"trial_n":87,"n_dots":3.35,"target":"right","response":"right","rt":-26.000000000058,"correct":true,"confidence":1},{"trial_n":88,"n_dots":3.25,"target":"left","response":"right","rt":554,"correct":false,"confidence":4},{"trial_n":89,"n_dots":3.35,"target":"left","response":"left","rt":1242,"correct":true,"confidence":1},{"trial_n":90,"n_dots":3.35,"target":"left","response":"left","rt":16,"correct":true,"confidence":4},{"trial_n":91,"n_dots":3.25,"target":"left","response":"left","rt":464,"correct":true,"confidence":4},{"trial_n":92,"n_dots":3.25,"target":"right","response":"right","rt":69,"correct":true,"confidence":4},{"trial_n":93,"n_dots":3.15,"target":"left","response":"left","rt":593,"correct":true,"confidence":3},{"trial_n":94,"n_dots":3.15,"target":"right","response":"right","rt":116,"correct":true,"confidence":4},{"trial_n":95,"n_dots":3.05,"target":"right","response":"right","rt":198,"correct":true,"confidence":4},{"trial_n":96,"n_dots":3.05,"target":"left","response":"right","rt":75.999999999942,"correct":false,"confidence":4},{"trial_n":97,"n_dots":3.15,"target":"left","response":"left","rt":61.000000000058,"correct":true,"confidence":4},{"trial_n":98,"n_dots":3.15,"target":"left","response":"right","rt":19,"correct":false,"confidence":4},{"trial_n":99,"n_dots":3.25,"target":"right","response":"right","rt":50.999999999942,"correct":true,"confidence":4},{"trial_n":100,"n_dots":3.25,"target":"right","response":"right","rt":974.99999999994,"correct":true,"confidence":4},{"trial_n":101,"n_dots":3.15,"target":"left","response":"left","rt":491,"correct":true,"confidence":4},{"trial_n":102,"n_dots":3.15,"target":"right","response":"left","rt":716,"correct":false,"confidence":4},{"trial_n":103,"n_dots":3.25,"target":"left","response":"left","rt":88,"correct":true,"confidence":4},{"trial_n":104,"n_dots":3.25,"target":"right","response":"right","rt":607.00000000006,"correct":true,"confidence":4},{"trial_n":105,"n_dots":3.15,"target":"left","response":"left","rt":21,"correct":true,"confidence":4},{"trial_n":106,"n_dots":3.15,"target":"right","response":"right","rt":349,"correct":true,"confidence":4},{"trial_n":107,"n_dots":3.05,"target":"left","response":"left","rt":20,"correct":true,"confidence":4},{"trial_n":108,"n_dots":3.05,"target":"right","response":"right","rt":408,"correct":true,"confidence":4},{"trial_n":109,"n_dots":2.95,"target":"right","response":"right","rt":571,"correct":true,"confidence":4},{"trial_n":110,"n_dots":2.95,"target":"right","response":"left","rt":557,"correct":false,"confidence":4},{"trial_n":111,"n_dots":3.05,"target":"left","response":"left","rt":468,"correct":true,"confidence":4},{"trial_n":112,"n_dots":3.05,"target":"right","response":"right","rt":160.99999999994,"correct":true,"confidence":5},{"trial_n":113,"n_dots":2.95,"target":"left","response":"left","rt":626.99999999994,"correct":true,"confidence":4},{"trial_n":114,"n_dots":2.95,"target":"right","response":"left","rt":-21.999999999942,"correct":false,"confidence":4},{"trial_n":115,"n_dots":3.05,"target":"right","response":"left","rt":80,"correct":false,"confidence":4},{"trial_n":116,"n_dots":3.15,"target":"right","response":"right","rt":585,"correct":true,"confidence":4},{"trial_n":117,"n_dots":3.15,"target":"right","response":"right","rt":350,"correct":true,"confidence":4},{"trial_n":118,"n_dots":3.05,"target":"left","response":"right","rt":655.00000000012,"correct":false,"confidence":1},{"trial_n":119,"n_dots":3.15,"target":"right","response":"left","rt":367,"correct":false,"confidence":1},{"trial_n":120,"n_dots":3.25,"target":"right","response":"right","rt":547,"correct":true,"confidence":4}]