[{"trial_n":1,"min":25,"max":230,"target":"present","response":"absent","rt":5053.099999994,"correct":false,"confidence":-1},{"trial_n":2,"min":25,"max":230,"target":"present","response":"present","rt":1009.8000000119,"correct":true,"confidence":-1},{"trial_n":3,"min":25,"max":230,"target":"absent","response":"absent","rt":784.40000000596,"correct":true,"confidence":-1},{"trial_n":4,"min":41,"max":214,"target":"absent","response":"absent","rt":696.09999999404,"correct":true,"confidence":-1},{"trial_n":5,"min":41,"max":214,"target":"present","response":"present","rt":952.09999999404,"correct":true,"confidence":-1},{"trial_n":6,"min":57,"max":198,"target":"absent","response":"absent","rt":669.19999998808,"correct":true,"confidence":-1},{"trial_n":7,"min":57,"max":198,"target":"absent","response":"absent","rt":628.59999999404,"correct":true,"confidence":-1},{"trial_n":8,"min":73,"max":182,"target":"absent","response":"absent","rt":462.09999999404,"correct":true,"confidence":-1},{"trial_n":9,"min":73,"max":182,"target":"present","response":"present","rt":864.59999999404,"correct":true,"confidence":-1},{"trial_n":10,"min":89,"max":166,"target":"present","response":"absent","rt":705.80000001192,"correct":false,"confidence":-1},{"trial_n":11,"min":81,"max":174,"target":"present","response":"absent","rt":2268.6999999881,"correct":false,"confidence":-1},{"trial_n":12,"min":73,"max":182,"target":"present","response":"absent","rt":1158.8999999762,"correct":false,"confidence":-1},{"trial_n":13,"min":65,"max":190,"target":"present","response":"absent","rt":724.09999999404,"correct":false,"confidence":-1},{"trial_n":14,"min":57,"max":198,"target":"absent","response":"present","rt":937.59999999404,"correct":false,"confidence":-1},{"trial_n":15,"min":49,"max":206,"target":"present","response":"present","rt":629.40000000596,"correct":true,"confidence":-1},{"trial_n":16,"min":49,"max":206,"target":"absent","response":"absent","rt":1393.8000000119,"correct":true,"confidence":-1},{"trial_n":17,"min":57,"max":198,"target":"absent","response":"absent","rt":974.70000001788,"correct":true,"confidence":-1},{"trial_n":18,"min":57,"max":198,"target":"present","response":"present","rt":1019.5,"correct":true,"confidence":-1},{"trial_n":19,"min":65,"max":190,"target":"absent","response":"absent","rt":909.10000002384,"correct":true,"confidence":-1},{"trial_n":20,"min":65,"max":190,"target":"absent","response":"present","rt":649.5,"correct":false,"confidence":-1},{"trial_n":21,"min":61,"max":194,"target":"absent","response":"present","rt":1175,"correct":false,"confidence":3},{"trial_n":22,"min":57,"max":198,"target":"present","response":"present","rt":982.20000001788,"correct":true,"confidence":5},{"trial_n":23,"min":57,"max":198,"target":"present","response":"present","rt":635.09999999404,"correct":true,"confidence":5},{"trial_n":24,"min":61,"max":194,"target":"present","response":"present","rt":858.29999998212,"correct":true,"confidence":5},{"trial_n":25,"min":61,"max":194,"target":"absent","response":"present","rt":2067.5,"correct":false,"confidence":3},{"trial_n":26,"min":57,"max":198,"target":"absent","response":"absent","rt":733.40000000596,"correct":true,"confidence":3},{"trial_n":27,"min":57,"max":198,"target":"present","response":"present","rt":772.09999999404,"correct":true,"confidence":5},{"trial_n":28,"min":61,"max":194,"target":"present","response":"present","rt":661.29999998212,"correct":true,"confidence":5},{"trial_n":29,"min":61,"max":194,"target":"present","response":"present","rt":777.40000000596,"correct":true,"confidence":5},{"trial_n":30,"min":65,"max":190,"target":"absent","response":"absent","rt":849.70000001788,"correct":true,"confidence":3},{"trial_n":31,"min":65,"max":190,"target":"absent","response":"absent","rt":907,"correct":true,"confidence":3},{"trial_n":32,"min":67,"max":188,"target":"present","response":"present","rt":1000.5,"correct":true,"confidence":4},{"trial_n":33,"min":67,"max":188,"target":"present","response":"present","rt":1661.8000000119,"correct":true,"confidence":5},{"trial_n":34,"min":69,"max":186,"target":"present","response":"present","rt":1145.6000000238,"correct":true,"confidence":5},{"trial_n":35,"min":69,"max":186,"target":"present","response":"present","rt":732.90000000596,"correct":true,"confidence":5},{"trial_n":36,"min":71,"max":184,"target":"present","response":"present","rt":724.19999998808,"correct":true,"confidence":5},{"trial_n":37,"min":71,"max":184,"target":"absent","response":"absent","rt":695.80000001192,"correct":true,"confidence":3},{"trial_n":38,"min":73,"max":182,"target":"absent","response":"absent","rt":1068.1999999881,"correct":true,"confidence":4},{"trial_n":39,"min":73,"max":182,"target":"present","response":"present","rt":1181.6999999881,"correct":true,"confidence":5},{"trial_n":40,"min":75,"max":180,"target":"absent","response":"absent","rt":921.60000002384,"correct":true,"confidence":3},{"trial_n":41,"min":75,"max":180,"target":"absent","response":"absent","rt":777.30000001192,"correct":true,"confidence":3},{"trial_n":42,"min":76,"max":179,"target":"present","response":"present","rt":1560.5,"correct":true,"confidence":4},{"trial_n":43,"min":76,"max":179,"target":"present","response":"present","rt":1816.099999994,"correct":true,"confidence":4},{"trial_n":44,"min":77,"max":178,"target":"absent","response":"absent","rt":1490.900000006,"correct":true,"confidence":4},{"trial_n":45,"min":77,"max":178,"target":"present","response":"present","rt":744.70000001788,"correct":true,"confidence":5},{"trial_n":46,"min":78,"max":177,"target":"absent","response":"absent","rt":904.80000001192,"correct":true,"confidence":4},{"trial_n":47,"min":78,"max":177,"target":"present","response":"present","rt":1435.6999999881,"correct":true,"confidence":5},{"trial_n":48,"min":79,"max":176,"target":"absent","response":"absent","rt":996.40000000596,"correct":true,"confidence":3},{"trial_n":49,"min":79,"max":176,"target":"absent","response":"absent","rt":726.29999998212,"correct":true,"confidence":3},{"trial_n":50,"min":80,"max":175,"target":"absent","response":"absent","rt":708.30000001192,"correct":true,"confidence":3},{"trial_n":51,"min":80,"max":175,"target":"present","response":"present","rt":683.70000001788,"correct":true,"confidence":4},{"trial_n":52,"min":81,"max":174,"target":"absent","response":"absent","rt":650.40000000596,"correct":true,"confidence":3},{"trial_n":53,"min":81,"max":174,"target":"absent","response":"absent","rt":729.90000000596,"correct":true,"confidence":3},{"trial_n":54,"min":82,"max":173,"target":"present","response":"present","rt":755.20000001788,"correct":true,"confidence":4},{"trial_n":55,"min":82,"max":173,"target":"absent","response":"absent","rt":710.09999999404,"correct":true,"confidence":4},{"trial_n":56,"min":83,"max":172,"target":"absent","response":"absent","rt":906.29999998212,"correct":true,"confidence":4},{"trial_n":57,"min":83,"max":172,"target":"present","response":"present","rt":890.30000001192,"correct":true,"confidence":5},{"trial_n":58,"min":84,"max":171,"target":"absent","response":"absent","rt":807.60000002384,"correct":true,"confidence":3},{"trial_n":59,"min":84,"max":171,"target":"present","response":"present","rt":724.80000001192,"correct":true,"confidence":4},{"trial_n":60,"min":85,"max":170,"target":"present","response":"present","rt":771.69999998808,"correct":true,"confidence":5},{"trial_n":61,"min":85,"max":170,"target":"absent","response":"absent","rt":726,"correct":true,"confidence":3},{"trial_n":62,"min":86,"max":169,"target":"absent","response":"present","rt":964.80000001192,"correct":false,"confidence":3},{"trial_n":63,"min":85,"max":170,"target":"present","response":"present","rt":690.80000001192,"correct":true,"confidence":4},{"trial_n":64,"min":85,"max":170,"target":"present","response":"present","rt":628.90000000596,"correct":true,"confidence":4},{"trial_n":65,"min":86,"max":169,"target":"absent","response":"absent","rt":765.19999998808,"correct":true,"confidence":4},{"trial_n":66,"min":86,"max":169,"target":"absent","response":"absent","rt":1522.599999994,"correct":true,"confidence":3},{"trial_n":67,"min":87,"max":168,"target":"present","response":"absent","rt":1008.099999994,"correct":false,"confidence":3},{"trial_n":68,"min":86,"max":169,"target":"present","response":"present","rt":947.40000000596,"correct":true,"confidence":5},{"trial_n":69,"min":86,"max":169,"target":"absent","response":"absent","rt":1011.400000006,"correct":true,"confidence":3},{"trial_n":70,"min":87,"max":168,"target":"present","response":"present","rt":689.09999999404,"correct":true,"confidence":4},{"trial_n":71,"min":41,"max":214,"target":"present","response":"present","rt":890.59999999404,"correct":true,"confidence":-1},{"trial_n":72,"min":41,"max":214,"target":"present","response":"present","rt":895.20000001788,"correct":true,"confidence":-1},{"trial_n":73,"min":57,"max":198,"target":"absent","response":"absent","rt":880.59999999404,"correct":true,"confidence":-1},{"trial_n":74,"min":57,"max":198,"target":"absent","response":"present","rt":771.09999999404,"correct":false,"confidence":-1},{"trial_n":75,"min":41,"max":214,"target":"present","response":"present","rt":769.70000001788,"correct":true,"confidence":-1},{"trial_n":76,"min":41,"max":214,"target":"present","response":"present","rt":420.20000001788,"correct":true,"confidence":-1},{"trial_n":77,"min":57,"max":198,"target":"absent","response":"absent","rt":1422.2000000179,"correct":true,"confidence":-1},{"trial_n":78,"min":57,"max":198,"target":"absent","response":"absent","rt":1416.099999994,"correct":true,"confidence":-1},{"trial_n":79,"min":73,"max":182,"target":"absent","response":"absent","rt":737.70000001788,"correct":true,"confidence":-1},{"trial_n":80,"min":73,"max":182,"target":"absent","response":"absent","rt":646.30000001192,"correct":true,"confidence":-1},{"trial_n":81,"min":81,"max":174,"target":"present","response":"present","rt":641.80000001192,"correct":true,"confidence":-1},{"trial_n":82,"min":81,"max":174,"target":"absent","response":"absent","rt":1479.099999994,"correct":true,"confidence":-1},{"trial_n":83,"min":89,"max":166,"target":"absent","response":"absent","rt":1666.2000000179,"correct":true,"confidence":-1},{"trial_n":84,"min":89,"max":166,"target":"present","response":"present","rt":712.5,"correct":true,"confidence":-1},{"trial_n":85,"min":97,"max":158,"target":"present","response":"present","rt":489.70000001788,"correct":true,"confidence":-1},{"trial_n":86,"min":97,"max":158,"target":"present","response":"present","rt":650.90000000596,"correct":true,"confidence":-1},{"trial_n":87,"min":105,"max":150,"target":"present","response":"present","rt":622.60000002384,"correct":true,"confidence":-1},{"trial_n":88,"min":105,"max":150,"target":"present","response":"present","rt":510.59999999404,"correct":true,"confidence":-1},{"trial_n":89,"min":113,"max":142,"target":"absent","response":"present","rt":562.69999998808,"correct":false,"confidence":-1},{"trial_n":90,"min":105,"max":150,"target":"present","response":"present","rt":1706.599999994,"correct":true,"confidence":-1},{"trial_n":91,"min":105,"max":150,"target":"present","response":"present","rt":1121.099999994,"correct":true,"confidence":2},{"trial_n":92,"min":109,"max":146,"target":"absent","response":"present","rt":703,"correct":false,"confidence":3},{"trial_n":93,"min":105,"max":150,"target":"absent","response":"absent","rt":1656.2000000179,"correct":true,"confidence":2},{"trial_n":94,"min":105,"max":150,"target":"absent","response":"present","rt":748.70000001788,"correct":false,"confidence":3},{"trial_n":95,"min":101,"max":154,"target":"absent","response":"present","rt":817.5,"correct":false,"confidence":1},{"trial_n":96,"min":97,"max":158,"target":"present","response":"present","rt":3207.6000000238,"correct":true,"confidence":1},{"trial_n":97,"min":97,"max":158,"target":"present","response":"present","rt":1511.8000000119,"correct":true,"confidence":3},{"trial_n":98,"min":101,"max":154,"target":"present","response":"present","rt":735.59999999404,"correct":true,"confidence":3},{"trial_n":99,"min":101,"max":154,"target":"present","response":"present","rt":835.70000001788,"correct":true,"confidence":3},{"trial_n":100,"min":105,"max":150,"target":"present","response":"present","rt":867.5,"correct":true,"confidence":2},{"trial_n":101,"min":105,"max":150,"target":"absent","response":"present","rt":1195.8000000119,"correct":false,"confidence":3},{"trial_n":102,"min":103,"max":152,"target":"absent","response":"present","rt":1485.2999999821,"correct":false,"confidence":2},{"trial_n":103,"min":101,"max":154,"target":"absent","response":"absent","rt":1907.6999999881,"correct":true,"confidence":2},{"trial_n":104,"min":101,"max":154,"target":"absent","response":"present","rt":1862.8000000119,"correct":false,"confidence":3},{"trial_n":105,"min":99,"max":156,"target":"absent","response":"present","rt":2032.400000006,"correct":false,"confidence":2},{"trial_n":106,"min":97,"max":158,"target":"absent","response":"present","rt":824.80000001192,"correct":false,"confidence":3},{"trial_n":107,"min":95,"max":160,"target":"present","response":"present","rt":937.70000001788,"correct":true,"confidence":3},{"trial_n":108,"min":95,"max":160,"target":"present","response":"present","rt":711.09999999404,"correct":true,"confidence":3},{"trial_n":109,"min":97,"max":158,"target":"absent","response":"present","rt":686.70000001788,"correct":false,"confidence":3},{"trial_n":110,"min":95,"max":160,"target":"present","response":"present","rt":1441.7000000179,"correct":true,"confidence":2},{"trial_n":111,"min":95,"max":160,"target":"present","response":"present","rt":1052.5,"correct":true,"confidence":3},{"trial_n":112,"min":96,"max":159,"target":"present","response":"present","rt":778.79999998212,"correct":true,"confidence":2},{"trial_n":113,"min":96,"max":159,"target":"absent","response":"absent","rt":1295.599999994,"correct":true,"confidence":3},{"trial_n":114,"min":97,"max":158,"target":"present","response":"present","rt":810.79999998212,"correct":true,"confidence":3},{"trial_n":115,"min":97,"max":158,"target":"absent","response":"absent","rt":1482.099999994,"correct":true,"confidence":3},{"trial_n":116,"min":98,"max":157,"target":"absent","response":"present","rt":864.19999998808,"correct":false,"confidence":3},{"trial_n":117,"min":97,"max":158,"target":"absent","response":"present","rt":833.40000000596,"correct":false,"confidence":2},{"trial_n":118,"min":96,"max":159,"target":"present","response":"absent","rt":975.40000000596,"correct":false,"confidence":2},{"trial_n":119,"min":95,"max":160,"target":"present","response":"present","rt":750.69999998808,"correct":true,"confidence":3},{"trial_n":120,"min":95,"max":160,"target":"present","response":"present","rt":1017,"correct":true,"confidence":2},{"trial_n":121,"min":96,"max":159,"target":"absent","response":"present","rt":687.90000000596,"correct":false,"confidence":1},{"trial_n":122,"min":95,"max":160,"target":"absent","response":"present","rt":1209.5,"correct":false,"confidence":2},{"trial_n":123,"min":94,"max":161,"target":"present","response":"present","rt":810.69999998808,"correct":true,"confidence":2},{"trial_n":124,"min":94,"max":161,"target":"present","response":"present","rt":2466.5,"correct":true,"confidence":2},{"trial_n":125,"min":95,"max":160,"target":"absent","response":"present","rt":822.90000000596,"correct":false,"confidence":2},{"trial_n":126,"min":94,"max":161,"target":"present","response":"present","rt":989.09999999404,"correct":true,"confidence":3},{"trial_n":127,"min":94,"max":161,"target":"present","response":"present","rt":960.09999999404,"correct":true,"confidence":3},{"trial_n":128,"min":95,"max":160,"target":"present","response":"present","rt":798.40000000596,"correct":true,"confidence":4},{"trial_n":129,"min":95,"max":160,"target":"absent","response":"present","rt":3426.599999994,"correct":false,"confidence":2},{"trial_n":130,"min":94,"max":161,"target":"present","response":"present","rt":1354.5,"correct":true,"confidence":2},{"trial_n":131,"min":94,"max":161,"target":"present","response":"absent","rt":1436.5,"correct":false,"confidence":2},{"trial_n":132,"min":93,"max":162,"target":"present","response":"present","rt":552.80000001192,"correct":true,"confidence":4},{"trial_n":133,"min":93,"max":162,"target":"absent","response":"present","rt":4736.6999999881,"correct":false,"confidence":1},{"trial_n":134,"min":92,"max":163,"target":"present","response":"present","rt":728.70000001788,"correct":true,"confidence":3},{"trial_n":135,"min":92,"max":163,"target":"absent","response":"present","rt":724.80000001192,"correct":false,"confidence":3},{"trial_n":136,"min":91,"max":164,"target":"absent","response":"present","rt":719.09999999404,"correct":false,"confidence":4},{"trial_n":137,"min":90,"max":165,"target":"absent","response":"absent","rt":1405.8000000119,"correct":true,"confidence":2},{"trial_n":138,"min":90,"max":165,"target":"absent","response":"absent","rt":1946.3000000119,"correct":true,"confidence":2},{"trial_n":139,"min":91,"max":164,"target":"absent","response":"present","rt":833.59999999404,"correct":false,"confidence":2},{"trial_n":140,"min":90,"max":165,"target":"present","response":"present","rt":1002.7000000179,"correct":true,"confidence":2}]