[{"trial_n":1,"min":25,"max":230,"target":"present","response":"present","rt":5625,"correct":true,"confidence":-1},{"trial_n":2,"min":25,"max":230,"target":"present","response":"absent","rt":4481,"correct":false,"confidence":-1},{"trial_n":3,"min":9,"max":246,"target":"absent","response":"absent","rt":1319,"correct":true,"confidence":-1},{"trial_n":4,"min":9,"max":246,"target":"absent","response":"absent","rt":969,"correct":true,"confidence":-1},{"trial_n":5,"min":25,"max":230,"target":"present","response":"present","rt":866,"correct":true,"confidence":-1},{"trial_n":6,"min":25,"max":230,"target":"absent","response":"absent","rt":1034,"correct":true,"confidence":-1},{"trial_n":7,"min":41,"max":214,"target":"absent","response":"absent","rt":1009,"correct":true,"confidence":-1},{"trial_n":8,"min":41,"max":214,"target":"absent","response":"absent","rt":612,"correct":true,"confidence":-1},{"trial_n":9,"min":57,"max":198,"target":"absent","response":"absent","rt":600,"correct":true,"confidence":-1},{"trial_n":10,"min":57,"max":198,"target":"present","response":"present","rt":1087,"correct":true,"confidence":-1},{"trial_n":11,"min":65,"max":190,"target":"absent","response":"absent","rt":883,"correct":true,"confidence":-1},{"trial_n":12,"min":65,"max":190,"target":"absent","response":"absent","rt":8423,"correct":true,"confidence":-1},{"trial_n":13,"min":73,"max":182,"target":"absent","response":"absent","rt":581,"correct":true,"confidence":-1},{"trial_n":14,"min":73,"max":182,"target":"present","response":"present","rt":758,"correct":true,"confidence":-1},{"trial_n":15,"min":81,"max":174,"target":"present","response":"present","rt":1301,"correct":true,"confidence":-1},{"trial_n":16,"min":81,"max":174,"target":"present","response":"absent","rt":1025,"correct":false,"confidence":-1},{"trial_n":17,"min":73,"max":182,"target":"absent","response":"absent","rt":1264,"correct":true,"confidence":-1},{"trial_n":18,"min":73,"max":182,"target":"absent","response":"absent","rt":460,"correct":true,"confidence":-1},{"trial_n":19,"min":81,"max":174,"target":"absent","response":"absent","rt":554,"correct":true,"confidence":-1},{"trial_n":20,"min":81,"max":174,"target":"present","response":"present","rt":872,"correct":true,"confidence":-1},{"trial_n":21,"min":85,"max":170,"target":"absent","response":"present","rt":3074,"correct":false,"confidence":2},{"trial_n":22,"min":81,"max":174,"target":"absent","response":"absent","rt":1460,"correct":true,"confidence":2},{"trial_n":23,"min":81,"max":174,"target":"present","response":"present","rt":1137,"correct":true,"confidence":3},{"trial_n":24,"min":85,"max":170,"target":"absent","response":"absent","rt":1016,"correct":true,"confidence":3},{"trial_n":25,"min":85,"max":170,"target":"absent","response":"absent","rt":1488,"correct":true,"confidence":3},{"trial_n":26,"min":89,"max":166,"target":"present","response":"present","rt":1033,"correct":true,"confidence":4},{"trial_n":27,"min":89,"max":166,"target":"present","response":"absent","rt":2141,"correct":false,"confidence":2},{"trial_n":28,"min":85,"max":170,"target":"absent","response":"absent","rt":891,"correct":true,"confidence":2},{"trial_n":29,"min":85,"max":170,"target":"present","response":"absent","rt":988,"correct":false,"confidence":2},{"trial_n":30,"min":81,"max":174,"target":"present","response":"present","rt":864,"correct":true,"confidence":4},{"trial_n":31,"min":81,"max":174,"target":"present","response":"present","rt":2857,"correct":true,"confidence":2},{"trial_n":32,"min":83,"max":172,"target":"absent","response":"absent","rt":2068,"correct":true,"confidence":3},{"trial_n":33,"min":83,"max":172,"target":"absent","response":"absent","rt":1265,"correct":true,"confidence":4},{"trial_n":34,"min":85,"max":170,"target":"absent","response":"absent","rt":774,"correct":true,"confidence":4},{"trial_n":35,"min":85,"max":170,"target":"present","response":"absent","rt":1031,"correct":false,"confidence":4},{"trial_n":36,"min":83,"max":172,"target":"present","response":"present","rt":1946,"correct":true,"confidence":1},{"trial_n":37,"min":83,"max":172,"target":"present","response":"absent","rt":1108,"correct":false,"confidence":3},{"trial_n":38,"min":81,"max":174,"target":"present","response":"absent","rt":1405,"correct":false,"confidence":3},{"trial_n":39,"min":79,"max":176,"target":"absent","response":"absent","rt":964,"correct":true,"confidence":4},{"trial_n":40,"min":79,"max":176,"target":"absent","response":"absent","rt":929,"correct":true,"confidence":5},{"trial_n":41,"min":80,"max":175,"target":"absent","response":"absent","rt":728,"correct":true,"confidence":3},{"trial_n":42,"min":80,"max":175,"target":"absent","response":"absent","rt":1228,"correct":true,"confidence":3},{"trial_n":43,"min":81,"max":174,"target":"absent","response":"present","rt":1023,"correct":false,"confidence":3},{"trial_n":44,"min":80,"max":175,"target":"present","response":"absent","rt":952,"correct":false,"confidence":1},{"trial_n":45,"min":79,"max":176,"target":"present","response":"absent","rt":1217,"correct":false,"confidence":1},{"trial_n":46,"min":78,"max":177,"target":"present","response":"present","rt":847.00000000003,"correct":true,"confidence":5},{"trial_n":47,"min":78,"max":177,"target":"present","response":"absent","rt":1231,"correct":false,"confidence":3},{"trial_n":48,"min":77,"max":178,"target":"present","response":"present","rt":1285,"correct":true,"confidence":1},{"trial_n":49,"min":77,"max":178,"target":"absent","response":"absent","rt":792,"correct":true,"confidence":3},{"trial_n":50,"min":78,"max":177,"target":"absent","response":"absent","rt":792,"correct":true,"confidence":1},{"trial_n":51,"min":78,"max":177,"target":"present","response":"present","rt":970,"correct":true,"confidence":2},{"trial_n":52,"min":79,"max":176,"target":"absent","response":"absent","rt":1042,"correct":true,"confidence":1},{"trial_n":53,"min":79,"max":176,"target":"absent","response":"absent","rt":1749,"correct":true,"confidence":3},{"trial_n":54,"min":80,"max":175,"target":"absent","response":"absent","rt":1275,"correct":true,"confidence":3},{"trial_n":55,"min":80,"max":175,"target":"absent","response":"absent","rt":1067,"correct":true,"confidence":3},{"trial_n":56,"min":81,"max":174,"target":"absent","response":"present","rt":1649,"correct":false,"confidence":1},{"trial_n":57,"min":80,"max":175,"target":"absent","response":"absent","rt":762,"correct":true,"confidence":1},{"trial_n":58,"min":80,"max":175,"target":"present","response":"present","rt":787,"correct":true,"confidence":3},{"trial_n":59,"min":81,"max":174,"target":"present","response":"present","rt":1448,"correct":true,"confidence":1},{"trial_n":60,"min":81,"max":174,"target":"present","response":"present","rt":930,"correct":true,"confidence":1},{"trial_n":61,"min":82,"max":173,"target":"present","response":"absent","rt":1055,"correct":false,"confidence":1},{"trial_n":62,"min":81,"max":174,"target":"present","response":"present","rt":779,"correct":true,"confidence":1},{"trial_n":63,"min":81,"max":174,"target":"absent","response":"absent","rt":2316,"correct":true,"confidence":1},{"trial_n":64,"min":82,"max":173,"target":"present","response":"present","rt":1154,"correct":true,"confidence":3},{"trial_n":65,"min":82,"max":173,"target":"present","response":"present","rt":1053,"correct":true,"confidence":4},{"trial_n":66,"min":83,"max":172,"target":"present","response":"present","rt":985,"correct":true,"confidence":3},{"trial_n":67,"min":83,"max":172,"target":"present","response":"absent","rt":1209,"correct":false,"confidence":1},{"trial_n":68,"min":82,"max":173,"target":"present","response":"present","rt":870,"correct":true,"confidence":1},{"trial_n":69,"min":82,"max":173,"target":"present","response":"present","rt":810,"correct":true,"confidence":1},{"trial_n":70,"min":83,"max":172,"target":"present","response":"present","rt":762.99999999997,"correct":true,"confidence":1},{"trial_n":71,"min":41,"max":214,"target":"present","response":"present","rt":5839,"correct":true,"confidence":-1},{"trial_n":72,"min":41,"max":214,"target":"present","response":"present","rt":784,"correct":true,"confidence":-1},{"trial_n":73,"min":57,"max":198,"target":"absent","response":"present","rt":636,"correct":false,"confidence":-1},{"trial_n":74,"min":41,"max":214,"target":"absent","response":"absent","rt":872,"correct":true,"confidence":-1},{"trial_n":75,"min":41,"max":214,"target":"present","response":"present","rt":1047,"correct":true,"confidence":-1},{"trial_n":76,"min":57,"max":198,"target":"absent","response":"absent","rt":889,"correct":true,"confidence":-1},{"trial_n":77,"min":57,"max":198,"target":"present","response":"present","rt":1292.0000000001,"correct":true,"confidence":-1},{"trial_n":78,"min":73,"max":182,"target":"absent","response":"absent","rt":1329,"correct":true,"confidence":-1},{"trial_n":79,"min":73,"max":182,"target":"present","response":"present","rt":665,"correct":true,"confidence":-1},{"trial_n":80,"min":89,"max":166,"target":"absent","response":"absent","rt":811,"correct":true,"confidence":-1},{"trial_n":81,"min":89,"max":166,"target":"present","response":"present","rt":1494,"correct":true,"confidence":-1},{"trial_n":82,"min":97,"max":158,"target":"absent","response":"absent","rt":1084,"correct":true,"confidence":-1},{"trial_n":83,"min":97,"max":158,"target":"present","response":"absent","rt":642.99999999994,"correct":false,"confidence":-1},{"trial_n":84,"min":89,"max":166,"target":"absent","response":"absent","rt":1801,"correct":true,"confidence":-1},{"trial_n":85,"min":89,"max":166,"target":"absent","response":"absent","rt":500,"correct":true,"confidence":-1},{"trial_n":86,"min":97,"max":158,"target":"present","response":"present","rt":1164.9999999999,"correct":true,"confidence":-1},{"trial_n":87,"min":97,"max":158,"target":"present","response":"absent","rt":1057,"correct":false,"confidence":-1},{"trial_n":88,"min":89,"max":166,"target":"absent","response":"absent","rt":753,"correct":true,"confidence":-1},{"trial_n":89,"min":89,"max":166,"target":"present","response":"present","rt":876,"correct":true,"confidence":-1},{"trial_n":90,"min":97,"max":158,"target":"present","response":"absent","rt":830,"correct":false,"confidence":-1},{"trial_n":91,"min":93,"max":162,"target":"present","response":"absent","rt":804,"correct":false,"confidence":1},{"trial_n":92,"min":89,"max":166,"target":"present","response":"absent","rt":920,"correct":false,"confidence":1},{"trial_n":93,"min":85,"max":170,"target":"present","response":"present","rt":794,"correct":true,"confidence":1},{"trial_n":94,"min":85,"max":170,"target":"present","response":"absent","rt":1224,"correct":false,"confidence":1},{"trial_n":95,"min":81,"max":174,"target":"present","response":"present","rt":1781,"correct":true,"confidence":1},{"trial_n":96,"min":81,"max":174,"target":"present","response":"present","rt":798,"correct":true,"confidence":3},{"trial_n":97,"min":85,"max":170,"target":"absent","response":"present","rt":1273,"correct":false,"confidence":1},{"trial_n":98,"min":81,"max":174,"target":"absent","response":"absent","rt":1090,"correct":true,"confidence":1},{"trial_n":99,"min":81,"max":174,"target":"absent","response":"absent","rt":970,"correct":true,"confidence":4},{"trial_n":100,"min":85,"max":170,"target":"present","response":"present","rt":916,"correct":true,"confidence":1},{"trial_n":101,"min":85,"max":170,"target":"present","response":"present","rt":827,"correct":true,"confidence":1},{"trial_n":102,"min":87,"max":168,"target":"present","response":"present","rt":909,"correct":true,"confidence":1},{"trial_n":103,"min":87,"max":168,"target":"present","response":"absent","rt":1279.0000000001,"correct":false,"confidence":1},{"trial_n":104,"min":85,"max":170,"target":"present","response":"present","rt":706,"correct":true,"confidence":1},{"trial_n":105,"min":85,"max":170,"target":"present","response":"absent","rt":1316,"correct":false,"confidence":1},{"trial_n":106,"min":83,"max":172,"target":"absent","response":"present","rt":867,"correct":false,"confidence":1},{"trial_n":107,"min":81,"max":174,"target":"absent","response":"absent","rt":777.99999999994,"correct":true,"confidence":1},{"trial_n":108,"min":81,"max":174,"target":"absent","response":"present","rt":984.00000000006,"correct":false,"confidence":1},{"trial_n":109,"min":79,"max":176,"target":"absent","response":"absent","rt":1394,"correct":true,"confidence":1},{"trial_n":110,"min":79,"max":176,"target":"absent","response":"absent","rt":783,"correct":true,"confidence":4},{"trial_n":111,"min":80,"max":175,"target":"present","response":"present","rt":851,"correct":true,"confidence":1},{"trial_n":112,"min":80,"max":175,"target":"absent","response":"absent","rt":804,"correct":true,"confidence":3},{"trial_n":113,"min":81,"max":174,"target":"present","response":"present","rt":814,"correct":true,"confidence":3},{"trial_n":114,"min":81,"max":174,"target":"present","response":"present","rt":717,"correct":true,"confidence":2},{"trial_n":115,"min":82,"max":173,"target":"absent","response":"present","rt":810,"correct":false,"confidence":2},{"trial_n":116,"min":81,"max":174,"target":"absent","response":"absent","rt":888,"correct":true,"confidence":1},{"trial_n":117,"min":81,"max":174,"target":"absent","response":"absent","rt":947.00000000006,"correct":true,"confidence":1},{"trial_n":118,"min":82,"max":173,"target":"present","response":"present","rt":759.99999999994,"correct":true,"confidence":2},{"trial_n":119,"min":82,"max":173,"target":"present","response":"absent","rt":1215,"correct":false,"confidence":1},{"trial_n":120,"min":81,"max":174,"target":"present","response":"present","rt":748,"correct":true,"confidence":2},{"trial_n":121,"min":81,"max":174,"target":"absent","response":"absent","rt":1711,"correct":true,"confidence":2},{"trial_n":122,"min":82,"max":173,"target":"absent","response":"absent","rt":1253.9999999999,"correct":true,"confidence":1},{"trial_n":123,"min":82,"max":173,"target":"present","response":"present","rt":879,"correct":true,"confidence":2},{"trial_n":124,"min":83,"max":172,"target":"absent","response":"present","rt":1018,"correct":false,"confidence":2},{"trial_n":125,"min":82,"max":173,"target":"absent","response":"absent","rt":1547,"correct":true,"confidence":1},{"trial_n":126,"min":82,"max":173,"target":"absent","response":"present","rt":934,"correct":false,"confidence":1},{"trial_n":127,"min":81,"max":174,"target":"absent","response":"absent","rt":998.00000000006,"correct":true,"confidence":1},{"trial_n":128,"min":81,"max":174,"target":"present","response":"present","rt":739.00000000006,"correct":true,"confidence":3},{"trial_n":129,"min":82,"max":173,"target":"absent","response":"present","rt":1232,"correct":false,"confidence":3},{"trial_n":130,"min":81,"max":174,"target":"absent","response":"present","rt":774,"correct":false,"confidence":1},{"trial_n":131,"min":80,"max":175,"target":"absent","response":"present","rt":861.99999999994,"correct":false,"confidence":1},{"trial_n":132,"min":79,"max":176,"target":"present","response":"absent","rt":685,"correct":false,"confidence":1},{"trial_n":133,"min":78,"max":177,"target":"absent","response":"present","rt":821,"correct":false,"confidence":1},{"trial_n":134,"min":77,"max":178,"target":"absent","response":"absent","rt":1656,"correct":true,"confidence":1},{"trial_n":135,"min":77,"max":178,"target":"present","response":"present","rt":2082,"correct":true,"confidence":1},{"trial_n":136,"min":78,"max":177,"target":"present","response":"absent","rt":835,"correct":false,"confidence":3},{"trial_n":137,"min":77,"max":178,"target":"present","response":"present","rt":790,"correct":true,"confidence":4},{"trial_n":138,"min":77,"max":178,"target":"absent","response":"absent","rt":799.00000000006,"correct":true,"confidence":4},{"trial_n":139,"min":78,"max":177,"target":"absent","response":"absent","rt":1044,"correct":true,"confidence":1},{"trial_n":140,"min":78,"max":177,"target":"present","response":"present","rt":712,"correct":true,"confidence":4}]