[{"trial_n":1,"n_dots":4.25,"target":"right","response":"right","rt":2556.7000000179,"correct":true,"confidence":-1},{"trial_n":2,"n_dots":4.25,"target":"right","response":"left","rt":3601.400000006,"correct":false,"confidence":-1},{"trial_n":3,"n_dots":4.65,"target":"right","response":"right","rt":1403.1999999881,"correct":true,"confidence":-1},{"trial_n":4,"n_dots":4.65,"target":"right","response":"right","rt":729.30000001192,"correct":true,"confidence":-1},{"trial_n":5,"n_dots":4.25,"target":"left","response":"left","rt":578.90000000596,"correct":true,"confidence":-1},{"trial_n":6,"n_dots":4.25,"target":"right","response":"right","rt":1009.1000000238,"correct":true,"confidence":-1},{"trial_n":7,"n_dots":3.85,"target":"left","response":"left","rt":449.90000000596,"correct":true,"confidence":-1},{"trial_n":8,"n_dots":3.85,"target":"right","response":"right","rt":367.09999999404,"correct":true,"confidence":-1},{"trial_n":9,"n_dots":3.65,"target":"left","response":"left","rt":305.5,"correct":true,"confidence":-1},{"trial_n":10,"n_dots":3.65,"target":"right","response":"right","rt":379.10000002384,"correct":true,"confidence":-1},{"trial_n":11,"n_dots":3.45,"target":"left","response":"left","rt":303.40000000596,"correct":true,"confidence":-1},{"trial_n":12,"n_dots":3.45,"target":"left","response":"left","rt":319.10000002384,"correct":true,"confidence":-1},{"trial_n":13,"n_dots":3.35,"target":"left","response":"left","rt":326.90000000596,"correct":true,"confidence":-1},{"trial_n":14,"n_dots":3.35,"target":"right","response":"right","rt":426.5,"correct":true,"confidence":-1},{"trial_n":15,"n_dots":3.25,"target":"left","response":"right","rt":1347.900000006,"correct":false,"confidence":-1},{"trial_n":16,"n_dots":3.35,"target":"right","response":"right","rt":452.20000001788,"correct":true,"confidence":-1},{"trial_n":17,"n_dots":3.35,"target":"right","response":"right","rt":406.69999998808,"correct":true,"confidence":-1},{"trial_n":18,"n_dots":3.25,"target":"left","response":"left","rt":827.5,"correct":true,"confidence":-1},{"trial_n":19,"n_dots":3.25,"target":"right","response":"right","rt":102.60000002384,"correct":true,"confidence":-1},{"trial_n":20,"n_dots":3.15,"target":"left","response":"left","rt":334.90000000596,"correct":true,"confidence":-1},{"trial_n":21,"n_dots":3.15,"target":"left","response":"left","rt":413.69999998808,"correct":true,"confidence":3},{"trial_n":22,"n_dots":3.05,"target":"left","response":"right","rt":1599.1999999881,"correct":false,"confidence":2},{"trial_n":23,"n_dots":3.15,"target":"right","response":"right","rt":847.39999997616,"correct":true,"confidence":3},{"trial_n":24,"n_dots":3.15,"target":"left","response":"left","rt":1614.900000006,"correct":true,"confidence":2},{"trial_n":25,"n_dots":3.05,"target":"right","response":"left","rt":2049.5,"correct":false,"confidence":2},{"trial_n":26,"n_dots":3.15,"target":"left","response":"right","rt":1147.3000000119,"correct":false,"confidence":2},{"trial_n":27,"n_dots":3.25,"target":"right","response":"right","rt":965.69999998808,"correct":true,"confidence":3},{"trial_n":28,"n_dots":3.25,"target":"right","response":"right","rt":1040.3000000119,"correct":true,"confidence":3},{"trial_n":29,"n_dots":3.15,"target":"right","response":"right","rt":1068.900000006,"correct":true,"confidence":3},{"trial_n":30,"n_dots":3.15,"target":"left","response":"right","rt":845.89999997616,"correct":false,"confidence":3},{"trial_n":31,"n_dots":3.25,"target":"left","response":"left","rt":628.70000001788,"correct":true,"confidence":3},{"trial_n":32,"n_dots":3.25,"target":"left","response":"left","rt":765,"correct":true,"confidence":3},{"trial_n":33,"n_dots":3.15,"target":"left","response":"left","rt":590.5,"correct":true,"confidence":3},{"trial_n":34,"n_dots":3.15,"target":"left","response":"left","rt":635.90000000596,"correct":true,"confidence":3},{"trial_n":35,"n_dots":3.05,"target":"right","response":"left","rt":902,"correct":false,"confidence":3},{"trial_n":36,"n_dots":3.15,"target":"right","response":"right","rt":468.59999999404,"correct":true,"confidence":3},{"trial_n":37,"n_dots":3.15,"target":"left","response":"left","rt":644.90000000596,"correct":true,"confidence":4},{"trial_n":38,"n_dots":3.05,"target":"left","response":"left","rt":443.19999998808,"correct":true,"confidence":3},{"trial_n":39,"n_dots":3.05,"target":"left","response":"right","rt":1177.099999994,"correct":false,"confidence":3},{"trial_n":40,"n_dots":3.15,"target":"left","response":"left","rt":636.19999998808,"correct":true,"confidence":3},{"trial_n":41,"n_dots":3.15,"target":"left","response":"left","rt":506.19999998808,"correct":true,"confidence":3},{"trial_n":42,"n_dots":3.05,"target":"right","response":"right","rt":445.20000001788,"correct":true,"confidence":3},{"trial_n":43,"n_dots":3.05,"target":"right","response":"right","rt":455,"correct":true,"confidence":3},{"trial_n":44,"n_dots":2.95,"target":"left","response":"left","rt":538.09999999404,"correct":true,"confidence":2},{"trial_n":45,"n_dots":2.95,"target":"left","response":"left","rt":535.5,"correct":true,"confidence":4},{"trial_n":46,"n_dots":2.85,"target":"right","response":"right","rt":1149,"correct":true,"confidence":2},{"trial_n":47,"n_dots":2.85,"target":"right","response":"right","rt":493.80000001192,"correct":true,"confidence":3},{"trial_n":48,"n_dots":2.75,"target":"left","response":"left","rt":737.79999998212,"correct":true,"confidence":3},{"trial_n":49,"n_dots":2.75,"target":"right","response":"left","rt":618.69999998808,"correct":false,"confidence":2},{"trial_n":50,"n_dots":2.85,"target":"left","response":"left","rt":5425.900000006,"correct":true,"confidence":3},{"trial_n":51,"n_dots":2.85,"target":"left","response":"right","rt":579,"correct":false,"confidence":2},{"trial_n":52,"n_dots":2.95,"target":"right","response":"right","rt":495.40000000596,"correct":true,"confidence":3},{"trial_n":53,"n_dots":2.95,"target":"right","response":"left","rt":784.20000001788,"correct":false,"confidence":3},{"trial_n":54,"n_dots":3.05,"target":"right","response":"left","rt":564.90000000596,"correct":false,"confidence":3},{"trial_n":55,"n_dots":3.15,"target":"left","response":"left","rt":455.79999998212,"correct":true,"confidence":3},{"trial_n":56,"n_dots":3.15,"target":"right","response":"left","rt":787.39999997616,"correct":false,"confidence":3},{"trial_n":57,"n_dots":3.25,"target":"left","response":"left","rt":394.59999999404,"correct":true,"confidence":3},{"trial_n":58,"n_dots":3.25,"target":"right","response":"left","rt":1051.8000000119,"correct":false,"confidence":3},{"trial_n":59,"n_dots":3.35,"target":"right","response":"right","rt":502.5,"correct":true,"confidence":4},{"trial_n":60,"n_dots":3.35,"target":"right","response":"right","rt":455.40000000596,"correct":true,"confidence":4},{"trial_n":61,"n_dots":3.25,"target":"right","response":"right","rt":741.5,"correct":true,"confidence":3},{"trial_n":62,"n_dots":3.25,"target":"left","response":"left","rt":725.80000001192,"correct":true,"confidence":3},{"trial_n":63,"n_dots":3.15,"target":"right","response":"right","rt":601.70000001788,"correct":true,"confidence":2},{"trial_n":64,"n_dots":3.15,"target":"left","response":"left","rt":600.09999999404,"correct":true,"confidence":3},{"trial_n":65,"n_dots":3.05,"target":"left","response":"left","rt":899.09999999404,"correct":true,"confidence":3},{"trial_n":66,"n_dots":3.05,"target":"left","response":"left","rt":737.29999998212,"correct":true,"confidence":3},{"trial_n":67,"n_dots":2.95,"target":"left","response":"left","rt":1571.400000006,"correct":true,"confidence":3},{"trial_n":68,"n_dots":2.95,"target":"left","response":"left","rt":705.59999999404,"correct":true,"confidence":3},{"trial_n":69,"n_dots":2.85,"target":"right","response":"left","rt":911.70000001788,"correct":false,"confidence":3},{"trial_n":70,"n_dots":2.95,"target":"right","response":"right","rt":678.19999998808,"correct":true,"confidence":3},{"trial_n":71,"n_dots":2.95,"target":"right","response":"left","rt":2448.5,"correct":false,"confidence":2},{"trial_n":72,"n_dots":3.05,"target":"right","response":"right","rt":1546.599999994,"correct":true,"confidence":2},{"trial_n":73,"n_dots":3.05,"target":"left","response":"left","rt":516.59999999404,"correct":true,"confidence":3},{"trial_n":74,"n_dots":2.95,"target":"left","response":"left","rt":523.30000001192,"correct":true,"confidence":3},{"trial_n":75,"n_dots":2.95,"target":"left","response":"left","rt":389.09999999404,"correct":true,"confidence":3},{"trial_n":76,"n_dots":2.85,"target":"left","response":"left","rt":510.19999998808,"correct":true,"confidence":3},{"trial_n":77,"n_dots":2.85,"target":"left","response":"left","rt":621.5,"correct":true,"confidence":3},{"trial_n":78,"n_dots":2.75,"target":"right","response":"left","rt":412.29999998212,"correct":false,"confidence":3},{"trial_n":79,"n_dots":2.85,"target":"right","response":"right","rt":792,"correct":true,"confidence":2},{"trial_n":80,"n_dots":2.85,"target":"right","response":"left","rt":579,"correct":false,"confidence":3},{"trial_n":81,"n_dots":2.95,"target":"left","response":"right","rt":965.90000000596,"correct":false,"confidence":3},{"trial_n":82,"n_dots":3.05,"target":"left","response":"left","rt":530.40000000596,"correct":true,"confidence":3},{"trial_n":83,"n_dots":3.05,"target":"right","response":"right","rt":590.5,"correct":true,"confidence":3},{"trial_n":84,"n_dots":2.95,"target":"left","response":"left","rt":843.80000001192,"correct":true,"confidence":3},{"trial_n":85,"n_dots":2.95,"target":"left","response":"left","rt":626.69999998808,"correct":true,"confidence":3},{"trial_n":86,"n_dots":2.85,"target":"left","response":"left","rt":610.20000001788,"correct":true,"confidence":3},{"trial_n":87,"n_dots":2.85,"target":"right","response":"left","rt":408.19999998808,"correct":false,"confidence":3},{"trial_n":88,"n_dots":2.95,"target":"right","response":"right","rt":626.09999999404,"correct":true,"confidence":3},{"trial_n":89,"n_dots":2.95,"target":"left","response":"left","rt":909.79999998212,"correct":true,"confidence":3},{"trial_n":90,"n_dots":2.85,"target":"right","response":"left","rt":503.69999998808,"correct":false,"confidence":3},{"trial_n":91,"n_dots":2.95,"target":"right","response":"right","rt":645.69999998808,"correct":true,"confidence":3},{"trial_n":92,"n_dots":2.95,"target":"right","response":"right","rt":419.90000000596,"correct":true,"confidence":3},{"trial_n":93,"n_dots":2.85,"target":"right","response":"left","rt":1155.7999999821,"correct":false,"confidence":3},{"trial_n":94,"n_dots":2.95,"target":"left","response":"left","rt":1535.8000000119,"correct":true,"confidence":3},{"trial_n":95,"n_dots":2.95,"target":"left","response":"right","rt":829.40000000596,"correct":false,"confidence":3},{"trial_n":96,"n_dots":3.05,"target":"right","response":"right","rt":858.5,"correct":true,"confidence":3},{"trial_n":97,"n_dots":3.05,"target":"right","response":"left","rt":1014.7999999821,"correct":false,"confidence":2},{"trial_n":98,"n_dots":3.15,"target":"left","response":"left","rt":755,"correct":true,"confidence":2},{"trial_n":99,"n_dots":3.15,"target":"left","response":"left","rt":700.09999999404,"correct":true,"confidence":3},{"trial_n":100,"n_dots":3.05,"target":"right","response":"right","rt":640.69999998808,"correct":true,"confidence":3},{"trial_n":101,"n_dots":3.05,"target":"right","response":"right","rt":813.69999998808,"correct":true,"confidence":4},{"trial_n":102,"n_dots":2.95,"target":"left","response":"right","rt":3142.1999999881,"correct":false,"confidence":2},{"trial_n":103,"n_dots":3.05,"target":"left","response":"left","rt":530.59999999404,"correct":true,"confidence":2},{"trial_n":104,"n_dots":3.05,"target":"left","response":"left","rt":888.80000001192,"correct":true,"confidence":2},{"trial_n":105,"n_dots":2.95,"target":"left","response":"right","rt":1047.599999994,"correct":false,"confidence":3},{"trial_n":106,"n_dots":3.05,"target":"left","response":"right","rt":770.30000001192,"correct":false,"confidence":3},{"trial_n":107,"n_dots":3.15,"target":"left","response":"left","rt":437.20000001788,"correct":true,"confidence":4},{"trial_n":108,"n_dots":3.15,"target":"right","response":"right","rt":523.39999997616,"correct":true,"confidence":3},{"trial_n":109,"n_dots":3.05,"target":"left","response":"left","rt":787.09999999404,"correct":true,"confidence":2},{"trial_n":110,"n_dots":3.05,"target":"left","response":"left","rt":473.90000000596,"correct":true,"confidence":3},{"trial_n":111,"n_dots":2.95,"target":"left","response":"left","rt":591.69999998808,"correct":true,"confidence":3},{"trial_n":112,"n_dots":2.95,"target":"right","response":"right","rt":637,"correct":true,"confidence":3},{"trial_n":113,"n_dots":2.85,"target":"right","response":"left","rt":479.79999998212,"correct":false,"confidence":3},{"trial_n":114,"n_dots":2.95,"target":"right","response":"left","rt":371.19999998808,"correct":false,"confidence":3},{"trial_n":115,"n_dots":3.05,"target":"right","response":"right","rt":455.30000001192,"correct":true,"confidence":3},{"trial_n":116,"n_dots":3.05,"target":"right","response":"left","rt":1207.5,"correct":false,"confidence":3},{"trial_n":117,"n_dots":3.15,"target":"right","response":"left","rt":654.20000001788,"correct":false,"confidence":2},{"trial_n":118,"n_dots":3.25,"target":"right","response":"right","rt":622.40000000596,"correct":true,"confidence":2},{"trial_n":119,"n_dots":3.25,"target":"right","response":"right","rt":969.30000001192,"correct":true,"confidence":3},{"trial_n":120,"n_dots":3.15,"target":"right","response":"left","rt":743.30000001192,"correct":false,"confidence":3}]