[{"trial_n":1,"span":8,"encoder":"95717623","distractor":"75717623","target":"present","response":"present","rt":"4626","correct":true,"confidence":-1},{"trial_n":2,"span":8,"encoder":"43118294","distractor":"43118274","target":"present","response":"present","rt":"3620.2000000179","correct":true,"confidence":-1},{"trial_n":3,"span":10,"encoder":"2828360947","distractor":"2828360977","target":"absent","response":"absent","rt":"2602.8000000119","correct":true,"confidence":-1},{"trial_n":4,"span":10,"encoder":"7415485880","distractor":"7415485780","target":"absent","response":"absent","rt":"4597.599999994","correct":true,"confidence":-1},{"trial_n":5,"span":12,"encoder":"724472253893","distractor":"724472258893","target":"present","response":"present","rt":"2700.2999999821","correct":true,"confidence":-1},{"trial_n":6,"span":12,"encoder":"645786968156","distractor":"645786961156","target":"present","response":"present","rt":"3656.3999999762","correct":true,"confidence":-1},{"trial_n":7,"span":14,"encoder":"72912529935701","distractor":"72912529935706","target":"absent","response":"present","rt":"2017.5","correct":false,"confidence":-1},{"trial_n":8,"span":12,"encoder":"131987322816","distractor":"131987392816","target":"absent","response":"absent","rt":"3004.2000000179","correct":true,"confidence":-1},{"trial_n":9,"span":12,"encoder":"308401873997","distractor":"308401873977","target":"absent","response":"absent","rt":"2475.099999994","correct":true,"confidence":-1},{"trial_n":10,"span":14,"encoder":"21845441048315","distractor":"21845441068315","target":"absent","response":"present","rt":"2828.8000000119","correct":false,"confidence":-1},{"trial_n":11,"span":12,"encoder":"750528828314","distractor":"750528028314","target":"present","response":"absent","rt":"2293.3000000119","correct":false,"confidence":-1},{"trial_n":12,"span":11,"encoder":"01477708278","distractor":"01477708078","target":"present","response":"absent","rt":"2812.6999999881","correct":false,"confidence":-1},{"trial_n":13,"span":10,"encoder":"0450445561","distractor":"0250445561","target":"present","response":"present","rt":"1616.5","correct":true,"confidence":-1},{"trial_n":14,"span":10,"encoder":"6072051469","distractor":"6072051429","target":"absent","response":"present","rt":"1851.7000000179","correct":false,"confidence":-1},{"trial_n":15,"span":9,"encoder":"356568601","distractor":"306568601","target":"present","response":"present","rt":"3334.599999994","correct":true,"confidence":-1},{"trial_n":16,"span":9,"encoder":"409558957","distractor":"409858957","target":"absent","response":"present","rt":"2625.599999994","correct":false,"confidence":-1},{"trial_n":17,"span":8,"encoder":"70445357","distractor":"75445357","target":"present","response":"present","rt":"4203.8000000119","correct":true,"confidence":-1},{"trial_n":18,"span":8,"encoder":"45183382","distractor":"45183386","target":"present","response":"present","rt":"2221.099999994","correct":true,"confidence":-1},{"trial_n":19,"span":9,"encoder":"559190030","distractor":"559190036","target":"absent","response":"present","rt":"1850.5","correct":false,"confidence":-1},{"trial_n":20,"span":8,"encoder":"96771140","distractor":"56771140","target":"absent","response":"present","rt":"2739.2999999821","correct":false,"confidence":-1},{"trial_n":21,"span":7,"encoder":"2020968","distractor":"2021968","target":"present","response":"present","rt":"1341.1999999881","correct":true,"confidence":4},{"trial_n":22,"span":7,"encoder":"1695026","distractor":"2695026","target":"absent","response":"present","rt":"2558.099999994","correct":false,"confidence":4},{"trial_n":23,"span":6,"encoder":"744263","distractor":"344263","target":"present","response":"present","rt":"4339.8000000119","correct":true,"confidence":3},{"trial_n":24,"span":6,"encoder":"731004","distractor":"731024","target":"present","response":"present","rt":"3505","correct":true,"confidence":5},{"trial_n":25,"span":7,"encoder":"1905779","distractor":"1305779","target":"absent","response":"absent","rt":"5833.7000000179","correct":true,"confidence":3},{"trial_n":26,"span":7,"encoder":"9712070","distractor":"9715070","target":"present","response":"absent","rt":"4416.099999994","correct":false,"confidence":3},{"trial_n":27,"span":6,"encoder":"890996","distractor":"894996","target":"absent","response":"present","rt":"7148.6000000238","correct":false,"confidence":3},{"trial_n":28,"span":5,"encoder":"01742","distractor":"01748","target":"absent","response":"absent","rt":"3128","correct":true,"confidence":4},{"trial_n":29,"span":5,"encoder":"92714","distractor":"92214","target":"present","response":"present","rt":"2257","correct":true,"confidence":3},{"trial_n":30,"span":6,"encoder":"309436","distractor":"309426","target":"present","response":"absent","rt":"4286","correct":false,"confidence":3},{"trial_n":31,"span":5,"encoder":"69759","distractor":"69779","target":"present","response":"present","rt":"2673.6999999881","correct":true,"confidence":3},{"trial_n":32,"span":5,"encoder":"92366","distractor":"95366","target":"absent","response":"absent","rt":"3806.6000000238","correct":true,"confidence":4},{"trial_n":33,"span":6,"encoder":"546379","distractor":"526379","target":"present","response":"present","rt":"6754.099999994","correct":true,"confidence":4},{"trial_n":34,"span":6,"encoder":"814003","distractor":"812003","target":"present","response":"present","rt":"2291.6999999881","correct":true,"confidence":5},{"trial_n":35,"span":7,"encoder":"8444963","distractor":"8444966","target":"absent","response":"absent","rt":"2817.6999999881","correct":true,"confidence":5},{"trial_n":36,"span":7,"encoder":"3803024","distractor":"3803029","target":"present","response":"present","rt":"5151.5","correct":true,"confidence":3},{"trial_n":37,"span":8,"encoder":"81131602","distractor":"81131692","target":"present","response":"present","rt":"5465.1999999881","correct":true,"confidence":4},{"trial_n":38,"span":8,"encoder":"75710487","distractor":"75710417","target":"absent","response":"present","rt":"5074.2999999821","correct":false,"confidence":3},{"trial_n":39,"span":7,"encoder":"0757363","distractor":"0751363","target":"present","response":"present","rt":"3458.099999994","correct":true,"confidence":3},{"trial_n":40,"span":7,"encoder":"6738534","distractor":"6738504","target":"present","response":"present","rt":"3203","correct":true,"confidence":4},{"trial_n":41,"span":8,"encoder":"72462502","distractor":"72462402","target":"absent","response":"absent","rt":"1844.5","correct":true,"confidence":5},{"trial_n":42,"span":8,"encoder":"20979534","distractor":"80979534","target":"absent","response":"present","rt":"5099.7000000179","correct":false,"confidence":3},{"trial_n":43,"span":7,"encoder":"0331538","distractor":"0381538","target":"absent","response":"absent","rt":"6503.5","correct":true,"confidence":4},{"trial_n":44,"span":7,"encoder":"6385925","distractor":"6385926","target":"absent","response":"absent","rt":"3924.400000006","correct":true,"confidence":3},{"trial_n":45,"span":8,"encoder":"85207368","distractor":"85207348","target":"present","response":"present","rt":"6159.2999999821","correct":true,"confidence":3},{"trial_n":46,"span":8,"encoder":"91285008","distractor":"91085008","target":"present","response":"present","rt":"3483","correct":true,"confidence":4},{"trial_n":47,"span":9,"encoder":"509233192","distractor":"509233292","target":"absent","response":"absent","rt":"5683.5","correct":true,"confidence":3},{"trial_n":48,"span":9,"encoder":"785335526","distractor":"765335526","target":"present","response":"present","rt":"8161.6000000238","correct":true,"confidence":3},{"trial_n":49,"span":10,"encoder":"7415503619","distractor":"7415103619","target":"absent","response":"present","rt":"5524.400000006","correct":false,"confidence":3},{"trial_n":50,"span":9,"encoder":"686158985","distractor":"686158975","target":"absent","response":"present","rt":"7497.7000000179","correct":false,"confidence":3},{"trial_n":51,"span":8,"encoder":"84925183","distractor":"84125183","target":"absent","response":"present","rt":"2347.7999999821","correct":false,"confidence":3},{"trial_n":52,"span":7,"encoder":"0937043","distractor":"0037043","target":"absent","response":"absent","rt":"2737.099999994","correct":true,"confidence":3},{"trial_n":53,"span":7,"encoder":"4855431","distractor":"4055431","target":"absent","response":"present","rt":"6983.2000000179","correct":false,"confidence":3},{"trial_n":54,"span":6,"encoder":"942124","distractor":"942174","target":"absent","response":"absent","rt":"3577","correct":true,"confidence":4},{"trial_n":55,"span":6,"encoder":"204699","distractor":"204499","target":"present","response":"present","rt":"3780.7000000179","correct":true,"confidence":3},{"trial_n":56,"span":7,"encoder":"7977029","distractor":"0977029","target":"present","response":"present","rt":"3605","correct":true,"confidence":3},{"trial_n":57,"span":7,"encoder":"5432817","distractor":"5412817","target":"absent","response":"absent","rt":"3726","correct":true,"confidence":4},{"trial_n":58,"span":8,"encoder":"16776303","distractor":"16756303","target":"present","response":"present","rt":"3172.6000000238","correct":true,"confidence":3},{"trial_n":59,"span":8,"encoder":"14798739","distractor":"14768739","target":"absent","response":"absent","rt":"3127.400000006","correct":true,"confidence":4},{"trial_n":60,"span":9,"encoder":"293661642","distractor":"293061642","target":"present","response":"present","rt":"5468.7999999821","correct":true,"confidence":3},{"trial_n":61,"span":9,"encoder":"912362697","distractor":"912368697","target":"present","response":"present","rt":"4414.8000000119","correct":true,"confidence":2},{"trial_n":62,"span":10,"encoder":"8250148297","distractor":"8250118297","target":"absent","response":"present","rt":"6975.900000006","correct":false,"confidence":2},{"trial_n":63,"span":9,"encoder":"986059317","distractor":"986059319","target":"present","response":"absent","rt":"5693.6999999881","correct":false,"confidence":4},{"trial_n":64,"span":8,"encoder":"15639983","distractor":"13639983","target":"absent","response":"present","rt":"3285","correct":false,"confidence":3},{"trial_n":65,"span":7,"encoder":"3844053","distractor":"3844953","target":"present","response":"present","rt":"5237.8000000119","correct":true,"confidence":3},{"trial_n":66,"span":7,"encoder":"3375577","distractor":"0375577","target":"present","response":"present","rt":"3637.5","correct":true,"confidence":3},{"trial_n":67,"span":8,"encoder":"46806452","distractor":"46800452","target":"absent","response":"present","rt":"3545.599999994","correct":false,"confidence":3},{"trial_n":68,"span":7,"encoder":"1343971","distractor":"1343931","target":"present","response":"present","rt":"4899.599999994","correct":true,"confidence":3},{"trial_n":69,"span":7,"encoder":"5534314","distractor":"6534314","target":"present","response":"present","rt":"4149.5","correct":true,"confidence":3},{"trial_n":70,"span":8,"encoder":"27178300","distractor":"27188300","target":"absent","response":"absent","rt":"3199.599999994","correct":true,"confidence":3},{"trial_n":71,"span":8,"encoder":"77748684","distractor":"77748683","target":"present","response":"present","rt":"6951.599999994","correct":true,"confidence":-1},{"trial_n":72,"span":8,"encoder":"31270087","distractor":"31274087","target":"present","response":"present","rt":"3449.400000006","correct":true,"confidence":-1},{"trial_n":73,"span":9,"encoder":"675853475","distractor":"075853475","target":"absent","response":"absent","rt":"4234.400000006","correct":true,"confidence":-1},{"trial_n":74,"span":9,"encoder":"761592724","distractor":"461592724","target":"absent","response":"present","rt":"632.90000000596","correct":false,"confidence":-1},{"trial_n":75,"span":8,"encoder":"00451552","distractor":"00431552","target":"present","response":"present","rt":"723.80000001192","correct":true,"confidence":-1},{"trial_n":76,"span":8,"encoder":"15035600","distractor":"15035609","target":"absent","response":"absent","rt":"1279.7000000179","correct":true,"confidence":-1},{"trial_n":77,"span":9,"encoder":"725443774","distractor":"724443774","target":"present","response":"present","rt":"5330.5","correct":true,"confidence":-1},{"trial_n":78,"span":9,"encoder":"827149118","distractor":"827149518","target":"present","response":"present","rt":"1926.1999999881","correct":true,"confidence":-1},{"trial_n":79,"span":10,"encoder":"1213333557","distractor":"1213333957","target":"present","response":"present","rt":"5026.400000006","correct":true,"confidence":-1},{"trial_n":80,"span":10,"encoder":"3877127300","distractor":"3877227300","target":"absent","response":"absent","rt":"3452.599999994","correct":true,"confidence":-1},{"trial_n":81,"span":11,"encoder":"91252031465","distractor":"91252051465","target":"present","response":"present","rt":"5025.099999994","correct":true,"confidence":-1},{"trial_n":82,"span":11,"encoder":"22834706328","distractor":"22834506328","target":"absent","response":"absent","rt":"6059.5","correct":true,"confidence":-1},{"trial_n":83,"span":12,"encoder":"802869509411","distractor":"802869409411","target":"absent","response":"present","rt":"755.60000002384","correct":false,"confidence":-1},{"trial_n":84,"span":11,"encoder":"32228838505","distractor":"32228838508","target":"present","response":"present","rt":"1592.5","correct":true,"confidence":-1},{"trial_n":85,"span":11,"encoder":"65326733755","distractor":"65326733735","target":"present","response":"present","rt":"2267","correct":true,"confidence":-1},{"trial_n":86,"span":12,"encoder":"719378576964","distractor":"719378506964","target":"absent","response":"absent","rt":"6578.400000006","correct":true,"confidence":-1},{"trial_n":87,"span":12,"encoder":"735297632785","distractor":"735297612785","target":"absent","response":"present","rt":"3062","correct":false,"confidence":-1},{"trial_n":88,"span":11,"encoder":"61783390602","distractor":"61789390602","target":"absent","response":"absent","rt":"2822.8999999762","correct":true,"confidence":-1},{"trial_n":89,"span":11,"encoder":"85692614891","distractor":"85695614891","target":"absent","response":"present","rt":"7671.400000006","correct":false,"confidence":-1},{"trial_n":90,"span":10,"encoder":"7825707509","distractor":"7825407509","target":"present","response":"absent","rt":"6261.900000006","correct":false,"confidence":-1},{"trial_n":91,"span":9,"encoder":"000938240","distractor":"020938240","target":"present","response":"present","rt":"3088.6999999881","correct":true,"confidence":5},{"trial_n":92,"span":9,"encoder":"191414054","distractor":"198414054","target":"present","response":"absent","rt":"4829.3000000119","correct":false,"confidence":4},{"trial_n":93,"span":8,"encoder":"43824083","distractor":"43224083","target":"present","response":"present","rt":"6941","correct":true,"confidence":3},{"trial_n":94,"span":8,"encoder":"76457627","distractor":"76457647","target":"present","response":"present","rt":"2240.7000000179","correct":true,"confidence":5},{"trial_n":95,"span":9,"encoder":"231533484","distractor":"231535484","target":"absent","response":"present","rt":"5287.5","correct":false,"confidence":2},{"trial_n":96,"span":8,"encoder":"23871547","distractor":"23891547","target":"absent","response":"absent","rt":"4740.099999994","correct":true,"confidence":3},{"trial_n":97,"span":8,"encoder":"96230714","distractor":"96230614","target":"present","response":"present","rt":"4518.900000006","correct":true,"confidence":3},{"trial_n":98,"span":9,"encoder":"483519470","distractor":"483518470","target":"present","response":"absent","rt":"6718.099999994","correct":false,"confidence":2},{"trial_n":99,"span":8,"encoder":"13286029","distractor":"13186029","target":"present","response":"absent","rt":"6450.400000006","correct":false,"confidence":2},{"trial_n":100,"span":7,"encoder":"0002727","distractor":"0001727","target":"absent","response":"present","rt":"8817.2000000179","correct":false,"confidence":3},{"trial_n":101,"span":6,"encoder":"242544","distractor":"244544","target":"absent","response":"absent","rt":"4187.8000000119","correct":true,"confidence":3},{"trial_n":102,"span":6,"encoder":"516889","distractor":"616889","target":"present","response":"present","rt":"3563.1000000238","correct":true,"confidence":4},{"trial_n":103,"span":7,"encoder":"9960666","distractor":"9970666","target":"present","response":"present","rt":"3701.3000000119","correct":true,"confidence":3},{"trial_n":104,"span":7,"encoder":"7917584","distractor":"7910584","target":"absent","response":"absent","rt":"4452.1000000238","correct":true,"confidence":3},{"trial_n":105,"span":8,"encoder":"82986231","distractor":"82986931","target":"absent","response":"absent","rt":"9888.1999999881","correct":true,"confidence":3},{"trial_n":106,"span":8,"encoder":"03414804","distractor":"73414804","target":"absent","response":"present","rt":"3555.099999994","correct":false,"confidence":3},{"trial_n":107,"span":7,"encoder":"2907017","distractor":"2904017","target":"absent","response":"absent","rt":"4987.7000000179","correct":true,"confidence":3},{"trial_n":108,"span":7,"encoder":"9905950","distractor":"9905954","target":"absent","response":"present","rt":"5288.7999999821","correct":false,"confidence":3},{"trial_n":109,"span":6,"encoder":"580707","distractor":"480707","target":"present","response":"present","rt":"3642.5","correct":true,"confidence":3},{"trial_n":110,"span":6,"encoder":"837779","distractor":"837379","target":"present","response":"present","rt":"3551.6000000238","correct":true,"confidence":5},{"trial_n":111,"span":7,"encoder":"4490253","distractor":"4492253","target":"present","response":"present","rt":"5244","correct":true,"confidence":3},{"trial_n":112,"span":7,"encoder":"4500465","distractor":"4560465","target":"present","response":"absent","rt":"3749.599999994","correct":false,"confidence":4},{"trial_n":113,"span":6,"encoder":"267528","distractor":"467528","target":"absent","response":"present","rt":"5122.5","correct":false,"confidence":2},{"trial_n":114,"span":5,"encoder":"22609","distractor":"22209","target":"present","response":"present","rt":"2725.400000006","correct":true,"confidence":5},{"trial_n":115,"span":5,"encoder":"61131","distractor":"61031","target":"absent","response":"present","rt":"4108.5","correct":false,"confidence":3},{"trial_n":116,"span":4,"encoder":"1381","distractor":"1391","target":"absent","response":"absent","rt":"1904.7999999821","correct":true,"confidence":4},{"trial_n":117,"span":4,"encoder":"6928","distractor":"6908","target":"present","response":"present","rt":"4899.6999999881","correct":true,"confidence":5},{"trial_n":118,"span":5,"encoder":"98082","distractor":"98092","target":"absent","response":"absent","rt":"2769.900000006","correct":true,"confidence":5},{"trial_n":119,"span":5,"encoder":"97074","distractor":"96074","target":"present","response":"present","rt":"3983.3000000119","correct":true,"confidence":4},{"trial_n":120,"span":6,"encoder":"041225","distractor":"041425","target":"absent","response":"present","rt":"6456.099999994","correct":false,"confidence":3},{"trial_n":121,"span":5,"encoder":"56876","distractor":"56776","target":"present","response":"present","rt":"3635.900000006","correct":true,"confidence":4},{"trial_n":122,"span":5,"encoder":"63118","distractor":"63112","target":"absent","response":"absent","rt":"1849.5","correct":true,"confidence":5},{"trial_n":123,"span":6,"encoder":"288565","distractor":"288665","target":"present","response":"present","rt":"3627.3999999762","correct":true,"confidence":4},{"trial_n":124,"span":6,"encoder":"561469","distractor":"571469","target":"present","response":"present","rt":"4165.5","correct":true,"confidence":3},{"trial_n":125,"span":7,"encoder":"7080447","distractor":"7080442","target":"present","response":"present","rt":"1662.2000000179","correct":true,"confidence":5},{"trial_n":126,"span":7,"encoder":"4835437","distractor":"4835477","target":"absent","response":"present","rt":"2870.3999999762","correct":false,"confidence":4},{"trial_n":127,"span":6,"encoder":"679393","distractor":"679353","target":"present","response":"present","rt":"7377.400000006","correct":true,"confidence":3},{"trial_n":128,"span":6,"encoder":"022487","distractor":"022477","target":"present","response":"present","rt":"3609.5","correct":true,"confidence":4},{"trial_n":129,"span":7,"encoder":"0941170","distractor":"0945170","target":"absent","response":"absent","rt":"2452","correct":true,"confidence":3},{"trial_n":130,"span":7,"encoder":"5688452","distractor":"5388452","target":"present","response":"present","rt":"2451.1999999881","correct":true,"confidence":5},{"trial_n":131,"span":8,"encoder":"54724593","distractor":"44724593","target":"absent","response":"absent","rt":"5184.599999994","correct":true,"confidence":2},{"trial_n":132,"span":8,"encoder":"51091254","distractor":"51091274","target":"absent","response":"absent","rt":"6279.400000006","correct":true,"confidence":3},{"trial_n":133,"span":9,"encoder":"339780650","distractor":"339788650","target":"present","response":"present","rt":"4739.900000006","correct":true,"confidence":3},{"trial_n":134,"span":9,"encoder":"054810659","distractor":"054910659","target":"present","response":"present","rt":"4021.900000006","correct":true,"confidence":4},{"trial_n":135,"span":10,"encoder":"2320779771","distractor":"2320279771","target":"present","response":"absent","rt":"8956.6999999881","correct":false,"confidence":3},{"trial_n":136,"span":9,"encoder":"059354121","distractor":"059354621","target":"absent","response":"present","rt":"7579","correct":false,"confidence":2},{"trial_n":137,"span":8,"encoder":"37425751","distractor":"37425761","target":"absent","response":"absent","rt":"6430.599999994","correct":true,"confidence":4},{"trial_n":138,"span":8,"encoder":"14756344","distractor":"14756644","target":"absent","response":"present","rt":"4293","correct":false,"confidence":3},{"trial_n":139,"span":7,"encoder":"5658178","distractor":"5608178","target":"absent","response":"absent","rt":"3906.099999994","correct":true,"confidence":3},{"trial_n":140,"span":7,"encoder":"5138691","distractor":"2138691","target":"absent","response":"absent","rt":"3156.8000000119","correct":true,"confidence":3}]