[{"trial_n":1,"span":8,"encoder":"80573425","distractor":"80575425","target":"present","response":"absent","rt":"9895.4000000004","correct":false,"confidence":-1},{"trial_n":2,"span":6,"encoder":"497878","distractor":"497578","target":"present","response":"present","rt":"3700.2999999998","correct":true,"confidence":-1},{"trial_n":3,"span":6,"encoder":"901382","distractor":"903382","target":"absent","response":"absent","rt":"6366.6000000001","correct":true,"confidence":-1},{"trial_n":4,"span":8,"encoder":"80480299","distractor":"80482299","target":"absent","response":"absent","rt":"6111.2000000002","correct":true,"confidence":-1},{"trial_n":5,"span":8,"encoder":"14500099","distractor":"14900099","target":"present","response":"present","rt":"8152.2000000002","correct":true,"confidence":-1},{"trial_n":6,"span":10,"encoder":"1901810611","distractor":"1901110611","target":"absent","response":"absent","rt":"5199.5999999996","correct":true,"confidence":-1},{"trial_n":7,"span":10,"encoder":"3494750716","distractor":"3414750716","target":"absent","response":"present","rt":"4040.1000000001","correct":false,"confidence":-1},{"trial_n":8,"span":8,"encoder":"97987848","distractor":"97087848","target":"present","response":"present","rt":"2361.8999999999","correct":true,"confidence":-1},{"trial_n":9,"span":8,"encoder":"42371148","distractor":"42671148","target":"absent","response":"present","rt":"8311.7000000002","correct":false,"confidence":-1},{"trial_n":10,"span":6,"encoder":"609850","distractor":"609857","target":"absent","response":"absent","rt":"30078.1","correct":true,"confidence":-1},{"trial_n":11,"span":6,"encoder":"996307","distractor":"996807","target":"absent","response":"absent","rt":"4594.3000000003","correct":true,"confidence":-1},{"trial_n":12,"span":7,"encoder":"4833321","distractor":"4833351","target":"absent","response":"absent","rt":"19639","correct":true,"confidence":-1},{"trial_n":13,"span":7,"encoder":"6514121","distractor":"6514151","target":"present","response":"absent","rt":"8184.7999999998","correct":false,"confidence":-1},{"trial_n":14,"span":6,"encoder":"523414","distractor":"523214","target":"present","response":"present","rt":"6217","correct":true,"confidence":-1},{"trial_n":15,"span":6,"encoder":"228205","distractor":"228201","target":"present","response":"present","rt":"11771.3","correct":true,"confidence":-1},{"trial_n":16,"span":7,"encoder":"4713152","distractor":"4113152","target":"absent","response":"absent","rt":"4513.6999999997","correct":true,"confidence":-1},{"trial_n":17,"span":7,"encoder":"8796392","distractor":"8796312","target":"present","response":"present","rt":"7541.1000000001","correct":true,"confidence":-1},{"trial_n":18,"span":8,"encoder":"34056933","distractor":"34054933","target":"present","response":"present","rt":"18954.9","correct":true,"confidence":-1},{"trial_n":19,"span":8,"encoder":"75484352","distractor":"75484552","target":"present","response":"present","rt":"8207","correct":true,"confidence":-1},{"trial_n":20,"span":9,"encoder":"472156220","distractor":"472156222","target":"present","response":"present","rt":"4778.6999999997","correct":true,"confidence":-1},{"trial_n":21,"span":9,"encoder":"574223360","distractor":"174223360","target":"present","response":"present","rt":"8968.2999999998","correct":true,"confidence":5},{"trial_n":22,"span":10,"encoder":"3367698070","distractor":"3367658070","target":"present","response":"present","rt":"8689.6000000001","correct":true,"confidence":3},{"trial_n":23,"span":10,"encoder":"8196415494","distractor":"8196465494","target":"present","response":"absent","rt":"9810","correct":false,"confidence":2},{"trial_n":24,"span":9,"encoder":"386458606","distractor":"381458606","target":"present","response":"present","rt":"7230.8000000003","correct":true,"confidence":4},{"trial_n":25,"span":9,"encoder":"120361916","distractor":"120361910","target":"absent","response":"absent","rt":"3775.2000000002","correct":true,"confidence":5},{"trial_n":26,"span":10,"encoder":"3705153261","distractor":"3705353261","target":"absent","response":"present","rt":"13785.4","correct":false,"confidence":3},{"trial_n":27,"span":9,"encoder":"346552287","distractor":"376552287","target":"absent","response":"present","rt":"10037","correct":false,"confidence":3},{"trial_n":28,"span":8,"encoder":"39779569","distractor":"39777569","target":"present","response":"absent","rt":"3861.3999999999","correct":false,"confidence":5},{"trial_n":29,"span":7,"encoder":"6579916","distractor":"6579116","target":"absent","response":"absent","rt":"9357.5","correct":true,"confidence":4},{"trial_n":30,"span":7,"encoder":"1772849","distractor":"1712849","target":"absent","response":"absent","rt":"5904.7999999998","correct":true,"confidence":5},{"trial_n":31,"span":8,"encoder":"65724949","distractor":"65784949","target":"present","response":"absent","rt":"9040.6000000001","correct":false,"confidence":3},{"trial_n":32,"span":7,"encoder":"9699292","distractor":"9699272","target":"absent","response":"absent","rt":"3131.8000000003","correct":true,"confidence":2},{"trial_n":33,"span":7,"encoder":"0873863","distractor":"0173863","target":"absent","response":"absent","rt":"8647.2000000002","correct":true,"confidence":3},{"trial_n":34,"span":8,"encoder":"54454765","distractor":"84454765","target":"present","response":"absent","rt":"10235.9","correct":false,"confidence":3},{"trial_n":35,"span":7,"encoder":"7051870","distractor":"7051874","target":"present","response":"present","rt":"7145.3000000003","correct":true,"confidence":5},{"trial_n":36,"span":7,"encoder":"6612755","distractor":"6612455","target":"absent","response":"absent","rt":"7083.8999999999","correct":true,"confidence":5},{"trial_n":37,"span":8,"encoder":"14528253","distractor":"14528213","target":"present","response":"present","rt":"6141.8999999999","correct":true,"confidence":3},{"trial_n":38,"span":8,"encoder":"26168894","distractor":"26168094","target":"present","response":"present","rt":"6857.8999999999","correct":true,"confidence":4},{"trial_n":39,"span":9,"encoder":"742528139","distractor":"742527139","target":"absent","response":"absent","rt":"5477.3999999999","correct":true,"confidence":5},{"trial_n":40,"span":9,"encoder":"296363317","distractor":"396363317","target":"present","response":"present","rt":"6051.1000000001","correct":true,"confidence":1},{"trial_n":41,"span":10,"encoder":"0577094975","distractor":"0577091975","target":"absent","response":"absent","rt":"7761.7999999998","correct":true,"confidence":3},{"trial_n":42,"span":10,"encoder":"9183031562","distractor":"9483031562","target":"absent","response":"absent","rt":"13148.4","correct":true,"confidence":2},{"trial_n":43,"span":11,"encoder":"14246885192","distractor":"14346885192","target":"present","response":"present","rt":"6670.3999999999","correct":true,"confidence":2},{"trial_n":44,"span":11,"encoder":"33785999583","distractor":"33785999513","target":"present","response":"present","rt":"5073.3000000003","correct":true,"confidence":2},{"trial_n":45,"span":12,"encoder":"335201434193","distractor":"335201434196","target":"present","response":"present","rt":"5759","correct":true,"confidence":3},{"trial_n":46,"span":12,"encoder":"692257102708","distractor":"692257102808","target":"present","response":"absent","rt":"5715.2999999998","correct":false,"confidence":3},{"trial_n":47,"span":11,"encoder":"71269161870","distractor":"71269161878","target":"present","response":"present","rt":"5702.5","correct":true,"confidence":2},{"trial_n":48,"span":11,"encoder":"94988055846","distractor":"94588055846","target":"absent","response":"absent","rt":"5660","correct":true,"confidence":1},{"trial_n":49,"span":12,"encoder":"083767507669","distractor":"087767507669","target":"absent","response":"absent","rt":"6817.3999999999","correct":true,"confidence":4},{"trial_n":50,"span":12,"encoder":"167778705631","distractor":"167978705631","target":"absent","response":"absent","rt":"4631.6000000001","correct":true,"confidence":5},{"trial_n":51,"span":13,"encoder":"3352196861602","distractor":"3352196861609","target":"present","response":"present","rt":"5622.5999999996","correct":true,"confidence":2},{"trial_n":52,"span":13,"encoder":"0487503771852","distractor":"0487403771852","target":"absent","response":"absent","rt":"3440.6999999997","correct":true,"confidence":5},{"trial_n":53,"span":14,"encoder":"02494035375542","distractor":"02494035575542","target":"absent","response":"present","rt":"6849.2000000002","correct":false,"confidence":2},{"trial_n":54,"span":13,"encoder":"4526341068909","distractor":"4226341068909","target":"present","response":"absent","rt":"5276.1000000001","correct":false,"confidence":3},{"trial_n":55,"span":12,"encoder":"827579489226","distractor":"827879489226","target":"absent","response":"absent","rt":"5195.3000000003","correct":true,"confidence":4},{"trial_n":56,"span":12,"encoder":"487762115240","distractor":"587762115240","target":"absent","response":"absent","rt":"12426.3","correct":true,"confidence":3},{"trial_n":57,"span":13,"encoder":"7365551413430","distractor":"1365551413430","target":"present","response":"present","rt":"4427","correct":true,"confidence":3},{"trial_n":58,"span":13,"encoder":"3007069600701","distractor":"3407069600701","target":"present","response":"present","rt":"7052.8999999999","correct":true,"confidence":2},{"trial_n":59,"span":14,"encoder":"18211833174989","distractor":"18211803174989","target":"present","response":"present","rt":"10100.6","correct":true,"confidence":2},{"trial_n":60,"span":14,"encoder":"38425755689545","distractor":"38425755689345","target":"present","response":"present","rt":"6174.6000000001","correct":true,"confidence":1},{"trial_n":61,"span":15,"encoder":"092198152378487","distractor":"092198142378487","target":"absent","response":"present","rt":"6521.7999999998","correct":false,"confidence":2},{"trial_n":62,"span":14,"encoder":"85680632898992","distractor":"85680652898992","target":"absent","response":"present","rt":"6219.5","correct":false,"confidence":1},{"trial_n":63,"span":13,"encoder":"6767329817028","distractor":"6767729817028","target":"present","response":"absent","rt":"6671.1999999997","correct":false,"confidence":3},{"trial_n":64,"span":12,"encoder":"557466163509","distractor":"557466063509","target":"absent","response":"present","rt":"6850.9000000004","correct":false,"confidence":2},{"trial_n":65,"span":11,"encoder":"39902980255","distractor":"39902980250","target":"present","response":"present","rt":"6442.2999999998","correct":true,"confidence":2},{"trial_n":66,"span":11,"encoder":"66875994677","distractor":"66875994617","target":"present","response":"present","rt":"6490.6999999997","correct":true,"confidence":2},{"trial_n":67,"span":12,"encoder":"171810711534","distractor":"171818711534","target":"absent","response":"present","rt":"5587.2000000002","correct":false,"confidence":2},{"trial_n":68,"span":11,"encoder":"08230526566","distractor":"08230526568","target":"absent","response":"absent","rt":"4780.7000000002","correct":true,"confidence":5},{"trial_n":69,"span":11,"encoder":"38359161115","distractor":"98359161115","target":"absent","response":"absent","rt":"5833.6999999997","correct":true,"confidence":1},{"trial_n":70,"span":12,"encoder":"361167727498","distractor":"361187727498","target":"absent","response":"present","rt":"5927.6000000001","correct":false,"confidence":2},{"trial_n":71,"span":8,"encoder":"22331530","distractor":"22331130","target":"present","response":"present","rt":"7166","correct":true,"confidence":-1},{"trial_n":72,"span":8,"encoder":"10055596","distractor":"10055593","target":"present","response":"present","rt":"6054","correct":true,"confidence":-1},{"trial_n":73,"span":9,"encoder":"243008818","distractor":"743008818","target":"absent","response":"absent","rt":"4593.5","correct":true,"confidence":-1},{"trial_n":74,"span":9,"encoder":"938513121","distractor":"908513121","target":"absent","response":"absent","rt":"12524.2","correct":true,"confidence":-1},{"trial_n":75,"span":10,"encoder":"9781432923","distractor":"9781432993","target":"present","response":"present","rt":"4450.8000000003","correct":true,"confidence":-1},{"trial_n":76,"span":10,"encoder":"5400950804","distractor":"5400850804","target":"absent","response":"absent","rt":"6502.3999999999","correct":true,"confidence":-1},{"trial_n":77,"span":11,"encoder":"66447584459","distractor":"66447584499","target":"absent","response":"present","rt":"16652.2","correct":false,"confidence":-1},{"trial_n":78,"span":10,"encoder":"1830641474","distractor":"1830341474","target":"absent","response":"absent","rt":"6655.9000000004","correct":true,"confidence":-1},{"trial_n":79,"span":10,"encoder":"2456310675","distractor":"2406310675","target":"present","response":"absent","rt":"6467.9000000004","correct":false,"confidence":-1},{"trial_n":80,"span":9,"encoder":"583941932","distractor":"583941632","target":"absent","response":"absent","rt":"3833.5999999996","correct":true,"confidence":-1},{"trial_n":81,"span":9,"encoder":"948269101","distractor":"948269109","target":"present","response":"present","rt":"3411.1000000006","correct":true,"confidence":-1},{"trial_n":82,"span":10,"encoder":"1198640442","distractor":"1198620442","target":"present","response":"present","rt":"8849.3999999994","correct":true,"confidence":-1},{"trial_n":83,"span":10,"encoder":"4210202586","distractor":"4210202583","target":"present","response":"present","rt":"3566.7000000002","correct":true,"confidence":-1},{"trial_n":84,"span":11,"encoder":"66317514583","distractor":"66317514593","target":"present","response":"present","rt":"3749.5","correct":true,"confidence":-1},{"trial_n":85,"span":11,"encoder":"38070750501","distractor":"38070750505","target":"present","response":"present","rt":"3333.3999999994","correct":true,"confidence":-1},{"trial_n":86,"span":12,"encoder":"801829826221","distractor":"806829826221","target":"present","response":"absent","rt":"6366.7999999998","correct":false,"confidence":-1},{"trial_n":87,"span":11,"encoder":"01755737271","distractor":"01705737271","target":"present","response":"present","rt":"4118.5","correct":true,"confidence":-1},{"trial_n":88,"span":11,"encoder":"79119582116","distractor":"79129582116","target":"present","response":"absent","rt":"8129.2999999998","correct":false,"confidence":-1},{"trial_n":89,"span":10,"encoder":"5329319091","distractor":"5329311091","target":"present","response":"present","rt":"4613.7000000002","correct":true,"confidence":-1},{"trial_n":90,"span":10,"encoder":"2880192718","distractor":"2888192718","target":"present","response":"present","rt":"9598.9000000004","correct":true,"confidence":-1},{"trial_n":91,"span":11,"encoder":"59416036180","distractor":"99416036180","target":"absent","response":"absent","rt":"13131.9","correct":true,"confidence":3},{"trial_n":92,"span":11,"encoder":"58421981789","distractor":"58481981789","target":"absent","response":"present","rt":"13589.6","correct":false,"confidence":2},{"trial_n":93,"span":10,"encoder":"5852229980","distractor":"5856229980","target":"absent","response":"absent","rt":"5033","correct":true,"confidence":4},{"trial_n":94,"span":10,"encoder":"0983908371","distractor":"0983908871","target":"present","response":"present","rt":"9045.9000000004","correct":true,"confidence":2},{"trial_n":95,"span":11,"encoder":"52748584187","distractor":"52748284187","target":"absent","response":"absent","rt":"12234","correct":true,"confidence":2},{"trial_n":96,"span":11,"encoder":"91262426793","distractor":"91562426793","target":"present","response":"present","rt":"12844.4","correct":true,"confidence":3},{"trial_n":97,"span":12,"encoder":"183555927188","distractor":"183055927188","target":"absent","response":"present","rt":"13807.399999999","correct":false,"confidence":4},{"trial_n":98,"span":11,"encoder":"27310402421","distractor":"27310402441","target":"present","response":"absent","rt":"11010.3","correct":false,"confidence":2},{"trial_n":99,"span":10,"encoder":"0520610507","distractor":"0520690507","target":"absent","response":"absent","rt":"6052.5","correct":true,"confidence":4},{"trial_n":100,"span":10,"encoder":"9592430534","distractor":"9592430234","target":"absent","response":"present","rt":"12288.5","correct":false,"confidence":3},{"trial_n":101,"span":9,"encoder":"222251393","distractor":"282251393","target":"absent","response":"absent","rt":"4294.0999999996","correct":true,"confidence":4},{"trial_n":102,"span":9,"encoder":"498886635","distractor":"490886635","target":"present","response":"present","rt":"5151.7999999998","correct":true,"confidence":4},{"trial_n":103,"span":10,"encoder":"9480301675","distractor":"3480301675","target":"absent","response":"absent","rt":"6443","correct":true,"confidence":3},{"trial_n":104,"span":10,"encoder":"7384417523","distractor":"7384417223","target":"present","response":"present","rt":"6009.3999999994","correct":true,"confidence":1},{"trial_n":105,"span":11,"encoder":"43442442234","distractor":"33442442234","target":"present","response":"present","rt":"6744.2999999998","correct":true,"confidence":1},{"trial_n":106,"span":11,"encoder":"39671819159","distractor":"39673819159","target":"absent","response":"present","rt":"8095.5","correct":false,"confidence":1},{"trial_n":107,"span":10,"encoder":"2164177231","distractor":"2164178231","target":"absent","response":"absent","rt":"4527.2000000002","correct":true,"confidence":3},{"trial_n":108,"span":10,"encoder":"0628713281","distractor":"0688713281","target":"present","response":"present","rt":"5039.5","correct":true,"confidence":3},{"trial_n":109,"span":11,"encoder":"13697702366","distractor":"13697762366","target":"absent","response":"absent","rt":"6409.4000000004","correct":true,"confidence":4},{"trial_n":110,"span":11,"encoder":"69072208340","distractor":"69072288340","target":"absent","response":"present","rt":"13989.899999999","correct":false,"confidence":1},{"trial_n":111,"span":10,"encoder":"0001406765","distractor":"0001416765","target":"present","response":"present","rt":"6427.2999999998","correct":true,"confidence":1},{"trial_n":112,"span":10,"encoder":"9296541945","distractor":"9296540945","target":"absent","response":"absent","rt":"11892.2","correct":true,"confidence":1},{"trial_n":113,"span":11,"encoder":"12078807924","distractor":"12078809924","target":"absent","response":"absent","rt":"8621.4000000004","correct":true,"confidence":1},{"trial_n":114,"span":11,"encoder":"37613298494","distractor":"37603298494","target":"absent","response":"present","rt":"5852.5","correct":false,"confidence":3},{"trial_n":115,"span":10,"encoder":"1912319540","distractor":"1912319590","target":"present","response":"present","rt":"6656.5","correct":true,"confidence":1},{"trial_n":116,"span":10,"encoder":"8399535081","distractor":"8399535061","target":"present","response":"present","rt":"3443","correct":true,"confidence":5},{"trial_n":117,"span":11,"encoder":"74926592232","distractor":"79926592232","target":"present","response":"present","rt":"6374.8000000007","correct":true,"confidence":2},{"trial_n":118,"span":11,"encoder":"27401662128","distractor":"87401662128","target":"present","response":"present","rt":"4597.5","correct":true,"confidence":3},{"trial_n":119,"span":12,"encoder":"811299309705","distractor":"811279309705","target":"absent","response":"present","rt":"9994","correct":false,"confidence":1},{"trial_n":120,"span":11,"encoder":"56822481208","distractor":"56822481268","target":"absent","response":"absent","rt":"5842.9000000004","correct":true,"confidence":1},{"trial_n":121,"span":11,"encoder":"23946080946","distractor":"23946080346","target":"absent","response":"absent","rt":"24387.5","correct":true,"confidence":1},{"trial_n":122,"span":12,"encoder":"734810360376","distractor":"734810360374","target":"present","response":"present","rt":"3098.2999999998","correct":true,"confidence":4},{"trial_n":123,"span":12,"encoder":"556067626210","distractor":"556067626610","target":"absent","response":"absent","rt":"10702.4","correct":true,"confidence":3},{"trial_n":124,"span":13,"encoder":"2243813500004","distractor":"2243810500004","target":"present","response":"present","rt":"9071.5","correct":true,"confidence":1},{"trial_n":125,"span":13,"encoder":"5534005098441","distractor":"5534005028441","target":"absent","response":"absent","rt":"11195.6","correct":true,"confidence":2},{"trial_n":126,"span":14,"encoder":"55898009839642","distractor":"55898005839642","target":"absent","response":"present","rt":"24235.7","correct":false,"confidence":2},{"trial_n":127,"span":13,"encoder":"5019468672535","distractor":"5010468672535","target":"present","response":"present","rt":"10319","correct":true,"confidence":1},{"trial_n":128,"span":13,"encoder":"5112983106352","distractor":"5612983106352","target":"present","response":"absent","rt":"14904.2","correct":false,"confidence":1},{"trial_n":129,"span":12,"encoder":"372026182048","distractor":"372026180048","target":"present","response":"present","rt":"12537","correct":true,"confidence":2},{"trial_n":130,"span":12,"encoder":"542034541899","distractor":"542034541891","target":"absent","response":"present","rt":"4728.0999999996","correct":false,"confidence":3},{"trial_n":131,"span":11,"encoder":"26479159383","distractor":"26479259383","target":"present","response":"present","rt":"7282.0999999996","correct":true,"confidence":2},{"trial_n":132,"span":11,"encoder":"92814089751","distractor":"92814089757","target":"absent","response":"absent","rt":"5029.1000000006","correct":true,"confidence":4},{"trial_n":133,"span":12,"encoder":"082869057235","distractor":"082809057235","target":"absent","response":"absent","rt":"9376.1000000006","correct":true,"confidence":1},{"trial_n":134,"span":12,"encoder":"282772999462","distractor":"282772999562","target":"present","response":"absent","rt":"8144.6999999993","correct":false,"confidence":1},{"trial_n":135,"span":11,"encoder":"75192493322","distractor":"75192453322","target":"present","response":"present","rt":"14132.100000001","correct":true,"confidence":2},{"trial_n":136,"span":11,"encoder":"84898342586","distractor":"84898342386","target":"absent","response":"absent","rt":"3436.7000000002","correct":true,"confidence":4},{"trial_n":137,"span":12,"encoder":"606434977136","distractor":"606434977126","target":"absent","response":"absent","rt":"4592.7000000002","correct":true,"confidence":5},{"trial_n":138,"span":12,"encoder":"888928514200","distractor":"888928514000","target":"present","response":"present","rt":"8570.4000000004","correct":true,"confidence":2},{"trial_n":139,"span":13,"encoder":"0212146558936","distractor":"4212146558936","target":"absent","response":"absent","rt":"11455.7","correct":true,"confidence":3},{"trial_n":140,"span":13,"encoder":"9788610261362","distractor":"9788610261862","target":"present","response":"present","rt":"3994.3000000007","correct":true,"confidence":5}]