[{"trial_n":1,"min":25,"max":230,"target":"present","response":"absent","rt":6353.2000000477,"correct":false,"confidence":-1},{"trial_n":2,"min":25,"max":230,"target":"present","response":"present","rt":587.70000004768,"correct":true,"confidence":-1},{"trial_n":3,"min":25,"max":230,"target":"absent","response":"absent","rt":539.30000019073,"correct":true,"confidence":-1},{"trial_n":4,"min":41,"max":214,"target":"absent","response":"absent","rt":489.59999990463,"correct":true,"confidence":-1},{"trial_n":5,"min":41,"max":214,"target":"present","response":"present","rt":432.10000014305,"correct":true,"confidence":-1},{"trial_n":6,"min":57,"max":198,"target":"present","response":"present","rt":633.70000004768,"correct":true,"confidence":-1},{"trial_n":7,"min":57,"max":198,"target":"present","response":"present","rt":347.59999990463,"correct":true,"confidence":-1},{"trial_n":8,"min":73,"max":182,"target":"present","response":"absent","rt":764.60000014305,"correct":false,"confidence":-1},{"trial_n":9,"min":57,"max":198,"target":"present","response":"present","rt":445.70000004768,"correct":true,"confidence":-1},{"trial_n":10,"min":57,"max":198,"target":"present","response":"present","rt":359.80000019073,"correct":true,"confidence":-1},{"trial_n":11,"min":65,"max":190,"target":"present","response":"present","rt":355.20000004768,"correct":true,"confidence":-1},{"trial_n":12,"min":65,"max":190,"target":"present","response":"present","rt":866.90000009537,"correct":true,"confidence":-1},{"trial_n":13,"min":73,"max":182,"target":"absent","response":"absent","rt":326.60000014305,"correct":true,"confidence":-1},{"trial_n":14,"min":73,"max":182,"target":"absent","response":"absent","rt":355.20000004768,"correct":true,"confidence":-1},{"trial_n":15,"min":81,"max":174,"target":"absent","response":"absent","rt":407.70000004768,"correct":true,"confidence":-1},{"trial_n":16,"min":81,"max":174,"target":"present","response":"present","rt":255.5,"correct":true,"confidence":-1},{"trial_n":17,"min":89,"max":166,"target":"absent","response":"absent","rt":455.70000004768,"correct":true,"confidence":-1},{"trial_n":18,"min":89,"max":166,"target":"present","response":"absent","rt":490.70000004768,"correct":false,"confidence":-1},{"trial_n":19,"min":81,"max":174,"target":"absent","response":"present","rt":561.20000004768,"correct":false,"confidence":-1},{"trial_n":20,"min":73,"max":182,"target":"absent","response":"absent","rt":500.29999995232,"correct":true,"confidence":-1},{"trial_n":21,"min":73,"max":182,"target":"absent","response":"present","rt":524.5,"correct":false,"confidence":4},{"trial_n":22,"min":69,"max":186,"target":"present","response":"present","rt":1094.9000000954,"correct":true,"confidence":4},{"trial_n":23,"min":69,"max":186,"target":"present","response":"present","rt":1385.1000001431,"correct":true,"confidence":5},{"trial_n":24,"min":73,"max":182,"target":"absent","response":"present","rt":3102.7999999523,"correct":false,"confidence":2},{"trial_n":25,"min":69,"max":186,"target":"present","response":"present","rt":1283,"correct":true,"confidence":4},{"trial_n":26,"min":69,"max":186,"target":"present","response":"present","rt":2036.7000000477,"correct":true,"confidence":4},{"trial_n":27,"min":73,"max":182,"target":"present","response":"present","rt":1167,"correct":true,"confidence":3},{"trial_n":28,"min":73,"max":182,"target":"present","response":"absent","rt":1089.7999999523,"correct":false,"confidence":2},{"trial_n":29,"min":69,"max":186,"target":"present","response":"present","rt":1214,"correct":true,"confidence":4},{"trial_n":30,"min":69,"max":186,"target":"absent","response":"present","rt":2787.3999998569,"correct":false,"confidence":2},{"trial_n":31,"min":67,"max":188,"target":"present","response":"present","rt":1229.8999998569,"correct":true,"confidence":4},{"trial_n":32,"min":67,"max":188,"target":"present","response":"present","rt":1617.2000000477,"correct":true,"confidence":4},{"trial_n":33,"min":69,"max":186,"target":"absent","response":"absent","rt":3722.6999998093,"correct":true,"confidence":3},{"trial_n":34,"min":69,"max":186,"target":"present","response":"present","rt":1720.0999999046,"correct":true,"confidence":4},{"trial_n":35,"min":71,"max":184,"target":"absent","response":"absent","rt":914.09999990463,"correct":true,"confidence":4},{"trial_n":36,"min":71,"max":184,"target":"absent","response":"absent","rt":873.20000004768,"correct":true,"confidence":3},{"trial_n":37,"min":73,"max":182,"target":"present","response":"absent","rt":1416.2999999523,"correct":false,"confidence":1},{"trial_n":38,"min":71,"max":184,"target":"absent","response":"present","rt":2411.7000000477,"correct":false,"confidence":2},{"trial_n":39,"min":69,"max":186,"target":"absent","response":"absent","rt":994.69999980927,"correct":true,"confidence":3},{"trial_n":40,"min":69,"max":186,"target":"present","response":"present","rt":989.70000004768,"correct":true,"confidence":4},{"trial_n":41,"min":70,"max":185,"target":"absent","response":"absent","rt":1148.5999999046,"correct":true,"confidence":3},{"trial_n":42,"min":70,"max":185,"target":"absent","response":"absent","rt":790.89999985695,"correct":true,"confidence":3},{"trial_n":43,"min":71,"max":184,"target":"absent","response":"absent","rt":842.29999995232,"correct":true,"confidence":3},{"trial_n":44,"min":71,"max":184,"target":"present","response":"present","rt":1028.5,"correct":true,"confidence":4},{"trial_n":45,"min":72,"max":183,"target":"present","response":"present","rt":1345.2999999523,"correct":true,"confidence":3},{"trial_n":46,"min":72,"max":183,"target":"absent","response":"absent","rt":700,"correct":true,"confidence":4},{"trial_n":47,"min":73,"max":182,"target":"absent","response":"absent","rt":1088.5,"correct":true,"confidence":4},{"trial_n":48,"min":73,"max":182,"target":"present","response":"present","rt":1397.7000000477,"correct":true,"confidence":4},{"trial_n":49,"min":74,"max":181,"target":"absent","response":"absent","rt":708.90000009537,"correct":true,"confidence":3},{"trial_n":50,"min":74,"max":181,"target":"present","response":"present","rt":970.20000004768,"correct":true,"confidence":4},{"trial_n":51,"min":75,"max":180,"target":"absent","response":"absent","rt":730.10000014305,"correct":true,"confidence":3},{"trial_n":52,"min":75,"max":180,"target":"absent","response":"absent","rt":1180.1000001431,"correct":true,"confidence":4},{"trial_n":53,"min":76,"max":179,"target":"present","response":"present","rt":949.40000009537,"correct":true,"confidence":4},{"trial_n":54,"min":76,"max":179,"target":"absent","response":"absent","rt":873.40000009537,"correct":true,"confidence":2},{"trial_n":55,"min":77,"max":178,"target":"present","response":"present","rt":1097.1000001431,"correct":true,"confidence":4},{"trial_n":56,"min":77,"max":178,"target":"absent","response":"absent","rt":735.90000009537,"correct":true,"confidence":3},{"trial_n":57,"min":78,"max":177,"target":"absent","response":"absent","rt":716,"correct":true,"confidence":4},{"trial_n":58,"min":78,"max":177,"target":"absent","response":"absent","rt":2157.7000000477,"correct":true,"confidence":5},{"trial_n":59,"min":79,"max":176,"target":"absent","response":"absent","rt":733.09999990463,"correct":true,"confidence":1},{"trial_n":60,"min":79,"max":176,"target":"absent","response":"absent","rt":2115.9000000954,"correct":true,"confidence":2},{"trial_n":61,"min":80,"max":175,"target":"present","response":"present","rt":1244.0999999046,"correct":true,"confidence":4},{"trial_n":62,"min":80,"max":175,"target":"absent","response":"absent","rt":649.59999990463,"correct":true,"confidence":4},{"trial_n":63,"min":81,"max":174,"target":"present","response":"present","rt":1521.2999999523,"correct":true,"confidence":4},{"trial_n":64,"min":81,"max":174,"target":"absent","response":"absent","rt":658.79999995232,"correct":true,"confidence":4},{"trial_n":65,"min":82,"max":173,"target":"absent","response":"absent","rt":710.19999980927,"correct":true,"confidence":4},{"trial_n":66,"min":82,"max":173,"target":"present","response":"present","rt":1462.7999999523,"correct":true,"confidence":3},{"trial_n":67,"min":83,"max":172,"target":"present","response":"absent","rt":637.69999980927,"correct":false,"confidence":4},{"trial_n":68,"min":82,"max":173,"target":"present","response":"absent","rt":1713.5,"correct":false,"confidence":4},{"trial_n":69,"min":81,"max":174,"target":"present","response":"present","rt":1481.7000000477,"correct":true,"confidence":3},{"trial_n":70,"min":81,"max":174,"target":"absent","response":"absent","rt":792.69999980927,"correct":true,"confidence":4},{"trial_n":71,"min":41,"max":214,"target":"present","response":"absent","rt":6260.7999999523,"correct":false,"confidence":-1},{"trial_n":72,"min":41,"max":214,"target":"present","response":"present","rt":1109,"correct":true,"confidence":-1},{"trial_n":73,"min":41,"max":214,"target":"absent","response":"absent","rt":1428.3999998569,"correct":true,"confidence":-1},{"trial_n":74,"min":57,"max":198,"target":"absent","response":"present","rt":919,"correct":false,"confidence":-1},{"trial_n":75,"min":41,"max":214,"target":"present","response":"present","rt":557.19999980927,"correct":true,"confidence":-1},{"trial_n":76,"min":41,"max":214,"target":"absent","response":"absent","rt":888.5,"correct":true,"confidence":-1},{"trial_n":77,"min":57,"max":198,"target":"present","response":"present","rt":519.29999995232,"correct":true,"confidence":-1},{"trial_n":78,"min":57,"max":198,"target":"present","response":"present","rt":494.70000004768,"correct":true,"confidence":-1},{"trial_n":79,"min":73,"max":182,"target":"present","response":"present","rt":1103.7999999523,"correct":true,"confidence":-1},{"trial_n":80,"min":73,"max":182,"target":"present","response":"present","rt":283.09999990463,"correct":true,"confidence":-1},{"trial_n":81,"min":81,"max":174,"target":"absent","response":"absent","rt":514.90000009537,"correct":true,"confidence":-1},{"trial_n":82,"min":81,"max":174,"target":"present","response":"present","rt":377,"correct":true,"confidence":-1},{"trial_n":83,"min":89,"max":166,"target":"absent","response":"absent","rt":435.70000004768,"correct":true,"confidence":-1},{"trial_n":84,"min":89,"max":166,"target":"present","response":"present","rt":667.59999990463,"correct":true,"confidence":-1},{"trial_n":85,"min":97,"max":158,"target":"absent","response":"absent","rt":1459,"correct":true,"confidence":-1},{"trial_n":86,"min":97,"max":158,"target":"present","response":"absent","rt":617.79999995232,"correct":false,"confidence":-1},{"trial_n":87,"min":89,"max":166,"target":"absent","response":"present","rt":750.79999995232,"correct":false,"confidence":-1},{"trial_n":88,"min":81,"max":174,"target":"present","response":"present","rt":294.09999990463,"correct":true,"confidence":-1},{"trial_n":89,"min":81,"max":174,"target":"absent","response":"absent","rt":768.59999990463,"correct":true,"confidence":-1},{"trial_n":90,"min":89,"max":166,"target":"present","response":"present","rt":575.09999990463,"correct":true,"confidence":-1},{"trial_n":91,"min":89,"max":166,"target":"present","response":"present","rt":813.29999995232,"correct":true,"confidence":4},{"trial_n":92,"min":93,"max":162,"target":"present","response":"present","rt":596.30000019073,"correct":true,"confidence":3},{"trial_n":93,"min":93,"max":162,"target":"absent","response":"present","rt":1911.0999999046,"correct":false,"confidence":2},{"trial_n":94,"min":89,"max":166,"target":"absent","response":"present","rt":1130.0999999046,"correct":false,"confidence":2},{"trial_n":95,"min":85,"max":170,"target":"present","response":"present","rt":586.59999990463,"correct":true,"confidence":3},{"trial_n":96,"min":85,"max":170,"target":"present","response":"present","rt":751.29999995232,"correct":true,"confidence":3},{"trial_n":97,"min":89,"max":166,"target":"present","response":"present","rt":816.79999995232,"correct":true,"confidence":3},{"trial_n":98,"min":89,"max":166,"target":"absent","response":"present","rt":5142.7000000477,"correct":false,"confidence":1},{"trial_n":99,"min":85,"max":170,"target":"absent","response":"present","rt":738.20000004768,"correct":false,"confidence":1},{"trial_n":100,"min":81,"max":174,"target":"absent","response":"absent","rt":1220.4000000954,"correct":true,"confidence":3},{"trial_n":101,"min":81,"max":174,"target":"present","response":"present","rt":848.10000014305,"correct":true,"confidence":3},{"trial_n":102,"min":83,"max":172,"target":"present","response":"present","rt":320,"correct":true,"confidence":5},{"trial_n":103,"min":83,"max":172,"target":"present","response":"present","rt":718,"correct":true,"confidence":4},{"trial_n":104,"min":85,"max":170,"target":"absent","response":"absent","rt":1667.5,"correct":true,"confidence":2},{"trial_n":105,"min":85,"max":170,"target":"present","response":"present","rt":565.79999995232,"correct":true,"confidence":3},{"trial_n":106,"min":87,"max":168,"target":"present","response":"present","rt":2064.2000000477,"correct":true,"confidence":2},{"trial_n":107,"min":87,"max":168,"target":"absent","response":"present","rt":2872.7999999523,"correct":false,"confidence":1},{"trial_n":108,"min":85,"max":170,"target":"present","response":"present","rt":527.69999980927,"correct":true,"confidence":3},{"trial_n":109,"min":85,"max":170,"target":"present","response":"absent","rt":2423.1000001431,"correct":false,"confidence":2},{"trial_n":110,"min":83,"max":172,"target":"present","response":"present","rt":587.70000004768,"correct":true,"confidence":4},{"trial_n":111,"min":83,"max":172,"target":"present","response":"present","rt":461.59999990463,"correct":true,"confidence":3},{"trial_n":112,"min":84,"max":171,"target":"absent","response":"present","rt":530.5,"correct":false,"confidence":2},{"trial_n":113,"min":83,"max":172,"target":"present","response":"present","rt":567.09999990463,"correct":true,"confidence":3},{"trial_n":114,"min":83,"max":172,"target":"absent","response":"present","rt":577.39999985695,"correct":false,"confidence":2},{"trial_n":115,"min":82,"max":173,"target":"absent","response":"absent","rt":7213.0999999046,"correct":true,"confidence":2},{"trial_n":116,"min":82,"max":173,"target":"present","response":"present","rt":646.79999995232,"correct":true,"confidence":2},{"trial_n":117,"min":83,"max":172,"target":"absent","response":"present","rt":1015.7000000477,"correct":false,"confidence":1},{"trial_n":118,"min":82,"max":173,"target":"absent","response":"absent","rt":1374.4000000954,"correct":true,"confidence":3},{"trial_n":119,"min":82,"max":173,"target":"absent","response":"present","rt":4003.5,"correct":false,"confidence":3},{"trial_n":120,"min":81,"max":174,"target":"absent","response":"absent","rt":2228.3000001907,"correct":true,"confidence":1},{"trial_n":121,"min":81,"max":174,"target":"absent","response":"absent","rt":1829.3000001907,"correct":true,"confidence":3},{"trial_n":122,"min":82,"max":173,"target":"absent","response":"absent","rt":1415.0999999046,"correct":true,"confidence":2},{"trial_n":123,"min":82,"max":173,"target":"absent","response":"absent","rt":577.20000004768,"correct":true,"confidence":2},{"trial_n":124,"min":83,"max":172,"target":"present","response":"absent","rt":555.10000014305,"correct":false,"confidence":1},{"trial_n":125,"min":82,"max":173,"target":"absent","response":"absent","rt":711,"correct":true,"confidence":1},{"trial_n":126,"min":82,"max":173,"target":"absent","response":"present","rt":1886,"correct":false,"confidence":2},{"trial_n":127,"min":81,"max":174,"target":"present","response":"absent","rt":1210.5,"correct":false,"confidence":2},{"trial_n":128,"min":80,"max":175,"target":"present","response":"present","rt":505.20000004768,"correct":true,"confidence":3},{"trial_n":129,"min":80,"max":175,"target":"absent","response":"absent","rt":1366.1000001431,"correct":true,"confidence":2},{"trial_n":130,"min":81,"max":174,"target":"present","response":"present","rt":518.80000019073,"correct":true,"confidence":4},{"trial_n":131,"min":81,"max":174,"target":"absent","response":"absent","rt":544.29999995232,"correct":true,"confidence":3},{"trial_n":132,"min":82,"max":173,"target":"present","response":"present","rt":384.70000004768,"correct":true,"confidence":3},{"trial_n":133,"min":82,"max":173,"target":"absent","response":"absent","rt":1449.8999998569,"correct":true,"confidence":3},{"trial_n":134,"min":83,"max":172,"target":"absent","response":"present","rt":587.40000009537,"correct":false,"confidence":3},{"trial_n":135,"min":82,"max":173,"target":"present","response":"present","rt":375.60000014305,"correct":true,"confidence":3},{"trial_n":136,"min":82,"max":173,"target":"present","response":"present","rt":322.09999990463,"correct":true,"confidence":4},{"trial_n":137,"min":83,"max":172,"target":"absent","response":"absent","rt":1073.0999999046,"correct":true,"confidence":2},{"trial_n":138,"min":83,"max":172,"target":"present","response":"present","rt":222.5,"correct":true,"confidence":4},{"trial_n":139,"min":84,"max":171,"target":"absent","response":"absent","rt":1242.5,"correct":true,"confidence":4},{"trial_n":140,"min":84,"max":171,"target":"absent","response":"absent","rt":1044.3000001907,"correct":true,"confidence":3}]