[{"trial_n":1,"n_dots":4.25,"target":"right","response":"left","rt":5683.1000001431,"correct":false,"confidence":-1},{"trial_n":2,"n_dots":4.25,"target":"right","response":"right","rt":2495.2999999523,"correct":true,"confidence":-1},{"trial_n":3,"n_dots":4.25,"target":"left","response":"left","rt":578.59999990463,"correct":true,"confidence":-1},{"trial_n":4,"n_dots":3.85,"target":"left","response":"left","rt":457.79999995232,"correct":true,"confidence":-1},{"trial_n":5,"n_dots":3.85,"target":"right","response":"right","rt":792,"correct":true,"confidence":-1},{"trial_n":6,"n_dots":3.45,"target":"left","response":"left","rt":416.89999985695,"correct":true,"confidence":-1},{"trial_n":7,"n_dots":3.45,"target":"left","response":"left","rt":404.5,"correct":true,"confidence":-1},{"trial_n":8,"n_dots":3.25,"target":"left","response":"left","rt":406.09999990463,"correct":true,"confidence":-1},{"trial_n":9,"n_dots":3.25,"target":"left","response":"left","rt":250.90000009537,"correct":true,"confidence":-1},{"trial_n":10,"n_dots":3.05,"target":"right","response":"right","rt":245.69999980927,"correct":true,"confidence":-1},{"trial_n":11,"n_dots":3.05,"target":"right","response":"left","rt":107.09999990463,"correct":false,"confidence":-1},{"trial_n":12,"n_dots":3.25,"target":"left","response":"left","rt":252.79999995232,"correct":true,"confidence":-1},{"trial_n":13,"n_dots":3.25,"target":"right","response":"left","rt":271.79999995232,"correct":false,"confidence":-1},{"trial_n":14,"n_dots":3.35,"target":"left","response":"left","rt":398.59999990463,"correct":true,"confidence":-1},{"trial_n":15,"n_dots":3.35,"target":"left","response":"left","rt":448.09999990463,"correct":true,"confidence":-1},{"trial_n":16,"n_dots":3.25,"target":"right","response":"right","rt":379.5,"correct":true,"confidence":-1},{"trial_n":17,"n_dots":3.25,"target":"left","response":"left","rt":358.5,"correct":true,"confidence":-1},{"trial_n":18,"n_dots":3.15,"target":"left","response":"left","rt":232.60000014305,"correct":true,"confidence":-1},{"trial_n":19,"n_dots":3.15,"target":"right","response":"right","rt":284,"correct":true,"confidence":-1},{"trial_n":20,"n_dots":3.05,"target":"left","response":"left","rt":278,"correct":true,"confidence":-1},{"trial_n":21,"n_dots":3.05,"target":"left","response":"left","rt":229.59999990463,"correct":true,"confidence":4},{"trial_n":22,"n_dots":2.95,"target":"left","response":"left","rt":970.30000019073,"correct":true,"confidence":3},{"trial_n":23,"n_dots":2.95,"target":"left","response":"left","rt":1000.0999999046,"correct":true,"confidence":3},{"trial_n":24,"n_dots":2.85,"target":"right","response":"right","rt":1452.3999998569,"correct":true,"confidence":3},{"trial_n":25,"n_dots":2.85,"target":"right","response":"left","rt":926.5,"correct":false,"confidence":3},{"trial_n":26,"n_dots":2.95,"target":"right","response":"left","rt":631.59999990463,"correct":false,"confidence":3},{"trial_n":27,"n_dots":3.05,"target":"right","response":"left","rt":604,"correct":false,"confidence":3},{"trial_n":28,"n_dots":3.15,"target":"left","response":"left","rt":565.20000004768,"correct":true,"confidence":4},{"trial_n":29,"n_dots":3.15,"target":"left","response":"left","rt":651.70000004768,"correct":true,"confidence":3},{"trial_n":30,"n_dots":3.05,"target":"right","response":"left","rt":419.29999995232,"correct":false,"confidence":3},{"trial_n":31,"n_dots":3.15,"target":"left","response":"right","rt":1601.6000001431,"correct":false,"confidence":2},{"trial_n":32,"n_dots":3.25,"target":"right","response":"right","rt":387.79999995232,"correct":true,"confidence":3},{"trial_n":33,"n_dots":3.25,"target":"left","response":"right","rt":268.90000009537,"correct":false,"confidence":3},{"trial_n":34,"n_dots":3.35,"target":"left","response":"left","rt":531.89999985695,"correct":true,"confidence":2},{"trial_n":35,"n_dots":3.35,"target":"left","response":"left","rt":433.59999990463,"correct":true,"confidence":4},{"trial_n":36,"n_dots":3.25,"target":"right","response":"left","rt":283.09999990463,"correct":false,"confidence":2},{"trial_n":37,"n_dots":3.35,"target":"left","response":"left","rt":853.40000009537,"correct":true,"confidence":2},{"trial_n":38,"n_dots":3.35,"target":"left","response":"left","rt":1829.7000000477,"correct":true,"confidence":4},{"trial_n":39,"n_dots":3.25,"target":"right","response":"left","rt":860.39999985695,"correct":false,"confidence":3},{"trial_n":40,"n_dots":3.35,"target":"left","response":"left","rt":2745,"correct":true,"confidence":3},{"trial_n":41,"n_dots":3.35,"target":"right","response":"right","rt":324.90000009537,"correct":true,"confidence":4},{"trial_n":42,"n_dots":3.25,"target":"right","response":"right","rt":628.5,"correct":true,"confidence":3},{"trial_n":43,"n_dots":3.25,"target":"right","response":"right","rt":289.59999990463,"correct":true,"confidence":3},{"trial_n":44,"n_dots":3.15,"target":"right","response":"right","rt":2235.3999998569,"correct":true,"confidence":3},{"trial_n":45,"n_dots":3.15,"target":"left","response":"left","rt":974.90000009537,"correct":true,"confidence":3},{"trial_n":46,"n_dots":3.05,"target":"left","response":"left","rt":1851.5999999046,"correct":true,"confidence":3},{"trial_n":47,"n_dots":3.05,"target":"right","response":"right","rt":1067.0999999046,"correct":true,"confidence":4},{"trial_n":48,"n_dots":2.95,"target":"left","response":"left","rt":1699,"correct":true,"confidence":3},{"trial_n":49,"n_dots":2.95,"target":"left","response":"left","rt":459.60000014305,"correct":true,"confidence":3},{"trial_n":50,"n_dots":2.85,"target":"left","response":"right","rt":370.70000004768,"correct":false,"confidence":3},{"trial_n":51,"n_dots":2.95,"target":"left","response":"left","rt":1691.2000000477,"correct":true,"confidence":3},{"trial_n":52,"n_dots":2.95,"target":"right","response":"left","rt":1521.8000001907,"correct":false,"confidence":3},{"trial_n":53,"n_dots":3.05,"target":"right","response":"right","rt":439.20000004768,"correct":true,"confidence":3},{"trial_n":54,"n_dots":3.05,"target":"right","response":"left","rt":588.60000014305,"correct":false,"confidence":3},{"trial_n":55,"n_dots":3.15,"target":"left","response":"left","rt":474.79999995232,"correct":true,"confidence":3},{"trial_n":56,"n_dots":3.15,"target":"left","response":"left","rt":455.5,"correct":true,"confidence":3},{"trial_n":57,"n_dots":3.05,"target":"right","response":"right","rt":402,"correct":true,"confidence":3},{"trial_n":58,"n_dots":3.05,"target":"right","response":"right","rt":524.90000009537,"correct":true,"confidence":3},{"trial_n":59,"n_dots":2.95,"target":"left","response":"left","rt":1689.4000000954,"correct":true,"confidence":3},{"trial_n":60,"n_dots":2.95,"target":"right","response":"left","rt":1345.5999999046,"correct":false,"confidence":3},{"trial_n":61,"n_dots":3.05,"target":"right","response":"right","rt":311.40000009537,"correct":true,"confidence":3},{"trial_n":62,"n_dots":3.05,"target":"right","response":"right","rt":1430.8000001907,"correct":true,"confidence":3},{"trial_n":63,"n_dots":2.95,"target":"right","response":"left","rt":1134.4000000954,"correct":false,"confidence":3},{"trial_n":64,"n_dots":3.05,"target":"left","response":"left","rt":918.60000014305,"correct":true,"confidence":3},{"trial_n":65,"n_dots":3.05,"target":"right","response":"right","rt":565.90000009537,"correct":true,"confidence":3},{"trial_n":66,"n_dots":2.95,"target":"right","response":"left","rt":412.40000009537,"correct":false,"confidence":2},{"trial_n":67,"n_dots":3.05,"target":"right","response":"right","rt":462.10000014305,"correct":true,"confidence":3},{"trial_n":68,"n_dots":3.05,"target":"left","response":"left","rt":334.09999990463,"correct":true,"confidence":4},{"trial_n":69,"n_dots":2.95,"target":"right","response":"right","rt":443.5,"correct":true,"confidence":4},{"trial_n":70,"n_dots":2.95,"target":"right","response":"left","rt":384.5,"correct":false,"confidence":3},{"trial_n":71,"n_dots":3.05,"target":"right","response":"left","rt":443.29999995232,"correct":false,"confidence":3},{"trial_n":72,"n_dots":3.15,"target":"left","response":"left","rt":446.90000009537,"correct":true,"confidence":3},{"trial_n":73,"n_dots":3.15,"target":"left","response":"left","rt":995.29999995232,"correct":true,"confidence":3},{"trial_n":74,"n_dots":3.05,"target":"right","response":"left","rt":1366,"correct":false,"confidence":3},{"trial_n":75,"n_dots":3.15,"target":"left","response":"left","rt":798,"correct":true,"confidence":4},{"trial_n":76,"n_dots":3.15,"target":"right","response":"right","rt":456,"correct":true,"confidence":3},{"trial_n":77,"n_dots":3.05,"target":"right","response":"left","rt":1039.5999999046,"correct":false,"confidence":3},{"trial_n":78,"n_dots":3.15,"target":"right","response":"left","rt":468.29999995232,"correct":false,"confidence":3},{"trial_n":79,"n_dots":3.25,"target":"left","response":"left","rt":723,"correct":true,"confidence":3},{"trial_n":80,"n_dots":3.25,"target":"left","response":"left","rt":556,"correct":true,"confidence":3},{"trial_n":81,"n_dots":3.15,"target":"right","response":"right","rt":283.29999995232,"correct":true,"confidence":3},{"trial_n":82,"n_dots":3.15,"target":"right","response":"right","rt":1770,"correct":true,"confidence":3},{"trial_n":83,"n_dots":3.05,"target":"right","response":"left","rt":1266.4000000954,"correct":false,"confidence":3},{"trial_n":84,"n_dots":3.15,"target":"left","response":"left","rt":1214.8999998569,"correct":true,"confidence":3},{"trial_n":85,"n_dots":3.15,"target":"right","response":"left","rt":1264.8999998569,"correct":false,"confidence":3},{"trial_n":86,"n_dots":3.25,"target":"left","response":"left","rt":1496.4000000954,"correct":true,"confidence":3},{"trial_n":87,"n_dots":3.25,"target":"right","response":"right","rt":405.29999995232,"correct":true,"confidence":3},{"trial_n":88,"n_dots":3.15,"target":"right","response":"right","rt":389.20000004768,"correct":true,"confidence":1},{"trial_n":89,"n_dots":3.15,"target":"left","response":"left","rt":1207,"correct":true,"confidence":3},{"trial_n":90,"n_dots":3.05,"target":"left","response":"left","rt":1070.3999998569,"correct":true,"confidence":3},{"trial_n":91,"n_dots":3.05,"target":"left","response":"left","rt":547.10000014305,"correct":true,"confidence":3},{"trial_n":92,"n_dots":2.95,"target":"right","response":"right","rt":353.20000004768,"correct":true,"confidence":1},{"trial_n":93,"n_dots":2.95,"target":"left","response":"right","rt":902.89999985695,"correct":false,"confidence":3},{"trial_n":94,"n_dots":3.05,"target":"left","response":"left","rt":1512.6000001431,"correct":true,"confidence":3},{"trial_n":95,"n_dots":3.05,"target":"left","response":"right","rt":763.39999985695,"correct":false,"confidence":4},{"trial_n":96,"n_dots":3.15,"target":"right","response":"right","rt":1691,"correct":true,"confidence":3},{"trial_n":97,"n_dots":3.15,"target":"left","response":"left","rt":1261.4000000954,"correct":true,"confidence":3},{"trial_n":98,"n_dots":3.05,"target":"right","response":"right","rt":927.5,"correct":true,"confidence":3},{"trial_n":99,"n_dots":3.05,"target":"left","response":"left","rt":883.20000004768,"correct":true,"confidence":3},{"trial_n":100,"n_dots":2.95,"target":"right","response":"right","rt":527.10000014305,"correct":true,"confidence":3},{"trial_n":101,"n_dots":2.95,"target":"left","response":"left","rt":734.29999995232,"correct":true,"confidence":3},{"trial_n":102,"n_dots":2.85,"target":"right","response":"right","rt":284.5,"correct":true,"confidence":4},{"trial_n":103,"n_dots":2.85,"target":"left","response":"left","rt":700.89999985695,"correct":true,"confidence":4},{"trial_n":104,"n_dots":2.75,"target":"right","response":"left","rt":1365.5999999046,"correct":false,"confidence":3},{"trial_n":105,"n_dots":2.85,"target":"right","response":"right","rt":654.5,"correct":true,"confidence":4},{"trial_n":106,"n_dots":2.85,"target":"left","response":"left","rt":1059.5,"correct":true,"confidence":1},{"trial_n":107,"n_dots":2.75,"target":"left","response":"right","rt":308.70000004768,"correct":false,"confidence":3},{"trial_n":108,"n_dots":2.85,"target":"right","response":"right","rt":1027.9000000954,"correct":true,"confidence":3},{"trial_n":109,"n_dots":2.85,"target":"right","response":"right","rt":1668.0999999046,"correct":true,"confidence":3},{"trial_n":110,"n_dots":2.75,"target":"right","response":"right","rt":537.90000009537,"correct":true,"confidence":3},{"trial_n":111,"n_dots":2.75,"target":"left","response":"left","rt":1229.2000000477,"correct":true,"confidence":4},{"trial_n":112,"n_dots":2.65,"target":"right","response":"right","rt":1395.7000000477,"correct":true,"confidence":4},{"trial_n":113,"n_dots":2.65,"target":"right","response":"left","rt":2047.2999999523,"correct":false,"confidence":3},{"trial_n":114,"n_dots":2.75,"target":"left","response":"left","rt":902,"correct":true,"confidence":3},{"trial_n":115,"n_dots":2.75,"target":"left","response":"left","rt":1067.7999999523,"correct":true,"confidence":3},{"trial_n":116,"n_dots":2.65,"target":"left","response":"right","rt":172.5,"correct":false,"confidence":3},{"trial_n":117,"n_dots":2.75,"target":"right","response":"left","rt":1218.7000000477,"correct":false,"confidence":3},{"trial_n":118,"n_dots":2.85,"target":"left","response":"left","rt":3459.5,"correct":true,"confidence":3},{"trial_n":119,"n_dots":2.85,"target":"left","response":"right","rt":1428.7999999523,"correct":false,"confidence":3},{"trial_n":120,"n_dots":2.95,"target":"right","response":"right","rt":465.29999995232,"correct":true,"confidence":2}]