[{"trial_n":1,"n_dots":4.25,"target":"right","response":"right","rt":10144.5,"correct":true,"confidence":-1},{"trial_n":2,"n_dots":4.25,"target":"right","response":"right","rt":288.79999999981,"correct":true,"confidence":-1},{"trial_n":3,"n_dots":3.85,"target":"left","response":"left","rt":623.79999999981,"correct":true,"confidence":-1},{"trial_n":4,"n_dots":3.85,"target":"right","response":"right","rt":357.09999999963,"correct":true,"confidence":-1},{"trial_n":5,"n_dots":3.45,"target":"right","response":"right","rt":265.79999999981,"correct":true,"confidence":-1},{"trial_n":6,"n_dots":3.45,"target":"left","response":"right","rt":505.09999999963,"correct":false,"confidence":-1},{"trial_n":7,"n_dots":3.85,"target":"right","response":"right","rt":456.59999999963,"correct":true,"confidence":-1},{"trial_n":8,"n_dots":3.85,"target":"right","response":"right","rt":529.89999999944,"correct":true,"confidence":-1},{"trial_n":9,"n_dots":3.65,"target":"left","response":"left","rt":294.59999999963,"correct":true,"confidence":-1},{"trial_n":10,"n_dots":3.65,"target":"left","response":"right","rt":623.79999999981,"correct":false,"confidence":-1},{"trial_n":11,"n_dots":3.85,"target":"left","response":"right","rt":369.20000000019,"correct":false,"confidence":-1},{"trial_n":12,"n_dots":4.05,"target":"left","response":"left","rt":403.20000000019,"correct":true,"confidence":-1},{"trial_n":13,"n_dots":4.05,"target":"right","response":"right","rt":255,"correct":true,"confidence":-1},{"trial_n":14,"n_dots":3.95,"target":"right","response":"right","rt":302.5,"correct":true,"confidence":-1},{"trial_n":15,"n_dots":3.95,"target":"left","response":"left","rt":323,"correct":true,"confidence":-1},{"trial_n":16,"n_dots":3.85,"target":"right","response":"right","rt":541.89999999944,"correct":true,"confidence":-1},{"trial_n":17,"n_dots":3.85,"target":"right","response":"right","rt":414.39999999944,"correct":true,"confidence":-1},{"trial_n":18,"n_dots":3.75,"target":"left","response":"left","rt":627.30000000075,"correct":true,"confidence":-1},{"trial_n":19,"n_dots":3.75,"target":"left","response":"right","rt":114.39999999944,"correct":false,"confidence":-1},{"trial_n":20,"n_dots":3.85,"target":"left","response":"right","rt":336.20000000019,"correct":false,"confidence":-1},{"trial_n":21,"n_dots":3.95,"target":"left","response":"right","rt":527.10000000056,"correct":false,"confidence":3},{"trial_n":22,"n_dots":4.05,"target":"right","response":"right","rt":3796.2999999998,"correct":true,"confidence":4},{"trial_n":23,"n_dots":4.05,"target":"left","response":"left","rt":2266.0999999996,"correct":true,"confidence":2},{"trial_n":24,"n_dots":3.95,"target":"left","response":"left","rt":2710.5,"correct":true,"confidence":3},{"trial_n":25,"n_dots":3.95,"target":"right","response":"right","rt":1878.5999999996,"correct":true,"confidence":4},{"trial_n":26,"n_dots":3.85,"target":"right","response":"left","rt":1511.2999999998,"correct":false,"confidence":2},{"trial_n":27,"n_dots":3.95,"target":"left","response":"right","rt":2488.4000000004,"correct":false,"confidence":3},{"trial_n":28,"n_dots":4.05,"target":"left","response":"left","rt":1666.5,"correct":true,"confidence":2},{"trial_n":29,"n_dots":4.05,"target":"left","response":"left","rt":1352.5,"correct":true,"confidence":2},{"trial_n":30,"n_dots":3.95,"target":"left","response":"left","rt":2590.5999999996,"correct":true,"confidence":2},{"trial_n":31,"n_dots":3.95,"target":"right","response":"right","rt":1304.2999999998,"correct":true,"confidence":3},{"trial_n":32,"n_dots":3.85,"target":"left","response":"left","rt":780.79999999981,"correct":true,"confidence":2},{"trial_n":33,"n_dots":3.85,"target":"right","response":"right","rt":1097.7000000002,"correct":true,"confidence":4},{"trial_n":34,"n_dots":3.75,"target":"right","response":"right","rt":869.29999999981,"correct":true,"confidence":4},{"trial_n":35,"n_dots":3.75,"target":"left","response":"left","rt":460.69999999925,"correct":true,"confidence":2},{"trial_n":36,"n_dots":3.65,"target":"right","response":"right","rt":947.5,"correct":true,"confidence":3},{"trial_n":37,"n_dots":3.65,"target":"left","response":"left","rt":1093.5999999996,"correct":true,"confidence":2},{"trial_n":38,"n_dots":3.55,"target":"left","response":"right","rt":1115.4000000004,"correct":false,"confidence":3},{"trial_n":39,"n_dots":3.65,"target":"right","response":"right","rt":1022.1999999993,"correct":true,"confidence":4},{"trial_n":40,"n_dots":3.65,"target":"left","response":"right","rt":1629.7999999998,"correct":false,"confidence":1},{"trial_n":41,"n_dots":3.75,"target":"left","response":"right","rt":9869.2999999998,"correct":false,"confidence":2},{"trial_n":42,"n_dots":3.85,"target":"right","response":"right","rt":1282.0999999996,"correct":true,"confidence":3},{"trial_n":43,"n_dots":3.85,"target":"left","response":"left","rt":1262.2000000011,"correct":true,"confidence":4},{"trial_n":44,"n_dots":3.75,"target":"right","response":"right","rt":1368.5999999996,"correct":true,"confidence":3},{"trial_n":45,"n_dots":3.75,"target":"left","response":"right","rt":1175,"correct":false,"confidence":2},{"trial_n":46,"n_dots":3.85,"target":"left","response":"left","rt":1206.8000000007,"correct":true,"confidence":3},{"trial_n":47,"n_dots":3.85,"target":"right","response":"right","rt":1905.8000000007,"correct":true,"confidence":2},{"trial_n":48,"n_dots":3.75,"target":"right","response":"right","rt":1474.5999999996,"correct":true,"confidence":4},{"trial_n":49,"n_dots":3.75,"target":"right","response":"right","rt":3139.2000000011,"correct":true,"confidence":2},{"trial_n":50,"n_dots":3.65,"target":"left","response":"left","rt":1049.2999999989,"correct":true,"confidence":4},{"trial_n":51,"n_dots":3.65,"target":"left","response":"left","rt":830.70000000112,"correct":true,"confidence":3},{"trial_n":52,"n_dots":3.55,"target":"left","response":"left","rt":900,"correct":true,"confidence":3},{"trial_n":53,"n_dots":3.55,"target":"left","response":"left","rt":961.5,"correct":true,"confidence":2},{"trial_n":54,"n_dots":3.45,"target":"left","response":"left","rt":976.29999999888,"correct":true,"confidence":2},{"trial_n":55,"n_dots":3.45,"target":"left","response":"left","rt":1139.5999999996,"correct":true,"confidence":2},{"trial_n":56,"n_dots":3.35,"target":"left","response":"left","rt":988,"correct":true,"confidence":3},{"trial_n":57,"n_dots":3.35,"target":"left","response":"left","rt":1895.6999999993,"correct":true,"confidence":3},{"trial_n":58,"n_dots":3.25,"target":"right","response":"right","rt":1773.5,"correct":true,"confidence":2},{"trial_n":59,"n_dots":3.25,"target":"right","response":"left","rt":1296.3000000007,"correct":false,"confidence":2},{"trial_n":60,"n_dots":3.35,"target":"right","response":"right","rt":1118.1999999993,"correct":true,"confidence":3},{"trial_n":61,"n_dots":3.35,"target":"left","response":"left","rt":2282,"correct":true,"confidence":2},{"trial_n":62,"n_dots":3.25,"target":"right","response":"right","rt":1604.3999999985,"correct":true,"confidence":3},{"trial_n":63,"n_dots":3.25,"target":"right","response":"left","rt":6415.2000000011,"correct":false,"confidence":1},{"trial_n":64,"n_dots":3.35,"target":"right","response":"right","rt":3908.6999999993,"correct":true,"confidence":2},{"trial_n":65,"n_dots":3.35,"target":"right","response":"right","rt":2659.5,"correct":true,"confidence":2},{"trial_n":66,"n_dots":3.25,"target":"left","response":"left","rt":2233.9000000004,"correct":true,"confidence":3},{"trial_n":67,"n_dots":3.25,"target":"left","response":"left","rt":4121.0999999996,"correct":true,"confidence":3},{"trial_n":68,"n_dots":3.15,"target":"left","response":"right","rt":2728.9000000004,"correct":false,"confidence":1},{"trial_n":69,"n_dots":3.25,"target":"right","response":"left","rt":2531.7000000011,"correct":false,"confidence":2},{"trial_n":70,"n_dots":3.35,"target":"left","response":"left","rt":1783.3000000007,"correct":true,"confidence":2},{"trial_n":71,"n_dots":3.35,"target":"right","response":"left","rt":1631.0999999996,"correct":false,"confidence":2},{"trial_n":72,"n_dots":3.45,"target":"left","response":"left","rt":1760.5,"correct":true,"confidence":2},{"trial_n":73,"n_dots":3.45,"target":"left","response":"left","rt":1608,"correct":true,"confidence":2},{"trial_n":74,"n_dots":3.35,"target":"left","response":"left","rt":2274.5999999996,"correct":true,"confidence":2},{"trial_n":75,"n_dots":3.35,"target":"left","response":"left","rt":2352.2999999989,"correct":true,"confidence":2},{"trial_n":76,"n_dots":3.25,"target":"left","response":"left","rt":1757.5,"correct":true,"confidence":1},{"trial_n":77,"n_dots":3.25,"target":"right","response":"right","rt":1305.8000000007,"correct":true,"confidence":2},{"trial_n":78,"n_dots":3.15,"target":"left","response":"left","rt":1156.1999999993,"correct":true,"confidence":3},{"trial_n":79,"n_dots":3.15,"target":"left","response":"left","rt":1542.9000000004,"correct":true,"confidence":3},{"trial_n":80,"n_dots":3.05,"target":"right","response":"right","rt":1620.9000000004,"correct":true,"confidence":1},{"trial_n":81,"n_dots":3.05,"target":"right","response":"left","rt":1798.2000000011,"correct":false,"confidence":1},{"trial_n":82,"n_dots":3.15,"target":"right","response":"left","rt":1186,"correct":false,"confidence":3},{"trial_n":83,"n_dots":3.25,"target":"right","response":"right","rt":1434.8000000007,"correct":true,"confidence":3},{"trial_n":84,"n_dots":3.25,"target":"right","response":"left","rt":1284.4000000004,"correct":false,"confidence":3},{"trial_n":85,"n_dots":3.35,"target":"left","response":"left","rt":1069.0999999996,"correct":true,"confidence":1},{"trial_n":86,"n_dots":3.35,"target":"right","response":"right","rt":1555,"correct":true,"confidence":3},{"trial_n":87,"n_dots":3.25,"target":"right","response":"right","rt":1758.8999999985,"correct":true,"confidence":1},{"trial_n":88,"n_dots":3.25,"target":"left","response":"left","rt":989.80000000075,"correct":true,"confidence":2},{"trial_n":89,"n_dots":3.15,"target":"right","response":"right","rt":1643.5,"correct":true,"confidence":1},{"trial_n":90,"n_dots":3.15,"target":"right","response":"left","rt":1281.9000000004,"correct":false,"confidence":2},{"trial_n":91,"n_dots":3.25,"target":"right","response":"right","rt":2886.6999999993,"correct":true,"confidence":2},{"trial_n":92,"n_dots":3.25,"target":"right","response":"left","rt":2047.5,"correct":false,"confidence":1},{"trial_n":93,"n_dots":3.35,"target":"right","response":"right","rt":1858.4000000004,"correct":true,"confidence":2},{"trial_n":94,"n_dots":3.35,"target":"right","response":"right","rt":2306.0999999996,"correct":true,"confidence":2},{"trial_n":95,"n_dots":3.25,"target":"left","response":"right","rt":1713.9000000004,"correct":false,"confidence":1},{"trial_n":96,"n_dots":3.35,"target":"right","response":"left","rt":2311.7000000011,"correct":false,"confidence":2},{"trial_n":97,"n_dots":3.45,"target":"right","response":"right","rt":2656.1999999993,"correct":true,"confidence":2},{"trial_n":98,"n_dots":3.45,"target":"left","response":"left","rt":2198.6999999993,"correct":true,"confidence":3},{"trial_n":99,"n_dots":3.35,"target":"left","response":"left","rt":1611.2000000011,"correct":true,"confidence":3},{"trial_n":100,"n_dots":3.35,"target":"right","response":"right","rt":1613.1999999993,"correct":true,"confidence":3},{"trial_n":101,"n_dots":3.25,"target":"left","response":"left","rt":1739.6999999993,"correct":true,"confidence":2},{"trial_n":102,"n_dots":3.25,"target":"left","response":"left","rt":1575.4000000004,"correct":true,"confidence":3},{"trial_n":103,"n_dots":3.15,"target":"right","response":"right","rt":1451.7999999989,"correct":true,"confidence":3},{"trial_n":104,"n_dots":3.15,"target":"right","response":"right","rt":1572.8000000007,"correct":true,"confidence":3},{"trial_n":105,"n_dots":3.05,"target":"right","response":"left","rt":1052.0999999996,"correct":false,"confidence":3},{"trial_n":106,"n_dots":3.15,"target":"right","response":"left","rt":1250.3000000007,"correct":false,"confidence":3},{"trial_n":107,"n_dots":3.25,"target":"left","response":"left","rt":1280.5,"correct":true,"confidence":4},{"trial_n":108,"n_dots":3.25,"target":"left","response":"left","rt":1162.6999999993,"correct":true,"confidence":4},{"trial_n":109,"n_dots":3.15,"target":"right","response":"right","rt":1088.3000000007,"correct":true,"confidence":3},{"trial_n":110,"n_dots":3.15,"target":"right","response":"right","rt":1536.9000000004,"correct":true,"confidence":2},{"trial_n":111,"n_dots":3.05,"target":"left","response":"left","rt":907.19999999925,"correct":true,"confidence":2},{"trial_n":112,"n_dots":3.05,"target":"left","response":"left","rt":1902.7000000011,"correct":true,"confidence":1},{"trial_n":113,"n_dots":2.95,"target":"left","response":"left","rt":1374,"correct":true,"confidence":2},{"trial_n":114,"n_dots":2.95,"target":"right","response":"right","rt":2836.5,"correct":true,"confidence":1},{"trial_n":115,"n_dots":2.85,"target":"left","response":"left","rt":1359.8000000007,"correct":true,"confidence":2},{"trial_n":116,"n_dots":2.85,"target":"right","response":"right","rt":1626.1999999993,"correct":true,"confidence":2},{"trial_n":117,"n_dots":2.75,"target":"right","response":"left","rt":1023.3000000007,"correct":false,"confidence":3},{"trial_n":118,"n_dots":2.85,"target":"left","response":"left","rt":2024.9000000004,"correct":true,"confidence":3},{"trial_n":119,"n_dots":2.85,"target":"right","response":"left","rt":1346.1000000015,"correct":false,"confidence":2},{"trial_n":120,"n_dots":2.95,"target":"right","response":"left","rt":2388.0999999996,"correct":false,"confidence":1}]