[{"trial_n":1,"span":8,"encoder":"08615441","distractor":"08615341","target":"present","response":"absent","rt":"8041.2999999523","correct":false,"confidence":-1},{"trial_n":2,"span":6,"encoder":"711161","distractor":"711101","target":"present","response":"present","rt":"2599.5999999046","correct":true,"confidence":-1},{"trial_n":3,"span":6,"encoder":"288307","distractor":"298307","target":"absent","response":"absent","rt":"2640.7000000477","correct":true,"confidence":-1},{"trial_n":4,"span":8,"encoder":"81845003","distractor":"81875003","target":"absent","response":"present","rt":"2505","correct":false,"confidence":-1},{"trial_n":5,"span":6,"encoder":"530213","distractor":"535213","target":"present","response":"present","rt":"3081.7000000477","correct":true,"confidence":-1},{"trial_n":6,"span":6,"encoder":"211129","distractor":"211029","target":"present","response":"present","rt":"1123.5","correct":true,"confidence":-1},{"trial_n":7,"span":8,"encoder":"53747452","distractor":"53747252","target":"present","response":"present","rt":"3812.4000000954","correct":true,"confidence":-1},{"trial_n":8,"span":8,"encoder":"70142582","distractor":"70142580","target":"present","response":"present","rt":"2145.2000000477","correct":true,"confidence":-1},{"trial_n":9,"span":10,"encoder":"1312974639","distractor":"1311974639","target":"absent","response":"present","rt":"1535.2999999523","correct":false,"confidence":-1},{"trial_n":10,"span":8,"encoder":"69069553","distractor":"69063553","target":"present","response":"present","rt":"2762.5999999046","correct":true,"confidence":-1},{"trial_n":11,"span":8,"encoder":"76287468","distractor":"76207468","target":"present","response":"absent","rt":"2374.2999999523","correct":false,"confidence":-1},{"trial_n":12,"span":7,"encoder":"8612003","distractor":"8612043","target":"present","response":"present","rt":"4156.6000001431","correct":true,"confidence":-1},{"trial_n":13,"span":7,"encoder":"9032823","distractor":"9632823","target":"absent","response":"absent","rt":"1935.7999999523","correct":true,"confidence":-1},{"trial_n":14,"span":8,"encoder":"88217465","distractor":"28217465","target":"present","response":"present","rt":"1913.9000000954","correct":true,"confidence":-1},{"trial_n":15,"span":8,"encoder":"48555570","distractor":"48545570","target":"absent","response":"absent","rt":"1266.2000000477","correct":true,"confidence":-1},{"trial_n":16,"span":9,"encoder":"270666757","distractor":"270696757","target":"absent","response":"present","rt":"1485.2000000477","correct":false,"confidence":-1},{"trial_n":17,"span":8,"encoder":"89010997","distractor":"89000997","target":"absent","response":"absent","rt":"2394.4000000954","correct":true,"confidence":-1},{"trial_n":18,"span":8,"encoder":"40976086","distractor":"40979086","target":"absent","response":"absent","rt":"10423.400000095","correct":true,"confidence":-1},{"trial_n":19,"span":9,"encoder":"698951887","distractor":"898951887","target":"present","response":"present","rt":"3770.2000000477","correct":true,"confidence":-1},{"trial_n":20,"span":9,"encoder":"612420853","distractor":"612620853","target":"present","response":"present","rt":"2977.7000000477","correct":true,"confidence":-1},{"trial_n":21,"span":10,"encoder":"0235868481","distractor":"0235848481","target":"absent","response":"present","rt":"2684.0999999046","correct":false,"confidence":3},{"trial_n":22,"span":9,"encoder":"589656563","distractor":"509656563","target":"absent","response":"absent","rt":"3382.8000001907","correct":true,"confidence":4},{"trial_n":23,"span":9,"encoder":"263988517","distractor":"263988617","target":"present","response":"absent","rt":"6327.1000001431","correct":false,"confidence":2},{"trial_n":24,"span":8,"encoder":"84655959","distractor":"54655959","target":"absent","response":"absent","rt":"5439.2999999523","correct":true,"confidence":1},{"trial_n":25,"span":8,"encoder":"89654855","distractor":"89654858","target":"absent","response":"absent","rt":"39862.700000048","correct":true,"confidence":2},{"trial_n":26,"span":9,"encoder":"486837655","distractor":"476837655","target":"present","response":"present","rt":"3869.6000001431","correct":true,"confidence":3},{"trial_n":27,"span":9,"encoder":"387322389","distractor":"587322389","target":"absent","response":"absent","rt":"1902.5999999046","correct":true,"confidence":4},{"trial_n":28,"span":10,"encoder":"2692166406","distractor":"9692166406","target":"absent","response":"absent","rt":"15595.299999952","correct":true,"confidence":1},{"trial_n":29,"span":10,"encoder":"1953879296","distractor":"1953479296","target":"present","response":"absent","rt":"2099.7999999523","correct":false,"confidence":2},{"trial_n":30,"span":9,"encoder":"155345433","distractor":"155445433","target":"absent","response":"present","rt":"5381.2000000477","correct":false,"confidence":3},{"trial_n":31,"span":8,"encoder":"58366746","distractor":"58363746","target":"absent","response":"present","rt":"2633.8999998569","correct":false,"confidence":1},{"trial_n":32,"span":7,"encoder":"9199902","distractor":"9159902","target":"present","response":"present","rt":"3331.6000001431","correct":true,"confidence":4},{"trial_n":33,"span":7,"encoder":"1730124","distractor":"1730024","target":"absent","response":"absent","rt":"3749.7000000477","correct":true,"confidence":4},{"trial_n":34,"span":8,"encoder":"63574222","distractor":"63574228","target":"present","response":"present","rt":"3983.4000000954","correct":true,"confidence":3},{"trial_n":35,"span":8,"encoder":"12179998","distractor":"12169998","target":"absent","response":"absent","rt":"2127.5999999046","correct":true,"confidence":2},{"trial_n":36,"span":9,"encoder":"901311335","distractor":"901311337","target":"present","response":"present","rt":"6024.0999999046","correct":true,"confidence":3},{"trial_n":37,"span":9,"encoder":"090704544","distractor":"090700544","target":"present","response":"absent","rt":"1809.1000001431","correct":false,"confidence":2},{"trial_n":38,"span":8,"encoder":"21979143","distractor":"91979143","target":"present","response":"present","rt":"3353.1999998093","correct":true,"confidence":3},{"trial_n":39,"span":8,"encoder":"28244479","distractor":"28242479","target":"absent","response":"absent","rt":"1694.7000000477","correct":true,"confidence":5},{"trial_n":40,"span":9,"encoder":"992851288","distractor":"992851188","target":"absent","response":"present","rt":"3482.8999998569","correct":false,"confidence":2},{"trial_n":41,"span":8,"encoder":"39852067","distractor":"39862067","target":"absent","response":"absent","rt":"2538.4000000954","correct":true,"confidence":2},{"trial_n":42,"span":8,"encoder":"54384483","distractor":"54364483","target":"present","response":"present","rt":"3249.8000001907","correct":true,"confidence":4},{"trial_n":43,"span":9,"encoder":"047071836","distractor":"047071336","target":"absent","response":"absent","rt":"5798.6000001431","correct":true,"confidence":3},{"trial_n":44,"span":9,"encoder":"590116649","distractor":"590816649","target":"present","response":"present","rt":"4753.8999998569","correct":true,"confidence":3},{"trial_n":45,"span":10,"encoder":"8203161639","distractor":"8203161609","target":"absent","response":"present","rt":"4404","correct":false,"confidence":3},{"trial_n":46,"span":9,"encoder":"472689124","distractor":"470689124","target":"absent","response":"present","rt":"4979.7999999523","correct":false,"confidence":2},{"trial_n":47,"span":8,"encoder":"81916528","distractor":"81911528","target":"absent","response":"absent","rt":"5970.9000000954","correct":true,"confidence":3},{"trial_n":48,"span":8,"encoder":"85057793","distractor":"85054793","target":"present","response":"present","rt":"2971.0999999046","correct":true,"confidence":4},{"trial_n":49,"span":9,"encoder":"107412360","distractor":"108412360","target":"absent","response":"absent","rt":"2359.7000000477","correct":true,"confidence":2},{"trial_n":50,"span":9,"encoder":"312938084","distractor":"312538084","target":"present","response":"present","rt":"7915.6000001431","correct":true,"confidence":2},{"trial_n":51,"span":10,"encoder":"5625494882","distractor":"5620494882","target":"present","response":"present","rt":"4187.1000001431","correct":true,"confidence":3},{"trial_n":52,"span":10,"encoder":"2753186062","distractor":"2703186062","target":"present","response":"present","rt":"4018.7999999523","correct":true,"confidence":2},{"trial_n":53,"span":11,"encoder":"28162125142","distractor":"28162725142","target":"absent","response":"present","rt":"4051","correct":false,"confidence":3},{"trial_n":54,"span":10,"encoder":"9803630077","distractor":"9903630077","target":"absent","response":"absent","rt":"7013.2999999523","correct":true,"confidence":3},{"trial_n":55,"span":10,"encoder":"2825953792","distractor":"2825956792","target":"present","response":"present","rt":"5519.8999998569","correct":true,"confidence":3},{"trial_n":56,"span":11,"encoder":"56271635103","distractor":"56271435103","target":"present","response":"present","rt":"4647.5","correct":true,"confidence":3},{"trial_n":57,"span":11,"encoder":"68045322495","distractor":"68005322495","target":"absent","response":"absent","rt":"2346.1000001431","correct":true,"confidence":3},{"trial_n":58,"span":12,"encoder":"586001123105","distractor":"586501123105","target":"absent","response":"absent","rt":"12386.900000095","correct":true,"confidence":1},{"trial_n":59,"span":12,"encoder":"160839328929","distractor":"180839328929","target":"absent","response":"present","rt":"2224.5","correct":false,"confidence":2},{"trial_n":60,"span":11,"encoder":"35411700392","distractor":"35414700392","target":"absent","response":"absent","rt":"1526.5999999046","correct":true,"confidence":1},{"trial_n":61,"span":11,"encoder":"13901916436","distractor":"13900916436","target":"present","response":"present","rt":"4560.0999999046","correct":true,"confidence":3},{"trial_n":62,"span":12,"encoder":"325073994999","distractor":"325063994999","target":"present","response":"present","rt":"3149.0999999046","correct":true,"confidence":2},{"trial_n":63,"span":12,"encoder":"551049849685","distractor":"555049849685","target":"present","response":"absent","rt":"2326.3000001907","correct":false,"confidence":1},{"trial_n":64,"span":11,"encoder":"24118672496","distractor":"24118672497","target":"present","response":"absent","rt":"8813.9000000954","correct":false,"confidence":2},{"trial_n":65,"span":10,"encoder":"3576533405","distractor":"3576733405","target":"present","response":"absent","rt":"1772.8000001907","correct":false,"confidence":1},{"trial_n":66,"span":9,"encoder":"282398466","distractor":"282198466","target":"present","response":"present","rt":"3442","correct":true,"confidence":2},{"trial_n":67,"span":9,"encoder":"108705008","distractor":"108704008","target":"present","response":"present","rt":"3118.8999998569","correct":true,"confidence":3},{"trial_n":68,"span":10,"encoder":"8953399114","distractor":"8953349114","target":"absent","response":"absent","rt":"2325.2999999523","correct":true,"confidence":5},{"trial_n":69,"span":10,"encoder":"1484186184","distractor":"1484186183","target":"present","response":"present","rt":"2365.8999998569","correct":true,"confidence":2},{"trial_n":70,"span":11,"encoder":"66434040736","distractor":"66454040736","target":"absent","response":"absent","rt":"1888.8999998569","correct":true,"confidence":1},{"trial_n":71,"span":8,"encoder":"96368665","distractor":"99368665","target":"present","response":"present","rt":"6344.5999999046","correct":true,"confidence":-1},{"trial_n":72,"span":8,"encoder":"87307348","distractor":"87307358","target":"present","response":"present","rt":"3963.5999999046","correct":true,"confidence":-1},{"trial_n":73,"span":9,"encoder":"527166370","distractor":"427166370","target":"absent","response":"absent","rt":"3049.2000000477","correct":true,"confidence":-1},{"trial_n":74,"span":9,"encoder":"838049108","distractor":"838045108","target":"absent","response":"absent","rt":"1097.7999999523","correct":true,"confidence":-1},{"trial_n":75,"span":10,"encoder":"5120941762","distractor":"5120441762","target":"present","response":"present","rt":"5284.5","correct":true,"confidence":-1},{"trial_n":76,"span":10,"encoder":"6338248595","distractor":"6331248595","target":"absent","response":"present","rt":"10776.799999952","correct":false,"confidence":-1},{"trial_n":77,"span":9,"encoder":"877763703","distractor":"877763705","target":"absent","response":"absent","rt":"3171.5999999046","correct":true,"confidence":-1},{"trial_n":78,"span":9,"encoder":"235737815","distractor":"235730815","target":"present","response":"present","rt":"3954.1000001431","correct":true,"confidence":-1},{"trial_n":79,"span":10,"encoder":"4226700607","distractor":"4266700607","target":"present","response":"absent","rt":"4468.5999999046","correct":false,"confidence":-1},{"trial_n":80,"span":9,"encoder":"840203206","distractor":"740203206","target":"absent","response":"present","rt":"5328.2000000477","correct":false,"confidence":-1},{"trial_n":81,"span":8,"encoder":"04755402","distractor":"04755002","target":"absent","response":"absent","rt":"4957.0999999046","correct":true,"confidence":-1},{"trial_n":82,"span":8,"encoder":"50389187","distractor":"50379187","target":"present","response":"present","rt":"5453.9000000954","correct":true,"confidence":-1},{"trial_n":83,"span":9,"encoder":"610551728","distractor":"610551328","target":"present","response":"present","rt":"9446.3999998569","correct":true,"confidence":-1},{"trial_n":84,"span":9,"encoder":"303060734","distractor":"393060734","target":"absent","response":"absent","rt":"2315.6999998093","correct":true,"confidence":-1},{"trial_n":85,"span":10,"encoder":"0908132241","distractor":"0908132211","target":"absent","response":"absent","rt":"2551.5","correct":true,"confidence":-1},{"trial_n":86,"span":10,"encoder":"5993645978","distractor":"5293645978","target":"absent","response":"absent","rt":"739.20000004768","correct":true,"confidence":-1},{"trial_n":87,"span":11,"encoder":"59444144592","distractor":"59444164592","target":"absent","response":"present","rt":"319.70000004768","correct":false,"confidence":-1},{"trial_n":88,"span":10,"encoder":"5837093746","distractor":"5837993746","target":"present","response":"present","rt":"406.40000009537","correct":true,"confidence":-1},{"trial_n":89,"span":10,"encoder":"8800756641","distractor":"8840756641","target":"present","response":"absent","rt":"549.20000004768","correct":false,"confidence":-1},{"trial_n":90,"span":9,"encoder":"577477638","distractor":"577437638","target":"absent","response":"present","rt":"1017.0999999046","correct":false,"confidence":-1},{"trial_n":91,"span":8,"encoder":"10628437","distractor":"10626437","target":"present","response":"present","rt":"3031.5999999046","correct":true,"confidence":3},{"trial_n":92,"span":8,"encoder":"99979587","distractor":"99989587","target":"absent","response":"absent","rt":"3954.4000000954","correct":true,"confidence":4},{"trial_n":93,"span":9,"encoder":"125569169","distractor":"122569169","target":"present","response":"present","rt":"7912.5999999046","correct":true,"confidence":2},{"trial_n":94,"span":9,"encoder":"343640716","distractor":"343640416","target":"absent","response":"absent","rt":"4002.2999999523","correct":true,"confidence":3},{"trial_n":95,"span":10,"encoder":"5741705296","distractor":"5341705296","target":"present","response":"absent","rt":"4034.5999999046","correct":false,"confidence":2},{"trial_n":96,"span":9,"encoder":"059285308","distractor":"059285328","target":"absent","response":"absent","rt":"4876.5999999046","correct":true,"confidence":5},{"trial_n":97,"span":9,"encoder":"969989054","distractor":"069989054","target":"present","response":"present","rt":"8646.6999998093","correct":true,"confidence":3},{"trial_n":98,"span":10,"encoder":"0133947821","distractor":"0133977821","target":"present","response":"absent","rt":"2935.2000000477","correct":false,"confidence":3},{"trial_n":99,"span":9,"encoder":"910828376","distractor":"910628376","target":"present","response":"absent","rt":"6908.0999999046","correct":false,"confidence":2},{"trial_n":100,"span":8,"encoder":"76319977","distractor":"76319277","target":"absent","response":"absent","rt":"3742.7000000477","correct":true,"confidence":4},{"trial_n":101,"span":8,"encoder":"18266986","distractor":"13266986","target":"absent","response":"absent","rt":"1726.7000000477","correct":true,"confidence":5},{"trial_n":102,"span":9,"encoder":"466030809","distractor":"466030802","target":"present","response":"present","rt":"4601.4000000954","correct":true,"confidence":4},{"trial_n":103,"span":9,"encoder":"977504138","distractor":"977544138","target":"present","response":"present","rt":"6163.5","correct":true,"confidence":3},{"trial_n":104,"span":10,"encoder":"1099096997","distractor":"1098096997","target":"absent","response":"absent","rt":"3465.8999998569","correct":true,"confidence":4},{"trial_n":105,"span":10,"encoder":"7237738289","distractor":"7237738283","target":"absent","response":"present","rt":"3791.4000000954","correct":false,"confidence":2},{"trial_n":106,"span":9,"encoder":"359643795","distractor":"359643765","target":"present","response":"present","rt":"3621.4000000954","correct":true,"confidence":3},{"trial_n":107,"span":9,"encoder":"608104237","distractor":"608904237","target":"present","response":"absent","rt":"2002.1999998093","correct":false,"confidence":3},{"trial_n":108,"span":8,"encoder":"44673276","distractor":"43673276","target":"absent","response":"absent","rt":"5398.2000000477","correct":true,"confidence":3},{"trial_n":109,"span":8,"encoder":"08526866","distractor":"06526866","target":"absent","response":"absent","rt":"3553.5","correct":true,"confidence":3},{"trial_n":110,"span":9,"encoder":"846873753","distractor":"846863753","target":"absent","response":"absent","rt":"5039.2999999523","correct":true,"confidence":4},{"trial_n":111,"span":9,"encoder":"566592447","distractor":"266592447","target":"present","response":"present","rt":"3066.8999998569","correct":true,"confidence":3},{"trial_n":112,"span":10,"encoder":"5450074068","distractor":"5450074268","target":"present","response":"present","rt":"6989.5999999046","correct":true,"confidence":4},{"trial_n":113,"span":10,"encoder":"2185446613","distractor":"2180446613","target":"absent","response":"absent","rt":"6067.8999998569","correct":true,"confidence":4},{"trial_n":114,"span":11,"encoder":"89039055757","distractor":"89039455757","target":"absent","response":"absent","rt":"12748.299999952","correct":true,"confidence":3},{"trial_n":115,"span":11,"encoder":"02025223057","distractor":"02025223047","target":"absent","response":"absent","rt":"4166.7999999523","correct":true,"confidence":3},{"trial_n":116,"span":12,"encoder":"867110949740","distractor":"867110999740","target":"present","response":"absent","rt":"9888.2000000477","correct":false,"confidence":1},{"trial_n":117,"span":11,"encoder":"19773076213","distractor":"09773076213","target":"present","response":"present","rt":"4095","correct":true,"confidence":4},{"trial_n":118,"span":11,"encoder":"13065834926","distractor":"63065834926","target":"absent","response":"absent","rt":"5855.2999999523","correct":true,"confidence":1},{"trial_n":119,"span":12,"encoder":"257469709943","distractor":"257469409943","target":"absent","response":"absent","rt":"2111.0999999046","correct":true,"confidence":2},{"trial_n":120,"span":12,"encoder":"358610530649","distractor":"358610530643","target":"present","response":"present","rt":"17373.400000095","correct":true,"confidence":3},{"trial_n":121,"span":13,"encoder":"8573847794954","distractor":"8573847799954","target":"present","response":"absent","rt":"12647.299999952","correct":false,"confidence":1},{"trial_n":122,"span":12,"encoder":"974293371050","distractor":"974223371050","target":"present","response":"absent","rt":"5780.9000000954","correct":false,"confidence":2},{"trial_n":123,"span":11,"encoder":"40400808464","distractor":"40420808464","target":"present","response":"present","rt":"6629.2999999523","correct":true,"confidence":3},{"trial_n":124,"span":11,"encoder":"83806570044","distractor":"83807570044","target":"present","response":"present","rt":"3482","correct":true,"confidence":2},{"trial_n":125,"span":12,"encoder":"515850980949","distractor":"515850880949","target":"present","response":"present","rt":"3931.9000000954","correct":true,"confidence":2},{"trial_n":126,"span":12,"encoder":"013825634593","distractor":"013725634593","target":"absent","response":"absent","rt":"1896.9000000954","correct":true,"confidence":2},{"trial_n":127,"span":13,"encoder":"3166827385296","distractor":"3168827385296","target":"absent","response":"present","rt":"13551.799999952","correct":false,"confidence":1},{"trial_n":128,"span":12,"encoder":"295201589272","distractor":"295207589272","target":"absent","response":"absent","rt":"4650.1000001431","correct":true,"confidence":4},{"trial_n":129,"span":12,"encoder":"680278922767","distractor":"680278924767","target":"present","response":"absent","rt":"5058.0999999046","correct":false,"confidence":1},{"trial_n":130,"span":11,"encoder":"28100116574","distractor":"08100116574","target":"present","response":"absent","rt":"13006.400000095","correct":false,"confidence":1},{"trial_n":131,"span":10,"encoder":"3447396988","distractor":"3447397988","target":"absent","response":"present","rt":"4668","correct":false,"confidence":1},{"trial_n":132,"span":9,"encoder":"853869563","distractor":"873869563","target":"present","response":"present","rt":"12967.100000143","correct":true,"confidence":3},{"trial_n":133,"span":9,"encoder":"621595972","distractor":"621195972","target":"absent","response":"absent","rt":"3036.3000001907","correct":true,"confidence":4},{"trial_n":134,"span":10,"encoder":"1787009014","distractor":"1687009014","target":"present","response":"present","rt":"5932.2999999523","correct":true,"confidence":3},{"trial_n":135,"span":10,"encoder":"1126470452","distractor":"1426470452","target":"present","response":"absent","rt":"4191.7999999523","correct":false,"confidence":2},{"trial_n":136,"span":9,"encoder":"312406142","distractor":"312496142","target":"absent","response":"absent","rt":"5683.9000000954","correct":true,"confidence":3},{"trial_n":137,"span":9,"encoder":"756477448","distractor":"756477438","target":"present","response":"absent","rt":"4777.1999998093","correct":false,"confidence":3},{"trial_n":138,"span":8,"encoder":"28833871","distractor":"28833861","target":"absent","response":"present","rt":"5481.7000000477","correct":false,"confidence":3},{"trial_n":139,"span":7,"encoder":"3286749","distractor":"3296749","target":"absent","response":"absent","rt":"9795.5","correct":true,"confidence":4},{"trial_n":140,"span":7,"encoder":"1856752","distractor":"1876752","target":"present","response":"present","rt":"5757.0999999046","correct":true,"confidence":4}]