[{"trial_n":1,"min":25,"max":230,"target":"present","response":"present","rt":8002.2999999998,"correct":true,"confidence":-1},{"trial_n":2,"min":25,"max":230,"target":"present","response":"present","rt":4096.7000000002,"correct":true,"confidence":-1},{"trial_n":3,"min":41,"max":214,"target":"absent","response":"present","rt":3893.5,"correct":false,"confidence":-1},{"trial_n":4,"min":25,"max":230,"target":"absent","response":"present","rt":10978.100000001,"correct":false,"confidence":-1},{"trial_n":5,"min":9,"max":246,"target":"present","response":"absent","rt":2874,"correct":false,"confidence":-1},{"trial_n":6,"min":0,"max":255,"target":"absent","response":"present","rt":2841.2000000002,"correct":false,"confidence":-1},{"trial_n":7,"min":0,"max":255,"target":"absent","response":"absent","rt":2102,"correct":true,"confidence":-1},{"trial_n":8,"min":0,"max":255,"target":"absent","response":"absent","rt":2420.2000000002,"correct":true,"confidence":-1},{"trial_n":9,"min":16,"max":239,"target":"absent","response":"absent","rt":1207.5,"correct":true,"confidence":-1},{"trial_n":10,"min":16,"max":239,"target":"absent","response":"absent","rt":869.89999999944,"correct":true,"confidence":-1},{"trial_n":11,"min":24,"max":231,"target":"present","response":"present","rt":2205.7000000002,"correct":true,"confidence":-1},{"trial_n":12,"min":24,"max":231,"target":"absent","response":"absent","rt":1612.6999999993,"correct":true,"confidence":-1},{"trial_n":13,"min":32,"max":223,"target":"absent","response":"absent","rt":2537.9000000004,"correct":true,"confidence":-1},{"trial_n":14,"min":32,"max":223,"target":"present","response":"present","rt":1681.2000000002,"correct":true,"confidence":-1},{"trial_n":15,"min":40,"max":215,"target":"absent","response":"present","rt":2538.5,"correct":false,"confidence":-1},{"trial_n":16,"min":32,"max":223,"target":"absent","response":"absent","rt":2157,"correct":true,"confidence":-1},{"trial_n":17,"min":32,"max":223,"target":"absent","response":"absent","rt":921.90000000037,"correct":true,"confidence":-1},{"trial_n":18,"min":40,"max":215,"target":"absent","response":"absent","rt":2668.8999999994,"correct":true,"confidence":-1},{"trial_n":19,"min":40,"max":215,"target":"present","response":"present","rt":1910.0999999996,"correct":true,"confidence":-1},{"trial_n":20,"min":48,"max":207,"target":"present","response":"present","rt":1878.4000000004,"correct":true,"confidence":-1},{"trial_n":21,"min":48,"max":207,"target":"present","response":"present","rt":1407.9000000004,"correct":true,"confidence":5},{"trial_n":22,"min":52,"max":203,"target":"present","response":"present","rt":1826.5,"correct":true,"confidence":5},{"trial_n":23,"min":52,"max":203,"target":"present","response":"present","rt":1631.2999999998,"correct":true,"confidence":4},{"trial_n":24,"min":56,"max":199,"target":"present","response":"present","rt":1338.6000000006,"correct":true,"confidence":4},{"trial_n":25,"min":56,"max":199,"target":"present","response":"present","rt":1569.4000000004,"correct":true,"confidence":3},{"trial_n":26,"min":60,"max":195,"target":"present","response":"present","rt":1719.4000000004,"correct":true,"confidence":3},{"trial_n":27,"min":60,"max":195,"target":"present","response":"present","rt":1972,"correct":true,"confidence":4},{"trial_n":28,"min":64,"max":191,"target":"absent","response":"absent","rt":2105.0999999996,"correct":true,"confidence":2},{"trial_n":29,"min":64,"max":191,"target":"present","response":"absent","rt":2175.5999999996,"correct":false,"confidence":3},{"trial_n":30,"min":60,"max":195,"target":"absent","response":"absent","rt":2745.3999999994,"correct":true,"confidence":2},{"trial_n":31,"min":60,"max":195,"target":"present","response":"present","rt":1554.5,"correct":true,"confidence":4},{"trial_n":32,"min":62,"max":193,"target":"absent","response":"present","rt":1743.5999999996,"correct":false,"confidence":4},{"trial_n":33,"min":60,"max":195,"target":"present","response":"present","rt":2489.5,"correct":true,"confidence":4},{"trial_n":34,"min":60,"max":195,"target":"present","response":"present","rt":1585.5999999996,"correct":true,"confidence":4},{"trial_n":35,"min":62,"max":193,"target":"absent","response":"absent","rt":1717.5999999996,"correct":true,"confidence":2},{"trial_n":36,"min":62,"max":193,"target":"present","response":"present","rt":1202.5999999996,"correct":true,"confidence":3},{"trial_n":37,"min":64,"max":191,"target":"present","response":"absent","rt":2248.2000000002,"correct":false,"confidence":2},{"trial_n":38,"min":62,"max":193,"target":"absent","response":"present","rt":2709.7999999998,"correct":false,"confidence":2},{"trial_n":39,"min":60,"max":195,"target":"absent","response":"absent","rt":2165.1000000006,"correct":true,"confidence":2},{"trial_n":40,"min":60,"max":195,"target":"present","response":"present","rt":1377.5999999996,"correct":true,"confidence":2},{"trial_n":41,"min":61,"max":194,"target":"absent","response":"absent","rt":2762.4000000004,"correct":true,"confidence":3},{"trial_n":42,"min":61,"max":194,"target":"present","response":"present","rt":1732.0999999996,"correct":true,"confidence":3},{"trial_n":43,"min":62,"max":193,"target":"present","response":"present","rt":2644.3000000007,"correct":true,"confidence":4},{"trial_n":44,"min":62,"max":193,"target":"present","response":"present","rt":1274.0999999996,"correct":true,"confidence":4},{"trial_n":45,"min":63,"max":192,"target":"absent","response":"absent","rt":2228.0999999996,"correct":true,"confidence":4},{"trial_n":46,"min":63,"max":192,"target":"present","response":"present","rt":1151.9000000004,"correct":true,"confidence":4},{"trial_n":47,"min":64,"max":191,"target":"absent","response":"absent","rt":1657.2000000002,"correct":true,"confidence":3},{"trial_n":48,"min":64,"max":191,"target":"present","response":"absent","rt":2037.2999999998,"correct":false,"confidence":2},{"trial_n":49,"min":63,"max":192,"target":"absent","response":"absent","rt":2035.2000000002,"correct":true,"confidence":2},{"trial_n":50,"min":63,"max":192,"target":"absent","response":"absent","rt":1949,"correct":true,"confidence":2},{"trial_n":51,"min":64,"max":191,"target":"absent","response":"absent","rt":3043.8999999994,"correct":true,"confidence":1},{"trial_n":52,"min":64,"max":191,"target":"absent","response":"absent","rt":1939.7999999998,"correct":true,"confidence":3},{"trial_n":53,"min":65,"max":190,"target":"present","response":"present","rt":1405,"correct":true,"confidence":4},{"trial_n":54,"min":65,"max":190,"target":"absent","response":"absent","rt":3430.9000000004,"correct":true,"confidence":3},{"trial_n":55,"min":66,"max":189,"target":"present","response":"present","rt":1645.1999999993,"correct":true,"confidence":4},{"trial_n":56,"min":66,"max":189,"target":"present","response":"present","rt":1170,"correct":true,"confidence":4},{"trial_n":57,"min":67,"max":188,"target":"present","response":"present","rt":1236.4000000004,"correct":true,"confidence":4},{"trial_n":58,"min":67,"max":188,"target":"present","response":"present","rt":1218.7000000002,"correct":true,"confidence":4},{"trial_n":59,"min":68,"max":187,"target":"present","response":"present","rt":1128.7000000002,"correct":true,"confidence":5},{"trial_n":60,"min":68,"max":187,"target":"absent","response":"absent","rt":1652.2999999998,"correct":true,"confidence":3},{"trial_n":61,"min":69,"max":186,"target":"absent","response":"absent","rt":2057.2000000002,"correct":true,"confidence":2},{"trial_n":62,"min":69,"max":186,"target":"present","response":"present","rt":1113,"correct":true,"confidence":4},{"trial_n":63,"min":70,"max":185,"target":"present","response":"present","rt":1327.5999999996,"correct":true,"confidence":4},{"trial_n":64,"min":70,"max":185,"target":"absent","response":"absent","rt":1610.4000000004,"correct":true,"confidence":3},{"trial_n":65,"min":71,"max":184,"target":"absent","response":"absent","rt":1815.7000000002,"correct":true,"confidence":3},{"trial_n":66,"min":71,"max":184,"target":"absent","response":"absent","rt":1777.2999999998,"correct":true,"confidence":2},{"trial_n":67,"min":72,"max":183,"target":"present","response":"present","rt":1432.7000000002,"correct":true,"confidence":2},{"trial_n":68,"min":72,"max":183,"target":"absent","response":"absent","rt":1487.7999999998,"correct":true,"confidence":3},{"trial_n":69,"min":73,"max":182,"target":"present","response":"absent","rt":2079.0999999996,"correct":false,"confidence":2},{"trial_n":70,"min":72,"max":183,"target":"absent","response":"absent","rt":1436,"correct":true,"confidence":3},{"trial_n":71,"min":41,"max":214,"target":"present","response":"absent","rt":2795.7000000002,"correct":false,"confidence":-1},{"trial_n":72,"min":41,"max":214,"target":"present","response":"absent","rt":2895.2000000002,"correct":false,"confidence":-1},{"trial_n":73,"min":25,"max":230,"target":"absent","response":"present","rt":1331.2000000002,"correct":false,"confidence":-1},{"trial_n":74,"min":9,"max":246,"target":"absent","response":"absent","rt":1905.5999999996,"correct":true,"confidence":-1},{"trial_n":75,"min":9,"max":246,"target":"present","response":"absent","rt":3758.8000000007,"correct":false,"confidence":-1},{"trial_n":76,"min":0,"max":255,"target":"absent","response":"present","rt":1620,"correct":false,"confidence":-1},{"trial_n":77,"min":0,"max":255,"target":"present","response":"absent","rt":1596.2000000002,"correct":false,"confidence":-1},{"trial_n":78,"min":0,"max":255,"target":"present","response":"present","rt":1306.5999999996,"correct":true,"confidence":-1},{"trial_n":79,"min":0,"max":255,"target":"absent","response":"present","rt":1140.5999999996,"correct":false,"confidence":-1},{"trial_n":80,"min":0,"max":255,"target":"present","response":"absent","rt":1597.7999999998,"correct":false,"confidence":-1},{"trial_n":81,"min":0,"max":255,"target":"absent","response":"present","rt":1525.2999999998,"correct":false,"confidence":-1},{"trial_n":82,"min":0,"max":255,"target":"present","response":"absent","rt":1599.1999999993,"correct":false,"confidence":-1},{"trial_n":83,"min":0,"max":255,"target":"absent","response":"absent","rt":1440.3999999994,"correct":true,"confidence":-1},{"trial_n":84,"min":0,"max":255,"target":"present","response":"present","rt":1282.9000000004,"correct":true,"confidence":-1},{"trial_n":85,"min":8,"max":247,"target":"absent","response":"absent","rt":1842.4000000004,"correct":true,"confidence":-1},{"trial_n":86,"min":8,"max":247,"target":"absent","response":"absent","rt":2137.3000000007,"correct":true,"confidence":-1},{"trial_n":87,"min":16,"max":239,"target":"absent","response":"absent","rt":2625.3999999994,"correct":true,"confidence":-1},{"trial_n":88,"min":16,"max":239,"target":"absent","response":"absent","rt":3485.5,"correct":true,"confidence":-1},{"trial_n":89,"min":24,"max":231,"target":"present","response":"absent","rt":1294.6999999993,"correct":false,"confidence":-1},{"trial_n":90,"min":16,"max":239,"target":"present","response":"present","rt":1714.7999999998,"correct":true,"confidence":-1},{"trial_n":91,"min":16,"max":239,"target":"absent","response":"absent","rt":2163.8999999994,"correct":true,"confidence":1},{"trial_n":92,"min":20,"max":235,"target":"absent","response":"present","rt":1574.6999999993,"correct":false,"confidence":1},{"trial_n":93,"min":16,"max":239,"target":"present","response":"absent","rt":2887.1000000006,"correct":false,"confidence":3},{"trial_n":94,"min":12,"max":243,"target":"present","response":"absent","rt":1997.0999999996,"correct":false,"confidence":2},{"trial_n":95,"min":8,"max":247,"target":"absent","response":"absent","rt":2048.5,"correct":true,"confidence":2},{"trial_n":96,"min":8,"max":247,"target":"present","response":"present","rt":2459.7000000002,"correct":true,"confidence":3},{"trial_n":97,"min":12,"max":243,"target":"absent","response":"absent","rt":1921.6000000006,"correct":true,"confidence":2},{"trial_n":98,"min":12,"max":243,"target":"present","response":"present","rt":2623.7999999998,"correct":true,"confidence":3},{"trial_n":99,"min":16,"max":239,"target":"absent","response":"absent","rt":1984.8999999994,"correct":true,"confidence":2},{"trial_n":100,"min":16,"max":239,"target":"present","response":"present","rt":1726.3000000007,"correct":true,"confidence":2},{"trial_n":101,"min":18,"max":237,"target":"present","response":"present","rt":2479.7999999998,"correct":true,"confidence":3},{"trial_n":102,"min":18,"max":237,"target":"absent","response":"absent","rt":1834.9000000004,"correct":true,"confidence":2},{"trial_n":103,"min":20,"max":235,"target":"present","response":"present","rt":2481.5999999996,"correct":true,"confidence":3},{"trial_n":104,"min":20,"max":235,"target":"absent","response":"absent","rt":1713.0999999996,"correct":true,"confidence":3},{"trial_n":105,"min":22,"max":233,"target":"present","response":"absent","rt":3220.2000000002,"correct":false,"confidence":2},{"trial_n":106,"min":20,"max":235,"target":"present","response":"absent","rt":2320.5,"correct":false,"confidence":2},{"trial_n":107,"min":18,"max":237,"target":"present","response":"absent","rt":1810.3000000007,"correct":false,"confidence":2},{"trial_n":108,"min":16,"max":239,"target":"present","response":"present","rt":1947.7000000002,"correct":true,"confidence":3},{"trial_n":109,"min":16,"max":239,"target":"absent","response":"absent","rt":1653.5,"correct":true,"confidence":3},{"trial_n":110,"min":18,"max":237,"target":"absent","response":"absent","rt":1953.9000000004,"correct":true,"confidence":2},{"trial_n":111,"min":18,"max":237,"target":"absent","response":"absent","rt":1805.1999999993,"correct":true,"confidence":2},{"trial_n":112,"min":19,"max":236,"target":"absent","response":"present","rt":1472.7000000002,"correct":false,"confidence":1},{"trial_n":113,"min":18,"max":237,"target":"present","response":"present","rt":2115.7000000002,"correct":true,"confidence":3},{"trial_n":114,"min":18,"max":237,"target":"absent","response":"absent","rt":4230.5,"correct":true,"confidence":3},{"trial_n":115,"min":19,"max":236,"target":"absent","response":"absent","rt":1909.0999999996,"correct":true,"confidence":4},{"trial_n":116,"min":19,"max":236,"target":"present","response":"present","rt":1734,"correct":true,"confidence":2},{"trial_n":117,"min":20,"max":235,"target":"present","response":"present","rt":2372.5,"correct":true,"confidence":3},{"trial_n":118,"min":20,"max":235,"target":"present","response":"absent","rt":1983,"correct":false,"confidence":3},{"trial_n":119,"min":19,"max":236,"target":"present","response":"present","rt":2228.2000000002,"correct":true,"confidence":3},{"trial_n":120,"min":19,"max":236,"target":"absent","response":"absent","rt":1523,"correct":true,"confidence":3},{"trial_n":121,"min":20,"max":235,"target":"present","response":"absent","rt":1802.5,"correct":false,"confidence":1},{"trial_n":122,"min":19,"max":236,"target":"present","response":"present","rt":2328.9000000004,"correct":true,"confidence":3},{"trial_n":123,"min":19,"max":236,"target":"present","response":"absent","rt":3592,"correct":false,"confidence":1},{"trial_n":124,"min":18,"max":237,"target":"present","response":"present","rt":1907.5999999996,"correct":true,"confidence":2},{"trial_n":125,"min":18,"max":237,"target":"absent","response":"absent","rt":1644.5,"correct":true,"confidence":4},{"trial_n":126,"min":19,"max":236,"target":"absent","response":"absent","rt":2310.2999999998,"correct":true,"confidence":4},{"trial_n":127,"min":19,"max":236,"target":"absent","response":"absent","rt":2113.7000000002,"correct":true,"confidence":5},{"trial_n":128,"min":20,"max":235,"target":"present","response":"present","rt":2148.4000000004,"correct":true,"confidence":3},{"trial_n":129,"min":20,"max":235,"target":"present","response":"absent","rt":3876.9000000004,"correct":false,"confidence":1},{"trial_n":130,"min":19,"max":236,"target":"present","response":"present","rt":3113.4000000004,"correct":true,"confidence":3},{"trial_n":131,"min":19,"max":236,"target":"present","response":"present","rt":1691.7000000002,"correct":true,"confidence":4},{"trial_n":132,"min":20,"max":235,"target":"absent","response":"absent","rt":1857.7000000002,"correct":true,"confidence":5},{"trial_n":133,"min":20,"max":235,"target":"present","response":"present","rt":1787.4000000004,"correct":true,"confidence":3},{"trial_n":134,"min":21,"max":234,"target":"absent","response":"absent","rt":1863.5,"correct":true,"confidence":4},{"trial_n":135,"min":21,"max":234,"target":"absent","response":"absent","rt":1874.5,"correct":true,"confidence":4},{"trial_n":136,"min":22,"max":233,"target":"present","response":"present","rt":1994.3999999994,"correct":true,"confidence":2},{"trial_n":137,"min":22,"max":233,"target":"absent","response":"absent","rt":1703.8999999994,"correct":true,"confidence":4},{"trial_n":138,"min":23,"max":232,"target":"absent","response":"absent","rt":1373.4000000004,"correct":true,"confidence":4},{"trial_n":139,"min":23,"max":232,"target":"absent","response":"absent","rt":1648,"correct":true,"confidence":3},{"trial_n":140,"min":24,"max":231,"target":"absent","response":"absent","rt":1488.5,"correct":true,"confidence":3}]