[{"trial_n":1,"min":25,"max":230,"target":"present","response":"present","rt":5375,"correct":true,"confidence":-1},{"trial_n":2,"min":25,"max":230,"target":"present","response":"present","rt":957,"correct":true,"confidence":-1},{"trial_n":3,"min":41,"max":214,"target":"absent","response":"absent","rt":1550,"correct":true,"confidence":-1},{"trial_n":4,"min":41,"max":214,"target":"absent","response":"absent","rt":1269,"correct":true,"confidence":-1},{"trial_n":5,"min":57,"max":198,"target":"present","response":"present","rt":2697,"correct":true,"confidence":-1},{"trial_n":6,"min":57,"max":198,"target":"present","response":"present","rt":695,"correct":true,"confidence":-1},{"trial_n":7,"min":73,"max":182,"target":"absent","response":"present","rt":667.99999999999,"correct":false,"confidence":-1},{"trial_n":8,"min":57,"max":198,"target":"present","response":"absent","rt":1461,"correct":false,"confidence":-1},{"trial_n":9,"min":41,"max":214,"target":"present","response":"present","rt":2413,"correct":true,"confidence":-1},{"trial_n":10,"min":41,"max":214,"target":"present","response":"present","rt":745.99999999999,"correct":true,"confidence":-1},{"trial_n":11,"min":49,"max":206,"target":"absent","response":"absent","rt":1318,"correct":true,"confidence":-1},{"trial_n":12,"min":49,"max":206,"target":"present","response":"present","rt":1246,"correct":true,"confidence":-1},{"trial_n":13,"min":57,"max":198,"target":"present","response":"present","rt":696,"correct":true,"confidence":-1},{"trial_n":14,"min":57,"max":198,"target":"present","response":"present","rt":646.00000000001,"correct":true,"confidence":-1},{"trial_n":15,"min":65,"max":190,"target":"present","response":"present","rt":862.00000000001,"correct":true,"confidence":-1},{"trial_n":16,"min":65,"max":190,"target":"absent","response":"absent","rt":1301,"correct":true,"confidence":-1},{"trial_n":17,"min":73,"max":182,"target":"absent","response":"absent","rt":1034,"correct":true,"confidence":-1},{"trial_n":18,"min":73,"max":182,"target":"absent","response":"absent","rt":834.00000000001,"correct":true,"confidence":-1},{"trial_n":19,"min":81,"max":174,"target":"absent","response":"absent","rt":818,"correct":true,"confidence":-1},{"trial_n":20,"min":81,"max":174,"target":"present","response":"absent","rt":625,"correct":false,"confidence":-1},{"trial_n":21,"min":77,"max":178,"target":"present","response":"absent","rt":1660,"correct":false,"confidence":3},{"trial_n":22,"min":73,"max":182,"target":"absent","response":"absent","rt":1202,"correct":true,"confidence":4},{"trial_n":23,"min":73,"max":182,"target":"absent","response":"absent","rt":1070,"correct":true,"confidence":5},{"trial_n":24,"min":77,"max":178,"target":"present","response":"present","rt":1347,"correct":true,"confidence":3},{"trial_n":25,"min":77,"max":178,"target":"present","response":"present","rt":1298,"correct":true,"confidence":5},{"trial_n":26,"min":81,"max":174,"target":"absent","response":"absent","rt":953,"correct":true,"confidence":4},{"trial_n":27,"min":81,"max":174,"target":"absent","response":"absent","rt":1138,"correct":true,"confidence":4},{"trial_n":28,"min":85,"max":170,"target":"absent","response":"absent","rt":854,"correct":true,"confidence":5},{"trial_n":29,"min":85,"max":170,"target":"absent","response":"absent","rt":889,"correct":true,"confidence":5},{"trial_n":30,"min":89,"max":166,"target":"absent","response":"absent","rt":788,"correct":true,"confidence":5},{"trial_n":31,"min":89,"max":166,"target":"present","response":"absent","rt":1394,"correct":false,"confidence":4},{"trial_n":32,"min":87,"max":168,"target":"absent","response":"absent","rt":1122,"correct":true,"confidence":4},{"trial_n":33,"min":87,"max":168,"target":"absent","response":"absent","rt":803,"correct":true,"confidence":4},{"trial_n":34,"min":89,"max":166,"target":"absent","response":"absent","rt":838,"correct":true,"confidence":4},{"trial_n":35,"min":89,"max":166,"target":"present","response":"present","rt":1229,"correct":true,"confidence":3},{"trial_n":36,"min":91,"max":164,"target":"present","response":"absent","rt":799,"correct":false,"confidence":4},{"trial_n":37,"min":89,"max":166,"target":"present","response":"absent","rt":899,"correct":false,"confidence":4},{"trial_n":38,"min":87,"max":168,"target":"present","response":"absent","rt":800,"correct":false,"confidence":3},{"trial_n":39,"min":85,"max":170,"target":"present","response":"absent","rt":950,"correct":false,"confidence":4},{"trial_n":40,"min":83,"max":172,"target":"present","response":"absent","rt":1186,"correct":false,"confidence":3},{"trial_n":41,"min":82,"max":173,"target":"present","response":"absent","rt":1113,"correct":false,"confidence":3},{"trial_n":42,"min":81,"max":174,"target":"present","response":"present","rt":966.99999999997,"correct":true,"confidence":5},{"trial_n":43,"min":81,"max":174,"target":"present","response":"present","rt":1285,"correct":true,"confidence":4},{"trial_n":44,"min":82,"max":173,"target":"present","response":"present","rt":884,"correct":true,"confidence":5},{"trial_n":45,"min":82,"max":173,"target":"absent","response":"absent","rt":1175,"correct":true,"confidence":3},{"trial_n":46,"min":83,"max":172,"target":"absent","response":"absent","rt":941.99999999997,"correct":true,"confidence":3},{"trial_n":47,"min":83,"max":172,"target":"absent","response":"absent","rt":824,"correct":true,"confidence":2},{"trial_n":48,"min":84,"max":171,"target":"present","response":"absent","rt":1216,"correct":false,"confidence":4},{"trial_n":49,"min":83,"max":172,"target":"present","response":"present","rt":1036,"correct":true,"confidence":3},{"trial_n":50,"min":83,"max":172,"target":"absent","response":"absent","rt":1176,"correct":true,"confidence":4},{"trial_n":51,"min":84,"max":171,"target":"absent","response":"absent","rt":860,"correct":true,"confidence":4},{"trial_n":52,"min":84,"max":171,"target":"present","response":"present","rt":903,"correct":true,"confidence":3},{"trial_n":53,"min":85,"max":170,"target":"absent","response":"absent","rt":825,"correct":true,"confidence":4},{"trial_n":54,"min":85,"max":170,"target":"absent","response":"absent","rt":1141,"correct":true,"confidence":3},{"trial_n":55,"min":86,"max":169,"target":"present","response":"present","rt":970,"correct":true,"confidence":4},{"trial_n":56,"min":86,"max":169,"target":"present","response":"present","rt":1102,"correct":true,"confidence":4},{"trial_n":57,"min":87,"max":168,"target":"absent","response":"absent","rt":1309,"correct":true,"confidence":3},{"trial_n":58,"min":87,"max":168,"target":"absent","response":"absent","rt":1276,"correct":true,"confidence":4},{"trial_n":59,"min":88,"max":167,"target":"absent","response":"absent","rt":677,"correct":true,"confidence":3},{"trial_n":60,"min":88,"max":167,"target":"absent","response":"absent","rt":1309,"correct":true,"confidence":2},{"trial_n":61,"min":89,"max":166,"target":"present","response":"present","rt":1056,"correct":true,"confidence":4},{"trial_n":62,"min":89,"max":166,"target":"absent","response":"absent","rt":810.99999999997,"correct":true,"confidence":3},{"trial_n":63,"min":90,"max":165,"target":"absent","response":"absent","rt":745,"correct":true,"confidence":5},{"trial_n":64,"min":90,"max":165,"target":"absent","response":"absent","rt":1077,"correct":true,"confidence":3},{"trial_n":65,"min":91,"max":164,"target":"absent","response":"absent","rt":675.99999999997,"correct":true,"confidence":4},{"trial_n":66,"min":91,"max":164,"target":"present","response":"absent","rt":1005,"correct":false,"confidence":3},{"trial_n":67,"min":90,"max":165,"target":"present","response":"absent","rt":1287,"correct":false,"confidence":4},{"trial_n":68,"min":89,"max":166,"target":"absent","response":"absent","rt":877,"correct":true,"confidence":2},{"trial_n":69,"min":89,"max":166,"target":"present","response":"absent","rt":921,"correct":false,"confidence":3},{"trial_n":70,"min":88,"max":167,"target":"present","response":"absent","rt":838,"correct":false,"confidence":2},{"trial_n":71,"min":41,"max":214,"target":"present","response":"present","rt":1950,"correct":true,"confidence":-1},{"trial_n":72,"min":41,"max":214,"target":"present","response":"present","rt":2107,"correct":true,"confidence":-1},{"trial_n":73,"min":57,"max":198,"target":"absent","response":"absent","rt":1343,"correct":true,"confidence":-1},{"trial_n":74,"min":57,"max":198,"target":"absent","response":"absent","rt":710,"correct":true,"confidence":-1},{"trial_n":75,"min":73,"max":182,"target":"present","response":"present","rt":913,"correct":true,"confidence":-1},{"trial_n":76,"min":73,"max":182,"target":"absent","response":"absent","rt":979,"correct":true,"confidence":-1},{"trial_n":77,"min":89,"max":166,"target":"absent","response":"absent","rt":1414,"correct":true,"confidence":-1},{"trial_n":78,"min":89,"max":166,"target":"present","response":"present","rt":1215,"correct":true,"confidence":-1},{"trial_n":79,"min":105,"max":150,"target":"present","response":"present","rt":982,"correct":true,"confidence":-1},{"trial_n":80,"min":105,"max":150,"target":"present","response":"absent","rt":1766,"correct":false,"confidence":-1},{"trial_n":81,"min":97,"max":158,"target":"present","response":"absent","rt":1035.0000000001,"correct":false,"confidence":-1},{"trial_n":82,"min":89,"max":166,"target":"absent","response":"present","rt":1050,"correct":false,"confidence":-1},{"trial_n":83,"min":81,"max":174,"target":"absent","response":"absent","rt":1403,"correct":true,"confidence":-1},{"trial_n":84,"min":81,"max":174,"target":"absent","response":"absent","rt":1035,"correct":true,"confidence":-1},{"trial_n":85,"min":89,"max":166,"target":"present","response":"absent","rt":1268.0000000001,"correct":false,"confidence":-1},{"trial_n":86,"min":81,"max":174,"target":"present","response":"present","rt":1335,"correct":true,"confidence":-1},{"trial_n":87,"min":81,"max":174,"target":"present","response":"present","rt":735,"correct":true,"confidence":-1},{"trial_n":88,"min":89,"max":166,"target":"absent","response":"present","rt":952,"correct":false,"confidence":-1},{"trial_n":89,"min":81,"max":174,"target":"present","response":"present","rt":687,"correct":true,"confidence":-1},{"trial_n":90,"min":81,"max":174,"target":"absent","response":"present","rt":1336,"correct":false,"confidence":-1},{"trial_n":91,"min":77,"max":178,"target":"present","response":"present","rt":935,"correct":true,"confidence":3},{"trial_n":92,"min":77,"max":178,"target":"absent","response":"present","rt":1518,"correct":false,"confidence":2},{"trial_n":93,"min":73,"max":182,"target":"absent","response":"present","rt":918,"correct":false,"confidence":2},{"trial_n":94,"min":69,"max":186,"target":"present","response":"present","rt":804,"correct":true,"confidence":5},{"trial_n":95,"min":69,"max":186,"target":"absent","response":"absent","rt":1174,"correct":true,"confidence":4},{"trial_n":96,"min":73,"max":182,"target":"absent","response":"absent","rt":1208,"correct":true,"confidence":5},{"trial_n":97,"min":73,"max":182,"target":"present","response":"present","rt":871,"correct":true,"confidence":4},{"trial_n":98,"min":77,"max":178,"target":"absent","response":"present","rt":1122.9999999999,"correct":false,"confidence":2},{"trial_n":99,"min":73,"max":182,"target":"present","response":"present","rt":940,"correct":true,"confidence":5},{"trial_n":100,"min":73,"max":182,"target":"absent","response":"absent","rt":873,"correct":true,"confidence":4},{"trial_n":101,"min":75,"max":180,"target":"absent","response":"absent","rt":1141,"correct":true,"confidence":3},{"trial_n":102,"min":75,"max":180,"target":"present","response":"present","rt":2723.9999999999,"correct":true,"confidence":4},{"trial_n":103,"min":77,"max":178,"target":"present","response":"present","rt":1357,"correct":true,"confidence":3},{"trial_n":104,"min":77,"max":178,"target":"present","response":"present","rt":1208,"correct":true,"confidence":5},{"trial_n":105,"min":79,"max":176,"target":"absent","response":"absent","rt":924,"correct":true,"confidence":3},{"trial_n":106,"min":79,"max":176,"target":"present","response":"present","rt":926.00000000006,"correct":true,"confidence":4},{"trial_n":107,"min":81,"max":174,"target":"present","response":"present","rt":1176,"correct":true,"confidence":3},{"trial_n":108,"min":81,"max":174,"target":"absent","response":"absent","rt":942,"correct":true,"confidence":2},{"trial_n":109,"min":83,"max":172,"target":"present","response":"present","rt":1042.0000000001,"correct":true,"confidence":4},{"trial_n":110,"min":83,"max":172,"target":"present","response":"present","rt":1061,"correct":true,"confidence":4},{"trial_n":111,"min":84,"max":171,"target":"absent","response":"present","rt":1121,"correct":false,"confidence":3},{"trial_n":112,"min":83,"max":172,"target":"present","response":"present","rt":1060,"correct":true,"confidence":4},{"trial_n":113,"min":83,"max":172,"target":"present","response":"present","rt":1009.9999999999,"correct":true,"confidence":5},{"trial_n":114,"min":84,"max":171,"target":"absent","response":"absent","rt":1143,"correct":true,"confidence":2},{"trial_n":115,"min":84,"max":171,"target":"absent","response":"absent","rt":1126,"correct":true,"confidence":4},{"trial_n":116,"min":85,"max":170,"target":"absent","response":"absent","rt":1193,"correct":true,"confidence":4},{"trial_n":117,"min":85,"max":170,"target":"absent","response":"absent","rt":1709,"correct":true,"confidence":1},{"trial_n":118,"min":86,"max":169,"target":"present","response":"present","rt":1126.0000000001,"correct":true,"confidence":3},{"trial_n":119,"min":86,"max":169,"target":"absent","response":"absent","rt":962.99999999994,"correct":true,"confidence":2},{"trial_n":120,"min":87,"max":168,"target":"absent","response":"present","rt":1512,"correct":false,"confidence":4},{"trial_n":121,"min":86,"max":169,"target":"present","response":"absent","rt":989,"correct":false,"confidence":3},{"trial_n":122,"min":85,"max":170,"target":"present","response":"present","rt":825,"correct":true,"confidence":4},{"trial_n":123,"min":85,"max":170,"target":"absent","response":"absent","rt":1263,"correct":true,"confidence":3},{"trial_n":124,"min":86,"max":169,"target":"present","response":"present","rt":812,"correct":true,"confidence":4},{"trial_n":125,"min":86,"max":169,"target":"absent","response":"absent","rt":1362,"correct":true,"confidence":1},{"trial_n":126,"min":87,"max":168,"target":"absent","response":"present","rt":996,"correct":false,"confidence":3},{"trial_n":127,"min":86,"max":169,"target":"present","response":"present","rt":847,"correct":true,"confidence":5},{"trial_n":128,"min":86,"max":169,"target":"absent","response":"absent","rt":1047,"correct":true,"confidence":4},{"trial_n":129,"min":87,"max":168,"target":"present","response":"present","rt":1364,"correct":true,"confidence":5},{"trial_n":130,"min":87,"max":168,"target":"present","response":"present","rt":1145.9999999999,"correct":true,"confidence":4},{"trial_n":131,"min":88,"max":167,"target":"absent","response":"absent","rt":992.99999999994,"correct":true,"confidence":4},{"trial_n":132,"min":88,"max":167,"target":"present","response":"present","rt":1013.0000000001,"correct":true,"confidence":4},{"trial_n":133,"min":89,"max":166,"target":"present","response":"absent","rt":865,"correct":false,"confidence":1},{"trial_n":134,"min":88,"max":167,"target":"present","response":"present","rt":731,"correct":true,"confidence":5},{"trial_n":135,"min":88,"max":167,"target":"present","response":"present","rt":781.00000000012,"correct":true,"confidence":4},{"trial_n":136,"min":89,"max":166,"target":"absent","response":"absent","rt":1396,"correct":true,"confidence":1},{"trial_n":137,"min":89,"max":166,"target":"absent","response":"absent","rt":1147.9999999999,"correct":true,"confidence":1},{"trial_n":138,"min":90,"max":165,"target":"present","response":"present","rt":815,"correct":true,"confidence":3},{"trial_n":139,"min":90,"max":165,"target":"absent","response":"present","rt":1182,"correct":false,"confidence":1},{"trial_n":140,"min":89,"max":166,"target":"absent","response":"absent","rt":981,"correct":true,"confidence":4}]