[{"trial_n":1,"n_dots":4.25,"target":"right","response":"right","rt":4604.3999999911,"correct":true,"confidence":-1},{"trial_n":2,"n_dots":4.25,"target":"right","response":"right","rt":1285.700000003,"correct":true,"confidence":-1},{"trial_n":3,"n_dots":3.85,"target":"left","response":"left","rt":328.69999998808,"correct":true,"confidence":-1},{"trial_n":4,"n_dots":3.85,"target":"left","response":"left","rt":303.90000000596,"correct":true,"confidence":-1},{"trial_n":5,"n_dots":3.45,"target":"left","response":"left","rt":380.40000000596,"correct":true,"confidence":-1},{"trial_n":6,"n_dots":3.45,"target":"left","response":"left","rt":337.09999999404,"correct":true,"confidence":-1},{"trial_n":7,"n_dots":3.05,"target":"right","response":"left","rt":1100.6000000089,"correct":false,"confidence":-1},{"trial_n":8,"n_dots":3.25,"target":"right","response":"right","rt":2035,"correct":true,"confidence":-1},{"trial_n":9,"n_dots":3.25,"target":"right","response":"left","rt":955.89999999106,"correct":false,"confidence":-1},{"trial_n":10,"n_dots":3.45,"target":"left","response":"left","rt":102.5,"correct":true,"confidence":-1},{"trial_n":11,"n_dots":3.45,"target":"left","response":"left","rt":4001.299999997,"correct":true,"confidence":-1},{"trial_n":12,"n_dots":3.25,"target":"right","response":"right","rt":2680.299999997,"correct":true,"confidence":-1},{"trial_n":13,"n_dots":3.25,"target":"right","response":"left","rt":1272.8000000119,"correct":false,"confidence":-1},{"trial_n":14,"n_dots":3.35,"target":"right","response":"right","rt":2340.200000003,"correct":true,"confidence":-1},{"trial_n":15,"n_dots":3.35,"target":"right","response":"right","rt":962.60000000894,"correct":true,"confidence":-1},{"trial_n":16,"n_dots":3.25,"target":"right","response":"left","rt":472.90000000596,"correct":false,"confidence":-1},{"trial_n":17,"n_dots":3.35,"target":"left","response":"right","rt":1536.099999994,"correct":false,"confidence":-1},{"trial_n":18,"n_dots":3.45,"target":"left","response":"right","rt":624.5,"correct":false,"confidence":-1},{"trial_n":19,"n_dots":3.55,"target":"right","response":"right","rt":1042.6000000089,"correct":true,"confidence":-1},{"trial_n":20,"n_dots":3.55,"target":"right","response":"right","rt":540.60000000894,"correct":true,"confidence":-1},{"trial_n":21,"n_dots":3.45,"target":"right","response":"right","rt":1942.799999997,"correct":true,"confidence":1},{"trial_n":22,"n_dots":3.45,"target":"right","response":"right","rt":828.89999999106,"correct":true,"confidence":1},{"trial_n":23,"n_dots":3.35,"target":"right","response":"right","rt":491.09999999404,"correct":true,"confidence":1},{"trial_n":24,"n_dots":3.35,"target":"right","response":"right","rt":641.5,"correct":true,"confidence":1},{"trial_n":25,"n_dots":3.25,"target":"right","response":"left","rt":235.59999999404,"correct":false,"confidence":1},{"trial_n":26,"n_dots":3.35,"target":"right","response":"right","rt":737.5,"correct":true,"confidence":1},{"trial_n":27,"n_dots":3.35,"target":"right","response":"left","rt":471.59999999404,"correct":false,"confidence":1},{"trial_n":28,"n_dots":3.45,"target":"left","response":"right","rt":624.70000000298,"correct":false,"confidence":1},{"trial_n":29,"n_dots":3.55,"target":"right","response":"right","rt":785.20000000298,"correct":true,"confidence":1},{"trial_n":30,"n_dots":3.55,"target":"left","response":"left","rt":2427.8999999911,"correct":true,"confidence":1},{"trial_n":31,"n_dots":3.45,"target":"right","response":"left","rt":382.70000000298,"correct":false,"confidence":1},{"trial_n":32,"n_dots":3.55,"target":"right","response":"right","rt":299.39999999106,"correct":true,"confidence":1},{"trial_n":33,"n_dots":3.55,"target":"right","response":"left","rt":658.29999999702,"correct":false,"confidence":1},{"trial_n":34,"n_dots":3.65,"target":"right","response":"right","rt":1584.200000003,"correct":true,"confidence":1},{"trial_n":35,"n_dots":3.65,"target":"left","response":"left","rt":341.5,"correct":true,"confidence":1},{"trial_n":36,"n_dots":3.55,"target":"left","response":"left","rt":271.19999998808,"correct":true,"confidence":1},{"trial_n":37,"n_dots":3.55,"target":"left","response":"right","rt":795.29999999702,"correct":false,"confidence":1},{"trial_n":38,"n_dots":3.65,"target":"left","response":"left","rt":447.89999999106,"correct":true,"confidence":1},{"trial_n":39,"n_dots":3.65,"target":"left","response":"left","rt":483.60000000894,"correct":true,"confidence":1},{"trial_n":40,"n_dots":3.55,"target":"right","response":"right","rt":327.29999999702,"correct":true,"confidence":1},{"trial_n":41,"n_dots":3.55,"target":"left","response":"left","rt":154.79999999702,"correct":true,"confidence":1},{"trial_n":42,"n_dots":3.45,"target":"right","response":"left","rt":616.70000000298,"correct":false,"confidence":1},{"trial_n":43,"n_dots":3.55,"target":"left","response":"left","rt":498.10000000894,"correct":true,"confidence":1},{"trial_n":44,"n_dots":3.55,"target":"right","response":"right","rt":3798,"correct":true,"confidence":1},{"trial_n":45,"n_dots":3.45,"target":"left","response":"left","rt":465,"correct":true,"confidence":1},{"trial_n":46,"n_dots":3.45,"target":"left","response":"right","rt":2354.6999999881,"correct":false,"confidence":1},{"trial_n":47,"n_dots":3.55,"target":"left","response":"left","rt":711,"correct":true,"confidence":1},{"trial_n":48,"n_dots":3.55,"target":"left","response":"left","rt":1329.799999997,"correct":true,"confidence":1},{"trial_n":49,"n_dots":3.45,"target":"right","response":"right","rt":489.70000000298,"correct":true,"confidence":1},{"trial_n":50,"n_dots":3.45,"target":"left","response":"left","rt":513.89999999106,"correct":true,"confidence":1},{"trial_n":51,"n_dots":3.35,"target":"right","response":"left","rt":3323.799999997,"correct":false,"confidence":1},{"trial_n":52,"n_dots":3.45,"target":"left","response":"left","rt":5025,"correct":true,"confidence":1},{"trial_n":53,"n_dots":3.45,"target":"right","response":"right","rt":416.60000000894,"correct":true,"confidence":1},{"trial_n":54,"n_dots":3.35,"target":"right","response":"right","rt":883.89999999106,"correct":true,"confidence":1},{"trial_n":55,"n_dots":3.35,"target":"left","response":"left","rt":760.29999999702,"correct":true,"confidence":1},{"trial_n":56,"n_dots":3.25,"target":"right","response":"right","rt":1699.900000006,"correct":true,"confidence":1},{"trial_n":57,"n_dots":3.25,"target":"left","response":"left","rt":1446.299999997,"correct":true,"confidence":1},{"trial_n":58,"n_dots":3.15,"target":"left","response":"left","rt":2587.700000003,"correct":true,"confidence":1},{"trial_n":59,"n_dots":3.15,"target":"right","response":"left","rt":692,"correct":false,"confidence":1},{"trial_n":60,"n_dots":3.25,"target":"left","response":"right","rt":341.90000000596,"correct":false,"confidence":1},{"trial_n":61,"n_dots":3.35,"target":"right","response":"right","rt":458.40000000596,"correct":true,"confidence":1},{"trial_n":62,"n_dots":3.35,"target":"right","response":"right","rt":454.70000000298,"correct":true,"confidence":1},{"trial_n":63,"n_dots":3.25,"target":"right","response":"left","rt":2348.5,"correct":false,"confidence":1},{"trial_n":64,"n_dots":3.35,"target":"right","response":"right","rt":724.79999999702,"correct":true,"confidence":1},{"trial_n":65,"n_dots":3.35,"target":"left","response":"left","rt":350.59999999404,"correct":true,"confidence":1},{"trial_n":66,"n_dots":3.25,"target":"left","response":"right","rt":587.09999999404,"correct":false,"confidence":1},{"trial_n":67,"n_dots":3.35,"target":"left","response":"left","rt":2563.8000000119,"correct":true,"confidence":1},{"trial_n":68,"n_dots":3.35,"target":"left","response":"left","rt":11585.5,"correct":true,"confidence":1},{"trial_n":69,"n_dots":3.25,"target":"left","response":"right","rt":483.89999999106,"correct":false,"confidence":1},{"trial_n":70,"n_dots":3.35,"target":"right","response":"right","rt":315.5,"correct":true,"confidence":1},{"trial_n":71,"n_dots":3.35,"target":"right","response":"right","rt":665.20000000298,"correct":true,"confidence":1},{"trial_n":72,"n_dots":3.25,"target":"right","response":"right","rt":557.40000000596,"correct":true,"confidence":1},{"trial_n":73,"n_dots":3.25,"target":"left","response":"left","rt":471.90000000596,"correct":true,"confidence":1},{"trial_n":74,"n_dots":3.15,"target":"left","response":"left","rt":583.90000000596,"correct":true,"confidence":1},{"trial_n":75,"n_dots":3.15,"target":"right","response":"right","rt":1243.400000006,"correct":true,"confidence":1},{"trial_n":76,"n_dots":3.05,"target":"left","response":"left","rt":2192.700000003,"correct":true,"confidence":1},{"trial_n":77,"n_dots":3.05,"target":"left","response":"left","rt":805.29999999702,"correct":true,"confidence":1},{"trial_n":78,"n_dots":2.95,"target":"right","response":"left","rt":511.20000000298,"correct":false,"confidence":1},{"trial_n":79,"n_dots":3.05,"target":"right","response":"right","rt":664.90000000596,"correct":true,"confidence":1},{"trial_n":80,"n_dots":3.05,"target":"right","response":"left","rt":1907.599999994,"correct":false,"confidence":1},{"trial_n":81,"n_dots":3.15,"target":"left","response":"left","rt":212.30000001192,"correct":true,"confidence":1},{"trial_n":82,"n_dots":3.15,"target":"left","response":"right","rt":1716.8999999911,"correct":false,"confidence":1},{"trial_n":83,"n_dots":3.25,"target":"right","response":"right","rt":4619.799999997,"correct":true,"confidence":1},{"trial_n":84,"n_dots":3.25,"target":"left","response":"right","rt":2424.599999994,"correct":false,"confidence":1},{"trial_n":85,"n_dots":3.35,"target":"left","response":"right","rt":3096.700000003,"correct":false,"confidence":1},{"trial_n":86,"n_dots":3.45,"target":"left","response":"left","rt":2312.599999994,"correct":true,"confidence":1},{"trial_n":87,"n_dots":3.45,"target":"left","response":"right","rt":4600.700000003,"correct":false,"confidence":1},{"trial_n":88,"n_dots":3.55,"target":"right","response":"right","rt":400.29999999702,"correct":true,"confidence":1},{"trial_n":89,"n_dots":3.55,"target":"right","response":"right","rt":830.40000000596,"correct":true,"confidence":1},{"trial_n":90,"n_dots":3.45,"target":"right","response":"right","rt":583.79999999702,"correct":true,"confidence":1},{"trial_n":91,"n_dots":3.45,"target":"left","response":"right","rt":4386.900000006,"correct":false,"confidence":1},{"trial_n":92,"n_dots":3.55,"target":"right","response":"right","rt":4286,"correct":true,"confidence":1},{"trial_n":93,"n_dots":3.55,"target":"right","response":"right","rt":5676.099999994,"correct":true,"confidence":1},{"trial_n":94,"n_dots":3.45,"target":"left","response":"right","rt":2700.6000000089,"correct":false,"confidence":1},{"trial_n":95,"n_dots":3.55,"target":"left","response":"right","rt":296.89999999106,"correct":false,"confidence":1},{"trial_n":96,"n_dots":3.65,"target":"left","response":"right","rt":14463.600000009,"correct":false,"confidence":1},{"trial_n":97,"n_dots":3.75,"target":"left","response":"left","rt":563.89999999106,"correct":true,"confidence":1},{"trial_n":98,"n_dots":3.75,"target":"left","response":"left","rt":445.20000000298,"correct":true,"confidence":1},{"trial_n":99,"n_dots":3.65,"target":"left","response":"left","rt":2071.5,"correct":true,"confidence":1},{"trial_n":100,"n_dots":3.65,"target":"left","response":"left","rt":52.59999999404,"correct":true,"confidence":1},{"trial_n":101,"n_dots":3.55,"target":"left","response":"right","rt":594,"correct":false,"confidence":1},{"trial_n":102,"n_dots":3.65,"target":"left","response":"left","rt":512.59999999404,"correct":true,"confidence":1},{"trial_n":103,"n_dots":3.65,"target":"right","response":"right","rt":339.90000000596,"correct":true,"confidence":1},{"trial_n":104,"n_dots":3.55,"target":"left","response":"left","rt":329.39999999106,"correct":true,"confidence":1},{"trial_n":105,"n_dots":3.55,"target":"right","response":"right","rt":5106.599999994,"correct":true,"confidence":1},{"trial_n":106,"n_dots":3.45,"target":"left","response":"left","rt":340,"correct":true,"confidence":1},{"trial_n":107,"n_dots":3.45,"target":"left","response":"left","rt":461.79999999702,"correct":true,"confidence":1},{"trial_n":108,"n_dots":3.35,"target":"right","response":"right","rt":61.90000000596,"correct":true,"confidence":1},{"trial_n":109,"n_dots":3.35,"target":"left","response":"left","rt":735,"correct":true,"confidence":1},{"trial_n":110,"n_dots":3.25,"target":"left","response":"left","rt":350.29999999702,"correct":true,"confidence":1},{"trial_n":111,"n_dots":3.25,"target":"left","response":"left","rt":673.20000000298,"correct":true,"confidence":1},{"trial_n":112,"n_dots":3.15,"target":"right","response":"right","rt":337.70000000298,"correct":true,"confidence":1},{"trial_n":113,"n_dots":3.15,"target":"right","response":"right","rt":832.59999999404,"correct":true,"confidence":1},{"trial_n":114,"n_dots":3.05,"target":"left","response":"right","rt":1625.5,"correct":false,"confidence":1},{"trial_n":115,"n_dots":3.15,"target":"right","response":"right","rt":4712.200000003,"correct":true,"confidence":1},{"trial_n":116,"n_dots":3.15,"target":"right","response":"right","rt":855,"correct":true,"confidence":1},{"trial_n":117,"n_dots":3.05,"target":"right","response":"right","rt":484.40000000596,"correct":true,"confidence":1},{"trial_n":118,"n_dots":3.05,"target":"right","response":"right","rt":704.59999999404,"correct":true,"confidence":1},{"trial_n":119,"n_dots":2.95,"target":"left","response":"right","rt":2245.400000006,"correct":false,"confidence":1},{"trial_n":120,"n_dots":3.05,"target":"right","response":"right","rt":2136.6000000089,"correct":true,"confidence":1}]