[{"trial_n":1,"n_dots":4.25,"target":"right","response":"left","rt":7635,"correct":false,"confidence":-1},{"trial_n":2,"n_dots":4.25,"target":"right","response":"right","rt":966,"correct":true,"confidence":-1},{"trial_n":3,"n_dots":4.25,"target":"left","response":"right","rt":2112,"correct":false,"confidence":-1},{"trial_n":4,"n_dots":4.65,"target":"right","response":"right","rt":1555,"correct":true,"confidence":-1},{"trial_n":5,"n_dots":4.65,"target":"left","response":"left","rt":133,"correct":true,"confidence":-1},{"trial_n":6,"n_dots":4.25,"target":"right","response":"left","rt":5007,"correct":false,"confidence":-1},{"trial_n":7,"n_dots":4.65,"target":"left","response":"left","rt":284,"correct":true,"confidence":-1},{"trial_n":8,"n_dots":4.65,"target":"left","response":"left","rt":665.99999999999,"correct":true,"confidence":-1},{"trial_n":9,"n_dots":4.45,"target":"left","response":"left","rt":1424,"correct":true,"confidence":-1},{"trial_n":10,"n_dots":4.45,"target":"left","response":"left","rt":272,"correct":true,"confidence":-1},{"trial_n":11,"n_dots":4.25,"target":"right","response":"right","rt":137.99999999999,"correct":true,"confidence":-1},{"trial_n":12,"n_dots":4.25,"target":"right","response":"right","rt":132,"correct":true,"confidence":-1},{"trial_n":13,"n_dots":4.15,"target":"left","response":"left","rt":1081,"correct":true,"confidence":-1},{"trial_n":14,"n_dots":4.15,"target":"left","response":"left","rt":742.99999999999,"correct":true,"confidence":-1},{"trial_n":15,"n_dots":4.05,"target":"left","response":"right","rt":648,"correct":false,"confidence":-1},{"trial_n":16,"n_dots":4.15,"target":"right","response":"right","rt":886,"correct":true,"confidence":-1},{"trial_n":17,"n_dots":4.15,"target":"left","response":"left","rt":728,"correct":true,"confidence":-1},{"trial_n":18,"n_dots":4.05,"target":"right","response":"right","rt":527,"correct":true,"confidence":-1},{"trial_n":19,"n_dots":4.05,"target":"right","response":"right","rt":147.99999999999,"correct":true,"confidence":-1},{"trial_n":20,"n_dots":3.95,"target":"right","response":"right","rt":632,"correct":true,"confidence":-1},{"trial_n":21,"n_dots":3.95,"target":"left","response":"left","rt":301.00000000001,"correct":true,"confidence":3},{"trial_n":22,"n_dots":3.85,"target":"left","response":"left","rt":492,"correct":true,"confidence":3},{"trial_n":23,"n_dots":3.85,"target":"right","response":"right","rt":859,"correct":true,"confidence":4},{"trial_n":24,"n_dots":3.75,"target":"right","response":"right","rt":448.00000000001,"correct":true,"confidence":4},{"trial_n":25,"n_dots":3.75,"target":"right","response":"right","rt":348.99999999999,"correct":true,"confidence":5},{"trial_n":26,"n_dots":3.65,"target":"left","response":"left","rt":1588,"correct":true,"confidence":1},{"trial_n":27,"n_dots":3.65,"target":"right","response":"right","rt":534,"correct":true,"confidence":5},{"trial_n":28,"n_dots":3.55,"target":"left","response":"left","rt":113,"correct":true,"confidence":3},{"trial_n":29,"n_dots":3.55,"target":"right","response":"right","rt":1133,"correct":true,"confidence":2},{"trial_n":30,"n_dots":3.45,"target":"right","response":"right","rt":327,"correct":true,"confidence":3},{"trial_n":31,"n_dots":3.45,"target":"left","response":"left","rt":733.00000000001,"correct":true,"confidence":3},{"trial_n":32,"n_dots":3.35,"target":"right","response":"right","rt":947,"correct":true,"confidence":4},{"trial_n":33,"n_dots":3.35,"target":"left","response":"left","rt":1290,"correct":true,"confidence":3},{"trial_n":34,"n_dots":3.25,"target":"right","response":"right","rt":309,"correct":true,"confidence":4},{"trial_n":35,"n_dots":3.25,"target":"left","response":"right","rt":593,"correct":false,"confidence":1},{"trial_n":36,"n_dots":3.35,"target":"right","response":"right","rt":336,"correct":true,"confidence":4},{"trial_n":37,"n_dots":3.35,"target":"right","response":"right","rt":505,"correct":true,"confidence":3},{"trial_n":38,"n_dots":3.25,"target":"left","response":"left","rt":244,"correct":true,"confidence":3},{"trial_n":39,"n_dots":3.25,"target":"right","response":"right","rt":325,"correct":true,"confidence":4},{"trial_n":40,"n_dots":3.15,"target":"left","response":"right","rt":170,"correct":false,"confidence":4},{"trial_n":41,"n_dots":3.25,"target":"left","response":"left","rt":104.99999999997,"correct":true,"confidence":3},{"trial_n":42,"n_dots":3.25,"target":"left","response":"left","rt":378,"correct":true,"confidence":4},{"trial_n":43,"n_dots":3.15,"target":"left","response":"right","rt":686,"correct":false,"confidence":5},{"trial_n":44,"n_dots":3.25,"target":"right","response":"right","rt":729.00000000003,"correct":true,"confidence":4},{"trial_n":45,"n_dots":3.25,"target":"left","response":"right","rt":1107,"correct":false,"confidence":4},{"trial_n":46,"n_dots":3.35,"target":"right","response":"right","rt":520.00000000003,"correct":true,"confidence":4},{"trial_n":47,"n_dots":3.35,"target":"left","response":"left","rt":245,"correct":true,"confidence":3},{"trial_n":48,"n_dots":3.25,"target":"left","response":"right","rt":125,"correct":false,"confidence":3},{"trial_n":49,"n_dots":3.35,"target":"left","response":"right","rt":268.00000000003,"correct":false,"confidence":2},{"trial_n":50,"n_dots":3.45,"target":"left","response":"right","rt":317,"correct":false,"confidence":3},{"trial_n":51,"n_dots":3.55,"target":"left","response":"right","rt":1392,"correct":false,"confidence":4},{"trial_n":52,"n_dots":3.65,"target":"left","response":"left","rt":545,"correct":true,"confidence":2},{"trial_n":53,"n_dots":3.65,"target":"right","response":"right","rt":478,"correct":true,"confidence":4},{"trial_n":54,"n_dots":3.55,"target":"right","response":"right","rt":935,"correct":true,"confidence":3},{"trial_n":55,"n_dots":3.55,"target":"right","response":"right","rt":499,"correct":true,"confidence":3},{"trial_n":56,"n_dots":3.45,"target":"left","response":"left","rt":1042,"correct":true,"confidence":1},{"trial_n":57,"n_dots":3.45,"target":"left","response":"right","rt":248.99999999997,"correct":false,"confidence":3},{"trial_n":58,"n_dots":3.55,"target":"right","response":"right","rt":244,"correct":true,"confidence":5},{"trial_n":59,"n_dots":3.55,"target":"left","response":"left","rt":384.00000000003,"correct":true,"confidence":4},{"trial_n":60,"n_dots":3.45,"target":"right","response":"right","rt":221,"correct":true,"confidence":4},{"trial_n":61,"n_dots":3.45,"target":"right","response":"right","rt":159.00000000006,"correct":true,"confidence":5},{"trial_n":62,"n_dots":3.35,"target":"left","response":"right","rt":217,"correct":false,"confidence":4},{"trial_n":63,"n_dots":3.45,"target":"left","response":"right","rt":282,"correct":false,"confidence":4},{"trial_n":64,"n_dots":3.55,"target":"left","response":"left","rt":263,"correct":true,"confidence":5},{"trial_n":65,"n_dots":3.55,"target":"right","response":"right","rt":431,"correct":true,"confidence":4},{"trial_n":66,"n_dots":3.45,"target":"left","response":"left","rt":166,"correct":true,"confidence":3},{"trial_n":67,"n_dots":3.45,"target":"right","response":"right","rt":338.00000000006,"correct":true,"confidence":4},{"trial_n":68,"n_dots":3.35,"target":"right","response":"right","rt":193,"correct":true,"confidence":3},{"trial_n":69,"n_dots":3.35,"target":"left","response":"left","rt":342,"correct":true,"confidence":4},{"trial_n":70,"n_dots":3.25,"target":"right","response":"right","rt":614,"correct":true,"confidence":5},{"trial_n":71,"n_dots":3.25,"target":"left","response":"right","rt":663,"correct":false,"confidence":4},{"trial_n":72,"n_dots":3.35,"target":"right","response":"right","rt":1058,"correct":true,"confidence":1},{"trial_n":73,"n_dots":3.35,"target":"left","response":"right","rt":1610,"correct":false,"confidence":4},{"trial_n":74,"n_dots":3.45,"target":"left","response":"right","rt":287,"correct":false,"confidence":5},{"trial_n":75,"n_dots":3.55,"target":"left","response":"right","rt":294,"correct":false,"confidence":3},{"trial_n":76,"n_dots":3.65,"target":"left","response":"right","rt":551,"correct":false,"confidence":4},{"trial_n":77,"n_dots":3.75,"target":"right","response":"right","rt":186,"correct":true,"confidence":4},{"trial_n":78,"n_dots":3.75,"target":"right","response":"right","rt":743,"correct":true,"confidence":5},{"trial_n":79,"n_dots":3.65,"target":"left","response":"right","rt":524,"correct":false,"confidence":4},{"trial_n":80,"n_dots":3.75,"target":"right","response":"right","rt":235,"correct":true,"confidence":4},{"trial_n":81,"n_dots":3.75,"target":"right","response":"right","rt":328,"correct":true,"confidence":4},{"trial_n":82,"n_dots":3.65,"target":"right","response":"right","rt":346.99999999994,"correct":true,"confidence":4},{"trial_n":83,"n_dots":3.65,"target":"left","response":"right","rt":578,"correct":false,"confidence":3},{"trial_n":84,"n_dots":3.75,"target":"right","response":"right","rt":655,"correct":true,"confidence":4},{"trial_n":85,"n_dots":3.75,"target":"left","response":"right","rt":635,"correct":false,"confidence":4},{"trial_n":86,"n_dots":3.85,"target":"right","response":"right","rt":316,"correct":true,"confidence":4},{"trial_n":87,"n_dots":3.85,"target":"left","response":"right","rt":342.99999999994,"correct":false,"confidence":5},{"trial_n":88,"n_dots":3.95,"target":"right","response":"right","rt":248,"correct":true,"confidence":3},{"trial_n":89,"n_dots":3.95,"target":"right","response":"right","rt":233,"correct":true,"confidence":4},{"trial_n":90,"n_dots":3.85,"target":"left","response":"right","rt":186,"correct":false,"confidence":4},{"trial_n":91,"n_dots":3.95,"target":"right","response":"right","rt":109,"correct":true,"confidence":3},{"trial_n":92,"n_dots":3.95,"target":"left","response":"left","rt":967,"correct":true,"confidence":2},{"trial_n":93,"n_dots":3.85,"target":"left","response":"right","rt":226,"correct":false,"confidence":4},{"trial_n":94,"n_dots":3.95,"target":"right","response":"right","rt":580,"correct":true,"confidence":5},{"trial_n":95,"n_dots":3.95,"target":"left","response":"right","rt":465,"correct":false,"confidence":4},{"trial_n":96,"n_dots":4.05,"target":"left","response":"right","rt":447,"correct":false,"confidence":3},{"trial_n":97,"n_dots":4.15,"target":"left","response":"left","rt":1771,"correct":true,"confidence":4},{"trial_n":98,"n_dots":4.15,"target":"right","response":"right","rt":328,"correct":true,"confidence":4},{"trial_n":99,"n_dots":4.05,"target":"right","response":"right","rt":300,"correct":true,"confidence":5},{"trial_n":100,"n_dots":4.05,"target":"right","response":"right","rt":269,"correct":true,"confidence":5},{"trial_n":101,"n_dots":3.95,"target":"right","response":"right","rt":550.00000000006,"correct":true,"confidence":3},{"trial_n":102,"n_dots":3.95,"target":"left","response":"left","rt":903,"correct":true,"confidence":4},{"trial_n":103,"n_dots":3.85,"target":"right","response":"right","rt":346,"correct":true,"confidence":4},{"trial_n":104,"n_dots":3.85,"target":"left","response":"left","rt":597,"correct":true,"confidence":4},{"trial_n":105,"n_dots":3.75,"target":"right","response":"right","rt":390.99999999994,"correct":true,"confidence":5},{"trial_n":106,"n_dots":3.75,"target":"right","response":"right","rt":422,"correct":true,"confidence":1},{"trial_n":107,"n_dots":3.65,"target":"left","response":"left","rt":912.00000000006,"correct":true,"confidence":3},{"trial_n":108,"n_dots":3.65,"target":"left","response":"left","rt":519,"correct":true,"confidence":5},{"trial_n":109,"n_dots":3.55,"target":"right","response":"right","rt":302,"correct":true,"confidence":4},{"trial_n":110,"n_dots":3.55,"target":"right","response":"right","rt":377,"correct":true,"confidence":5},{"trial_n":111,"n_dots":3.45,"target":"right","response":"left","rt":627.00000000006,"correct":false,"confidence":4},{"trial_n":112,"n_dots":3.55,"target":"right","response":"right","rt":465.00000000006,"correct":true,"confidence":4},{"trial_n":113,"n_dots":3.55,"target":"right","response":"right","rt":490.00000000006,"correct":true,"confidence":4},{"trial_n":114,"n_dots":3.45,"target":"left","response":"left","rt":565,"correct":true,"confidence":4},{"trial_n":115,"n_dots":3.45,"target":"left","response":"left","rt":852,"correct":true,"confidence":4},{"trial_n":116,"n_dots":3.35,"target":"right","response":"right","rt":259.00000000006,"correct":true,"confidence":4},{"trial_n":117,"n_dots":3.35,"target":"right","response":"right","rt":441,"correct":true,"confidence":5},{"trial_n":118,"n_dots":3.25,"target":"left","response":"left","rt":712,"correct":true,"confidence":3},{"trial_n":119,"n_dots":3.25,"target":"left","response":"right","rt":627.00000000006,"correct":false,"confidence":4},{"trial_n":120,"n_dots":3.35,"target":"right","response":"right","rt":757,"correct":true,"confidence":4}]