[{"trial_n":1,"span":8,"encoder":"22070024","distractor":"22070064","target":"present","response":"present","rt":"2564.6999999881","correct":true,"confidence":-1},{"trial_n":2,"span":8,"encoder":"12752549","distractor":"92752549","target":"present","response":"present","rt":"2103.5","correct":true,"confidence":-1},{"trial_n":3,"span":10,"encoder":"4988866826","distractor":"4988866827","target":"absent","response":"absent","rt":"4261","correct":true,"confidence":-1},{"trial_n":4,"span":10,"encoder":"9437435398","distractor":"9437432398","target":"absent","response":"absent","rt":"2722.3000000119","correct":true,"confidence":-1},{"trial_n":5,"span":12,"encoder":"067800355394","distractor":"067800355392","target":"present","response":"present","rt":"2373","correct":true,"confidence":-1},{"trial_n":6,"span":12,"encoder":"282525516815","distractor":"282525513815","target":"present","response":"present","rt":"2109.1000000238","correct":true,"confidence":-1},{"trial_n":7,"span":14,"encoder":"99489231816381","distractor":"99489231816281","target":"present","response":"present","rt":"1278.9000000358","correct":true,"confidence":-1},{"trial_n":8,"span":14,"encoder":"98415190994895","distractor":"98415090994895","target":"present","response":"present","rt":"2058","correct":true,"confidence":-1},{"trial_n":9,"span":16,"encoder":"9599182951165535","distractor":"9599382951165535","target":"absent","response":"absent","rt":"1934.2000000477","correct":true,"confidence":-1},{"trial_n":10,"span":16,"encoder":"9756258113177044","distractor":"9756258193177044","target":"present","response":"present","rt":"1790.6999999881","correct":true,"confidence":-1},{"trial_n":11,"span":18,"encoder":"149658386742687252","distractor":"149658386742787252","target":"absent","response":"absent","rt":"1375.1000000238","correct":true,"confidence":-1},{"trial_n":12,"span":18,"encoder":"136827246589365413","distractor":"136827246549365413","target":"absent","response":"absent","rt":"4205.3000000119","correct":true,"confidence":-1},{"trial_n":13,"span":19,"encoder":"1141573251876377277","distractor":"1141573253876377277","target":"present","response":"absent","rt":"4944.8000000119","correct":false,"confidence":-1},{"trial_n":14,"span":18,"encoder":"282914584843507045","distractor":"282914584853507045","target":"absent","response":"present","rt":"1676.3000000119","correct":false,"confidence":-1},{"trial_n":15,"span":17,"encoder":"40729053906902536","distractor":"40729053906907536","target":"present","response":"present","rt":"1404","correct":true,"confidence":-1},{"trial_n":16,"span":17,"encoder":"55211554254471676","distractor":"55211554254451676","target":"absent","response":"present","rt":"2727","correct":false,"confidence":-1},{"trial_n":17,"span":16,"encoder":"4478147782048964","distractor":"4475147782048964","target":"absent","response":"absent","rt":"4672.3999999762","correct":true,"confidence":-1},{"trial_n":18,"span":16,"encoder":"4764947652138901","distractor":"4764947652132901","target":"absent","response":"absent","rt":"25464.100000024","correct":true,"confidence":-1},{"trial_n":19,"span":17,"encoder":"48472497750024696","distractor":"48474497750024696","target":"present","response":"absent","rt":"14046.5","correct":false,"confidence":-1},{"trial_n":20,"span":16,"encoder":"5699600896585705","distractor":"5699600896585703","target":"present","response":"present","rt":"4241.2999999523","correct":true,"confidence":-1},{"trial_n":21,"span":16,"encoder":"8951929411352668","distractor":"8951829411352668","target":"absent","response":"absent","rt":"3119.3999999762","correct":true,"confidence":2},{"trial_n":22,"span":17,"encoder":"99057586911587395","distractor":"99057586911587695","target":"present","response":"present","rt":"4184.5","correct":true,"confidence":2},{"trial_n":23,"span":17,"encoder":"54111201254187577","distractor":"54118201254187577","target":"present","response":"absent","rt":"3385.5","correct":false,"confidence":1},{"trial_n":24,"span":16,"encoder":"5700221089386949","distractor":"5700221589386949","target":"absent","response":"absent","rt":"3053.4000000358","correct":true,"confidence":3},{"trial_n":25,"span":16,"encoder":"6251571588708856","distractor":"6251571587708856","target":"present","response":"absent","rt":"5563.9000000358","correct":false,"confidence":3},{"trial_n":26,"span":15,"encoder":"446604385863769","distractor":"446604385863779","target":"absent","response":"absent","rt":"2688.1999999881","correct":true,"confidence":3},{"trial_n":27,"span":15,"encoder":"577977172453783","distractor":"576977172453783","target":"absent","response":"absent","rt":"6139.3999999762","correct":true,"confidence":3},{"trial_n":28,"span":16,"encoder":"2750381614521257","distractor":"2750381614521251","target":"present","response":"absent","rt":"4518.1999999881","correct":false,"confidence":2},{"trial_n":29,"span":15,"encoder":"704851351507826","distractor":"704871351507826","target":"absent","response":"absent","rt":"5865.3000000119","correct":true,"confidence":2},{"trial_n":30,"span":15,"encoder":"622339590526818","distractor":"222339590526818","target":"present","response":"absent","rt":"5790","correct":false,"confidence":3},{"trial_n":31,"span":14,"encoder":"83346871424156","distractor":"83346871324156","target":"absent","response":"present","rt":"2208.6999999881","correct":false,"confidence":2},{"trial_n":32,"span":13,"encoder":"7220533132907","distractor":"7220533132927","target":"absent","response":"absent","rt":"4516.8999999762","correct":true,"confidence":2},{"trial_n":33,"span":13,"encoder":"1072894603811","distractor":"1072894803811","target":"present","response":"absent","rt":"4505.1000000238","correct":false,"confidence":2},{"trial_n":34,"span":12,"encoder":"621157461078","distractor":"621154461078","target":"present","response":"absent","rt":"6206.3000000119","correct":false,"confidence":1},{"trial_n":35,"span":11,"encoder":"04077714584","distractor":"04777714584","target":"present","response":"present","rt":"3197.2000000477","correct":true,"confidence":3},{"trial_n":36,"span":11,"encoder":"03918179521","distractor":"03918179921","target":"absent","response":"present","rt":"1928.6999999881","correct":false,"confidence":3},{"trial_n":37,"span":10,"encoder":"1644731093","distractor":"1614731093","target":"present","response":"present","rt":"1856.5","correct":true,"confidence":3},{"trial_n":38,"span":10,"encoder":"3770753525","distractor":"3770750525","target":"present","response":"absent","rt":"3306.8999999762","correct":false,"confidence":1},{"trial_n":39,"span":9,"encoder":"038271194","distractor":"138271194","target":"present","response":"present","rt":"6539.9000000358","correct":true,"confidence":2},{"trial_n":40,"span":9,"encoder":"822017457","distractor":"822007457","target":"present","response":"absent","rt":"3871.5","correct":false,"confidence":3},{"trial_n":41,"span":8,"encoder":"32452785","distractor":"37452785","target":"present","response":"present","rt":"1486.5","correct":true,"confidence":1},{"trial_n":42,"span":8,"encoder":"79754821","distractor":"79774821","target":"absent","response":"present","rt":"1358.3000000119","correct":false,"confidence":2},{"trial_n":43,"span":7,"encoder":"0889167","distractor":"0885167","target":"absent","response":"absent","rt":"1961.7999999523","correct":true,"confidence":3},{"trial_n":44,"span":7,"encoder":"2547983","distractor":"9547983","target":"present","response":"present","rt":"2804","correct":true,"confidence":3},{"trial_n":45,"span":8,"encoder":"24022669","distractor":"24922669","target":"absent","response":"present","rt":"1631.3000000119","correct":false,"confidence":3},{"trial_n":46,"span":7,"encoder":"9879100","distractor":"9879900","target":"absent","response":"absent","rt":"4673.5999999642","correct":true,"confidence":3},{"trial_n":47,"span":7,"encoder":"4138974","distractor":"4138914","target":"absent","response":"absent","rt":"2973.3000000119","correct":true,"confidence":3},{"trial_n":48,"span":8,"encoder":"28780938","distractor":"68780938","target":"present","response":"present","rt":"3397","correct":true,"confidence":3},{"trial_n":49,"span":8,"encoder":"76223837","distractor":"76223877","target":"absent","response":"present","rt":"1818.8000000119","correct":false,"confidence":2},{"trial_n":50,"span":7,"encoder":"3870733","distractor":"3874733","target":"present","response":"present","rt":"1918.8999999762","correct":true,"confidence":3},{"trial_n":51,"span":7,"encoder":"5261894","distractor":"5261594","target":"absent","response":"absent","rt":"2065","correct":true,"confidence":3},{"trial_n":52,"span":8,"encoder":"05474318","distractor":"05474418","target":"present","response":"present","rt":"4749.7999999523","correct":true,"confidence":3},{"trial_n":53,"span":8,"encoder":"09943720","distractor":"09943770","target":"absent","response":"present","rt":"1986","correct":false,"confidence":3},{"trial_n":54,"span":7,"encoder":"1347568","distractor":"1347768","target":"present","response":"present","rt":"148972.80000001","correct":true,"confidence":1},{"trial_n":55,"span":7,"encoder":"0030374","distractor":"3030374","target":"absent","response":"absent","rt":"2916.5999999642","correct":true,"confidence":3},{"trial_n":56,"span":8,"encoder":"69875121","distractor":"61875121","target":"absent","response":"present","rt":"4300.1000000238","correct":false,"confidence":3},{"trial_n":57,"span":7,"encoder":"2667298","distractor":"2467298","target":"absent","response":"absent","rt":"5535.7000000477","correct":true,"confidence":3},{"trial_n":58,"span":7,"encoder":"0240955","distractor":"0840955","target":"present","response":"present","rt":"5743.7000000477","correct":true,"confidence":3},{"trial_n":59,"span":8,"encoder":"57053559","distractor":"57653559","target":"absent","response":"absent","rt":"2085.5","correct":true,"confidence":4},{"trial_n":60,"span":8,"encoder":"79641984","distractor":"29641984","target":"present","response":"present","rt":"2133.1000000238","correct":true,"confidence":3},{"trial_n":61,"span":9,"encoder":"651578366","distractor":"651578365","target":"present","response":"present","rt":"2492.1000000238","correct":true,"confidence":3},{"trial_n":62,"span":9,"encoder":"209737044","distractor":"209737004","target":"absent","response":"present","rt":"4732.1999999881","correct":false,"confidence":3},{"trial_n":63,"span":8,"encoder":"49204816","distractor":"49214816","target":"absent","response":"absent","rt":"2554.8000000119","correct":true,"confidence":3},{"trial_n":64,"span":8,"encoder":"73499132","distractor":"73495132","target":"absent","response":"absent","rt":"2768.5","correct":true,"confidence":3},{"trial_n":65,"span":9,"encoder":"884834472","distractor":"834834472","target":"absent","response":"absent","rt":"3548.1999999881","correct":true,"confidence":1},{"trial_n":66,"span":9,"encoder":"487646334","distractor":"687646334","target":"absent","response":"absent","rt":"2549.5999999642","correct":true,"confidence":4},{"trial_n":67,"span":10,"encoder":"2668735821","distractor":"2668734821","target":"present","response":"present","rt":"2010.8999999762","correct":true,"confidence":3},{"trial_n":68,"span":10,"encoder":"9683467250","distractor":"9683487250","target":"present","response":"present","rt":"2834.1999999881","correct":true,"confidence":3},{"trial_n":69,"span":11,"encoder":"98333552213","distractor":"98333552613","target":"present","response":"present","rt":"4373.3999999762","correct":true,"confidence":3},{"trial_n":70,"span":11,"encoder":"36637162606","distractor":"36637162306","target":"present","response":"present","rt":"2331.3000000119","correct":true,"confidence":3},{"trial_n":71,"span":8,"encoder":"39697545","distractor":"39627545","target":"present","response":"present","rt":"3186.8000000119","correct":true,"confidence":-1},{"trial_n":72,"span":8,"encoder":"11637862","distractor":"11937862","target":"present","response":"present","rt":"3871.3999999762","correct":true,"confidence":-1},{"trial_n":73,"span":9,"encoder":"056690660","distractor":"056990660","target":"absent","response":"absent","rt":"3288.7000000477","correct":true,"confidence":-1},{"trial_n":74,"span":9,"encoder":"707300214","distractor":"707305214","target":"absent","response":"present","rt":"3847.2000000477","correct":false,"confidence":-1},{"trial_n":75,"span":8,"encoder":"29211172","distractor":"29211175","target":"present","response":"present","rt":"3781.4000000358","correct":true,"confidence":-1},{"trial_n":76,"span":8,"encoder":"53094094","distractor":"53494094","target":"absent","response":"absent","rt":"2569.3000000119","correct":true,"confidence":-1},{"trial_n":77,"span":9,"encoder":"302050551","distractor":"303050551","target":"absent","response":"absent","rt":"1861.5","correct":true,"confidence":-1},{"trial_n":78,"span":9,"encoder":"026133536","distractor":"026933536","target":"present","response":"present","rt":"1556.3000000119","correct":true,"confidence":-1},{"trial_n":79,"span":10,"encoder":"2527683083","distractor":"2527683583","target":"absent","response":"present","rt":"3345.6999999881","correct":false,"confidence":-1},{"trial_n":80,"span":9,"encoder":"570018610","distractor":"574018610","target":"present","response":"present","rt":"1878.8999999762","correct":true,"confidence":-1},{"trial_n":81,"span":9,"encoder":"359732461","distractor":"359738461","target":"present","response":"present","rt":"2388.3000000119","correct":true,"confidence":-1},{"trial_n":82,"span":10,"encoder":"9735408650","distractor":"9435408650","target":"present","response":"present","rt":"1802.6000000238","correct":true,"confidence":-1},{"trial_n":83,"span":10,"encoder":"5332149702","distractor":"5332149706","target":"absent","response":"present","rt":"2763.8000000119","correct":false,"confidence":-1},{"trial_n":84,"span":9,"encoder":"966276968","distractor":"966256968","target":"present","response":"present","rt":"2096.7999999523","correct":true,"confidence":-1},{"trial_n":85,"span":9,"encoder":"044457226","distractor":"044457526","target":"absent","response":"present","rt":"6780.6999999881","correct":false,"confidence":-1},{"trial_n":86,"span":8,"encoder":"18779779","distractor":"48779779","target":"present","response":"absent","rt":"814.5","correct":false,"confidence":-1},{"trial_n":87,"span":7,"encoder":"3344919","distractor":"3344989","target":"absent","response":"absent","rt":"2187.7000000477","correct":true,"confidence":-1},{"trial_n":88,"span":7,"encoder":"6324331","distractor":"6364331","target":"absent","response":"absent","rt":"2461.9000000358","correct":true,"confidence":-1},{"trial_n":89,"span":8,"encoder":"51881851","distractor":"51681851","target":"absent","response":"absent","rt":"1591.2999999523","correct":true,"confidence":-1},{"trial_n":90,"span":8,"encoder":"55927313","distractor":"58927313","target":"absent","response":"absent","rt":"2287.3999999762","correct":true,"confidence":-1},{"trial_n":91,"span":9,"encoder":"401736731","distractor":"401836731","target":"absent","response":"absent","rt":"1684.6000000238","correct":true,"confidence":4},{"trial_n":92,"span":9,"encoder":"222574023","distractor":"222574053","target":"absent","response":"present","rt":"3490.6999999881","correct":false,"confidence":1},{"trial_n":93,"span":8,"encoder":"64099131","distractor":"24099131","target":"present","response":"present","rt":"1829.7999999523","correct":true,"confidence":5},{"trial_n":94,"span":8,"encoder":"54844852","distractor":"54844892","target":"present","response":"present","rt":"2958.3999999762","correct":true,"confidence":1},{"trial_n":95,"span":9,"encoder":"812202619","distractor":"812282619","target":"present","response":"present","rt":"2937.6999999881","correct":true,"confidence":5},{"trial_n":96,"span":9,"encoder":"575768469","distractor":"875768469","target":"absent","response":"absent","rt":"2336.4000000358","correct":true,"confidence":5},{"trial_n":97,"span":10,"encoder":"0673916276","distractor":"0673956276","target":"present","response":"present","rt":"8753.3000000119","correct":true,"confidence":1},{"trial_n":98,"span":10,"encoder":"4782068366","distractor":"4787068366","target":"present","response":"present","rt":"2941.5","correct":true,"confidence":4},{"trial_n":99,"span":11,"encoder":"35030438772","distractor":"35030438782","target":"present","response":"present","rt":"4361.6999999881","correct":true,"confidence":1},{"trial_n":100,"span":11,"encoder":"91403691639","distractor":"91403691632","target":"absent","response":"present","rt":"5891.3999999762","correct":false,"confidence":1},{"trial_n":101,"span":10,"encoder":"3428662482","distractor":"3428682482","target":"absent","response":"absent","rt":"6300.3999999762","correct":true,"confidence":1},{"trial_n":102,"span":10,"encoder":"4015410900","distractor":"4025410900","target":"absent","response":"absent","rt":"2868.5","correct":true,"confidence":5},{"trial_n":103,"span":11,"encoder":"38590383047","distractor":"38595383047","target":"present","response":"present","rt":"3256.2000000477","correct":true,"confidence":5},{"trial_n":104,"span":11,"encoder":"76751856415","distractor":"77751856415","target":"present","response":"present","rt":"3225.8000000119","correct":true,"confidence":4},{"trial_n":105,"span":12,"encoder":"973827764658","distractor":"973827762658","target":"absent","response":"present","rt":"3300.8000000119","correct":false,"confidence":1},{"trial_n":106,"span":11,"encoder":"11187644253","distractor":"11387644253","target":"present","response":"present","rt":"8268.8000000119","correct":true,"confidence":4},{"trial_n":107,"span":11,"encoder":"27825375570","distractor":"27725375570","target":"absent","response":"absent","rt":"1837.1999999881","correct":true,"confidence":5},{"trial_n":108,"span":12,"encoder":"308582636509","distractor":"308582636539","target":"present","response":"present","rt":"4012.8999999762","correct":true,"confidence":1},{"trial_n":109,"span":12,"encoder":"066178073809","distractor":"066178093809","target":"present","response":"present","rt":"4989.2000000477","correct":true,"confidence":1},{"trial_n":110,"span":13,"encoder":"8238365744742","distractor":"8438365744742","target":"present","response":"present","rt":"3659.8000000119","correct":true,"confidence":5},{"trial_n":111,"span":13,"encoder":"4305445675732","distractor":"4305445678732","target":"present","response":"absent","rt":"2402.3000000119","correct":false,"confidence":1},{"trial_n":112,"span":12,"encoder":"381014455395","distractor":"381014425395","target":"absent","response":"absent","rt":"4432.5","correct":true,"confidence":1},{"trial_n":113,"span":12,"encoder":"656771473520","distractor":"656776473520","target":"absent","response":"absent","rt":"4529.8000000119","correct":true,"confidence":3},{"trial_n":114,"span":13,"encoder":"3013129229954","distractor":"3013129229950","target":"absent","response":"absent","rt":"1973.3999999762","correct":true,"confidence":5},{"trial_n":115,"span":13,"encoder":"3411733808179","distractor":"3411733801179","target":"absent","response":"present","rt":"7203.5999999642","correct":false,"confidence":1},{"trial_n":116,"span":12,"encoder":"060099168515","distractor":"160099168515","target":"absent","response":"absent","rt":"7844","correct":true,"confidence":2},{"trial_n":117,"span":12,"encoder":"228660971764","distractor":"228660971364","target":"present","response":"absent","rt":"5439.3000000119","correct":false,"confidence":1},{"trial_n":118,"span":11,"encoder":"80690127758","distractor":"80690187758","target":"absent","response":"absent","rt":"4203","correct":true,"confidence":1},{"trial_n":119,"span":11,"encoder":"72527745567","distractor":"73527745567","target":"present","response":"present","rt":"3047","correct":true,"confidence":4},{"trial_n":120,"span":12,"encoder":"250785394072","distractor":"250785894072","target":"present","response":"present","rt":"4435.6999999881","correct":true,"confidence":1},{"trial_n":121,"span":12,"encoder":"928008572834","distractor":"928008579834","target":"absent","response":"present","rt":"4051.9000000358","correct":false,"confidence":1},{"trial_n":122,"span":11,"encoder":"69399045058","distractor":"69369045058","target":"absent","response":"absent","rt":"3487.1000000238","correct":true,"confidence":4},{"trial_n":123,"span":11,"encoder":"09324626718","distractor":"09364626718","target":"absent","response":"absent","rt":"3332.4000000358","correct":true,"confidence":4},{"trial_n":124,"span":12,"encoder":"792326401772","distractor":"792323401772","target":"present","response":"absent","rt":"3688.1000000238","correct":false,"confidence":1},{"trial_n":125,"span":11,"encoder":"80804596905","distractor":"80804596904","target":"present","response":"absent","rt":"5384","correct":false,"confidence":1},{"trial_n":126,"span":10,"encoder":"9633127850","distractor":"9693127850","target":"present","response":"present","rt":"2896.0999999642","correct":true,"confidence":4},{"trial_n":127,"span":10,"encoder":"2929277728","distractor":"2939277728","target":"present","response":"present","rt":"3942.8999999762","correct":true,"confidence":5},{"trial_n":128,"span":11,"encoder":"44267722843","distractor":"44217722843","target":"present","response":"absent","rt":"172390.59999996","correct":false,"confidence":1},{"trial_n":129,"span":10,"encoder":"4871197925","distractor":"8871197925","target":"present","response":"present","rt":"3437.7000000477","correct":true,"confidence":5},{"trial_n":130,"span":10,"encoder":"8712424238","distractor":"8712424233","target":"absent","response":"absent","rt":"3507.8000000119","correct":true,"confidence":3},{"trial_n":131,"span":11,"encoder":"69683813973","distractor":"69683816973","target":"absent","response":"absent","rt":"5376.9000000358","correct":true,"confidence":1},{"trial_n":132,"span":11,"encoder":"28495359821","distractor":"88495359821","target":"present","response":"present","rt":"3895.2000000477","correct":true,"confidence":5},{"trial_n":133,"span":12,"encoder":"365450692408","distractor":"365450692708","target":"present","response":"absent","rt":"9748.3000000119","correct":false,"confidence":1},{"trial_n":134,"span":11,"encoder":"97483266949","distractor":"97583266949","target":"present","response":"present","rt":"2486","correct":true,"confidence":3},{"trial_n":135,"span":11,"encoder":"35303153183","distractor":"39303153183","target":"absent","response":"present","rt":"4489.0999999642","correct":false,"confidence":1},{"trial_n":136,"span":10,"encoder":"0564700937","distractor":"0564709937","target":"absent","response":"present","rt":"7605.6000000238","correct":false,"confidence":1},{"trial_n":137,"span":9,"encoder":"823257515","distractor":"823252515","target":"absent","response":"present","rt":"5878.6000000238","correct":false,"confidence":1},{"trial_n":138,"span":8,"encoder":"64330537","distractor":"64370537","target":"absent","response":"absent","rt":"2467.0999999642","correct":true,"confidence":4},{"trial_n":139,"span":8,"encoder":"08397447","distractor":"04397447","target":"present","response":"present","rt":"4783.7999999523","correct":true,"confidence":5},{"trial_n":140,"span":9,"encoder":"518861637","distractor":"618861637","target":"present","response":"present","rt":"2242.5999999642","correct":true,"confidence":5}]