[{"trial_n":1,"span":8,"encoder":"44107384","distractor":"44107304","target":"present","response":"absent","rt":"8650.900000006","correct":false,"confidence":-1},{"trial_n":2,"span":6,"encoder":"504281","distractor":"504201","target":"present","response":"present","rt":"2850.5","correct":true,"confidence":-1},{"trial_n":3,"span":6,"encoder":"337507","distractor":"338507","target":"absent","response":"present","rt":"1538.5","correct":false,"confidence":-1},{"trial_n":4,"span":4,"encoder":"9924","distractor":"9974","target":"absent","response":"present","rt":"1656.1000000089","correct":false,"confidence":-1},{"trial_n":5,"span":2,"encoder":"29","distractor":"39","target":"present","response":"present","rt":"1522.599999994","correct":true,"confidence":-1},{"trial_n":6,"span":2,"encoder":"16","distractor":"86","target":"present","response":"present","rt":"1045.599999994","correct":true,"confidence":-1},{"trial_n":7,"span":4,"encoder":"3751","distractor":"3771","target":"absent","response":"absent","rt":"1629.900000006","correct":true,"confidence":-1},{"trial_n":8,"span":4,"encoder":"8396","distractor":"8390","target":"present","response":"present","rt":"3563.799999997","correct":true,"confidence":-1},{"trial_n":9,"span":6,"encoder":"640384","distractor":"640354","target":"absent","response":"absent","rt":"1452.599999994","correct":true,"confidence":-1},{"trial_n":10,"span":6,"encoder":"648363","distractor":"548363","target":"present","response":"present","rt":"2296.299999997","correct":true,"confidence":-1},{"trial_n":11,"span":8,"encoder":"24484392","distractor":"24474392","target":"present","response":"absent","rt":"1381.099999994","correct":false,"confidence":-1},{"trial_n":12,"span":7,"encoder":"0894380","distractor":"7894380","target":"present","response":"present","rt":"1400.799999997","correct":true,"confidence":-1},{"trial_n":13,"span":7,"encoder":"5694985","distractor":"5794985","target":"absent","response":"present","rt":"2340.700000003","correct":false,"confidence":-1},{"trial_n":14,"span":6,"encoder":"021021","distractor":"221021","target":"absent","response":"present","rt":"960","correct":false,"confidence":-1},{"trial_n":15,"span":5,"encoder":"39327","distractor":"79327","target":"present","response":"present","rt":"881.59999999404","correct":true,"confidence":-1},{"trial_n":16,"span":5,"encoder":"13496","distractor":"53496","target":"absent","response":"present","rt":"786.30000001192","correct":false,"confidence":-1},{"trial_n":17,"span":4,"encoder":"9962","distractor":"9963","target":"absent","response":"present","rt":"1096.299999997","correct":false,"confidence":-1},{"trial_n":18,"span":3,"encoder":"824","distractor":"224","target":"absent","response":"absent","rt":"1208.3999999911","correct":true,"confidence":-1},{"trial_n":19,"span":3,"encoder":"087","distractor":"007","target":"present","response":"present","rt":"888.90000000596","correct":true,"confidence":-1},{"trial_n":20,"span":4,"encoder":"1586","distractor":"8586","target":"present","response":"present","rt":"1091.599999994","correct":true,"confidence":-1},{"trial_n":21,"span":4,"encoder":"4903","distractor":"4904","target":"absent","response":"present","rt":"1673.5","correct":false,"confidence":2},{"trial_n":22,"span":3,"encoder":"462","distractor":"452","target":"absent","response":"absent","rt":"1542.200000003","correct":true,"confidence":5},{"trial_n":23,"span":3,"encoder":"931","distractor":"831","target":"present","response":"present","rt":"2501.700000003","correct":true,"confidence":5},{"trial_n":24,"span":4,"encoder":"7171","distractor":"7471","target":"present","response":"present","rt":"1239.900000006","correct":true,"confidence":5},{"trial_n":25,"span":4,"encoder":"5416","distractor":"5486","target":"absent","response":"absent","rt":"1749.299999997","correct":true,"confidence":5},{"trial_n":26,"span":5,"encoder":"63219","distractor":"93219","target":"present","response":"present","rt":"1772","correct":true,"confidence":5},{"trial_n":27,"span":5,"encoder":"79914","distractor":"72914","target":"present","response":"present","rt":"1531.799999997","correct":true,"confidence":4},{"trial_n":28,"span":6,"encoder":"577253","distractor":"377253","target":"present","response":"present","rt":"2590.6000000089","correct":true,"confidence":3},{"trial_n":29,"span":6,"encoder":"796861","distractor":"996861","target":"absent","response":"absent","rt":"1492.1000000089","correct":true,"confidence":5},{"trial_n":30,"span":7,"encoder":"1860895","distractor":"1960895","target":"present","response":"present","rt":"2388.700000003","correct":true,"confidence":4},{"trial_n":31,"span":7,"encoder":"2378148","distractor":"2388148","target":"absent","response":"absent","rt":"1775.599999994","correct":true,"confidence":4},{"trial_n":32,"span":8,"encoder":"89528587","distractor":"89528387","target":"absent","response":"absent","rt":"2189.299999997","correct":true,"confidence":2},{"trial_n":33,"span":8,"encoder":"24358761","distractor":"24358771","target":"absent","response":"absent","rt":"2933.8999999911","correct":true,"confidence":3},{"trial_n":34,"span":9,"encoder":"797692409","distractor":"797652409","target":"present","response":"absent","rt":"5964.299999997","correct":false,"confidence":2},{"trial_n":35,"span":8,"encoder":"54676054","distractor":"54676064","target":"absent","response":"present","rt":"2204","correct":false,"confidence":3},{"trial_n":36,"span":7,"encoder":"2184260","distractor":"2184268","target":"present","response":"present","rt":"2851.799999997","correct":true,"confidence":2},{"trial_n":37,"span":7,"encoder":"9897419","distractor":"9898419","target":"present","response":"absent","rt":"1514.200000003","correct":false,"confidence":2},{"trial_n":38,"span":6,"encoder":"103077","distractor":"103097","target":"absent","response":"absent","rt":"1827.700000003","correct":true,"confidence":3},{"trial_n":39,"span":6,"encoder":"199916","distractor":"299916","target":"absent","response":"present","rt":"2408.099999994","correct":false,"confidence":3},{"trial_n":40,"span":5,"encoder":"14699","distractor":"14799","target":"present","response":"present","rt":"2207.200000003","correct":true,"confidence":3},{"trial_n":41,"span":5,"encoder":"64582","distractor":"62582","target":"absent","response":"absent","rt":"2318.599999994","correct":true,"confidence":3},{"trial_n":42,"span":6,"encoder":"207374","distractor":"207304","target":"present","response":"present","rt":"1666.3999999911","correct":true,"confidence":3},{"trial_n":43,"span":6,"encoder":"284366","distractor":"284566","target":"present","response":"present","rt":"3350.900000006","correct":true,"confidence":2},{"trial_n":44,"span":7,"encoder":"4924732","distractor":"7924732","target":"absent","response":"present","rt":"5301.299999997","correct":false,"confidence":3},{"trial_n":45,"span":6,"encoder":"656357","distractor":"256357","target":"present","response":"present","rt":"2180.299999997","correct":true,"confidence":3},{"trial_n":46,"span":6,"encoder":"043665","distractor":"073665","target":"present","response":"present","rt":"1392.099999994","correct":true,"confidence":2},{"trial_n":47,"span":7,"encoder":"9770082","distractor":"9270082","target":"absent","response":"present","rt":"12355.5","correct":false,"confidence":2},{"trial_n":48,"span":6,"encoder":"084495","distractor":"084425","target":"present","response":"present","rt":"1000.900000006","correct":true,"confidence":2},{"trial_n":49,"span":6,"encoder":"190343","distractor":"790343","target":"absent","response":"present","rt":"3466.299999997","correct":false,"confidence":2},{"trial_n":50,"span":5,"encoder":"51040","distractor":"51140","target":"present","response":"present","rt":"1761.8999999911","correct":true,"confidence":3},{"trial_n":51,"span":5,"encoder":"05397","distractor":"04397","target":"absent","response":"absent","rt":"2344.799999997","correct":true,"confidence":3},{"trial_n":52,"span":6,"encoder":"529007","distractor":"519007","target":"absent","response":"absent","rt":"1930.700000003","correct":true,"confidence":3},{"trial_n":53,"span":6,"encoder":"400112","distractor":"800112","target":"absent","response":"absent","rt":"2296","correct":true,"confidence":4},{"trial_n":54,"span":7,"encoder":"4188992","distractor":"4188942","target":"present","response":"present","rt":"2464.599999994","correct":true,"confidence":2},{"trial_n":55,"span":7,"encoder":"4228128","distractor":"4223128","target":"absent","response":"absent","rt":"2836.099999994","correct":true,"confidence":3},{"trial_n":56,"span":8,"encoder":"25765532","distractor":"25715532","target":"present","response":"present","rt":"4397.700000003","correct":true,"confidence":2},{"trial_n":57,"span":8,"encoder":"85273627","distractor":"85293627","target":"present","response":"present","rt":"2682.6999999881","correct":true,"confidence":2},{"trial_n":58,"span":9,"encoder":"178296416","distractor":"178294416","target":"present","response":"present","rt":"1419.5","correct":true,"confidence":2},{"trial_n":59,"span":9,"encoder":"643862753","distractor":"343862753","target":"absent","response":"absent","rt":"930.90000000596","correct":true,"confidence":2},{"trial_n":60,"span":10,"encoder":"1159724982","distractor":"1159724382","target":"present","response":"absent","rt":"3497.299999997","correct":false,"confidence":2},{"trial_n":61,"span":9,"encoder":"486360648","distractor":"486460648","target":"absent","response":"absent","rt":"1610.5","correct":true,"confidence":2},{"trial_n":62,"span":9,"encoder":"661987653","distractor":"561987653","target":"absent","response":"absent","rt":"826.79999999702","correct":true,"confidence":2},{"trial_n":63,"span":10,"encoder":"0613698969","distractor":"0613698999","target":"absent","response":"absent","rt":"6733.1000000089","correct":true,"confidence":3},{"trial_n":64,"span":10,"encoder":"7793410585","distractor":"7793410555","target":"present","response":"present","rt":"1677","correct":true,"confidence":2},{"trial_n":65,"span":11,"encoder":"69141880652","distractor":"69141880654","target":"absent","response":"absent","rt":"5541.200000003","correct":true,"confidence":3},{"trial_n":66,"span":11,"encoder":"51867607312","distractor":"51867604312","target":"present","response":"absent","rt":"2232.900000006","correct":false,"confidence":2},{"trial_n":67,"span":10,"encoder":"1992413934","distractor":"1792413934","target":"absent","response":"present","rt":"950.10000000894","correct":false,"confidence":2},{"trial_n":68,"span":9,"encoder":"077416149","distractor":"077476149","target":"present","response":"absent","rt":"2828.8999999911","correct":false,"confidence":2},{"trial_n":69,"span":8,"encoder":"54196647","distractor":"57196647","target":"absent","response":"present","rt":"1193.700000003","correct":false,"confidence":2},{"trial_n":70,"span":7,"encoder":"0916425","distractor":"0946425","target":"present","response":"present","rt":"3315.1999999881","correct":true,"confidence":2},{"trial_n":71,"span":8,"encoder":"74936077","distractor":"74936277","target":"present","response":"absent","rt":"3691.6000000089","correct":false,"confidence":-1},{"trial_n":72,"span":7,"encoder":"0890619","distractor":"0990619","target":"present","response":"present","rt":"697","correct":true,"confidence":-1},{"trial_n":73,"span":7,"encoder":"2449880","distractor":"2749880","target":"absent","response":"absent","rt":"2375.400000006","correct":true,"confidence":-1},{"trial_n":74,"span":8,"encoder":"65811391","distractor":"65811991","target":"absent","response":"absent","rt":"3687.6999999881","correct":true,"confidence":-1},{"trial_n":75,"span":8,"encoder":"48358752","distractor":"08358752","target":"present","response":"present","rt":"299","correct":true,"confidence":-1},{"trial_n":76,"span":9,"encoder":"865472719","distractor":"865402719","target":"absent","response":"absent","rt":"264.40000000596","correct":true,"confidence":-1},{"trial_n":77,"span":9,"encoder":"529217809","distractor":"528217809","target":"absent","response":"present","rt":"4915.3999999911","correct":false,"confidence":-1},{"trial_n":78,"span":8,"encoder":"63077683","distractor":"63077633","target":"present","response":"absent","rt":"494.79999999702","correct":false,"confidence":-1},{"trial_n":79,"span":7,"encoder":"6826745","distractor":"6826748","target":"present","response":"present","rt":"4813.799999997","correct":true,"confidence":-1},{"trial_n":80,"span":7,"encoder":"3397330","distractor":"3397430","target":"absent","response":"absent","rt":"1618.099999994","correct":true,"confidence":-1},{"trial_n":81,"span":8,"encoder":"15953465","distractor":"15953445","target":"present","response":"present","rt":"1525.3999999911","correct":true,"confidence":-1},{"trial_n":82,"span":8,"encoder":"12521099","distractor":"12921099","target":"absent","response":"absent","rt":"2794.799999997","correct":true,"confidence":-1},{"trial_n":83,"span":9,"encoder":"346803710","distractor":"346803750","target":"present","response":"present","rt":"2269.700000003","correct":true,"confidence":-1},{"trial_n":84,"span":9,"encoder":"533877827","distractor":"533827827","target":"absent","response":"present","rt":"3167.5","correct":false,"confidence":-1},{"trial_n":85,"span":8,"encoder":"15839963","distractor":"15839964","target":"present","response":"absent","rt":"2110.6000000089","correct":false,"confidence":-1},{"trial_n":86,"span":7,"encoder":"2694721","distractor":"2394721","target":"present","response":"present","rt":"969.60000000894","correct":true,"confidence":-1},{"trial_n":87,"span":7,"encoder":"9416318","distractor":"9416398","target":"absent","response":"absent","rt":"938.59999999404","correct":true,"confidence":-1},{"trial_n":88,"span":8,"encoder":"97127122","distractor":"97627122","target":"present","response":"absent","rt":"1301.5","correct":false,"confidence":-1},{"trial_n":89,"span":7,"encoder":"9603578","distractor":"9603573","target":"absent","response":"present","rt":"1632.599999994","correct":false,"confidence":-1},{"trial_n":90,"span":6,"encoder":"573162","distractor":"373162","target":"absent","response":"absent","rt":"1287.400000006","correct":true,"confidence":-1},{"trial_n":91,"span":6,"encoder":"029769","distractor":"829769","target":"present","response":"absent","rt":"2728.599999994","correct":false,"confidence":2},{"trial_n":92,"span":5,"encoder":"32069","distractor":"35069","target":"present","response":"present","rt":"1950.799999997","correct":true,"confidence":4},{"trial_n":93,"span":5,"encoder":"25909","distractor":"25309","target":"present","response":"absent","rt":"2580.3999999911","correct":false,"confidence":2},{"trial_n":94,"span":4,"encoder":"0266","distractor":"9266","target":"absent","response":"absent","rt":"4030.200000003","correct":true,"confidence":3},{"trial_n":95,"span":4,"encoder":"8998","distractor":"8978","target":"present","response":"present","rt":"7241","correct":true,"confidence":2},{"trial_n":96,"span":5,"encoder":"09441","distractor":"09411","target":"present","response":"present","rt":"1528.8000000119","correct":true,"confidence":2},{"trial_n":97,"span":5,"encoder":"20130","distractor":"20830","target":"absent","response":"present","rt":"936.89999999106","correct":false,"confidence":2},{"trial_n":98,"span":4,"encoder":"9405","distractor":"9305","target":"present","response":"absent","rt":"2612.599999994","correct":false,"confidence":2},{"trial_n":99,"span":3,"encoder":"665","distractor":"669","target":"present","response":"present","rt":"3357.700000003","correct":true,"confidence":2},{"trial_n":100,"span":3,"encoder":"557","distractor":"757","target":"absent","response":"absent","rt":"3248","correct":true,"confidence":4},{"trial_n":101,"span":4,"encoder":"1108","distractor":"1107","target":"present","response":"present","rt":"1489.1000000089","correct":true,"confidence":2},{"trial_n":102,"span":4,"encoder":"8712","distractor":"8112","target":"absent","response":"present","rt":"846","correct":false,"confidence":2},{"trial_n":103,"span":3,"encoder":"791","distractor":"591","target":"absent","response":"absent","rt":"1062.1000000089","correct":true,"confidence":2},{"trial_n":104,"span":3,"encoder":"647","distractor":"447","target":"absent","response":"present","rt":"939.29999999702","correct":false,"confidence":2},{"trial_n":105,"span":2,"encoder":"75","distractor":"73","target":"present","response":"absent","rt":"702.90000000596","correct":false,"confidence":1},{"trial_n":106,"span":2,"encoder":"44","distractor":"46","target":"present","response":"absent","rt":"783.79999999702","correct":false,"confidence":1},{"trial_n":107,"span":2,"encoder":"16","distractor":"26","target":"absent","response":"present","rt":"800.70000000298","correct":false,"confidence":1},{"trial_n":108,"span":2,"encoder":"82","distractor":"83","target":"absent","response":"absent","rt":"429.70000000298","correct":true,"confidence":1},{"trial_n":109,"span":2,"encoder":"97","distractor":"47","target":"absent","response":"present","rt":"474.20000000298","correct":false,"confidence":1},{"trial_n":110,"span":2,"encoder":"16","distractor":"66","target":"present","response":"absent","rt":"877.5","correct":false,"confidence":1},{"trial_n":111,"span":2,"encoder":"07","distractor":"67","target":"present","response":"present","rt":"915.59999999404","correct":true,"confidence":1},{"trial_n":112,"span":2,"encoder":"93","distractor":"94","target":"present","response":"absent","rt":"604.5","correct":false,"confidence":3},{"trial_n":113,"span":2,"encoder":"44","distractor":"94","target":"absent","response":"present","rt":"1901.5","correct":false,"confidence":1},{"trial_n":114,"span":2,"encoder":"31","distractor":"35","target":"absent","response":"absent","rt":"1124.299999997","correct":true,"confidence":4},{"trial_n":115,"span":2,"encoder":"16","distractor":"12","target":"absent","response":"absent","rt":"753.09999999404","correct":true,"confidence":5},{"trial_n":116,"span":3,"encoder":"396","distractor":"496","target":"absent","response":"absent","rt":"898.29999999702","correct":true,"confidence":5},{"trial_n":117,"span":3,"encoder":"578","distractor":"508","target":"present","response":"present","rt":"1048.3999999911","correct":true,"confidence":4},{"trial_n":118,"span":4,"encoder":"2733","distractor":"2933","target":"present","response":"absent","rt":"843.59999999404","correct":false,"confidence":4},{"trial_n":119,"span":3,"encoder":"342","distractor":"352","target":"present","response":"absent","rt":"1718.6000000089","correct":false,"confidence":4},{"trial_n":120,"span":2,"encoder":"48","distractor":"98","target":"absent","response":"absent","rt":"829.29999999702","correct":true,"confidence":4},{"trial_n":121,"span":2,"encoder":"11","distractor":"17","target":"present","response":"present","rt":"1300.8999999911","correct":true,"confidence":5},{"trial_n":122,"span":3,"encoder":"681","distractor":"631","target":"absent","response":"absent","rt":"741","correct":true,"confidence":5},{"trial_n":123,"span":3,"encoder":"970","distractor":"972","target":"present","response":"present","rt":"986.39999999106","correct":true,"confidence":5},{"trial_n":124,"span":4,"encoder":"5809","distractor":"7809","target":"absent","response":"absent","rt":"1505.8000000119","correct":true,"confidence":5},{"trial_n":125,"span":4,"encoder":"4051","distractor":"4059","target":"present","response":"present","rt":"897.70000000298","correct":true,"confidence":4},{"trial_n":126,"span":5,"encoder":"08127","distractor":"08123","target":"absent","response":"absent","rt":"1037.5","correct":true,"confidence":4},{"trial_n":127,"span":5,"encoder":"65270","distractor":"65220","target":"present","response":"present","rt":"1288.200000003","correct":true,"confidence":4},{"trial_n":128,"span":6,"encoder":"601106","distractor":"601136","target":"absent","response":"absent","rt":"637.09999999404","correct":true,"confidence":3},{"trial_n":129,"span":6,"encoder":"551888","distractor":"551883","target":"present","response":"present","rt":"1109","correct":true,"confidence":4},{"trial_n":130,"span":7,"encoder":"7970183","distractor":"7970188","target":"present","response":"present","rt":"2350.5","correct":true,"confidence":5},{"trial_n":131,"span":7,"encoder":"2494685","distractor":"2394685","target":"absent","response":"absent","rt":"2634.8999999911","correct":true,"confidence":1},{"trial_n":132,"span":8,"encoder":"98052283","distractor":"98552283","target":"present","response":"absent","rt":"491.59999999404","correct":false,"confidence":1},{"trial_n":133,"span":7,"encoder":"0638305","distractor":"0678305","target":"absent","response":"present","rt":"1361.8999999911","correct":false,"confidence":1},{"trial_n":134,"span":6,"encoder":"508513","distractor":"508313","target":"absent","response":"present","rt":"705.20000000298","correct":false,"confidence":1},{"trial_n":135,"span":5,"encoder":"51051","distractor":"51055","target":"present","response":"present","rt":"695.20000000298","correct":true,"confidence":1},{"trial_n":136,"span":5,"encoder":"26310","distractor":"26313","target":"present","response":"present","rt":"681.09999999404","correct":true,"confidence":1},{"trial_n":137,"span":6,"encoder":"706047","distractor":"736047","target":"present","response":"present","rt":"728.60000000894","correct":true,"confidence":1},{"trial_n":138,"span":6,"encoder":"154642","distractor":"154442","target":"absent","response":"present","rt":"881","correct":false,"confidence":1},{"trial_n":139,"span":5,"encoder":"04258","distractor":"64258","target":"absent","response":"present","rt":"618","correct":false,"confidence":1},{"trial_n":140,"span":4,"encoder":"6793","distractor":"6797","target":"absent","response":"absent","rt":"1196.099999994","correct":true,"confidence":3}]