[{"trial_n":1,"min":25,"max":230,"target":"present","response":"absent","rt":6951.599999994,"correct":false,"confidence":-1},{"trial_n":2,"min":25,"max":230,"target":"present","response":"absent","rt":985.70000000298,"correct":false,"confidence":-1},{"trial_n":3,"min":9,"max":246,"target":"absent","response":"absent","rt":522.70000000298,"correct":true,"confidence":-1},{"trial_n":4,"min":9,"max":246,"target":"absent","response":"absent","rt":1087.200000003,"correct":true,"confidence":-1},{"trial_n":5,"min":25,"max":230,"target":"present","response":"present","rt":99.29999999702,"correct":true,"confidence":-1},{"trial_n":6,"min":25,"max":230,"target":"present","response":"present","rt":3202.700000003,"correct":true,"confidence":-1},{"trial_n":7,"min":41,"max":214,"target":"absent","response":"absent","rt":379.19999998808,"correct":true,"confidence":-1},{"trial_n":8,"min":41,"max":214,"target":"present","response":"present","rt":384.19999998808,"correct":true,"confidence":-1},{"trial_n":9,"min":57,"max":198,"target":"absent","response":"absent","rt":1067.900000006,"correct":true,"confidence":-1},{"trial_n":10,"min":57,"max":198,"target":"absent","response":"absent","rt":355.10000000894,"correct":true,"confidence":-1},{"trial_n":11,"min":65,"max":190,"target":"present","response":"present","rt":411.59999999404,"correct":true,"confidence":-1},{"trial_n":12,"min":65,"max":190,"target":"absent","response":"absent","rt":271.79999999702,"correct":true,"confidence":-1},{"trial_n":13,"min":73,"max":182,"target":"absent","response":"absent","rt":270.80000001192,"correct":true,"confidence":-1},{"trial_n":14,"min":73,"max":182,"target":"present","response":"present","rt":373.20000000298,"correct":true,"confidence":-1},{"trial_n":15,"min":81,"max":174,"target":"absent","response":"absent","rt":309.5,"correct":true,"confidence":-1},{"trial_n":16,"min":81,"max":174,"target":"absent","response":"absent","rt":253.09999999404,"correct":true,"confidence":-1},{"trial_n":17,"min":89,"max":166,"target":"present","response":"present","rt":454.19999998808,"correct":true,"confidence":-1},{"trial_n":18,"min":89,"max":166,"target":"absent","response":"absent","rt":320.59999999404,"correct":true,"confidence":-1},{"trial_n":19,"min":97,"max":158,"target":"absent","response":"absent","rt":515.69999998808,"correct":true,"confidence":-1},{"trial_n":20,"min":97,"max":158,"target":"absent","response":"absent","rt":188.10000000894,"correct":true,"confidence":-1},{"trial_n":21,"min":101,"max":154,"target":"absent","response":"absent","rt":1146.1000000089,"correct":true,"confidence":1},{"trial_n":22,"min":101,"max":154,"target":"absent","response":"absent","rt":338.30000001192,"correct":true,"confidence":4},{"trial_n":23,"min":105,"max":150,"target":"present","response":"absent","rt":489.69999998808,"correct":false,"confidence":4},{"trial_n":24,"min":101,"max":154,"target":"present","response":"absent","rt":627,"correct":false,"confidence":3},{"trial_n":25,"min":97,"max":158,"target":"absent","response":"absent","rt":558.5,"correct":true,"confidence":3},{"trial_n":26,"min":97,"max":158,"target":"present","response":"absent","rt":415.10000000894,"correct":false,"confidence":3},{"trial_n":27,"min":93,"max":162,"target":"present","response":"absent","rt":689.80000001192,"correct":false,"confidence":3},{"trial_n":28,"min":89,"max":166,"target":"absent","response":"absent","rt":1078.599999994,"correct":true,"confidence":3},{"trial_n":29,"min":89,"max":166,"target":"present","response":"present","rt":787.5,"correct":true,"confidence":3},{"trial_n":30,"min":93,"max":162,"target":"present","response":"present","rt":821.29999999702,"correct":true,"confidence":3},{"trial_n":31,"min":93,"max":162,"target":"present","response":"absent","rt":683,"correct":false,"confidence":1},{"trial_n":32,"min":91,"max":164,"target":"absent","response":"absent","rt":597.59999999404,"correct":true,"confidence":3},{"trial_n":33,"min":91,"max":164,"target":"absent","response":"absent","rt":258.90000000596,"correct":true,"confidence":3},{"trial_n":34,"min":93,"max":162,"target":"absent","response":"absent","rt":811.90000000596,"correct":true,"confidence":3},{"trial_n":35,"min":93,"max":162,"target":"absent","response":"absent","rt":771.89999999106,"correct":true,"confidence":3},{"trial_n":36,"min":95,"max":160,"target":"present","response":"present","rt":651.20000000298,"correct":true,"confidence":3},{"trial_n":37,"min":95,"max":160,"target":"present","response":"absent","rt":437.80000001192,"correct":false,"confidence":3},{"trial_n":38,"min":93,"max":162,"target":"present","response":"absent","rt":871.29999999702,"correct":false,"confidence":3},{"trial_n":39,"min":91,"max":164,"target":"present","response":"absent","rt":234.29999999702,"correct":false,"confidence":3},{"trial_n":40,"min":89,"max":166,"target":"present","response":"absent","rt":261.19999998808,"correct":false,"confidence":3},{"trial_n":41,"min":88,"max":167,"target":"absent","response":"absent","rt":437.70000000298,"correct":true,"confidence":3},{"trial_n":42,"min":88,"max":167,"target":"present","response":"absent","rt":166.79999999702,"correct":false,"confidence":3},{"trial_n":43,"min":87,"max":168,"target":"absent","response":"absent","rt":570.89999999106,"correct":true,"confidence":3},{"trial_n":44,"min":87,"max":168,"target":"present","response":"absent","rt":1030.900000006,"correct":false,"confidence":3},{"trial_n":45,"min":86,"max":169,"target":"absent","response":"absent","rt":186,"correct":true,"confidence":3},{"trial_n":46,"min":86,"max":169,"target":"absent","response":"absent","rt":280.40000000596,"correct":true,"confidence":3},{"trial_n":47,"min":87,"max":168,"target":"absent","response":"present","rt":859.20000000298,"correct":false,"confidence":3},{"trial_n":48,"min":86,"max":169,"target":"present","response":"present","rt":815.10000000894,"correct":true,"confidence":3},{"trial_n":49,"min":86,"max":169,"target":"present","response":"absent","rt":447.40000000596,"correct":false,"confidence":3},{"trial_n":50,"min":85,"max":170,"target":"absent","response":"absent","rt":607.30000001192,"correct":true,"confidence":3},{"trial_n":51,"min":85,"max":170,"target":"present","response":"present","rt":679.60000000894,"correct":true,"confidence":3},{"trial_n":52,"min":86,"max":169,"target":"absent","response":"absent","rt":214.79999999702,"correct":true,"confidence":3},{"trial_n":53,"min":86,"max":169,"target":"absent","response":"absent","rt":254,"correct":true,"confidence":3},{"trial_n":54,"min":87,"max":168,"target":"absent","response":"present","rt":403.5,"correct":false,"confidence":3},{"trial_n":55,"min":86,"max":169,"target":"present","response":"present","rt":478.79999999702,"correct":true,"confidence":3},{"trial_n":56,"min":86,"max":169,"target":"present","response":"present","rt":786,"correct":true,"confidence":3},{"trial_n":57,"min":87,"max":168,"target":"absent","response":"absent","rt":626,"correct":true,"confidence":3},{"trial_n":58,"min":87,"max":168,"target":"present","response":"present","rt":739.39999999106,"correct":true,"confidence":3},{"trial_n":59,"min":88,"max":167,"target":"absent","response":"absent","rt":578.10000000894,"correct":true,"confidence":3},{"trial_n":60,"min":88,"max":167,"target":"present","response":"present","rt":930.79999999702,"correct":true,"confidence":3},{"trial_n":61,"min":89,"max":166,"target":"present","response":"absent","rt":683.79999999702,"correct":false,"confidence":3},{"trial_n":62,"min":88,"max":167,"target":"present","response":"absent","rt":338.60000000894,"correct":false,"confidence":3},{"trial_n":63,"min":87,"max":168,"target":"absent","response":"present","rt":705.70000000298,"correct":false,"confidence":3},{"trial_n":64,"min":86,"max":169,"target":"present","response":"present","rt":501.19999998808,"correct":true,"confidence":3},{"trial_n":65,"min":86,"max":169,"target":"present","response":"absent","rt":536.59999999404,"correct":false,"confidence":3},{"trial_n":66,"min":85,"max":170,"target":"absent","response":"absent","rt":321,"correct":true,"confidence":3},{"trial_n":67,"min":85,"max":170,"target":"absent","response":"absent","rt":155.40000000596,"correct":true,"confidence":3},{"trial_n":68,"min":86,"max":169,"target":"present","response":"present","rt":548.89999999106,"correct":true,"confidence":3},{"trial_n":69,"min":86,"max":169,"target":"present","response":"present","rt":673.20000000298,"correct":true,"confidence":3},{"trial_n":70,"min":87,"max":168,"target":"present","response":"absent","rt":304.5,"correct":false,"confidence":3},{"trial_n":71,"min":41,"max":214,"target":"present","response":"present","rt":3623.3999999911,"correct":true,"confidence":-1},{"trial_n":72,"min":41,"max":214,"target":"present","response":"absent","rt":75.699999988079,"correct":false,"confidence":-1},{"trial_n":73,"min":25,"max":230,"target":"absent","response":"absent","rt":834.39999999106,"correct":true,"confidence":-1},{"trial_n":74,"min":25,"max":230,"target":"absent","response":"absent","rt":346.79999999702,"correct":true,"confidence":-1},{"trial_n":75,"min":41,"max":214,"target":"present","response":"present","rt":187.79999999702,"correct":true,"confidence":-1},{"trial_n":76,"min":41,"max":214,"target":"absent","response":"absent","rt":295.90000000596,"correct":true,"confidence":-1},{"trial_n":77,"min":57,"max":198,"target":"absent","response":"present","rt":740.10000000894,"correct":false,"confidence":-1},{"trial_n":78,"min":41,"max":214,"target":"absent","response":"absent","rt":483.29999999702,"correct":true,"confidence":-1},{"trial_n":79,"min":41,"max":214,"target":"present","response":"present","rt":173.29999999702,"correct":true,"confidence":-1},{"trial_n":80,"min":57,"max":198,"target":"present","response":"present","rt":42.5,"correct":true,"confidence":-1},{"trial_n":81,"min":57,"max":198,"target":"absent","response":"absent","rt":31.300000011921,"correct":true,"confidence":-1},{"trial_n":82,"min":65,"max":190,"target":"absent","response":"present","rt":288.39999999106,"correct":false,"confidence":-1},{"trial_n":83,"min":57,"max":198,"target":"present","response":"absent","rt":689.80000001192,"correct":false,"confidence":-1},{"trial_n":84,"min":49,"max":206,"target":"absent","response":"absent","rt":615.5,"correct":true,"confidence":-1},{"trial_n":85,"min":49,"max":206,"target":"present","response":"present","rt":93.70000000298,"correct":true,"confidence":-1},{"trial_n":86,"min":57,"max":198,"target":"absent","response":"absent","rt":171.90000000596,"correct":true,"confidence":-1},{"trial_n":87,"min":57,"max":198,"target":"present","response":"present","rt":208.10000000894,"correct":true,"confidence":-1},{"trial_n":88,"min":65,"max":190,"target":"absent","response":"absent","rt":231.30000001192,"correct":true,"confidence":-1},{"trial_n":89,"min":65,"max":190,"target":"present","response":"present","rt":301.09999999404,"correct":true,"confidence":-1},{"trial_n":90,"min":73,"max":182,"target":"absent","response":"absent","rt":145,"correct":true,"confidence":-1},{"trial_n":91,"min":73,"max":182,"target":"present","response":"present","rt":460.70000000298,"correct":true,"confidence":2},{"trial_n":92,"min":77,"max":178,"target":"present","response":"present","rt":546.5,"correct":true,"confidence":4},{"trial_n":93,"min":77,"max":178,"target":"present","response":"present","rt":875,"correct":true,"confidence":3},{"trial_n":94,"min":81,"max":174,"target":"present","response":"present","rt":231.90000000596,"correct":true,"confidence":3},{"trial_n":95,"min":81,"max":174,"target":"absent","response":"absent","rt":208.5,"correct":true,"confidence":3},{"trial_n":96,"min":85,"max":170,"target":"present","response":"absent","rt":326.09999999404,"correct":false,"confidence":3},{"trial_n":97,"min":81,"max":174,"target":"absent","response":"absent","rt":609.29999999702,"correct":true,"confidence":3},{"trial_n":98,"min":81,"max":174,"target":"present","response":"present","rt":891,"correct":true,"confidence":3},{"trial_n":99,"min":85,"max":170,"target":"present","response":"present","rt":471.39999999106,"correct":true,"confidence":3},{"trial_n":100,"min":85,"max":170,"target":"present","response":"present","rt":499.79999999702,"correct":true,"confidence":3},{"trial_n":101,"min":87,"max":168,"target":"absent","response":"absent","rt":495.29999999702,"correct":true,"confidence":3},{"trial_n":102,"min":87,"max":168,"target":"present","response":"present","rt":301.10000000894,"correct":true,"confidence":3},{"trial_n":103,"min":89,"max":166,"target":"absent","response":"present","rt":464.29999999702,"correct":false,"confidence":1},{"trial_n":104,"min":87,"max":168,"target":"present","response":"present","rt":274.5,"correct":true,"confidence":1},{"trial_n":105,"min":87,"max":168,"target":"absent","response":"present","rt":597.90000000596,"correct":false,"confidence":1},{"trial_n":106,"min":85,"max":170,"target":"present","response":"absent","rt":762.60000000894,"correct":false,"confidence":1},{"trial_n":107,"min":83,"max":172,"target":"present","response":"present","rt":288.5,"correct":true,"confidence":1},{"trial_n":108,"min":83,"max":172,"target":"present","response":"present","rt":911.29999999702,"correct":true,"confidence":1},{"trial_n":109,"min":85,"max":170,"target":"absent","response":"present","rt":730.60000000894,"correct":false,"confidence":1},{"trial_n":110,"min":83,"max":172,"target":"present","response":"present","rt":377.5,"correct":true,"confidence":1},{"trial_n":111,"min":83,"max":172,"target":"absent","response":"absent","rt":1120.3000000119,"correct":true,"confidence":1},{"trial_n":112,"min":84,"max":171,"target":"absent","response":"absent","rt":508.09999999404,"correct":true,"confidence":1},{"trial_n":113,"min":84,"max":171,"target":"present","response":"present","rt":314.20000000298,"correct":true,"confidence":1},{"trial_n":114,"min":85,"max":170,"target":"present","response":"absent","rt":373.59999999404,"correct":false,"confidence":1},{"trial_n":115,"min":84,"max":171,"target":"absent","response":"absent","rt":1179.299999997,"correct":true,"confidence":1},{"trial_n":116,"min":84,"max":171,"target":"absent","response":"present","rt":483.89999999106,"correct":false,"confidence":1},{"trial_n":117,"min":83,"max":172,"target":"absent","response":"present","rt":1279.5,"correct":false,"confidence":1},{"trial_n":118,"min":82,"max":173,"target":"absent","response":"present","rt":412.09999999404,"correct":false,"confidence":1},{"trial_n":119,"min":81,"max":174,"target":"present","response":"present","rt":458.70000000298,"correct":true,"confidence":1},{"trial_n":120,"min":81,"max":174,"target":"absent","response":"absent","rt":864.30000001192,"correct":true,"confidence":3},{"trial_n":121,"min":82,"max":173,"target":"present","response":"absent","rt":825.10000000894,"correct":false,"confidence":1},{"trial_n":122,"min":81,"max":174,"target":"absent","response":"absent","rt":623,"correct":true,"confidence":1},{"trial_n":123,"min":81,"max":174,"target":"present","response":"present","rt":573.5,"correct":true,"confidence":1},{"trial_n":124,"min":82,"max":173,"target":"present","response":"absent","rt":315.79999999702,"correct":false,"confidence":1},{"trial_n":125,"min":81,"max":174,"target":"absent","response":"absent","rt":755.39999999106,"correct":true,"confidence":3},{"trial_n":126,"min":81,"max":174,"target":"absent","response":"present","rt":701.89999999106,"correct":false,"confidence":1},{"trial_n":127,"min":80,"max":175,"target":"present","response":"present","rt":529.80000001192,"correct":true,"confidence":1},{"trial_n":128,"min":80,"max":175,"target":"absent","response":"present","rt":511.80000001192,"correct":false,"confidence":3},{"trial_n":129,"min":79,"max":176,"target":"present","response":"present","rt":88.09999999404,"correct":true,"confidence":3},{"trial_n":130,"min":79,"max":176,"target":"absent","response":"present","rt":577.19999998808,"correct":false,"confidence":1},{"trial_n":131,"min":78,"max":177,"target":"absent","response":"absent","rt":641.89999999106,"correct":true,"confidence":3},{"trial_n":132,"min":78,"max":177,"target":"absent","response":"present","rt":531.5,"correct":false,"confidence":3},{"trial_n":133,"min":77,"max":178,"target":"present","response":"absent","rt":262.20000000298,"correct":false,"confidence":3},{"trial_n":134,"min":76,"max":179,"target":"absent","response":"absent","rt":929.5,"correct":true,"confidence":3},{"trial_n":135,"min":76,"max":179,"target":"present","response":"present","rt":800.20000000298,"correct":true,"confidence":1},{"trial_n":136,"min":77,"max":178,"target":"present","response":"present","rt":480.89999999106,"correct":true,"confidence":3},{"trial_n":137,"min":77,"max":178,"target":"present","response":"present","rt":214.29999999702,"correct":true,"confidence":3},{"trial_n":138,"min":78,"max":177,"target":"present","response":"present","rt":139.59999999404,"correct":true,"confidence":3},{"trial_n":139,"min":78,"max":177,"target":"absent","response":"present","rt":1146.099999994,"correct":false,"confidence":1},{"trial_n":140,"min":77,"max":178,"target":"absent","response":"absent","rt":915.90000000596,"correct":true,"confidence":3}]