[{"trial_n":1,"n_dots":4.25,"target":"left","response":"right","rt":7511.7999999523,"correct":false,"confidence":-1},{"trial_n":2,"n_dots":4.25,"target":"left","response":"right","rt":1696.7000000477,"correct":false,"confidence":-1},{"trial_n":3,"n_dots":4.65,"target":"left","response":"right","rt":619.29999995232,"correct":false,"confidence":-1},{"trial_n":4,"n_dots":5.05,"target":"left","response":"right","rt":461.89999997616,"correct":false,"confidence":-1},{"trial_n":5,"n_dots":5.45,"target":"left","response":"right","rt":208.90000003576,"correct":false,"confidence":-1},{"trial_n":6,"n_dots":5.743,"target":"right","response":"left","rt":3.0999999642372,"correct":false,"confidence":-1},{"trial_n":7,"n_dots":5.743,"target":"right","response":"left","rt":301.19999998808,"correct":false,"confidence":-1},{"trial_n":8,"n_dots":5.743,"target":"right","response":"right","rt":908.30000001192,"correct":true,"confidence":-1},{"trial_n":9,"n_dots":5.743,"target":"right","response":"left","rt":180.70000004768,"correct":false,"confidence":-1},{"trial_n":10,"n_dots":5.743,"target":"left","response":"left","rt":1377.1999999881,"correct":true,"confidence":-1},{"trial_n":11,"n_dots":5.743,"target":"left","response":"left","rt":420,"correct":true,"confidence":-1},{"trial_n":12,"n_dots":5.543,"target":"right","response":"left","rt":374.59999996424,"correct":false,"confidence":-1},{"trial_n":13,"n_dots":5.643,"target":"left","response":"right","rt":1480.8999999762,"correct":false,"confidence":-1},{"trial_n":14,"n_dots":5.743,"target":"right","response":"right","rt":577.80000001192,"correct":true,"confidence":-1},{"trial_n":15,"n_dots":5.743,"target":"right","response":"right","rt":330.60000002384,"correct":true,"confidence":-1},{"trial_n":16,"n_dots":5.643,"target":"left","response":"right","rt":829.20000004768,"correct":false,"confidence":-1},{"trial_n":17,"n_dots":5.743,"target":"left","response":"right","rt":36.799999952316,"correct":false,"confidence":-1},{"trial_n":18,"n_dots":5.743,"target":"left","response":"left","rt":1839.5,"correct":true,"confidence":-1},{"trial_n":19,"n_dots":5.743,"target":"right","response":"right","rt":487.80000001192,"correct":true,"confidence":-1},{"trial_n":20,"n_dots":5.643,"target":"left","response":"right","rt":478.19999998808,"correct":false,"confidence":-1},{"trial_n":21,"n_dots":5.743,"target":"right","response":"right","rt":2127.6999999881,"correct":true,"confidence":2},{"trial_n":22,"n_dots":5.743,"target":"right","response":"right","rt":2288.9000000358,"correct":true,"confidence":3},{"trial_n":23,"n_dots":5.643,"target":"left","response":"right","rt":1396.6999999881,"correct":false,"confidence":4},{"trial_n":24,"n_dots":5.743,"target":"left","response":"left","rt":1918.6000000238,"correct":true,"confidence":3},{"trial_n":25,"n_dots":5.743,"target":"right","response":"right","rt":1276.5999999642,"correct":true,"confidence":3},{"trial_n":26,"n_dots":5.643,"target":"right","response":"left","rt":703.80000001192,"correct":false,"confidence":4},{"trial_n":27,"n_dots":5.743,"target":"right","response":"right","rt":928.20000004768,"correct":true,"confidence":3},{"trial_n":28,"n_dots":5.743,"target":"right","response":"right","rt":1226.1999999881,"correct":true,"confidence":3},{"trial_n":29,"n_dots":5.643,"target":"right","response":"left","rt":544.89999997616,"correct":false,"confidence":4},{"trial_n":30,"n_dots":5.743,"target":"left","response":"right","rt":987.70000004768,"correct":false,"confidence":3},{"trial_n":31,"n_dots":5.743,"target":"right","response":"right","rt":1734.2999999523,"correct":true,"confidence":3},{"trial_n":32,"n_dots":5.743,"target":"left","response":"left","rt":1838.6999999881,"correct":true,"confidence":4},{"trial_n":33,"n_dots":5.643,"target":"left","response":"right","rt":803.09999996424,"correct":false,"confidence":5},{"trial_n":34,"n_dots":5.743,"target":"right","response":"right","rt":1537.1999999881,"correct":true,"confidence":3},{"trial_n":35,"n_dots":5.743,"target":"left","response":"left","rt":881.10000002384,"correct":true,"confidence":3},{"trial_n":36,"n_dots":5.643,"target":"left","response":"right","rt":1008.1000000238,"correct":false,"confidence":4},{"trial_n":37,"n_dots":5.743,"target":"right","response":"right","rt":1390.8000000119,"correct":true,"confidence":3},{"trial_n":38,"n_dots":5.743,"target":"right","response":"right","rt":677.19999998808,"correct":true,"confidence":3},{"trial_n":39,"n_dots":5.643,"target":"right","response":"left","rt":341,"correct":false,"confidence":4},{"trial_n":40,"n_dots":5.743,"target":"left","response":"left","rt":617.19999998808,"correct":true,"confidence":3},{"trial_n":41,"n_dots":5.743,"target":"left","response":"left","rt":696.5,"correct":true,"confidence":3},{"trial_n":42,"n_dots":5.643,"target":"right","response":"left","rt":363.69999998808,"correct":false,"confidence":4},{"trial_n":43,"n_dots":5.743,"target":"right","response":"right","rt":919.20000004768,"correct":true,"confidence":3},{"trial_n":44,"n_dots":5.743,"target":"right","response":"right","rt":599.30000001192,"correct":true,"confidence":3},{"trial_n":45,"n_dots":5.643,"target":"right","response":"left","rt":862.10000002384,"correct":false,"confidence":4},{"trial_n":46,"n_dots":5.743,"target":"right","response":"right","rt":600.69999998808,"correct":true,"confidence":3},{"trial_n":47,"n_dots":5.743,"target":"left","response":"left","rt":412.39999997616,"correct":true,"confidence":3},{"trial_n":48,"n_dots":5.643,"target":"right","response":"left","rt":505.60000002384,"correct":false,"confidence":4},{"trial_n":49,"n_dots":5.743,"target":"left","response":"left","rt":360.59999996424,"correct":true,"confidence":3},{"trial_n":50,"n_dots":5.743,"target":"right","response":"right","rt":723.09999996424,"correct":true,"confidence":3},{"trial_n":51,"n_dots":5.643,"target":"right","response":"left","rt":428.80000001192,"correct":false,"confidence":4},{"trial_n":52,"n_dots":5.743,"target":"right","response":"right","rt":631.39999997616,"correct":true,"confidence":3},{"trial_n":53,"n_dots":5.743,"target":"right","response":"left","rt":614.80000001192,"correct":false,"confidence":2},{"trial_n":54,"n_dots":5.743,"target":"right","response":"right","rt":484.79999995232,"correct":true,"confidence":3},{"trial_n":55,"n_dots":5.743,"target":"left","response":"left","rt":975.60000002384,"correct":true,"confidence":3},{"trial_n":56,"n_dots":5.643,"target":"left","response":"right","rt":902.5,"correct":false,"confidence":4},{"trial_n":57,"n_dots":5.743,"target":"right","response":"right","rt":871.5,"correct":true,"confidence":3},{"trial_n":58,"n_dots":5.743,"target":"left","response":"left","rt":482.60000002384,"correct":true,"confidence":3},{"trial_n":59,"n_dots":5.643,"target":"right","response":"left","rt":574.80000001192,"correct":false,"confidence":3},{"trial_n":60,"n_dots":5.743,"target":"left","response":"left","rt":251.80000001192,"correct":true,"confidence":3},{"trial_n":61,"n_dots":5.743,"target":"left","response":"left","rt":440.59999996424,"correct":true,"confidence":3},{"trial_n":62,"n_dots":5.643,"target":"left","response":"right","rt":1072.3999999762,"correct":false,"confidence":4},{"trial_n":63,"n_dots":5.743,"target":"right","response":"right","rt":907.80000001192,"correct":true,"confidence":3},{"trial_n":64,"n_dots":5.743,"target":"right","response":"right","rt":333.39999997616,"correct":true,"confidence":3},{"trial_n":65,"n_dots":5.643,"target":"right","response":"left","rt":3107.2999999523,"correct":false,"confidence":2},{"trial_n":66,"n_dots":5.743,"target":"right","response":"right","rt":844,"correct":true,"confidence":3},{"trial_n":67,"n_dots":5.743,"target":"left","response":"left","rt":112.10000002384,"correct":true,"confidence":3},{"trial_n":68,"n_dots":5.643,"target":"left","response":"right","rt":719.70000004768,"correct":false,"confidence":4},{"trial_n":69,"n_dots":5.743,"target":"left","response":"left","rt":159.19999998808,"correct":true,"confidence":3},{"trial_n":70,"n_dots":5.743,"target":"right","response":"right","rt":330.80000001192,"correct":true,"confidence":3},{"trial_n":71,"n_dots":5.643,"target":"left","response":"right","rt":551.30000001192,"correct":false,"confidence":4},{"trial_n":72,"n_dots":5.743,"target":"right","response":"right","rt":775.80000001192,"correct":true,"confidence":3},{"trial_n":73,"n_dots":5.743,"target":"right","response":"right","rt":828.10000002384,"correct":true,"confidence":3},{"trial_n":74,"n_dots":5.643,"target":"right","response":"left","rt":239.5,"correct":false,"confidence":4},{"trial_n":75,"n_dots":5.743,"target":"left","response":"left","rt":256.60000002384,"correct":true,"confidence":3},{"trial_n":76,"n_dots":5.743,"target":"right","response":"right","rt":597.10000002384,"correct":true,"confidence":3},{"trial_n":77,"n_dots":5.643,"target":"left","response":"right","rt":1550.5,"correct":false,"confidence":4},{"trial_n":78,"n_dots":5.743,"target":"right","response":"right","rt":896.69999998808,"correct":true,"confidence":3},{"trial_n":79,"n_dots":5.743,"target":"left","response":"left","rt":406.59999996424,"correct":true,"confidence":3},{"trial_n":80,"n_dots":5.643,"target":"left","response":"right","rt":761.80000001192,"correct":false,"confidence":3},{"trial_n":81,"n_dots":5.743,"target":"right","response":"right","rt":884.60000002384,"correct":true,"confidence":3},{"trial_n":82,"n_dots":5.743,"target":"left","response":"left","rt":185.80000001192,"correct":true,"confidence":3},{"trial_n":83,"n_dots":5.643,"target":"left","response":"right","rt":705.80000001192,"correct":false,"confidence":3},{"trial_n":84,"n_dots":5.743,"target":"left","response":"left","rt":209.80000001192,"correct":true,"confidence":3},{"trial_n":85,"n_dots":5.743,"target":"left","response":"left","rt":21.5,"correct":true,"confidence":3},{"trial_n":86,"n_dots":5.643,"target":"left","response":"right","rt":610.09999996424,"correct":false,"confidence":4},{"trial_n":87,"n_dots":5.743,"target":"right","response":"right","rt":993.30000001192,"correct":true,"confidence":3},{"trial_n":88,"n_dots":5.743,"target":"left","response":"left","rt":222.09999996424,"correct":true,"confidence":3},{"trial_n":89,"n_dots":5.643,"target":"right","response":"left","rt":670.80000001192,"correct":false,"confidence":3},{"trial_n":90,"n_dots":5.743,"target":"left","response":"left","rt":74.300000011921,"correct":true,"confidence":3},{"trial_n":91,"n_dots":5.743,"target":"left","response":"left","rt":1443.3999999762,"correct":true,"confidence":3},{"trial_n":92,"n_dots":5.643,"target":"left","response":"right","rt":883.59999996424,"correct":false,"confidence":3},{"trial_n":93,"n_dots":5.743,"target":"left","response":"left","rt":472.39999997616,"correct":true,"confidence":3},{"trial_n":94,"n_dots":5.743,"target":"left","response":"left","rt":160.30000001192,"correct":true,"confidence":3},{"trial_n":95,"n_dots":5.643,"target":"left","response":"right","rt":844.90000003576,"correct":false,"confidence":3},{"trial_n":96,"n_dots":5.743,"target":"left","response":"left","rt":204.60000002384,"correct":true,"confidence":3},{"trial_n":97,"n_dots":5.743,"target":"right","response":"right","rt":399.5,"correct":true,"confidence":3},{"trial_n":98,"n_dots":5.643,"target":"left","response":"right","rt":635.69999998808,"correct":false,"confidence":3},{"trial_n":99,"n_dots":5.743,"target":"right","response":"right","rt":333.30000001192,"correct":true,"confidence":3},{"trial_n":100,"n_dots":5.743,"target":"left","response":"left","rt":739.89999997616,"correct":true,"confidence":3},{"trial_n":101,"n_dots":5.643,"target":"right","response":"left","rt":463.39999997616,"correct":false,"confidence":3},{"trial_n":102,"n_dots":5.743,"target":"left","response":"left","rt":9.8999999761581,"correct":true,"confidence":3},{"trial_n":103,"n_dots":5.743,"target":"left","response":"left","rt":2567.1000000238,"correct":true,"confidence":2},{"trial_n":104,"n_dots":5.643,"target":"left","response":"right","rt":710,"correct":false,"confidence":3},{"trial_n":105,"n_dots":5.743,"target":"right","response":"right","rt":559.69999998808,"correct":true,"confidence":3},{"trial_n":106,"n_dots":5.743,"target":"right","response":"right","rt":250.30000001192,"correct":true,"confidence":3},{"trial_n":107,"n_dots":5.643,"target":"right","response":"left","rt":547.5,"correct":false,"confidence":3},{"trial_n":108,"n_dots":5.743,"target":"right","response":"right","rt":410.60000002384,"correct":true,"confidence":3},{"trial_n":109,"n_dots":5.743,"target":"right","response":"right","rt":261,"correct":true,"confidence":3},{"trial_n":110,"n_dots":5.643,"target":"left","response":"right","rt":1490.8999999762,"correct":false,"confidence":4},{"trial_n":111,"n_dots":5.743,"target":"left","response":"left","rt":175.40000003576,"correct":true,"confidence":3},{"trial_n":112,"n_dots":5.743,"target":"right","response":"right","rt":776.20000004768,"correct":true,"confidence":3},{"trial_n":113,"n_dots":5.643,"target":"right","response":"left","rt":360.90000003576,"correct":false,"confidence":3},{"trial_n":114,"n_dots":5.743,"target":"right","response":"left","rt":673.5,"correct":false,"confidence":3},{"trial_n":115,"n_dots":5.743,"target":"right","response":"left","rt":475.69999998808,"correct":false,"confidence":2},{"trial_n":116,"n_dots":5.743,"target":"left","response":"left","rt":638.60000002384,"correct":true,"confidence":3},{"trial_n":117,"n_dots":5.743,"target":"left","response":"left","rt":245.69999998808,"correct":true,"confidence":3},{"trial_n":118,"n_dots":5.643,"target":"left","response":"right","rt":808.59999996424,"correct":false,"confidence":3},{"trial_n":119,"n_dots":5.743,"target":"right","response":"right","rt":240.70000004768,"correct":true,"confidence":3},{"trial_n":120,"n_dots":5.743,"target":"right","response":"right","rt":371.60000002384,"correct":true,"confidence":3}]