[{"trial_n":1,"span":8,"encoder":"28746522","distractor":"28744522","target":"present","response":"present","rt":"3507","correct":true,"confidence":-1},{"trial_n":2,"span":8,"encoder":"22158946","distractor":"22153946","target":"present","response":"present","rt":"1926","correct":true,"confidence":-1},{"trial_n":3,"span":10,"encoder":"1164795514","distractor":"1664795514","target":"absent","response":"present","rt":"2066","correct":false,"confidence":-1},{"trial_n":4,"span":8,"encoder":"86253444","distractor":"86257444","target":"absent","response":"absent","rt":"4243","correct":true,"confidence":-1},{"trial_n":5,"span":8,"encoder":"65863934","distractor":"65163934","target":"present","response":"present","rt":"2261","correct":true,"confidence":-1},{"trial_n":6,"span":10,"encoder":"0020446346","distractor":"0420446346","target":"absent","response":"present","rt":"1820","correct":false,"confidence":-1},{"trial_n":7,"span":8,"encoder":"97730100","distractor":"97730104","target":"absent","response":"present","rt":"1027","correct":false,"confidence":-1},{"trial_n":8,"span":6,"encoder":"189494","distractor":"189404","target":"present","response":"present","rt":"1369","correct":true,"confidence":-1},{"trial_n":9,"span":6,"encoder":"624899","distractor":"124899","target":"present","response":"present","rt":"2023","correct":true,"confidence":-1},{"trial_n":10,"span":8,"encoder":"23235432","distractor":"23233432","target":"absent","response":"absent","rt":"3678","correct":true,"confidence":-1},{"trial_n":11,"span":8,"encoder":"67941055","distractor":"67941054","target":"absent","response":"absent","rt":"3780","correct":true,"confidence":-1},{"trial_n":12,"span":9,"encoder":"353470308","distractor":"355470308","target":"present","response":"present","rt":"3851","correct":true,"confidence":-1},{"trial_n":13,"span":9,"encoder":"580851088","distractor":"580851085","target":"present","response":"present","rt":"4263","correct":true,"confidence":-1},{"trial_n":14,"span":10,"encoder":"2553991951","distractor":"2553991351","target":"present","response":"present","rt":"2253","correct":true,"confidence":-1},{"trial_n":15,"span":10,"encoder":"8457760753","distractor":"8457060753","target":"present","response":"present","rt":"3968","correct":true,"confidence":-1},{"trial_n":16,"span":11,"encoder":"11087607640","distractor":"11087107640","target":"absent","response":"absent","rt":"2862","correct":true,"confidence":-1},{"trial_n":17,"span":11,"encoder":"57974202401","distractor":"57974282401","target":"present","response":"present","rt":"2781","correct":true,"confidence":-1},{"trial_n":18,"span":12,"encoder":"798357711580","distractor":"798157711580","target":"absent","response":"present","rt":"2067","correct":false,"confidence":-1},{"trial_n":19,"span":11,"encoder":"79889752180","distractor":"79889752280","target":"present","response":"present","rt":"1597","correct":true,"confidence":-1},{"trial_n":20,"span":11,"encoder":"44211950858","distractor":"44211950853","target":"present","response":"present","rt":"1517","correct":true,"confidence":-1},{"trial_n":21,"span":12,"encoder":"892500669962","distractor":"892200669962","target":"absent","response":"present","rt":"2000","correct":false,"confidence":2},{"trial_n":22,"span":11,"encoder":"26509524470","distractor":"26509523470","target":"present","response":"absent","rt":"2173","correct":false,"confidence":1},{"trial_n":23,"span":10,"encoder":"6953391106","distractor":"6953396106","target":"absent","response":"present","rt":"2012","correct":false,"confidence":4},{"trial_n":24,"span":9,"encoder":"139347349","distractor":"339347349","target":"absent","response":"absent","rt":"3042","correct":true,"confidence":1},{"trial_n":25,"span":9,"encoder":"879130023","distractor":"879131023","target":"absent","response":"present","rt":"4159","correct":false,"confidence":3},{"trial_n":26,"span":8,"encoder":"70175221","distractor":"70175281","target":"present","response":"present","rt":"3125","correct":true,"confidence":3},{"trial_n":27,"span":8,"encoder":"52532837","distractor":"52592837","target":"present","response":"present","rt":"3342","correct":true,"confidence":5},{"trial_n":28,"span":9,"encoder":"926923667","distractor":"976923667","target":"present","response":"absent","rt":"4161","correct":false,"confidence":4},{"trial_n":29,"span":8,"encoder":"00177739","distractor":"40177739","target":"present","response":"absent","rt":"3845","correct":false,"confidence":3},{"trial_n":30,"span":7,"encoder":"3420630","distractor":"3420634","target":"present","response":"present","rt":"3223","correct":true,"confidence":5},{"trial_n":31,"span":7,"encoder":"4949234","distractor":"4999234","target":"absent","response":"absent","rt":"2900","correct":true,"confidence":5},{"trial_n":32,"span":8,"encoder":"20948519","distractor":"20942519","target":"absent","response":"absent","rt":"2943","correct":true,"confidence":5},{"trial_n":33,"span":8,"encoder":"78868744","distractor":"78868748","target":"absent","response":"present","rt":"4179","correct":false,"confidence":1},{"trial_n":34,"span":7,"encoder":"9192090","distractor":"9192050","target":"absent","response":"absent","rt":"2185","correct":true,"confidence":5},{"trial_n":35,"span":7,"encoder":"2815118","distractor":"8815118","target":"absent","response":"absent","rt":"3587","correct":true,"confidence":5},{"trial_n":36,"span":8,"encoder":"58386812","distractor":"58386817","target":"present","response":"present","rt":"5690","correct":true,"confidence":4},{"trial_n":37,"span":8,"encoder":"19929580","distractor":"19929587","target":"absent","response":"present","rt":"1947","correct":false,"confidence":4},{"trial_n":38,"span":7,"encoder":"3859086","distractor":"3859056","target":"present","response":"present","rt":"6603","correct":true,"confidence":4},{"trial_n":39,"span":7,"encoder":"7239684","distractor":"7239884","target":"present","response":"present","rt":"1741","correct":true,"confidence":4},{"trial_n":40,"span":8,"encoder":"60446950","distractor":"60496950","target":"absent","response":"present","rt":"2477","correct":false,"confidence":3},{"trial_n":41,"span":7,"encoder":"1092890","distractor":"1094890","target":"present","response":"present","rt":"2858.0000000001","correct":true,"confidence":5},{"trial_n":42,"span":7,"encoder":"2588764","distractor":"2488764","target":"absent","response":"present","rt":"2511","correct":false,"confidence":1},{"trial_n":43,"span":6,"encoder":"419998","distractor":"419994","target":"absent","response":"absent","rt":"3421","correct":true,"confidence":5},{"trial_n":44,"span":6,"encoder":"865622","distractor":"865602","target":"absent","response":"absent","rt":"3254","correct":true,"confidence":4},{"trial_n":45,"span":7,"encoder":"8957749","distractor":"8917749","target":"present","response":"present","rt":"2443.0000000001","correct":true,"confidence":5},{"trial_n":46,"span":7,"encoder":"6422267","distractor":"6428267","target":"present","response":"absent","rt":"4143","correct":false,"confidence":3},{"trial_n":47,"span":6,"encoder":"348571","distractor":"347571","target":"absent","response":"absent","rt":"2073","correct":true,"confidence":5},{"trial_n":48,"span":6,"encoder":"612365","distractor":"612565","target":"absent","response":"absent","rt":"3123","correct":true,"confidence":5},{"trial_n":49,"span":7,"encoder":"3979740","distractor":"3979745","target":"present","response":"present","rt":"3128","correct":true,"confidence":5},{"trial_n":50,"span":7,"encoder":"6428240","distractor":"6422240","target":"absent","response":"absent","rt":"1745","correct":true,"confidence":5},{"trial_n":51,"span":8,"encoder":"60539530","distractor":"60539030","target":"absent","response":"present","rt":"4861","correct":false,"confidence":4},{"trial_n":52,"span":7,"encoder":"7416247","distractor":"7446247","target":"present","response":"present","rt":"1863","correct":true,"confidence":1},{"trial_n":53,"span":7,"encoder":"6600561","distractor":"6600531","target":"present","response":"present","rt":"1609","correct":true,"confidence":4},{"trial_n":54,"span":8,"encoder":"22733159","distractor":"22733659","target":"present","response":"present","rt":"2786","correct":true,"confidence":4},{"trial_n":55,"span":8,"encoder":"47921990","distractor":"47921190","target":"present","response":"present","rt":"3518","correct":true,"confidence":3},{"trial_n":56,"span":9,"encoder":"705182510","distractor":"905182510","target":"absent","response":"present","rt":"3759","correct":false,"confidence":3},{"trial_n":57,"span":8,"encoder":"50412568","distractor":"58412568","target":"absent","response":"absent","rt":"1472","correct":true,"confidence":4},{"trial_n":58,"span":8,"encoder":"99048522","distractor":"99148522","target":"present","response":"present","rt":"1988","correct":true,"confidence":4},{"trial_n":59,"span":9,"encoder":"003294876","distractor":"603294876","target":"absent","response":"absent","rt":"3244","correct":true,"confidence":5},{"trial_n":60,"span":9,"encoder":"884314585","distractor":"884316585","target":"present","response":"present","rt":"2758","correct":true,"confidence":3},{"trial_n":61,"span":10,"encoder":"8194041880","distractor":"8195041880","target":"absent","response":"present","rt":"2411","correct":false,"confidence":4},{"trial_n":62,"span":9,"encoder":"348723815","distractor":"348723812","target":"present","response":"absent","rt":"923","correct":false,"confidence":3},{"trial_n":63,"span":8,"encoder":"90609782","distractor":"90609786","target":"absent","response":"present","rt":"787","correct":false,"confidence":1},{"trial_n":64,"span":7,"encoder":"6030416","distractor":"6930416","target":"absent","response":"absent","rt":"2115","correct":true,"confidence":1},{"trial_n":65,"span":7,"encoder":"2091661","distractor":"2091561","target":"present","response":"present","rt":"2683","correct":true,"confidence":5},{"trial_n":66,"span":8,"encoder":"22729470","distractor":"22629470","target":"absent","response":"present","rt":"1154","correct":false,"confidence":1},{"trial_n":67,"span":7,"encoder":"0183056","distractor":"0683056","target":"present","response":"present","rt":"2366","correct":true,"confidence":3},{"trial_n":68,"span":7,"encoder":"5240374","distractor":"5290374","target":"present","response":"present","rt":"1814","correct":true,"confidence":3},{"trial_n":69,"span":8,"encoder":"35263425","distractor":"35163425","target":"present","response":"present","rt":"3704","correct":true,"confidence":4},{"trial_n":70,"span":8,"encoder":"82303333","distractor":"82308333","target":"absent","response":"present","rt":"3953","correct":false,"confidence":2},{"trial_n":71,"span":8,"encoder":"99789954","distractor":"19789954","target":"present","response":"present","rt":"4816","correct":true,"confidence":-1},{"trial_n":72,"span":8,"encoder":"63088615","distractor":"63088610","target":"present","response":"present","rt":"7617","correct":true,"confidence":-1},{"trial_n":73,"span":9,"encoder":"356525945","distractor":"356525985","target":"absent","response":"present","rt":"602","correct":false,"confidence":-1},{"trial_n":74,"span":8,"encoder":"00152141","distractor":"00152140","target":"absent","response":"present","rt":"597","correct":false,"confidence":-1},{"trial_n":75,"span":7,"encoder":"8297423","distractor":"8297428","target":"present","response":"present","rt":"547","correct":true,"confidence":-1},{"trial_n":76,"span":7,"encoder":"0743800","distractor":"0243800","target":"absent","response":"present","rt":"646.00000000012","correct":false,"confidence":-1},{"trial_n":77,"span":6,"encoder":"178370","distractor":"178330","target":"present","response":"absent","rt":"993","correct":false,"confidence":-1},{"trial_n":78,"span":5,"encoder":"38104","distractor":"38404","target":"present","response":"present","rt":"2506","correct":true,"confidence":-1},{"trial_n":79,"span":5,"encoder":"10660","distractor":"13660","target":"present","response":"present","rt":"2423","correct":true,"confidence":-1},{"trial_n":80,"span":6,"encoder":"457724","distractor":"437724","target":"present","response":"present","rt":"2860","correct":true,"confidence":-1},{"trial_n":81,"span":6,"encoder":"652983","distractor":"652903","target":"present","response":"present","rt":"3476.9999999999","correct":true,"confidence":-1},{"trial_n":82,"span":7,"encoder":"0482147","distractor":"0483147","target":"absent","response":"present","rt":"2882","correct":false,"confidence":-1},{"trial_n":83,"span":6,"encoder":"846580","distractor":"146580","target":"present","response":"present","rt":"1876","correct":true,"confidence":-1},{"trial_n":84,"span":6,"encoder":"717831","distractor":"717834","target":"absent","response":"absent","rt":"3575.0000000001","correct":true,"confidence":-1},{"trial_n":85,"span":7,"encoder":"9321655","distractor":"9321625","target":"present","response":"present","rt":"4033","correct":true,"confidence":-1},{"trial_n":86,"span":7,"encoder":"5640574","distractor":"1640574","target":"present","response":"present","rt":"2184","correct":true,"confidence":-1},{"trial_n":87,"span":8,"encoder":"97015622","distractor":"97014622","target":"present","response":"absent","rt":"3416.0000000001","correct":false,"confidence":-1},{"trial_n":88,"span":7,"encoder":"0571034","distractor":"0541034","target":"present","response":"present","rt":"4017","correct":true,"confidence":-1},{"trial_n":89,"span":7,"encoder":"9140151","distractor":"9145151","target":"absent","response":"present","rt":"1704","correct":false,"confidence":-1},{"trial_n":90,"span":6,"encoder":"976561","distractor":"976560","target":"present","response":"present","rt":"2744","correct":true,"confidence":-1},{"trial_n":91,"span":6,"encoder":"580669","distractor":"080669","target":"absent","response":"absent","rt":"2447","correct":true,"confidence":4},{"trial_n":92,"span":7,"encoder":"0092810","distractor":"0092010","target":"present","response":"present","rt":"2971","correct":true,"confidence":5},{"trial_n":93,"span":7,"encoder":"5247735","distractor":"5287735","target":"absent","response":"absent","rt":"3338.0000000001","correct":true,"confidence":3},{"trial_n":94,"span":8,"encoder":"46920973","distractor":"49920973","target":"absent","response":"absent","rt":"3796","correct":true,"confidence":4},{"trial_n":95,"span":8,"encoder":"78795202","distractor":"78795212","target":"absent","response":"absent","rt":"2061","correct":true,"confidence":5},{"trial_n":96,"span":9,"encoder":"399211851","distractor":"319211851","target":"present","response":"present","rt":"5419","correct":true,"confidence":3},{"trial_n":97,"span":9,"encoder":"716615454","distractor":"716615451","target":"present","response":"absent","rt":"4680","correct":false,"confidence":1},{"trial_n":98,"span":8,"encoder":"00480785","distractor":"80480785","target":"present","response":"absent","rt":"1746","correct":false,"confidence":4},{"trial_n":99,"span":7,"encoder":"6184698","distractor":"6384698","target":"absent","response":"absent","rt":"3808","correct":true,"confidence":5},{"trial_n":100,"span":7,"encoder":"4193699","distractor":"4693699","target":"present","response":"present","rt":"4210","correct":true,"confidence":3},{"trial_n":101,"span":8,"encoder":"43633572","distractor":"43636572","target":"absent","response":"absent","rt":"4181.9999999999","correct":true,"confidence":5},{"trial_n":102,"span":8,"encoder":"05383815","distractor":"05343815","target":"present","response":"absent","rt":"4598.9999999999","correct":false,"confidence":4},{"trial_n":103,"span":7,"encoder":"0816699","distractor":"0816499","target":"absent","response":"absent","rt":"2994","correct":true,"confidence":1},{"trial_n":104,"span":7,"encoder":"4911489","distractor":"5911489","target":"absent","response":"absent","rt":"8425","correct":true,"confidence":5},{"trial_n":105,"span":8,"encoder":"94759382","distractor":"94769382","target":"present","response":"present","rt":"4994","correct":true,"confidence":5},{"trial_n":106,"span":8,"encoder":"23984850","distractor":"23984810","target":"present","response":"present","rt":"4449","correct":true,"confidence":4},{"trial_n":107,"span":9,"encoder":"540512813","distractor":"540512893","target":"absent","response":"present","rt":"7090.0000000001","correct":false,"confidence":1},{"trial_n":108,"span":8,"encoder":"09341679","distractor":"49341679","target":"absent","response":"absent","rt":"2420","correct":true,"confidence":5},{"trial_n":109,"span":8,"encoder":"22295017","distractor":"22295012","target":"present","response":"absent","rt":"6204","correct":false,"confidence":1},{"trial_n":110,"span":7,"encoder":"8817360","distractor":"8817362","target":"present","response":"present","rt":"4060.0000000001","correct":true,"confidence":5},{"trial_n":111,"span":7,"encoder":"4576041","distractor":"4576341","target":"present","response":"present","rt":"3495","correct":true,"confidence":4},{"trial_n":112,"span":8,"encoder":"18227459","distractor":"68227459","target":"absent","response":"present","rt":"6650.0000000001","correct":false,"confidence":3},{"trial_n":113,"span":7,"encoder":"5402143","distractor":"5402193","target":"absent","response":"absent","rt":"2167.0000000002","correct":true,"confidence":4},{"trial_n":114,"span":7,"encoder":"5149404","distractor":"5149704","target":"present","response":"present","rt":"3968.0000000001","correct":true,"confidence":5},{"trial_n":115,"span":8,"encoder":"11767478","distractor":"41767478","target":"absent","response":"absent","rt":"3191.9999999999","correct":true,"confidence":5},{"trial_n":116,"span":8,"encoder":"72743808","distractor":"72743858","target":"present","response":"present","rt":"3572","correct":true,"confidence":5},{"trial_n":117,"span":9,"encoder":"968285568","distractor":"968285561","target":"present","response":"present","rt":"8024.9999999998","correct":true,"confidence":4},{"trial_n":118,"span":9,"encoder":"985371251","distractor":"984371251","target":"present","response":"present","rt":"3259","correct":true,"confidence":5},{"trial_n":119,"span":10,"encoder":"7632841891","distractor":"7632841791","target":"absent","response":"absent","rt":"6317","correct":true,"confidence":1},{"trial_n":120,"span":10,"encoder":"5826405644","distractor":"5826305644","target":"present","response":"present","rt":"6817","correct":true,"confidence":4},{"trial_n":121,"span":11,"encoder":"70917388425","distractor":"70017388425","target":"present","response":"present","rt":"2735","correct":true,"confidence":5},{"trial_n":122,"span":11,"encoder":"67360912301","distractor":"67360912901","target":"absent","response":"present","rt":"4502","correct":false,"confidence":1},{"trial_n":123,"span":10,"encoder":"7768632783","distractor":"7768632723","target":"absent","response":"absent","rt":"5649.9999999998","correct":true,"confidence":5},{"trial_n":124,"span":10,"encoder":"5160167070","distractor":"5160187070","target":"absent","response":"absent","rt":"3240","correct":true,"confidence":1},{"trial_n":125,"span":11,"encoder":"30047963770","distractor":"30047963570","target":"present","response":"absent","rt":"2660","correct":false,"confidence":1},{"trial_n":126,"span":10,"encoder":"4996311073","distractor":"4995311073","target":"present","response":"absent","rt":"3321","correct":false,"confidence":1},{"trial_n":127,"span":9,"encoder":"510168020","distractor":"513168020","target":"absent","response":"absent","rt":"4351","correct":true,"confidence":4},{"trial_n":128,"span":9,"encoder":"644399377","distractor":"654399377","target":"absent","response":"absent","rt":"1669.0000000002","correct":true,"confidence":1},{"trial_n":129,"span":10,"encoder":"4487413158","distractor":"4487413154","target":"absent","response":"absent","rt":"1053","correct":true,"confidence":1},{"trial_n":130,"span":10,"encoder":"3531635890","distractor":"3531636890","target":"absent","response":"present","rt":"4668","correct":false,"confidence":3},{"trial_n":131,"span":9,"encoder":"809661964","distractor":"509661964","target":"present","response":"present","rt":"4836","correct":true,"confidence":3},{"trial_n":132,"span":9,"encoder":"890770666","distractor":"890770696","target":"absent","response":"absent","rt":"1021.9999999998","correct":true,"confidence":1},{"trial_n":133,"span":10,"encoder":"3438747580","distractor":"3638747580","target":"absent","response":"absent","rt":"3177","correct":true,"confidence":5},{"trial_n":134,"span":10,"encoder":"1152123137","distractor":"1152223137","target":"present","response":"present","rt":"4943","correct":true,"confidence":1},{"trial_n":135,"span":11,"encoder":"48036967990","distractor":"48036967930","target":"absent","response":"absent","rt":"1716","correct":true,"confidence":1},{"trial_n":136,"span":11,"encoder":"57210476156","distractor":"57219476156","target":"absent","response":"present","rt":"3680.9999999998","correct":false,"confidence":4},{"trial_n":137,"span":10,"encoder":"3535076517","distractor":"3505076517","target":"absent","response":"absent","rt":"2212","correct":true,"confidence":5},{"trial_n":138,"span":10,"encoder":"2121643001","distractor":"2121641001","target":"absent","response":"absent","rt":"4580","correct":true,"confidence":4},{"trial_n":139,"span":11,"encoder":"02291903502","distractor":"02191903502","target":"absent","response":"absent","rt":"4200.0000000002","correct":true,"confidence":5},{"trial_n":140,"span":11,"encoder":"18215331501","distractor":"18265331501","target":"present","response":"present","rt":"10932","correct":true,"confidence":3}]