[{"trial_n":1,"min":25,"max":230,"target":"present","response":"absent","rt":9689.8999999762,"correct":false,"confidence":-1},{"trial_n":2,"min":25,"max":230,"target":"present","response":"present","rt":4272.6999999881,"correct":true,"confidence":-1},{"trial_n":3,"min":25,"max":230,"target":"absent","response":"present","rt":1874.8000000119,"correct":false,"confidence":-1},{"trial_n":4,"min":9,"max":246,"target":"absent","response":"absent","rt":3402.1000000238,"correct":true,"confidence":-1},{"trial_n":5,"min":9,"max":246,"target":"present","response":"absent","rt":2788.8999999762,"correct":false,"confidence":-1},{"trial_n":6,"min":0,"max":255,"target":"absent","response":"present","rt":1471.1000000238,"correct":false,"confidence":-1},{"trial_n":7,"min":0,"max":255,"target":"absent","response":"present","rt":1987.6000000238,"correct":false,"confidence":-1},{"trial_n":8,"min":0,"max":255,"target":"present","response":"present","rt":1072.6000000238,"correct":true,"confidence":-1},{"trial_n":9,"min":0,"max":255,"target":"present","response":"absent","rt":771,"correct":false,"confidence":-1},{"trial_n":10,"min":0,"max":255,"target":"absent","response":"absent","rt":980.59999996424,"correct":true,"confidence":-1},{"trial_n":11,"min":0,"max":255,"target":"absent","response":"absent","rt":1022.8000000119,"correct":true,"confidence":-1},{"trial_n":12,"min":8,"max":247,"target":"absent","response":"absent","rt":890.59999996424,"correct":true,"confidence":-1},{"trial_n":13,"min":8,"max":247,"target":"absent","response":"absent","rt":710.19999998808,"correct":true,"confidence":-1},{"trial_n":14,"min":16,"max":239,"target":"present","response":"present","rt":728.5,"correct":true,"confidence":-1},{"trial_n":15,"min":16,"max":239,"target":"present","response":"present","rt":756.39999997616,"correct":true,"confidence":-1},{"trial_n":16,"min":24,"max":231,"target":"absent","response":"absent","rt":696.60000002384,"correct":true,"confidence":-1},{"trial_n":17,"min":24,"max":231,"target":"absent","response":"absent","rt":644.60000002384,"correct":true,"confidence":-1},{"trial_n":18,"min":32,"max":223,"target":"absent","response":"absent","rt":642.69999998808,"correct":true,"confidence":-1},{"trial_n":19,"min":32,"max":223,"target":"present","response":"present","rt":623.19999998808,"correct":true,"confidence":-1},{"trial_n":20,"min":40,"max":215,"target":"absent","response":"absent","rt":863.89999997616,"correct":true,"confidence":-1},{"trial_n":21,"min":40,"max":215,"target":"present","response":"present","rt":1259,"correct":true,"confidence":4},{"trial_n":22,"min":44,"max":211,"target":"absent","response":"absent","rt":1249.2000000477,"correct":true,"confidence":2},{"trial_n":23,"min":44,"max":211,"target":"present","response":"present","rt":674.5,"correct":true,"confidence":5},{"trial_n":24,"min":48,"max":207,"target":"absent","response":"absent","rt":765.5,"correct":true,"confidence":5},{"trial_n":25,"min":48,"max":207,"target":"present","response":"present","rt":772.10000002384,"correct":true,"confidence":4},{"trial_n":26,"min":52,"max":203,"target":"absent","response":"absent","rt":727.69999998808,"correct":true,"confidence":3},{"trial_n":27,"min":52,"max":203,"target":"present","response":"present","rt":706.89999997616,"correct":true,"confidence":4},{"trial_n":28,"min":56,"max":199,"target":"present","response":"present","rt":2175.5999999642,"correct":true,"confidence":3},{"trial_n":29,"min":56,"max":199,"target":"absent","response":"absent","rt":917.70000004768,"correct":true,"confidence":4},{"trial_n":30,"min":60,"max":195,"target":"absent","response":"absent","rt":844,"correct":true,"confidence":4},{"trial_n":31,"min":60,"max":195,"target":"present","response":"absent","rt":1122.1999999881,"correct":false,"confidence":2},{"trial_n":32,"min":58,"max":197,"target":"present","response":"present","rt":1280.8999999762,"correct":true,"confidence":2},{"trial_n":33,"min":58,"max":197,"target":"present","response":"present","rt":852.39999997616,"correct":true,"confidence":3},{"trial_n":34,"min":60,"max":195,"target":"absent","response":"absent","rt":735.90000003576,"correct":true,"confidence":3},{"trial_n":35,"min":60,"max":195,"target":"present","response":"present","rt":2184,"correct":true,"confidence":3},{"trial_n":36,"min":62,"max":193,"target":"absent","response":"absent","rt":893.60000002384,"correct":true,"confidence":3},{"trial_n":37,"min":62,"max":193,"target":"present","response":"present","rt":714.5,"correct":true,"confidence":4},{"trial_n":38,"min":64,"max":191,"target":"present","response":"present","rt":787.59999996424,"correct":true,"confidence":4},{"trial_n":39,"min":64,"max":191,"target":"present","response":"present","rt":753.39999997616,"correct":true,"confidence":4},{"trial_n":40,"min":66,"max":189,"target":"present","response":"absent","rt":902,"correct":false,"confidence":2},{"trial_n":41,"min":65,"max":190,"target":"present","response":"present","rt":1038,"correct":true,"confidence":2},{"trial_n":42,"min":65,"max":190,"target":"absent","response":"absent","rt":854.89999997616,"correct":true,"confidence":4},{"trial_n":43,"min":66,"max":189,"target":"absent","response":"absent","rt":776.89999997616,"correct":true,"confidence":4},{"trial_n":44,"min":66,"max":189,"target":"absent","response":"absent","rt":792,"correct":true,"confidence":3},{"trial_n":45,"min":67,"max":188,"target":"present","response":"present","rt":922.59999996424,"correct":true,"confidence":2},{"trial_n":46,"min":67,"max":188,"target":"absent","response":"absent","rt":811.80000001192,"correct":true,"confidence":4},{"trial_n":47,"min":68,"max":187,"target":"absent","response":"absent","rt":628,"correct":true,"confidence":2},{"trial_n":48,"min":68,"max":187,"target":"absent","response":"absent","rt":774.69999998808,"correct":true,"confidence":4},{"trial_n":49,"min":69,"max":186,"target":"present","response":"absent","rt":687.5,"correct":false,"confidence":2},{"trial_n":50,"min":68,"max":187,"target":"present","response":"present","rt":1015.0999999642,"correct":true,"confidence":3},{"trial_n":51,"min":68,"max":187,"target":"present","response":"absent","rt":1060.9000000358,"correct":false,"confidence":1},{"trial_n":52,"min":67,"max":188,"target":"absent","response":"absent","rt":1808.1999999881,"correct":true,"confidence":1},{"trial_n":53,"min":67,"max":188,"target":"absent","response":"absent","rt":874.79999995232,"correct":true,"confidence":2},{"trial_n":54,"min":68,"max":187,"target":"present","response":"present","rt":1400.5999999642,"correct":true,"confidence":2},{"trial_n":55,"min":68,"max":187,"target":"absent","response":"absent","rt":809,"correct":true,"confidence":3},{"trial_n":56,"min":69,"max":186,"target":"absent","response":"absent","rt":740.69999998808,"correct":true,"confidence":3},{"trial_n":57,"min":69,"max":186,"target":"present","response":"present","rt":733.79999995232,"correct":true,"confidence":3},{"trial_n":58,"min":70,"max":185,"target":"present","response":"present","rt":1999.5,"correct":true,"confidence":2},{"trial_n":59,"min":70,"max":185,"target":"present","response":"present","rt":2410.3000000119,"correct":true,"confidence":1},{"trial_n":60,"min":71,"max":184,"target":"absent","response":"absent","rt":1389.6000000238,"correct":true,"confidence":4},{"trial_n":61,"min":71,"max":184,"target":"present","response":"absent","rt":1038.0999999642,"correct":false,"confidence":1},{"trial_n":62,"min":70,"max":185,"target":"present","response":"absent","rt":918.30000001192,"correct":false,"confidence":1},{"trial_n":63,"min":69,"max":186,"target":"present","response":"present","rt":996.10000002384,"correct":true,"confidence":2},{"trial_n":64,"min":69,"max":186,"target":"present","response":"present","rt":733,"correct":true,"confidence":3},{"trial_n":65,"min":70,"max":185,"target":"absent","response":"absent","rt":788.30000001192,"correct":true,"confidence":3},{"trial_n":66,"min":70,"max":185,"target":"present","response":"present","rt":703.40000003576,"correct":true,"confidence":3},{"trial_n":67,"min":71,"max":184,"target":"present","response":"absent","rt":1099.1000000238,"correct":false,"confidence":1},{"trial_n":68,"min":70,"max":185,"target":"absent","response":"absent","rt":922.10000002384,"correct":true,"confidence":3},{"trial_n":69,"min":70,"max":185,"target":"absent","response":"absent","rt":1112.9000000358,"correct":true,"confidence":1},{"trial_n":70,"min":71,"max":184,"target":"absent","response":"absent","rt":1031.7999999523,"correct":true,"confidence":3},{"trial_n":71,"min":41,"max":214,"target":"present","response":"present","rt":1596.1999999881,"correct":true,"confidence":-1},{"trial_n":72,"min":41,"max":214,"target":"present","response":"present","rt":624.60000002384,"correct":true,"confidence":-1},{"trial_n":73,"min":57,"max":198,"target":"absent","response":"absent","rt":1082.6999999881,"correct":true,"confidence":-1},{"trial_n":74,"min":57,"max":198,"target":"absent","response":"absent","rt":786.5,"correct":true,"confidence":-1},{"trial_n":75,"min":73,"max":182,"target":"present","response":"present","rt":961.19999998808,"correct":true,"confidence":-1},{"trial_n":76,"min":73,"max":182,"target":"present","response":"present","rt":773.39999997616,"correct":true,"confidence":-1},{"trial_n":77,"min":89,"max":166,"target":"present","response":"present","rt":652.10000002384,"correct":true,"confidence":-1},{"trial_n":78,"min":89,"max":166,"target":"absent","response":"present","rt":768.79999995232,"correct":false,"confidence":-1},{"trial_n":79,"min":73,"max":182,"target":"absent","response":"present","rt":1013.5,"correct":false,"confidence":-1},{"trial_n":80,"min":57,"max":198,"target":"present","response":"present","rt":654.60000002384,"correct":true,"confidence":-1},{"trial_n":81,"min":57,"max":198,"target":"absent","response":"absent","rt":1428.0999999642,"correct":true,"confidence":-1},{"trial_n":82,"min":65,"max":190,"target":"present","response":"present","rt":908.60000002384,"correct":true,"confidence":-1},{"trial_n":83,"min":65,"max":190,"target":"present","response":"present","rt":585.39999997616,"correct":true,"confidence":-1},{"trial_n":84,"min":73,"max":182,"target":"present","response":"present","rt":553.80000001192,"correct":true,"confidence":-1},{"trial_n":85,"min":73,"max":182,"target":"absent","response":"absent","rt":1122.6000000238,"correct":true,"confidence":-1},{"trial_n":86,"min":81,"max":174,"target":"present","response":"present","rt":630.80000001192,"correct":true,"confidence":-1},{"trial_n":87,"min":81,"max":174,"target":"absent","response":"absent","rt":793.09999996424,"correct":true,"confidence":-1},{"trial_n":88,"min":89,"max":166,"target":"absent","response":"present","rt":910.39999997616,"correct":false,"confidence":-1},{"trial_n":89,"min":81,"max":174,"target":"absent","response":"absent","rt":801.89999997616,"correct":true,"confidence":-1},{"trial_n":90,"min":81,"max":174,"target":"absent","response":"absent","rt":1125.6999999881,"correct":true,"confidence":-1},{"trial_n":91,"min":85,"max":170,"target":"present","response":"present","rt":1024.3999999762,"correct":true,"confidence":1},{"trial_n":92,"min":85,"max":170,"target":"present","response":"present","rt":818.59999996424,"correct":true,"confidence":4},{"trial_n":93,"min":89,"max":166,"target":"present","response":"present","rt":845.19999998808,"correct":true,"confidence":4},{"trial_n":94,"min":89,"max":166,"target":"absent","response":"present","rt":1616.1999999881,"correct":false,"confidence":1},{"trial_n":95,"min":85,"max":170,"target":"present","response":"present","rt":895.29999995232,"correct":true,"confidence":1},{"trial_n":96,"min":85,"max":170,"target":"present","response":"present","rt":949.60000002384,"correct":true,"confidence":3},{"trial_n":97,"min":89,"max":166,"target":"absent","response":"absent","rt":1179.8999999762,"correct":true,"confidence":2},{"trial_n":98,"min":89,"max":166,"target":"absent","response":"absent","rt":1197.6999999881,"correct":true,"confidence":2},{"trial_n":99,"min":93,"max":162,"target":"absent","response":"absent","rt":1395.5,"correct":true,"confidence":2},{"trial_n":100,"min":93,"max":162,"target":"absent","response":"absent","rt":986.90000003576,"correct":true,"confidence":3},{"trial_n":101,"min":95,"max":160,"target":"present","response":"absent","rt":1446.7000000477,"correct":false,"confidence":2},{"trial_n":102,"min":93,"max":162,"target":"present","response":"present","rt":1138,"correct":true,"confidence":1},{"trial_n":103,"min":93,"max":162,"target":"absent","response":"present","rt":2248.5,"correct":false,"confidence":1},{"trial_n":104,"min":91,"max":164,"target":"absent","response":"absent","rt":572,"correct":true,"confidence":1},{"trial_n":105,"min":91,"max":164,"target":"absent","response":"absent","rt":790.20000004768,"correct":true,"confidence":2},{"trial_n":106,"min":93,"max":162,"target":"present","response":"absent","rt":1292.5,"correct":false,"confidence":1},{"trial_n":107,"min":91,"max":164,"target":"present","response":"present","rt":1356,"correct":true,"confidence":1},{"trial_n":108,"min":91,"max":164,"target":"present","response":"present","rt":945.40000003576,"correct":true,"confidence":2},{"trial_n":109,"min":93,"max":162,"target":"present","response":"present","rt":918.90000003576,"correct":true,"confidence":1},{"trial_n":110,"min":93,"max":162,"target":"absent","response":"present","rt":1566.8000000119,"correct":false,"confidence":1},{"trial_n":111,"min":92,"max":163,"target":"present","response":"present","rt":935,"correct":true,"confidence":1},{"trial_n":112,"min":92,"max":163,"target":"present","response":"absent","rt":1070.1999999881,"correct":false,"confidence":1},{"trial_n":113,"min":91,"max":164,"target":"absent","response":"absent","rt":1072.5999999642,"correct":true,"confidence":2},{"trial_n":114,"min":91,"max":164,"target":"present","response":"present","rt":1362.8999999762,"correct":true,"confidence":3},{"trial_n":115,"min":92,"max":163,"target":"absent","response":"absent","rt":1839.9000000358,"correct":true,"confidence":1},{"trial_n":116,"min":92,"max":163,"target":"absent","response":"present","rt":1523.1000000238,"correct":false,"confidence":1},{"trial_n":117,"min":91,"max":164,"target":"present","response":"present","rt":850.09999996424,"correct":true,"confidence":1},{"trial_n":118,"min":91,"max":164,"target":"absent","response":"present","rt":1168.6999999881,"correct":false,"confidence":1},{"trial_n":119,"min":90,"max":165,"target":"absent","response":"present","rt":977.5,"correct":false,"confidence":1},{"trial_n":120,"min":89,"max":166,"target":"present","response":"present","rt":1005.5,"correct":true,"confidence":3},{"trial_n":121,"min":89,"max":166,"target":"absent","response":"present","rt":835.80000001192,"correct":false,"confidence":3},{"trial_n":122,"min":88,"max":167,"target":"absent","response":"absent","rt":3587.1999999881,"correct":true,"confidence":2},{"trial_n":123,"min":88,"max":167,"target":"absent","response":"absent","rt":986.30000001192,"correct":true,"confidence":2},{"trial_n":124,"min":89,"max":166,"target":"present","response":"present","rt":946.39999997616,"correct":true,"confidence":1},{"trial_n":125,"min":89,"max":166,"target":"absent","response":"present","rt":882.59999996424,"correct":false,"confidence":1},{"trial_n":126,"min":88,"max":167,"target":"present","response":"present","rt":927.59999996424,"correct":true,"confidence":1},{"trial_n":127,"min":88,"max":167,"target":"present","response":"present","rt":1164.3999999762,"correct":true,"confidence":1},{"trial_n":128,"min":89,"max":166,"target":"absent","response":"absent","rt":1069.6000000238,"correct":true,"confidence":2},{"trial_n":129,"min":89,"max":166,"target":"absent","response":"absent","rt":1247.1999999881,"correct":true,"confidence":2},{"trial_n":130,"min":90,"max":165,"target":"present","response":"present","rt":989.30000001192,"correct":true,"confidence":2},{"trial_n":131,"min":90,"max":165,"target":"absent","response":"present","rt":1265.2000000477,"correct":false,"confidence":1},{"trial_n":132,"min":89,"max":166,"target":"absent","response":"present","rt":714,"correct":false,"confidence":1},{"trial_n":133,"min":88,"max":167,"target":"present","response":"present","rt":624.60000002384,"correct":true,"confidence":4},{"trial_n":134,"min":88,"max":167,"target":"absent","response":"present","rt":877.69999998808,"correct":false,"confidence":1},{"trial_n":135,"min":87,"max":168,"target":"present","response":"present","rt":886.19999998808,"correct":true,"confidence":4},{"trial_n":136,"min":87,"max":168,"target":"present","response":"present","rt":971.09999996424,"correct":true,"confidence":3},{"trial_n":137,"min":88,"max":167,"target":"present","response":"present","rt":2068.1000000238,"correct":true,"confidence":2},{"trial_n":138,"min":88,"max":167,"target":"present","response":"present","rt":716.80000001192,"correct":true,"confidence":5},{"trial_n":139,"min":89,"max":166,"target":"absent","response":"present","rt":1101.5999999642,"correct":false,"confidence":1},{"trial_n":140,"min":88,"max":167,"target":"present","response":"present","rt":892.80000001192,"correct":true,"confidence":3}]