[{"trial_n":1,"n_dots":4.25,"target":"right","response":"left","rt":5710.3999999994,"correct":false,"confidence":-1},{"trial_n":2,"n_dots":4.25,"target":"left","response":"right","rt":626.5,"correct":false,"confidence":-1},{"trial_n":3,"n_dots":4.65,"target":"right","response":"left","rt":50.5,"correct":false,"confidence":-1},{"trial_n":4,"n_dots":5.05,"target":"left","response":"left","rt":1894.9000000004,"correct":true,"confidence":-1},{"trial_n":5,"n_dots":5.05,"target":"right","response":"right","rt":107.70000000019,"correct":true,"confidence":-1},{"trial_n":6,"n_dots":4.65,"target":"left","response":"left","rt":774.69999999925,"correct":true,"confidence":-1},{"trial_n":7,"n_dots":4.65,"target":"right","response":"right","rt":371.90000000037,"correct":true,"confidence":-1},{"trial_n":8,"n_dots":4.45,"target":"left","response":"left","rt":259.29999999981,"correct":true,"confidence":-1},{"trial_n":9,"n_dots":4.45,"target":"left","response":"left","rt":282.20000000019,"correct":true,"confidence":-1},{"trial_n":10,"n_dots":4.25,"target":"left","response":"left","rt":308.90000000037,"correct":true,"confidence":-1},{"trial_n":11,"n_dots":4.25,"target":"right","response":"right","rt":273.60000000056,"correct":true,"confidence":-1},{"trial_n":12,"n_dots":4.05,"target":"left","response":"left","rt":191.29999999981,"correct":true,"confidence":-1},{"trial_n":13,"n_dots":4.05,"target":"left","response":"left","rt":384.10000000056,"correct":true,"confidence":-1},{"trial_n":14,"n_dots":3.95,"target":"right","response":"right","rt":265.20000000019,"correct":true,"confidence":-1},{"trial_n":15,"n_dots":3.95,"target":"right","response":"left","rt":439.19999999925,"correct":false,"confidence":-1},{"trial_n":16,"n_dots":4.05,"target":"left","response":"left","rt":299.10000000056,"correct":true,"confidence":-1},{"trial_n":17,"n_dots":4.05,"target":"right","response":"right","rt":5.7000000001863,"correct":true,"confidence":-1},{"trial_n":18,"n_dots":3.95,"target":"right","response":"right","rt":488.20000000019,"correct":true,"confidence":-1},{"trial_n":19,"n_dots":3.95,"target":"left","response":"left","rt":268.59999999963,"correct":true,"confidence":-1},{"trial_n":20,"n_dots":3.85,"target":"left","response":"left","rt":193.60000000056,"correct":true,"confidence":-1},{"trial_n":21,"n_dots":3.85,"target":"right","response":"left","rt":448.39999999944,"correct":false,"confidence":2},{"trial_n":22,"n_dots":3.95,"target":"left","response":"left","rt":345.90000000037,"correct":true,"confidence":3},{"trial_n":23,"n_dots":3.95,"target":"right","response":"right","rt":277.40000000037,"correct":true,"confidence":4},{"trial_n":24,"n_dots":3.85,"target":"left","response":"left","rt":983.40000000037,"correct":true,"confidence":3},{"trial_n":25,"n_dots":3.85,"target":"left","response":"left","rt":364.60000000056,"correct":true,"confidence":4},{"trial_n":26,"n_dots":3.75,"target":"right","response":"right","rt":356.89999999944,"correct":true,"confidence":5},{"trial_n":27,"n_dots":3.75,"target":"right","response":"right","rt":629.09999999963,"correct":true,"confidence":4},{"trial_n":28,"n_dots":3.65,"target":"right","response":"right","rt":881.79999999981,"correct":true,"confidence":2},{"trial_n":29,"n_dots":3.65,"target":"left","response":"left","rt":355.29999999981,"correct":true,"confidence":3},{"trial_n":30,"n_dots":3.55,"target":"right","response":"right","rt":322,"correct":true,"confidence":3},{"trial_n":31,"n_dots":3.55,"target":"right","response":"right","rt":408.69999999925,"correct":true,"confidence":4},{"trial_n":32,"n_dots":3.45,"target":"right","response":"right","rt":683.29999999981,"correct":true,"confidence":3},{"trial_n":33,"n_dots":3.45,"target":"right","response":"left","rt":439.5,"correct":false,"confidence":2},{"trial_n":34,"n_dots":3.55,"target":"right","response":"left","rt":797.70000000019,"correct":false,"confidence":2},{"trial_n":35,"n_dots":3.65,"target":"right","response":"right","rt":294.89999999944,"correct":true,"confidence":3},{"trial_n":36,"n_dots":3.65,"target":"left","response":"left","rt":486.70000000019,"correct":true,"confidence":3},{"trial_n":37,"n_dots":3.55,"target":"right","response":"right","rt":193.39999999944,"correct":true,"confidence":3},{"trial_n":38,"n_dots":3.55,"target":"right","response":"right","rt":14.200000000186,"correct":true,"confidence":3},{"trial_n":39,"n_dots":3.45,"target":"left","response":"left","rt":606.70000000019,"correct":true,"confidence":3},{"trial_n":40,"n_dots":3.45,"target":"right","response":"right","rt":290.39999999944,"correct":true,"confidence":3},{"trial_n":41,"n_dots":3.35,"target":"right","response":"right","rt":274.5,"correct":true,"confidence":3},{"trial_n":42,"n_dots":3.35,"target":"right","response":"right","rt":262.90000000037,"correct":true,"confidence":4},{"trial_n":43,"n_dots":3.25,"target":"left","response":"right","rt":239.70000000019,"correct":false,"confidence":3},{"trial_n":44,"n_dots":3.35,"target":"right","response":"right","rt":1262.8000000007,"correct":true,"confidence":2},{"trial_n":45,"n_dots":3.35,"target":"left","response":"left","rt":307.40000000037,"correct":true,"confidence":1},{"trial_n":46,"n_dots":3.25,"target":"left","response":"left","rt":423.40000000037,"correct":true,"confidence":2},{"trial_n":47,"n_dots":3.25,"target":"right","response":"right","rt":276.09999999963,"correct":true,"confidence":3},{"trial_n":48,"n_dots":3.15,"target":"left","response":"left","rt":266,"correct":true,"confidence":2},{"trial_n":49,"n_dots":3.15,"target":"left","response":"left","rt":170.40000000037,"correct":true,"confidence":4},{"trial_n":50,"n_dots":3.05,"target":"right","response":"right","rt":327.79999999981,"correct":true,"confidence":3},{"trial_n":51,"n_dots":3.05,"target":"left","response":"left","rt":310.89999999944,"correct":true,"confidence":2},{"trial_n":52,"n_dots":2.95,"target":"right","response":"right","rt":243.79999999981,"correct":true,"confidence":4},{"trial_n":53,"n_dots":2.95,"target":"left","response":"left","rt":602.80000000075,"correct":true,"confidence":1},{"trial_n":54,"n_dots":2.85,"target":"right","response":"right","rt":347,"correct":true,"confidence":1},{"trial_n":55,"n_dots":2.85,"target":"right","response":"right","rt":299.70000000019,"correct":true,"confidence":1},{"trial_n":56,"n_dots":2.75,"target":"right","response":"right","rt":47.100000000559,"correct":true,"confidence":3},{"trial_n":57,"n_dots":2.75,"target":"right","response":"right","rt":250.70000000019,"correct":true,"confidence":3},{"trial_n":58,"n_dots":2.65,"target":"left","response":"left","rt":319.59999999963,"correct":true,"confidence":1},{"trial_n":59,"n_dots":2.65,"target":"right","response":"right","rt":551,"correct":true,"confidence":2},{"trial_n":60,"n_dots":2.55,"target":"left","response":"right","rt":354.19999999925,"correct":false,"confidence":1},{"trial_n":61,"n_dots":2.65,"target":"right","response":"left","rt":290.90000000037,"correct":false,"confidence":1},{"trial_n":62,"n_dots":2.75,"target":"right","response":"right","rt":215.89999999944,"correct":true,"confidence":3},{"trial_n":63,"n_dots":2.75,"target":"left","response":"left","rt":239.10000000056,"correct":true,"confidence":4},{"trial_n":64,"n_dots":2.65,"target":"left","response":"right","rt":335.60000000056,"correct":false,"confidence":1},{"trial_n":65,"n_dots":2.75,"target":"right","response":"right","rt":74.299999999814,"correct":true,"confidence":1},{"trial_n":66,"n_dots":2.75,"target":"right","response":"right","rt":506.70000000019,"correct":true,"confidence":3},{"trial_n":67,"n_dots":2.65,"target":"left","response":"left","rt":305.79999999981,"correct":true,"confidence":1},{"trial_n":68,"n_dots":2.65,"target":"left","response":"left","rt":360.59999999963,"correct":true,"confidence":2},{"trial_n":69,"n_dots":2.55,"target":"left","response":"right","rt":314.10000000056,"correct":false,"confidence":1},{"trial_n":70,"n_dots":2.65,"target":"right","response":"left","rt":210.60000000056,"correct":false,"confidence":2},{"trial_n":71,"n_dots":2.75,"target":"left","response":"left","rt":556.70000000019,"correct":true,"confidence":1},{"trial_n":72,"n_dots":2.75,"target":"right","response":"right","rt":338.60000000056,"correct":true,"confidence":1},{"trial_n":73,"n_dots":2.65,"target":"left","response":"left","rt":594.40000000037,"correct":true,"confidence":2},{"trial_n":74,"n_dots":2.65,"target":"left","response":"left","rt":807.60000000056,"correct":true,"confidence":1},{"trial_n":75,"n_dots":2.55,"target":"right","response":"right","rt":628.29999999981,"correct":true,"confidence":4},{"trial_n":76,"n_dots":2.55,"target":"right","response":"right","rt":189.70000000019,"correct":true,"confidence":4},{"trial_n":77,"n_dots":2.45,"target":"left","response":"left","rt":367,"correct":true,"confidence":3},{"trial_n":78,"n_dots":2.45,"target":"right","response":"right","rt":449.59999999963,"correct":true,"confidence":1},{"trial_n":79,"n_dots":2.35,"target":"left","response":"right","rt":866,"correct":false,"confidence":3},{"trial_n":80,"n_dots":2.45,"target":"left","response":"left","rt":965.79999999981,"correct":true,"confidence":3},{"trial_n":81,"n_dots":2.45,"target":"left","response":"left","rt":361.39999999944,"correct":true,"confidence":1},{"trial_n":82,"n_dots":2.35,"target":"right","response":"right","rt":373.09999999963,"correct":true,"confidence":1},{"trial_n":83,"n_dots":2.35,"target":"right","response":"right","rt":471.90000000037,"correct":true,"confidence":2},{"trial_n":84,"n_dots":2.25,"target":"right","response":"right","rt":329.5,"correct":true,"confidence":1},{"trial_n":85,"n_dots":2.25,"target":"right","response":"right","rt":676.79999999981,"correct":true,"confidence":2},{"trial_n":86,"n_dots":2.15,"target":"right","response":"right","rt":366.69999999925,"correct":true,"confidence":2},{"trial_n":87,"n_dots":2.15,"target":"right","response":"left","rt":292.39999999944,"correct":false,"confidence":2},{"trial_n":88,"n_dots":2.25,"target":"right","response":"right","rt":442.59999999963,"correct":true,"confidence":3},{"trial_n":89,"n_dots":2.25,"target":"left","response":"right","rt":526.79999999981,"correct":false,"confidence":4},{"trial_n":90,"n_dots":2.35,"target":"left","response":"right","rt":380.90000000037,"correct":false,"confidence":2},{"trial_n":91,"n_dots":2.45,"target":"right","response":"right","rt":643.29999999981,"correct":true,"confidence":1},{"trial_n":92,"n_dots":2.45,"target":"left","response":"left","rt":421.90000000037,"correct":true,"confidence":1},{"trial_n":93,"n_dots":2.35,"target":"left","response":"left","rt":363.39999999944,"correct":true,"confidence":1},{"trial_n":94,"n_dots":2.35,"target":"left","response":"left","rt":557.40000000037,"correct":true,"confidence":2},{"trial_n":95,"n_dots":2.25,"target":"left","response":"left","rt":306.5,"correct":true,"confidence":3},{"trial_n":96,"n_dots":2.25,"target":"right","response":"left","rt":364.70000000019,"correct":false,"confidence":1},{"trial_n":97,"n_dots":2.35,"target":"left","response":"left","rt":317.59999999963,"correct":true,"confidence":4},{"trial_n":98,"n_dots":2.35,"target":"left","response":"left","rt":284.29999999981,"correct":true,"confidence":3},{"trial_n":99,"n_dots":2.25,"target":"left","response":"right","rt":570.29999999981,"correct":false,"confidence":1},{"trial_n":100,"n_dots":2.35,"target":"right","response":"right","rt":341.10000000056,"correct":true,"confidence":2},{"trial_n":101,"n_dots":2.35,"target":"right","response":"right","rt":912.09999999963,"correct":true,"confidence":3},{"trial_n":102,"n_dots":2.25,"target":"right","response":"left","rt":759.5,"correct":false,"confidence":2},{"trial_n":103,"n_dots":2.35,"target":"left","response":"right","rt":523.70000000019,"correct":false,"confidence":3},{"trial_n":104,"n_dots":2.45,"target":"left","response":"left","rt":582.89999999944,"correct":true,"confidence":2},{"trial_n":105,"n_dots":2.45,"target":"right","response":"right","rt":260.70000000019,"correct":true,"confidence":3},{"trial_n":106,"n_dots":2.35,"target":"left","response":"right","rt":285,"correct":false,"confidence":3},{"trial_n":107,"n_dots":2.45,"target":"right","response":"left","rt":720.70000000019,"correct":false,"confidence":2},{"trial_n":108,"n_dots":2.55,"target":"right","response":"right","rt":251,"correct":true,"confidence":3},{"trial_n":109,"n_dots":2.55,"target":"left","response":"right","rt":363.5,"correct":false,"confidence":3},{"trial_n":110,"n_dots":2.65,"target":"left","response":"left","rt":285.70000000019,"correct":true,"confidence":1},{"trial_n":111,"n_dots":2.65,"target":"left","response":"right","rt":200.79999999981,"correct":false,"confidence":3},{"trial_n":112,"n_dots":2.75,"target":"right","response":"right","rt":20.300000000745,"correct":true,"confidence":3},{"trial_n":113,"n_dots":2.75,"target":"left","response":"left","rt":334.40000000037,"correct":true,"confidence":2},{"trial_n":114,"n_dots":2.65,"target":"left","response":"right","rt":1,"correct":false,"confidence":3},{"trial_n":115,"n_dots":2.75,"target":"left","response":"left","rt":216.30000000075,"correct":true,"confidence":4},{"trial_n":116,"n_dots":2.75,"target":"left","response":"left","rt":400.70000000019,"correct":true,"confidence":2},{"trial_n":117,"n_dots":2.65,"target":"left","response":"left","rt":365.29999999981,"correct":true,"confidence":1},{"trial_n":118,"n_dots":2.65,"target":"left","response":"right","rt":342.40000000037,"correct":false,"confidence":3},{"trial_n":119,"n_dots":2.75,"target":"right","response":"left","rt":1115.2000000002,"correct":false,"confidence":2},{"trial_n":120,"n_dots":2.85,"target":"left","response":"left","rt":317.19999999925,"correct":true,"confidence":3}]