[{"trial_n":1,"span":8,"encoder":"56496091","distractor":"56492091","target":"present","response":"present","rt":"8396.6000000238","correct":true,"confidence":-1},{"trial_n":2,"span":8,"encoder":"43023580","distractor":"33023580","target":"present","response":"present","rt":"3118.7000000477","correct":true,"confidence":-1},{"trial_n":3,"span":10,"encoder":"6678788230","distractor":"6678888230","target":"absent","response":"absent","rt":"7189.6000000238","correct":true,"confidence":-1},{"trial_n":4,"span":10,"encoder":"1608413038","distractor":"1608413037","target":"absent","response":"absent","rt":"5652.6000000238","correct":true,"confidence":-1},{"trial_n":5,"span":12,"encoder":"521990671437","distractor":"521990471437","target":"present","response":"absent","rt":"2462.8000000715","correct":false,"confidence":-1},{"trial_n":6,"span":10,"encoder":"6311119741","distractor":"6311149741","target":"present","response":"present","rt":"2257.2000000477","correct":true,"confidence":-1},{"trial_n":7,"span":10,"encoder":"3044629180","distractor":"3044629190","target":"absent","response":"absent","rt":"3135.1000000238","correct":true,"confidence":-1},{"trial_n":8,"span":12,"encoder":"143296865176","distractor":"143596865176","target":"present","response":"present","rt":"5634","correct":true,"confidence":-1},{"trial_n":9,"span":12,"encoder":"920518867134","distractor":"940518867134","target":"absent","response":"present","rt":"5235.6999999285","correct":false,"confidence":-1},{"trial_n":10,"span":10,"encoder":"1732173945","distractor":"1832173945","target":"present","response":"absent","rt":"1931.5","correct":false,"confidence":-1},{"trial_n":11,"span":8,"encoder":"63162603","distractor":"66162603","target":"absent","response":"present","rt":"1707.7999999523","correct":false,"confidence":-1},{"trial_n":12,"span":7,"encoder":"5493371","distractor":"5493372","target":"present","response":"present","rt":"2393.6000000238","correct":true,"confidence":-1},{"trial_n":13,"span":7,"encoder":"0198640","distractor":"0195640","target":"present","response":"present","rt":"2947.1000000238","correct":true,"confidence":-1},{"trial_n":14,"span":8,"encoder":"68225271","distractor":"61225271","target":"absent","response":"absent","rt":"2737.2000000477","correct":true,"confidence":-1},{"trial_n":15,"span":8,"encoder":"06779253","distractor":"06379253","target":"absent","response":"present","rt":"3735.1000000238","correct":false,"confidence":-1},{"trial_n":16,"span":7,"encoder":"5785894","distractor":"5785854","target":"absent","response":"absent","rt":"3285.3000000715","correct":true,"confidence":-1},{"trial_n":17,"span":7,"encoder":"9981784","distractor":"8981784","target":"present","response":"present","rt":"2690.6000000238","correct":true,"confidence":-1},{"trial_n":18,"span":8,"encoder":"06099413","distractor":"08099413","target":"absent","response":"present","rt":"2632.7000000477","correct":false,"confidence":-1},{"trial_n":19,"span":7,"encoder":"7903975","distractor":"7993975","target":"present","response":"present","rt":"1169.7000000477","correct":true,"confidence":-1},{"trial_n":20,"span":7,"encoder":"7530610","distractor":"9530610","target":"absent","response":"absent","rt":"2938.6000000238","correct":true,"confidence":-1},{"trial_n":21,"span":8,"encoder":"14068568","distractor":"14038568","target":"present","response":"present","rt":"7680.2000000477","correct":true,"confidence":4},{"trial_n":22,"span":8,"encoder":"03729080","distractor":"03727080","target":"present","response":"present","rt":"7445.2999999523","correct":true,"confidence":5},{"trial_n":23,"span":9,"encoder":"559586484","distractor":"559546484","target":"absent","response":"present","rt":"3994.8999999762","correct":false,"confidence":5},{"trial_n":24,"span":8,"encoder":"58827552","distractor":"58827522","target":"absent","response":"present","rt":"3149.5","correct":false,"confidence":5},{"trial_n":25,"span":7,"encoder":"3959057","distractor":"3959557","target":"present","response":"present","rt":"3819","correct":true,"confidence":4},{"trial_n":26,"span":7,"encoder":"4417720","distractor":"4417721","target":"present","response":"present","rt":"2646.3999999762","correct":true,"confidence":5},{"trial_n":27,"span":8,"encoder":"19936120","distractor":"19936123","target":"absent","response":"absent","rt":"3270.3000000715","correct":true,"confidence":5},{"trial_n":28,"span":8,"encoder":"90627256","distractor":"97627256","target":"absent","response":"absent","rt":"4891.7000000477","correct":true,"confidence":3},{"trial_n":29,"span":9,"encoder":"512866026","distractor":"512866025","target":"absent","response":"present","rt":"3855.2999999523","correct":false,"confidence":4},{"trial_n":30,"span":8,"encoder":"80211546","distractor":"50211546","target":"absent","response":"absent","rt":"4713.3000000715","correct":true,"confidence":4},{"trial_n":31,"span":8,"encoder":"18821627","distractor":"18621627","target":"absent","response":"absent","rt":"3806.2000000477","correct":true,"confidence":5},{"trial_n":32,"span":9,"encoder":"556953782","distractor":"556953772","target":"absent","response":"absent","rt":"5295.3000000715","correct":true,"confidence":4},{"trial_n":33,"span":9,"encoder":"443867718","distractor":"443817718","target":"present","response":"present","rt":"4677.2000000477","correct":true,"confidence":4},{"trial_n":34,"span":10,"encoder":"1131914386","distractor":"1131913386","target":"present","response":"present","rt":"4237.1000000238","correct":true,"confidence":5},{"trial_n":35,"span":10,"encoder":"6772258025","distractor":"6775258025","target":"present","response":"absent","rt":"7417.3999999762","correct":false,"confidence":3},{"trial_n":36,"span":9,"encoder":"327942720","distractor":"329942720","target":"present","response":"present","rt":"4406.3999999762","correct":true,"confidence":5},{"trial_n":37,"span":9,"encoder":"547944110","distractor":"547944180","target":"absent","response":"present","rt":"10248.399999976","correct":false,"confidence":4},{"trial_n":38,"span":8,"encoder":"42826448","distractor":"42826428","target":"absent","response":"absent","rt":"5292.3999999762","correct":true,"confidence":2},{"trial_n":39,"span":8,"encoder":"24849239","distractor":"24849236","target":"present","response":"present","rt":"5975.6000000238","correct":true,"confidence":3},{"trial_n":40,"span":9,"encoder":"255865111","distractor":"255665111","target":"present","response":"present","rt":"5209.8000000715","correct":true,"confidence":4},{"trial_n":41,"span":9,"encoder":"797017717","distractor":"797017710","target":"present","response":"present","rt":"3583.5","correct":true,"confidence":5},{"trial_n":42,"span":10,"encoder":"0940849462","distractor":"0940899462","target":"absent","response":"absent","rt":"5627.3999999762","correct":true,"confidence":5},{"trial_n":43,"span":10,"encoder":"8731203148","distractor":"8731273148","target":"present","response":"present","rt":"5261.3999999762","correct":true,"confidence":5},{"trial_n":44,"span":11,"encoder":"43098841189","distractor":"43098841489","target":"absent","response":"absent","rt":"4386.7000000477","correct":true,"confidence":5},{"trial_n":45,"span":11,"encoder":"76674146355","distractor":"46674146355","target":"absent","response":"present","rt":"5082","correct":false,"confidence":5},{"trial_n":46,"span":10,"encoder":"7610256803","distractor":"7610256303","target":"absent","response":"absent","rt":"5331.1000000238","correct":true,"confidence":5},{"trial_n":47,"span":10,"encoder":"7865868904","distractor":"7865818904","target":"absent","response":"present","rt":"5814.2000000477","correct":false,"confidence":5},{"trial_n":48,"span":9,"encoder":"063472632","distractor":"063412632","target":"present","response":"absent","rt":"4785.8999999762","correct":false,"confidence":3},{"trial_n":49,"span":8,"encoder":"33680508","distractor":"33680108","target":"present","response":"present","rt":"3025.5","correct":true,"confidence":5},{"trial_n":50,"span":8,"encoder":"58097576","distractor":"58097976","target":"present","response":"present","rt":"3638.7999999523","correct":true,"confidence":4},{"trial_n":51,"span":9,"encoder":"988645116","distractor":"988945116","target":"absent","response":"absent","rt":"3980.2000000477","correct":true,"confidence":5},{"trial_n":52,"span":9,"encoder":"861890880","distractor":"861390880","target":"absent","response":"present","rt":"5496.2000000477","correct":false,"confidence":5},{"trial_n":53,"span":8,"encoder":"78219886","distractor":"78819886","target":"present","response":"present","rt":"3603.0999999046","correct":true,"confidence":4},{"trial_n":54,"span":8,"encoder":"34305454","distractor":"34307454","target":"present","response":"present","rt":"4300.3000000715","correct":true,"confidence":5},{"trial_n":55,"span":9,"encoder":"213409682","distractor":"213408682","target":"absent","response":"present","rt":"4180.1000000238","correct":false,"confidence":3},{"trial_n":56,"span":8,"encoder":"98495443","distractor":"98495403","target":"present","response":"present","rt":"3858.8999999762","correct":true,"confidence":2},{"trial_n":57,"span":8,"encoder":"79839624","distractor":"79839621","target":"absent","response":"absent","rt":"2714.3000000715","correct":true,"confidence":4},{"trial_n":58,"span":9,"encoder":"590507262","distractor":"590507282","target":"present","response":"present","rt":"3686.6000000238","correct":true,"confidence":4},{"trial_n":59,"span":9,"encoder":"759831295","distractor":"759834295","target":"absent","response":"absent","rt":"2338.6000000238","correct":true,"confidence":3},{"trial_n":60,"span":10,"encoder":"9761550002","distractor":"9762550002","target":"present","response":"present","rt":"4450.3000000715","correct":true,"confidence":4},{"trial_n":61,"span":10,"encoder":"9125704277","distractor":"9125704272","target":"absent","response":"absent","rt":"32144.300000072","correct":true,"confidence":5},{"trial_n":62,"span":11,"encoder":"50897641171","distractor":"50897641173","target":"present","response":"present","rt":"4613.5","correct":true,"confidence":4},{"trial_n":63,"span":11,"encoder":"64929253015","distractor":"64979253015","target":"present","response":"present","rt":"5861.3999999762","correct":true,"confidence":3},{"trial_n":64,"span":12,"encoder":"480019832182","distractor":"480019834182","target":"absent","response":"present","rt":"7337.7000000477","correct":false,"confidence":4},{"trial_n":65,"span":11,"encoder":"95609304704","distractor":"95609304604","target":"present","response":"absent","rt":"4646.3999999762","correct":false,"confidence":1},{"trial_n":66,"span":10,"encoder":"4055372512","distractor":"4055377512","target":"present","response":"present","rt":"2918.2000000477","correct":true,"confidence":3},{"trial_n":67,"span":10,"encoder":"0746584586","distractor":"0746534586","target":"present","response":"present","rt":"4996","correct":true,"confidence":3},{"trial_n":68,"span":11,"encoder":"16669278128","distractor":"16669278158","target":"present","response":"present","rt":"5013.3000000715","correct":true,"confidence":4},{"trial_n":69,"span":11,"encoder":"22270665246","distractor":"22220665246","target":"absent","response":"present","rt":"7264.3000000715","correct":false,"confidence":5},{"trial_n":70,"span":10,"encoder":"3995886147","distractor":"3995896147","target":"absent","response":"absent","rt":"4658.3999999762","correct":true,"confidence":4},{"trial_n":71,"span":8,"encoder":"27906003","distractor":"27906005","target":"present","response":"present","rt":"2729","correct":true,"confidence":-1},{"trial_n":72,"span":8,"encoder":"40547398","distractor":"40587398","target":"present","response":"present","rt":"7026","correct":true,"confidence":-1},{"trial_n":73,"span":9,"encoder":"018435228","distractor":"018465228","target":"absent","response":"absent","rt":"7211","correct":true,"confidence":-1},{"trial_n":74,"span":9,"encoder":"512650990","distractor":"512650993","target":"absent","response":"absent","rt":"2797.2000000477","correct":true,"confidence":-1},{"trial_n":75,"span":10,"encoder":"6991734067","distractor":"9991734067","target":"present","response":"present","rt":"2422.2999999523","correct":true,"confidence":-1},{"trial_n":76,"span":10,"encoder":"9374746051","distractor":"9374746351","target":"present","response":"present","rt":"2214.5","correct":true,"confidence":-1},{"trial_n":77,"span":11,"encoder":"61473752442","distractor":"61473752445","target":"present","response":"present","rt":"1688.6000000238","correct":true,"confidence":-1},{"trial_n":78,"span":11,"encoder":"84867514273","distractor":"84864514273","target":"absent","response":"absent","rt":"4835.7999999523","correct":true,"confidence":-1},{"trial_n":79,"span":12,"encoder":"247504327260","distractor":"247504827260","target":"absent","response":"present","rt":"8471.1000000238","correct":false,"confidence":-1},{"trial_n":80,"span":11,"encoder":"18840050952","distractor":"48840050952","target":"present","response":"present","rt":"3488.7000000477","correct":true,"confidence":-1},{"trial_n":81,"span":11,"encoder":"90424441624","distractor":"96424441624","target":"present","response":"present","rt":"4861.6000000238","correct":true,"confidence":-1},{"trial_n":82,"span":12,"encoder":"803902724169","distractor":"803902794169","target":"present","response":"absent","rt":"6995.7000000477","correct":false,"confidence":-1},{"trial_n":83,"span":11,"encoder":"51133902311","distractor":"51133902711","target":"present","response":"present","rt":"2311.7999999523","correct":true,"confidence":-1},{"trial_n":84,"span":11,"encoder":"79613193140","distractor":"39613193140","target":"present","response":"present","rt":"6680.8000000715","correct":true,"confidence":-1},{"trial_n":85,"span":12,"encoder":"219352731397","distractor":"219357731397","target":"absent","response":"absent","rt":"6570","correct":true,"confidence":-1},{"trial_n":86,"span":12,"encoder":"746656911296","distractor":"746652911296","target":"present","response":"present","rt":"8929.1000000238","correct":true,"confidence":-1},{"trial_n":87,"span":13,"encoder":"2282964054268","distractor":"3282964054268","target":"present","response":"absent","rt":"4384.5","correct":false,"confidence":-1},{"trial_n":88,"span":12,"encoder":"691457833456","distractor":"691457853456","target":"present","response":"present","rt":"7850.7000000477","correct":true,"confidence":-1},{"trial_n":89,"span":12,"encoder":"375692082610","distractor":"375698082610","target":"absent","response":"present","rt":"7072","correct":false,"confidence":-1},{"trial_n":90,"span":11,"encoder":"71502923619","distractor":"71502923649","target":"present","response":"present","rt":"2008.3999999762","correct":true,"confidence":-1},{"trial_n":91,"span":11,"encoder":"31082061143","distractor":"81082061143","target":"present","response":"present","rt":"4903.5999999046","correct":true,"confidence":5},{"trial_n":92,"span":12,"encoder":"771926430404","distractor":"771926730404","target":"present","response":"present","rt":"8588.7000000477","correct":true,"confidence":3},{"trial_n":93,"span":12,"encoder":"057213440917","distractor":"057213440914","target":"present","response":"present","rt":"3508.6000000238","correct":true,"confidence":4},{"trial_n":94,"span":13,"encoder":"1609361153445","distractor":"1609368153445","target":"absent","response":"absent","rt":"7472.2000000477","correct":true,"confidence":3},{"trial_n":95,"span":13,"encoder":"8798000915112","distractor":"8998000915112","target":"absent","response":"absent","rt":"9245.5","correct":true,"confidence":3},{"trial_n":96,"span":14,"encoder":"47757249518381","distractor":"47557249518381","target":"absent","response":"present","rt":"10497.299999952","correct":false,"confidence":3},{"trial_n":97,"span":13,"encoder":"2511742406834","distractor":"2511722406834","target":"absent","response":"absent","rt":"13961.600000024","correct":true,"confidence":4},{"trial_n":98,"span":13,"encoder":"0018945732061","distractor":"0008945732061","target":"absent","response":"absent","rt":"7090.9000000954","correct":true,"confidence":3},{"trial_n":99,"span":14,"encoder":"33924213254174","distractor":"73924213254174","target":"absent","response":"absent","rt":"4444.6000000238","correct":true,"confidence":2},{"trial_n":100,"span":14,"encoder":"68527332228190","distractor":"68527302228190","target":"absent","response":"absent","rt":"12132.600000024","correct":true,"confidence":3},{"trial_n":101,"span":15,"encoder":"986048158751845","distractor":"946048158751845","target":"present","response":"present","rt":"5410.2000000477","correct":true,"confidence":4},{"trial_n":102,"span":15,"encoder":"486628100245750","distractor":"416628100245750","target":"absent","response":"absent","rt":"11582.600000024","correct":true,"confidence":3},{"trial_n":103,"span":16,"encoder":"7190399544273445","distractor":"7190399544273455","target":"present","response":"absent","rt":"7378.8999999762","correct":false,"confidence":1},{"trial_n":104,"span":15,"encoder":"346293632407250","distractor":"376293632407250","target":"present","response":"present","rt":"5335.2000000477","correct":true,"confidence":1},{"trial_n":105,"span":15,"encoder":"676814669782743","distractor":"676814669382743","target":"absent","response":"absent","rt":"14936.200000048","correct":true,"confidence":4},{"trial_n":106,"span":16,"encoder":"9731462457372316","distractor":"9731462457376316","target":"present","response":"present","rt":"12341.100000024","correct":true,"confidence":3},{"trial_n":107,"span":16,"encoder":"8428842624727543","distractor":"4428842624727543","target":"absent","response":"present","rt":"3982.1000000238","correct":false,"confidence":5},{"trial_n":108,"span":15,"encoder":"384476075255949","distractor":"384376075255949","target":"present","response":"present","rt":"10728.200000048","correct":true,"confidence":4},{"trial_n":109,"span":15,"encoder":"737491918151543","distractor":"737491914151543","target":"present","response":"present","rt":"8737.5","correct":true,"confidence":5},{"trial_n":110,"span":16,"encoder":"1923160078312374","distractor":"0923160078312374","target":"absent","response":"absent","rt":"2502","correct":true,"confidence":5},{"trial_n":111,"span":16,"encoder":"5634648785399403","distractor":"5634658785399403","target":"absent","response":"absent","rt":"12472.699999928","correct":true,"confidence":3},{"trial_n":112,"span":17,"encoder":"40917054865492443","distractor":"40917054895492443","target":"absent","response":"absent","rt":"10423.700000048","correct":true,"confidence":4},{"trial_n":113,"span":17,"encoder":"43413339945627733","distractor":"43413039945627733","target":"present","response":"absent","rt":"13386.200000048","correct":false,"confidence":3},{"trial_n":114,"span":16,"encoder":"5631299958926836","distractor":"5631299958946836","target":"present","response":"present","rt":"8723.8999999762","correct":true,"confidence":3},{"trial_n":115,"span":16,"encoder":"0893788999021066","distractor":"0893788999921066","target":"present","response":"absent","rt":"11572.399999976","correct":false,"confidence":4},{"trial_n":116,"span":15,"encoder":"451717865950144","distractor":"451717865950147","target":"absent","response":"absent","rt":"4200.3999999762","correct":true,"confidence":5},{"trial_n":117,"span":15,"encoder":"805837960962106","distractor":"805827960962106","target":"present","response":"absent","rt":"7428.3999999762","correct":false,"confidence":4},{"trial_n":118,"span":14,"encoder":"89204070786268","distractor":"89204070756268","target":"absent","response":"present","rt":"9463.2000000477","correct":false,"confidence":3},{"trial_n":119,"span":13,"encoder":"3245385112991","distractor":"3265385112991","target":"absent","response":"absent","rt":"5912.7000000477","correct":true,"confidence":5},{"trial_n":120,"span":13,"encoder":"2004324995811","distractor":"2004324995810","target":"absent","response":"absent","rt":"2116.3000000715","correct":true,"confidence":5},{"trial_n":121,"span":14,"encoder":"14981315202809","distractor":"14981317202809","target":"present","response":"present","rt":"7368.8000000715","correct":true,"confidence":5},{"trial_n":122,"span":14,"encoder":"07523329478673","distractor":"01523329478673","target":"absent","response":"absent","rt":"8508.7000000477","correct":true,"confidence":3},{"trial_n":123,"span":15,"encoder":"404431314147311","distractor":"404431315147311","target":"present","response":"present","rt":"8163","correct":true,"confidence":5},{"trial_n":124,"span":15,"encoder":"247933228598350","distractor":"247933228548350","target":"absent","response":"absent","rt":"15848.800000072","correct":true,"confidence":4},{"trial_n":125,"span":16,"encoder":"6902625226041489","distractor":"6902629226041489","target":"present","response":"absent","rt":"9852.2000000477","correct":false,"confidence":4},{"trial_n":126,"span":15,"encoder":"454010455414912","distractor":"454010455417912","target":"absent","response":"absent","rt":"11905.600000024","correct":true,"confidence":3},{"trial_n":127,"span":15,"encoder":"400242178537629","distractor":"400242178537623","target":"absent","response":"absent","rt":"3010.3999999762","correct":true,"confidence":1},{"trial_n":128,"span":16,"encoder":"2873711720623115","distractor":"2673711720623115","target":"absent","response":"absent","rt":"27398.100000024","correct":true,"confidence":2},{"trial_n":129,"span":16,"encoder":"7606763806551381","distractor":"7606769806551381","target":"absent","response":"absent","rt":"10239.199999928","correct":true,"confidence":4},{"trial_n":130,"span":17,"encoder":"38407911515817818","distractor":"38407911513817818","target":"absent","response":"absent","rt":"14004.200000048","correct":true,"confidence":3},{"trial_n":131,"span":17,"encoder":"00468962938382527","distractor":"05468962938382527","target":"absent","response":"absent","rt":"2786.8999999762","correct":true,"confidence":4},{"trial_n":132,"span":18,"encoder":"720638346593992675","distractor":"770638346593992675","target":"absent","response":"present","rt":"6198.7000000477","correct":false,"confidence":3},{"trial_n":133,"span":17,"encoder":"01704410819808128","distractor":"01704410813808128","target":"present","response":"absent","rt":"13462.300000072","correct":false,"confidence":3},{"trial_n":134,"span":16,"encoder":"5776237758237802","distractor":"5776237558237802","target":"present","response":"present","rt":"6058.6000000238","correct":true,"confidence":4},{"trial_n":135,"span":16,"encoder":"8057367911681116","distractor":"8057367911681166","target":"absent","response":"present","rt":"13246.299999952","correct":false,"confidence":4},{"trial_n":136,"span":15,"encoder":"193439032056007","distractor":"293439032056007","target":"present","response":"absent","rt":"4189.7999999523","correct":false,"confidence":4},{"trial_n":137,"span":14,"encoder":"87511766986654","distractor":"87511966986654","target":"present","response":"absent","rt":"10549.800000072","correct":false,"confidence":3},{"trial_n":138,"span":13,"encoder":"0096685258669","distractor":"0096685258619","target":"present","response":"present","rt":"14168.899999976","correct":true,"confidence":5},{"trial_n":139,"span":13,"encoder":"0886426410870","distractor":"0886726410870","target":"present","response":"present","rt":"6069.2000000477","correct":true,"confidence":4},{"trial_n":140,"span":14,"encoder":"46258999467679","distractor":"46758999467679","target":"absent","response":"present","rt":"12615.199999928","correct":false,"confidence":3}]