[{"trial_n":1,"span":8,"encoder":"78998901","distractor":"78968901","target":"present","response":"present","rt":"3158.7999999998","correct":true,"confidence":-1},{"trial_n":2,"span":8,"encoder":"71900048","distractor":"71904048","target":"present","response":"present","rt":"2585.9000000004","correct":true,"confidence":-1},{"trial_n":3,"span":10,"encoder":"1638969604","distractor":"1634969604","target":"absent","response":"present","rt":"4766.5","correct":false,"confidence":-1},{"trial_n":4,"span":8,"encoder":"36558982","distractor":"36588982","target":"absent","response":"present","rt":"1509","correct":false,"confidence":-1},{"trial_n":5,"span":6,"encoder":"839943","distractor":"833943","target":"present","response":"present","rt":"1384.2999999998","correct":true,"confidence":-1},{"trial_n":6,"span":6,"encoder":"903210","distractor":"943210","target":"absent","response":"present","rt":"942.79999999981","correct":false,"confidence":-1},{"trial_n":7,"span":4,"encoder":"9518","distractor":"9528","target":"present","response":"present","rt":"5549.5","correct":true,"confidence":-1},{"trial_n":8,"span":4,"encoder":"5586","distractor":"5536","target":"present","response":"present","rt":"935.59999999963","correct":true,"confidence":-1},{"trial_n":9,"span":6,"encoder":"306459","distractor":"306458","target":"absent","response":"absent","rt":"966.89999999944","correct":true,"confidence":-1},{"trial_n":10,"span":6,"encoder":"473818","distractor":"473878","target":"absent","response":"present","rt":"554.19999999925","correct":false,"confidence":-1},{"trial_n":11,"span":4,"encoder":"6744","distractor":"0744","target":"present","response":"present","rt":"426.79999999981","correct":true,"confidence":-1},{"trial_n":12,"span":4,"encoder":"7701","distractor":"0701","target":"present","response":"absent","rt":"518.29999999981","correct":false,"confidence":-1},{"trial_n":13,"span":3,"encoder":"780","distractor":"781","target":"present","response":"present","rt":"840.59999999963","correct":true,"confidence":-1},{"trial_n":14,"span":3,"encoder":"277","distractor":"272","target":"present","response":"present","rt":"927.5","correct":true,"confidence":-1},{"trial_n":15,"span":4,"encoder":"8185","distractor":"8195","target":"absent","response":"present","rt":"888.09999999963","correct":false,"confidence":-1},{"trial_n":16,"span":3,"encoder":"650","distractor":"655","target":"present","response":"absent","rt":"386.09999999963","correct":false,"confidence":-1},{"trial_n":17,"span":2,"encoder":"71","distractor":"77","target":"present","response":"absent","rt":"750.40000000037","correct":false,"confidence":-1},{"trial_n":18,"span":2,"encoder":"31","distractor":"39","target":"absent","response":"present","rt":"587.90000000037","correct":false,"confidence":-1},{"trial_n":19,"span":2,"encoder":"13","distractor":"12","target":"present","response":"present","rt":"1323.0999999996","correct":true,"confidence":-1},{"trial_n":20,"span":2,"encoder":"52","distractor":"57","target":"absent","response":"absent","rt":"781.10000000056","correct":true,"confidence":-1},{"trial_n":21,"span":3,"encoder":"706","distractor":"906","target":"absent","response":"present","rt":"861.40000000037","correct":false,"confidence":3},{"trial_n":22,"span":2,"encoder":"29","distractor":"28","target":"absent","response":"absent","rt":"1698.3000000007","correct":true,"confidence":5},{"trial_n":23,"span":2,"encoder":"35","distractor":"25","target":"absent","response":"absent","rt":"1055","correct":true,"confidence":5},{"trial_n":24,"span":3,"encoder":"366","distractor":"365","target":"present","response":"present","rt":"1110.2000000002","correct":true,"confidence":5},{"trial_n":25,"span":3,"encoder":"851","distractor":"951","target":"absent","response":"absent","rt":"1126.4000000004","correct":true,"confidence":5},{"trial_n":26,"span":4,"encoder":"7877","distractor":"7377","target":"present","response":"present","rt":"1039.3999999994","correct":true,"confidence":5},{"trial_n":27,"span":4,"encoder":"9116","distractor":"9111","target":"present","response":"present","rt":"772.29999999981","correct":true,"confidence":5},{"trial_n":28,"span":5,"encoder":"02079","distractor":"32079","target":"absent","response":"absent","rt":"1720.0999999996","correct":true,"confidence":4},{"trial_n":29,"span":5,"encoder":"49057","distractor":"43057","target":"present","response":"present","rt":"1056","correct":true,"confidence":3},{"trial_n":30,"span":6,"encoder":"529743","distractor":"529243","target":"absent","response":"absent","rt":"1421.8000000007","correct":true,"confidence":3},{"trial_n":31,"span":6,"encoder":"655767","distractor":"695767","target":"present","response":"present","rt":"3751.7000000002","correct":true,"confidence":3},{"trial_n":32,"span":7,"encoder":"4831303","distractor":"4831307","target":"present","response":"absent","rt":"445","correct":false,"confidence":1},{"trial_n":33,"span":6,"encoder":"940509","distractor":"940519","target":"present","response":"present","rt":"1002.2999999998","correct":true,"confidence":2},{"trial_n":34,"span":6,"encoder":"924353","distractor":"924355","target":"absent","response":"present","rt":"1503.0999999996","correct":false,"confidence":3},{"trial_n":35,"span":5,"encoder":"17903","distractor":"37903","target":"absent","response":"present","rt":"1017.4000000004","correct":false,"confidence":4},{"trial_n":36,"span":4,"encoder":"4797","distractor":"1797","target":"absent","response":"present","rt":"1092.2000000002","correct":false,"confidence":4},{"trial_n":37,"span":3,"encoder":"622","distractor":"662","target":"absent","response":"absent","rt":"1711.4000000004","correct":true,"confidence":5},{"trial_n":38,"span":3,"encoder":"917","distractor":"617","target":"absent","response":"absent","rt":"1515.9000000004","correct":true,"confidence":5},{"trial_n":39,"span":4,"encoder":"0206","distractor":"0276","target":"absent","response":"present","rt":"1694.6000000006","correct":false,"confidence":1},{"trial_n":40,"span":3,"encoder":"268","distractor":"768","target":"absent","response":"absent","rt":"2483.0999999996","correct":true,"confidence":5},{"trial_n":41,"span":3,"encoder":"009","distractor":"002","target":"present","response":"present","rt":"881.39999999944","correct":true,"confidence":5},{"trial_n":42,"span":4,"encoder":"4881","distractor":"4851","target":"absent","response":"absent","rt":"2327.7000000002","correct":true,"confidence":4},{"trial_n":43,"span":4,"encoder":"3580","distractor":"3590","target":"absent","response":"absent","rt":"2804.2999999998","correct":true,"confidence":3},{"trial_n":44,"span":5,"encoder":"58884","distractor":"57884","target":"absent","response":"present","rt":"571.60000000056","correct":false,"confidence":1},{"trial_n":45,"span":4,"encoder":"2983","distractor":"2083","target":"present","response":"present","rt":"1406.9000000004","correct":true,"confidence":5},{"trial_n":46,"span":4,"encoder":"0861","distractor":"0881","target":"present","response":"present","rt":"975.5","correct":true,"confidence":4},{"trial_n":47,"span":5,"encoder":"61812","distractor":"63812","target":"present","response":"present","rt":"1576.6000000006","correct":true,"confidence":4},{"trial_n":48,"span":5,"encoder":"72859","distractor":"72959","target":"present","response":"present","rt":"1509.5","correct":true,"confidence":4},{"trial_n":49,"span":6,"encoder":"922853","distractor":"926853","target":"absent","response":"absent","rt":"1608.7000000002","correct":true,"confidence":5},{"trial_n":50,"span":6,"encoder":"720034","distractor":"420034","target":"absent","response":"present","rt":"1299.3999999994","correct":false,"confidence":4},{"trial_n":51,"span":5,"encoder":"13803","distractor":"03803","target":"present","response":"present","rt":"1156.5","correct":true,"confidence":5},{"trial_n":52,"span":5,"encoder":"95203","distractor":"95283","target":"present","response":"present","rt":"1514.3000000007","correct":true,"confidence":3},{"trial_n":53,"span":6,"encoder":"514256","distractor":"514253","target":"present","response":"present","rt":"1236.0999999996","correct":true,"confidence":4},{"trial_n":54,"span":6,"encoder":"979820","distractor":"979830","target":"absent","response":"absent","rt":"830.70000000019","correct":true,"confidence":2},{"trial_n":55,"span":7,"encoder":"6794292","distractor":"6794293","target":"absent","response":"absent","rt":"2236","correct":true,"confidence":2},{"trial_n":56,"span":7,"encoder":"6674339","distractor":"6674639","target":"present","response":"present","rt":"1481","correct":true,"confidence":4},{"trial_n":57,"span":8,"encoder":"13212794","distractor":"13212764","target":"present","response":"present","rt":"2168.5999999996","correct":true,"confidence":3},{"trial_n":58,"span":8,"encoder":"65578494","distractor":"65538494","target":"absent","response":"absent","rt":"2205.2999999998","correct":true,"confidence":3},{"trial_n":59,"span":9,"encoder":"293665705","distractor":"293665805","target":"absent","response":"absent","rt":"4605.5","correct":true,"confidence":1},{"trial_n":60,"span":9,"encoder":"289453179","distractor":"287453179","target":"absent","response":"absent","rt":"1302","correct":true,"confidence":1},{"trial_n":61,"span":10,"encoder":"9306118229","distractor":"8306118229","target":"absent","response":"absent","rt":"1958.4000000004","correct":true,"confidence":2},{"trial_n":62,"span":10,"encoder":"8444502169","distractor":"8444582169","target":"absent","response":"absent","rt":"1572.3999999994","correct":true,"confidence":3},{"trial_n":63,"span":11,"encoder":"36933556263","distractor":"30933556263","target":"present","response":"present","rt":"2112.2999999998","correct":true,"confidence":4},{"trial_n":64,"span":11,"encoder":"01345542012","distractor":"01045542012","target":"present","response":"present","rt":"2669.2000000002","correct":true,"confidence":2},{"trial_n":65,"span":12,"encoder":"795231172441","distractor":"795231179441","target":"present","response":"absent","rt":"1178.2999999998","correct":false,"confidence":1},{"trial_n":66,"span":11,"encoder":"64702491753","distractor":"64702891753","target":"absent","response":"present","rt":"1014.2999999998","correct":false,"confidence":3},{"trial_n":67,"span":10,"encoder":"9313512893","distractor":"9013512893","target":"present","response":"present","rt":"1125.2000000002","correct":true,"confidence":3},{"trial_n":68,"span":10,"encoder":"0989782868","distractor":"6989782868","target":"present","response":"absent","rt":"746","correct":false,"confidence":1},{"trial_n":69,"span":9,"encoder":"724703211","distractor":"724704211","target":"present","response":"present","rt":"2014.7000000002","correct":true,"confidence":2},{"trial_n":70,"span":9,"encoder":"294265158","distractor":"214265158","target":"present","response":"absent","rt":"1737.1000000006","correct":false,"confidence":2},{"trial_n":71,"span":8,"encoder":"35593697","distractor":"35563697","target":"present","response":"present","rt":"4296.4000000004","correct":true,"confidence":-1},{"trial_n":72,"span":8,"encoder":"51237303","distractor":"51237308","target":"present","response":"absent","rt":"2622.6000000006","correct":false,"confidence":-1},{"trial_n":73,"span":7,"encoder":"7835798","distractor":"4835798","target":"absent","response":"present","rt":"397","correct":false,"confidence":-1},{"trial_n":74,"span":6,"encoder":"638883","distractor":"636883","target":"absent","response":"present","rt":"129.60000000056","correct":false,"confidence":-1},{"trial_n":75,"span":5,"encoder":"73264","distractor":"73364","target":"present","response":"present","rt":"48.100000000559","correct":true,"confidence":-1},{"trial_n":76,"span":5,"encoder":"76541","distractor":"76545","target":"present","response":"absent","rt":"118.79999999981","correct":false,"confidence":-1},{"trial_n":77,"span":4,"encoder":"2862","distractor":"2868","target":"present","response":"absent","rt":"1085","correct":false,"confidence":-1},{"trial_n":78,"span":3,"encoder":"490","distractor":"290","target":"present","response":"present","rt":"831.40000000037","correct":true,"confidence":-1},{"trial_n":79,"span":3,"encoder":"788","distractor":"288","target":"present","response":"absent","rt":"922.20000000019","correct":false,"confidence":-1},{"trial_n":80,"span":2,"encoder":"76","distractor":"96","target":"present","response":"present","rt":"918.90000000037","correct":true,"confidence":-1},{"trial_n":81,"span":2,"encoder":"55","distractor":"51","target":"absent","response":"absent","rt":"787.10000000056","correct":true,"confidence":-1},{"trial_n":82,"span":3,"encoder":"012","distractor":"052","target":"absent","response":"absent","rt":"1269.4000000004","correct":true,"confidence":-1},{"trial_n":83,"span":3,"encoder":"362","distractor":"352","target":"present","response":"present","rt":"1371.5","correct":true,"confidence":-1},{"trial_n":84,"span":4,"encoder":"9696","distractor":"9693","target":"absent","response":"absent","rt":"1312.2000000002","correct":true,"confidence":-1},{"trial_n":85,"span":4,"encoder":"6992","distractor":"3992","target":"present","response":"absent","rt":"632.5","correct":false,"confidence":-1},{"trial_n":86,"span":3,"encoder":"175","distractor":"171","target":"present","response":"present","rt":"899.29999999981","correct":true,"confidence":-1},{"trial_n":87,"span":3,"encoder":"194","distractor":"184","target":"absent","response":"absent","rt":"1197.3000000007","correct":true,"confidence":-1},{"trial_n":88,"span":4,"encoder":"8348","distractor":"8347","target":"absent","response":"absent","rt":"831.5","correct":true,"confidence":-1},{"trial_n":89,"span":4,"encoder":"5481","distractor":"5881","target":"present","response":"absent","rt":"963.40000000037","correct":false,"confidence":-1},{"trial_n":90,"span":3,"encoder":"003","distractor":"001","target":"absent","response":"present","rt":"929.70000000019","correct":false,"confidence":-1},{"trial_n":91,"span":2,"encoder":"09","distractor":"05","target":"present","response":"present","rt":"784.60000000056","correct":true,"confidence":5},{"trial_n":92,"span":2,"encoder":"94","distractor":"24","target":"absent","response":"absent","rt":"1395.5","correct":true,"confidence":4},{"trial_n":93,"span":3,"encoder":"934","distractor":"994","target":"absent","response":"absent","rt":"2315.8999999994","correct":true,"confidence":5},{"trial_n":94,"span":3,"encoder":"341","distractor":"331","target":"absent","response":"absent","rt":"1488","correct":true,"confidence":5},{"trial_n":95,"span":4,"encoder":"6729","distractor":"3729","target":"absent","response":"absent","rt":"1794.7000000002","correct":true,"confidence":5},{"trial_n":96,"span":4,"encoder":"1778","distractor":"1278","target":"absent","response":"absent","rt":"1543.6000000006","correct":true,"confidence":5},{"trial_n":97,"span":5,"encoder":"42638","distractor":"42668","target":"present","response":"present","rt":"2197.5999999996","correct":true,"confidence":5},{"trial_n":98,"span":5,"encoder":"13615","distractor":"13616","target":"present","response":"present","rt":"2509.4000000004","correct":true,"confidence":5},{"trial_n":99,"span":6,"encoder":"476480","distractor":"476400","target":"absent","response":"present","rt":"3413.7000000002","correct":false,"confidence":3},{"trial_n":100,"span":5,"encoder":"40909","distractor":"45909","target":"present","response":"present","rt":"3372","correct":true,"confidence":4},{"trial_n":101,"span":5,"encoder":"13063","distractor":"53063","target":"absent","response":"absent","rt":"1933","correct":true,"confidence":5},{"trial_n":102,"span":6,"encoder":"764915","distractor":"714915","target":"present","response":"present","rt":"2067.5","correct":true,"confidence":4},{"trial_n":103,"span":6,"encoder":"484560","distractor":"487560","target":"absent","response":"absent","rt":"6371.7000000002","correct":true,"confidence":2},{"trial_n":104,"span":7,"encoder":"9334582","distractor":"9384582","target":"present","response":"present","rt":"5222.6000000006","correct":true,"confidence":3},{"trial_n":105,"span":7,"encoder":"2846049","distractor":"2842049","target":"present","response":"present","rt":"1266.7999999998","correct":true,"confidence":3},{"trial_n":106,"span":8,"encoder":"80211276","distractor":"80231276","target":"present","response":"absent","rt":"387.20000000019","correct":false,"confidence":4},{"trial_n":107,"span":7,"encoder":"1210495","distractor":"1211495","target":"absent","response":"present","rt":"1189.8999999994","correct":false,"confidence":3},{"trial_n":108,"span":6,"encoder":"025492","distractor":"022492","target":"present","response":"absent","rt":"1335.7000000002","correct":false,"confidence":2},{"trial_n":109,"span":5,"encoder":"93536","distractor":"53536","target":"present","response":"present","rt":"2764.5","correct":true,"confidence":2},{"trial_n":110,"span":5,"encoder":"84568","distractor":"88568","target":"absent","response":"absent","rt":"1572.8999999994","correct":true,"confidence":4},{"trial_n":111,"span":6,"encoder":"730730","distractor":"730750","target":"absent","response":"present","rt":"3457.5","correct":false,"confidence":3},{"trial_n":112,"span":5,"encoder":"09613","distractor":"09413","target":"absent","response":"absent","rt":"3608.4000000004","correct":true,"confidence":3},{"trial_n":113,"span":5,"encoder":"96102","distractor":"46102","target":"absent","response":"present","rt":"2114","correct":false,"confidence":5},{"trial_n":114,"span":4,"encoder":"9159","distractor":"9179","target":"absent","response":"absent","rt":"2566.7000000002","correct":true,"confidence":4},{"trial_n":115,"span":4,"encoder":"4810","distractor":"4819","target":"present","response":"present","rt":"3128.2999999998","correct":true,"confidence":3},{"trial_n":116,"span":5,"encoder":"75517","distractor":"65517","target":"present","response":"present","rt":"3302.7999999998","correct":true,"confidence":5},{"trial_n":117,"span":5,"encoder":"79045","distractor":"49045","target":"present","response":"present","rt":"5346","correct":true,"confidence":3},{"trial_n":118,"span":6,"encoder":"102823","distractor":"102828","target":"present","response":"absent","rt":"3343.2000000002","correct":false,"confidence":3},{"trial_n":119,"span":5,"encoder":"44784","distractor":"44783","target":"present","response":"present","rt":"4126.6000000006","correct":true,"confidence":4},{"trial_n":120,"span":5,"encoder":"41605","distractor":"42605","target":"present","response":"present","rt":"3211.9000000004","correct":true,"confidence":4},{"trial_n":121,"span":6,"encoder":"725655","distractor":"725355","target":"absent","response":"absent","rt":"4614.0999999996","correct":true,"confidence":4},{"trial_n":122,"span":6,"encoder":"456491","distractor":"456494","target":"absent","response":"absent","rt":"3511.9000000004","correct":true,"confidence":3},{"trial_n":123,"span":7,"encoder":"3534045","distractor":"3134045","target":"present","response":"present","rt":"7486.5","correct":true,"confidence":4},{"trial_n":124,"span":7,"encoder":"6967537","distractor":"6907537","target":"absent","response":"absent","rt":"1747.0999999996","correct":true,"confidence":5},{"trial_n":125,"span":8,"encoder":"90957632","distractor":"90957662","target":"present","response":"present","rt":"5605.5","correct":true,"confidence":3},{"trial_n":126,"span":8,"encoder":"70831917","distractor":"70821917","target":"absent","response":"absent","rt":"2557.9000000004","correct":true,"confidence":4},{"trial_n":127,"span":9,"encoder":"623127272","distractor":"623127572","target":"present","response":"present","rt":"1862.2999999998","correct":true,"confidence":2},{"trial_n":128,"span":9,"encoder":"510393352","distractor":"510993352","target":"absent","response":"absent","rt":"585.09999999963","correct":true,"confidence":1},{"trial_n":129,"span":10,"encoder":"4628507979","distractor":"4688507979","target":"present","response":"present","rt":"3705.7000000002","correct":true,"confidence":2},{"trial_n":130,"span":10,"encoder":"1624145025","distractor":"1624145055","target":"absent","response":"present","rt":"2880.8999999994","correct":false,"confidence":2},{"trial_n":131,"span":9,"encoder":"609907175","distractor":"604907175","target":"absent","response":"absent","rt":"1356.5","correct":true,"confidence":4},{"trial_n":132,"span":9,"encoder":"508088144","distractor":"008088144","target":"present","response":"present","rt":"4557.7000000002","correct":true,"confidence":5},{"trial_n":133,"span":10,"encoder":"7797869505","distractor":"7197869505","target":"present","response":"present","rt":"1639.5999999996","correct":true,"confidence":5},{"trial_n":134,"span":10,"encoder":"2941881767","distractor":"2941881167","target":"absent","response":"absent","rt":"7387.3999999994","correct":true,"confidence":4},{"trial_n":135,"span":11,"encoder":"89273989607","distractor":"89273989617","target":"absent","response":"present","rt":"6254.5999999996","correct":false,"confidence":2},{"trial_n":136,"span":10,"encoder":"2573423371","distractor":"2573423381","target":"present","response":"absent","rt":"2433","correct":false,"confidence":4},{"trial_n":137,"span":9,"encoder":"618817526","distractor":"618917526","target":"absent","response":"absent","rt":"2038.5","correct":true,"confidence":5},{"trial_n":138,"span":9,"encoder":"746535578","distractor":"746530578","target":"absent","response":"absent","rt":"2929.2999999998","correct":true,"confidence":5},{"trial_n":139,"span":10,"encoder":"2785355394","distractor":"2788355394","target":"present","response":"present","rt":"6225.5","correct":true,"confidence":5},{"trial_n":140,"span":10,"encoder":"1053541380","distractor":"1053548380","target":"absent","response":"present","rt":"7240","correct":false,"confidence":1}]