[{"trial_n":1,"n_dots":4.25,"target":"right","response":"right","rt":3786,"correct":true,"confidence":-1},{"trial_n":2,"n_dots":4.25,"target":"left","response":"left","rt":518.20000004768,"correct":true,"confidence":-1},{"trial_n":3,"n_dots":3.85,"target":"left","response":"left","rt":534.80000007153,"correct":true,"confidence":-1},{"trial_n":4,"n_dots":3.85,"target":"right","response":"right","rt":143.39999997616,"correct":true,"confidence":-1},{"trial_n":5,"n_dots":3.45,"target":"right","response":"right","rt":272,"correct":true,"confidence":-1},{"trial_n":6,"n_dots":3.45,"target":"right","response":"left","rt":227.90000009537,"correct":false,"confidence":-1},{"trial_n":7,"n_dots":3.85,"target":"left","response":"left","rt":879.5,"correct":true,"confidence":-1},{"trial_n":8,"n_dots":3.85,"target":"left","response":"left","rt":285.60000002384,"correct":true,"confidence":-1},{"trial_n":9,"n_dots":3.65,"target":"right","response":"right","rt":27.300000071526,"correct":true,"confidence":-1},{"trial_n":10,"n_dots":3.65,"target":"right","response":"right","rt":19.899999976158,"correct":true,"confidence":-1},{"trial_n":11,"n_dots":3.45,"target":"right","response":"right","rt":261.20000004768,"correct":true,"confidence":-1},{"trial_n":12,"n_dots":3.45,"target":"right","response":"right","rt":43.800000071526,"correct":true,"confidence":-1},{"trial_n":13,"n_dots":3.35,"target":"right","response":"left","rt":911.90000009537,"correct":false,"confidence":-1},{"trial_n":14,"n_dots":3.45,"target":"left","response":"left","rt":37.700000047684,"correct":true,"confidence":-1},{"trial_n":15,"n_dots":3.45,"target":"left","response":"left","rt":302.80000007153,"correct":true,"confidence":-1},{"trial_n":16,"n_dots":3.35,"target":"right","response":"left","rt":644.69999992847,"correct":false,"confidence":-1},{"trial_n":17,"n_dots":3.45,"target":"left","response":"left","rt":23.299999952316,"correct":true,"confidence":-1},{"trial_n":18,"n_dots":3.45,"target":"right","response":"left","rt":560.20000004768,"correct":false,"confidence":-1},{"trial_n":19,"n_dots":3.55,"target":"right","response":"left","rt":123.5,"correct":false,"confidence":-1},{"trial_n":20,"n_dots":3.65,"target":"left","response":"left","rt":47.400000095367,"correct":true,"confidence":-1},{"trial_n":21,"n_dots":3.65,"target":"right","response":"right","rt":467.80000007153,"correct":true,"confidence":4},{"trial_n":22,"n_dots":3.55,"target":"left","response":"left","rt":196.60000002384,"correct":true,"confidence":5},{"trial_n":23,"n_dots":3.55,"target":"right","response":"right","rt":1872.4000000954,"correct":true,"confidence":4},{"trial_n":24,"n_dots":3.45,"target":"left","response":"left","rt":1204.6000000238,"correct":true,"confidence":4},{"trial_n":25,"n_dots":3.45,"target":"left","response":"left","rt":2325.5,"correct":true,"confidence":2},{"trial_n":26,"n_dots":3.35,"target":"left","response":"left","rt":487.10000002384,"correct":true,"confidence":3},{"trial_n":27,"n_dots":3.35,"target":"left","response":"left","rt":596.39999997616,"correct":true,"confidence":3},{"trial_n":28,"n_dots":3.25,"target":"right","response":"left","rt":627,"correct":false,"confidence":3},{"trial_n":29,"n_dots":3.35,"target":"left","response":"left","rt":1419.1999999285,"correct":true,"confidence":3},{"trial_n":30,"n_dots":3.35,"target":"right","response":"left","rt":1350.7000000477,"correct":false,"confidence":3},{"trial_n":31,"n_dots":3.45,"target":"right","response":"right","rt":885.5,"correct":true,"confidence":3},{"trial_n":32,"n_dots":3.45,"target":"right","response":"left","rt":597.30000007153,"correct":false,"confidence":2},{"trial_n":33,"n_dots":3.55,"target":"right","response":"left","rt":484.69999992847,"correct":false,"confidence":4},{"trial_n":34,"n_dots":3.65,"target":"right","response":"right","rt":1425.7999999523,"correct":true,"confidence":3},{"trial_n":35,"n_dots":3.65,"target":"right","response":"right","rt":1136.8000000715,"correct":true,"confidence":3},{"trial_n":36,"n_dots":3.55,"target":"left","response":"left","rt":666.20000004768,"correct":true,"confidence":4},{"trial_n":37,"n_dots":3.55,"target":"left","response":"left","rt":525.40000009537,"correct":true,"confidence":4},{"trial_n":38,"n_dots":3.45,"target":"left","response":"left","rt":331,"correct":true,"confidence":4},{"trial_n":39,"n_dots":3.45,"target":"right","response":"right","rt":1792.5,"correct":true,"confidence":5},{"trial_n":40,"n_dots":3.35,"target":"right","response":"right","rt":731.70000004768,"correct":true,"confidence":3},{"trial_n":41,"n_dots":3.35,"target":"left","response":"left","rt":807,"correct":true,"confidence":4},{"trial_n":42,"n_dots":3.25,"target":"right","response":"left","rt":567,"correct":false,"confidence":3},{"trial_n":43,"n_dots":3.35,"target":"right","response":"right","rt":281.20000004768,"correct":true,"confidence":3},{"trial_n":44,"n_dots":3.35,"target":"right","response":"left","rt":341.89999997616,"correct":false,"confidence":3},{"trial_n":45,"n_dots":3.45,"target":"right","response":"right","rt":601.70000004768,"correct":true,"confidence":2},{"trial_n":46,"n_dots":3.45,"target":"left","response":"left","rt":621.20000004768,"correct":true,"confidence":4},{"trial_n":47,"n_dots":3.35,"target":"right","response":"right","rt":326.30000007153,"correct":true,"confidence":4},{"trial_n":48,"n_dots":3.35,"target":"left","response":"left","rt":304.30000007153,"correct":true,"confidence":3},{"trial_n":49,"n_dots":3.25,"target":"right","response":"right","rt":345.89999997616,"correct":true,"confidence":3},{"trial_n":50,"n_dots":3.25,"target":"left","response":"left","rt":314,"correct":true,"confidence":4},{"trial_n":51,"n_dots":3.15,"target":"left","response":"left","rt":517.70000004768,"correct":true,"confidence":4},{"trial_n":52,"n_dots":3.15,"target":"right","response":"right","rt":909.69999992847,"correct":true,"confidence":2},{"trial_n":53,"n_dots":3.05,"target":"left","response":"left","rt":670.30000007153,"correct":true,"confidence":3},{"trial_n":54,"n_dots":3.05,"target":"left","response":"left","rt":432.20000004768,"correct":true,"confidence":4},{"trial_n":55,"n_dots":2.95,"target":"right","response":"right","rt":710.20000004768,"correct":true,"confidence":3},{"trial_n":56,"n_dots":2.95,"target":"left","response":"left","rt":415.80000007153,"correct":true,"confidence":4},{"trial_n":57,"n_dots":2.85,"target":"right","response":"right","rt":364.69999992847,"correct":true,"confidence":3},{"trial_n":58,"n_dots":2.85,"target":"left","response":"left","rt":97.800000071526,"correct":true,"confidence":3},{"trial_n":59,"n_dots":2.75,"target":"right","response":"right","rt":656.20000004768,"correct":true,"confidence":1},{"trial_n":60,"n_dots":2.75,"target":"left","response":"left","rt":423.20000004768,"correct":true,"confidence":3},{"trial_n":61,"n_dots":2.65,"target":"right","response":"right","rt":960,"correct":true,"confidence":4},{"trial_n":62,"n_dots":2.65,"target":"right","response":"left","rt":1136.8999999762,"correct":false,"confidence":3},{"trial_n":63,"n_dots":2.75,"target":"right","response":"left","rt":1173.8999999762,"correct":false,"confidence":3},{"trial_n":64,"n_dots":2.85,"target":"right","response":"right","rt":699.69999992847,"correct":true,"confidence":2},{"trial_n":65,"n_dots":2.85,"target":"right","response":"right","rt":1021.5,"correct":true,"confidence":3},{"trial_n":66,"n_dots":2.75,"target":"left","response":"left","rt":903.80000007153,"correct":true,"confidence":3},{"trial_n":67,"n_dots":2.75,"target":"right","response":"right","rt":1102.0999999046,"correct":true,"confidence":3},{"trial_n":68,"n_dots":2.65,"target":"left","response":"left","rt":861.90000009537,"correct":true,"confidence":3},{"trial_n":69,"n_dots":2.65,"target":"left","response":"left","rt":800.69999992847,"correct":true,"confidence":3},{"trial_n":70,"n_dots":2.55,"target":"right","response":"right","rt":922.40000009537,"correct":true,"confidence":3},{"trial_n":71,"n_dots":2.55,"target":"left","response":"left","rt":1073.3000000715,"correct":true,"confidence":4},{"trial_n":72,"n_dots":2.45,"target":"left","response":"right","rt":1216.2999999523,"correct":false,"confidence":3},{"trial_n":73,"n_dots":2.55,"target":"right","response":"left","rt":2208.7999999523,"correct":false,"confidence":3},{"trial_n":74,"n_dots":2.65,"target":"left","response":"right","rt":906.20000004768,"correct":false,"confidence":3},{"trial_n":75,"n_dots":2.75,"target":"left","response":"left","rt":575.10000002384,"correct":true,"confidence":4},{"trial_n":76,"n_dots":2.75,"target":"right","response":"left","rt":774.30000007153,"correct":false,"confidence":4},{"trial_n":77,"n_dots":2.85,"target":"right","response":"right","rt":841.70000004768,"correct":true,"confidence":2},{"trial_n":78,"n_dots":2.85,"target":"left","response":"left","rt":452.60000002384,"correct":true,"confidence":3},{"trial_n":79,"n_dots":2.75,"target":"right","response":"right","rt":762.19999992847,"correct":true,"confidence":3},{"trial_n":80,"n_dots":2.75,"target":"left","response":"right","rt":629.40000009537,"correct":false,"confidence":2},{"trial_n":81,"n_dots":2.85,"target":"right","response":"left","rt":638.20000004768,"correct":false,"confidence":3},{"trial_n":82,"n_dots":2.95,"target":"right","response":"right","rt":482.59999990463,"correct":true,"confidence":4},{"trial_n":83,"n_dots":2.95,"target":"left","response":"left","rt":630,"correct":true,"confidence":4},{"trial_n":84,"n_dots":2.85,"target":"right","response":"right","rt":971.90000009537,"correct":true,"confidence":3},{"trial_n":85,"n_dots":2.85,"target":"left","response":"right","rt":777.30000007153,"correct":false,"confidence":2},{"trial_n":86,"n_dots":2.95,"target":"left","response":"left","rt":589.80000007153,"correct":true,"confidence":3},{"trial_n":87,"n_dots":2.95,"target":"right","response":"right","rt":670.5,"correct":true,"confidence":3},{"trial_n":88,"n_dots":2.85,"target":"left","response":"left","rt":533.70000004768,"correct":true,"confidence":3},{"trial_n":89,"n_dots":2.85,"target":"left","response":"right","rt":696.20000004768,"correct":false,"confidence":2},{"trial_n":90,"n_dots":2.95,"target":"left","response":"left","rt":724.10000002384,"correct":true,"confidence":4},{"trial_n":91,"n_dots":2.95,"target":"left","response":"left","rt":539.60000002384,"correct":true,"confidence":4},{"trial_n":92,"n_dots":2.85,"target":"right","response":"left","rt":547.5,"correct":false,"confidence":4},{"trial_n":93,"n_dots":2.95,"target":"left","response":"left","rt":602.79999995232,"correct":true,"confidence":4},{"trial_n":94,"n_dots":2.95,"target":"left","response":"left","rt":452.90000009537,"correct":true,"confidence":4},{"trial_n":95,"n_dots":2.85,"target":"left","response":"left","rt":2755.5,"correct":true,"confidence":3},{"trial_n":96,"n_dots":2.85,"target":"right","response":"left","rt":886.90000009537,"correct":false,"confidence":2},{"trial_n":97,"n_dots":2.95,"target":"right","response":"left","rt":722.70000004768,"correct":false,"confidence":3},{"trial_n":98,"n_dots":3.05,"target":"left","response":"left","rt":447.90000009537,"correct":true,"confidence":4},{"trial_n":99,"n_dots":3.05,"target":"left","response":"left","rt":564.60000002384,"correct":true,"confidence":5},{"trial_n":100,"n_dots":2.95,"target":"left","response":"left","rt":424.89999997616,"correct":true,"confidence":4},{"trial_n":101,"n_dots":2.95,"target":"left","response":"left","rt":371,"correct":true,"confidence":5},{"trial_n":102,"n_dots":2.85,"target":"right","response":"left","rt":652.90000009537,"correct":false,"confidence":4},{"trial_n":103,"n_dots":2.95,"target":"left","response":"right","rt":733.40000009537,"correct":false,"confidence":4},{"trial_n":104,"n_dots":3.05,"target":"right","response":"right","rt":639.79999995232,"correct":true,"confidence":5},{"trial_n":105,"n_dots":3.05,"target":"left","response":"right","rt":1020.2000000477,"correct":false,"confidence":4},{"trial_n":106,"n_dots":3.15,"target":"right","response":"right","rt":642.80000007153,"correct":true,"confidence":3},{"trial_n":107,"n_dots":3.15,"target":"left","response":"left","rt":424.30000007153,"correct":true,"confidence":4},{"trial_n":108,"n_dots":3.05,"target":"right","response":"right","rt":284.5,"correct":true,"confidence":4},{"trial_n":109,"n_dots":3.05,"target":"right","response":"right","rt":592,"correct":true,"confidence":4},{"trial_n":110,"n_dots":2.95,"target":"left","response":"right","rt":568.80000007153,"correct":false,"confidence":4},{"trial_n":111,"n_dots":3.05,"target":"left","response":"right","rt":627.20000004768,"correct":false,"confidence":3},{"trial_n":112,"n_dots":3.15,"target":"right","response":"right","rt":456.10000002384,"correct":true,"confidence":3},{"trial_n":113,"n_dots":3.15,"target":"left","response":"left","rt":833.40000009537,"correct":true,"confidence":3},{"trial_n":114,"n_dots":3.05,"target":"right","response":"right","rt":473.40000009537,"correct":true,"confidence":3},{"trial_n":115,"n_dots":3.05,"target":"left","response":"right","rt":512.70000004768,"correct":false,"confidence":2},{"trial_n":116,"n_dots":3.15,"target":"right","response":"right","rt":505.89999997616,"correct":true,"confidence":3},{"trial_n":117,"n_dots":3.15,"target":"left","response":"right","rt":628.79999995232,"correct":false,"confidence":3},{"trial_n":118,"n_dots":3.25,"target":"left","response":"left","rt":766.40000009537,"correct":true,"confidence":4},{"trial_n":119,"n_dots":3.25,"target":"right","response":"left","rt":822.79999995232,"correct":false,"confidence":3},{"trial_n":120,"n_dots":3.35,"target":"left","response":"left","rt":802.60000002384,"correct":true,"confidence":4}]