[{"trial_n":1,"min":25,"max":230,"target":"present","response":"absent","rt":9509.1000000238,"correct":false,"confidence":-1},{"trial_n":2,"min":25,"max":230,"target":"present","response":"absent","rt":2499,"correct":false,"confidence":-1},{"trial_n":3,"min":9,"max":246,"target":"absent","response":"absent","rt":1827.6000000238,"correct":true,"confidence":-1},{"trial_n":4,"min":9,"max":246,"target":"absent","response":"absent","rt":754.20000004768,"correct":true,"confidence":-1},{"trial_n":5,"min":25,"max":230,"target":"present","response":"present","rt":855,"correct":true,"confidence":-1},{"trial_n":6,"min":25,"max":230,"target":"absent","response":"absent","rt":729.10000002384,"correct":true,"confidence":-1},{"trial_n":7,"min":41,"max":214,"target":"absent","response":"absent","rt":638.30000007153,"correct":true,"confidence":-1},{"trial_n":8,"min":41,"max":214,"target":"absent","response":"absent","rt":627.20000004768,"correct":true,"confidence":-1},{"trial_n":9,"min":57,"max":198,"target":"present","response":"present","rt":825.60000002384,"correct":true,"confidence":-1},{"trial_n":10,"min":57,"max":198,"target":"absent","response":"absent","rt":1084.3000000715,"correct":true,"confidence":-1},{"trial_n":11,"min":65,"max":190,"target":"absent","response":"absent","rt":560.89999997616,"correct":true,"confidence":-1},{"trial_n":12,"min":65,"max":190,"target":"absent","response":"absent","rt":554,"correct":true,"confidence":-1},{"trial_n":13,"min":73,"max":182,"target":"absent","response":"absent","rt":586,"correct":true,"confidence":-1},{"trial_n":14,"min":73,"max":182,"target":"absent","response":"absent","rt":557.39999997616,"correct":true,"confidence":-1},{"trial_n":15,"min":81,"max":174,"target":"present","response":"absent","rt":500.80000007153,"correct":false,"confidence":-1},{"trial_n":16,"min":73,"max":182,"target":"present","response":"absent","rt":741.69999992847,"correct":false,"confidence":-1},{"trial_n":17,"min":65,"max":190,"target":"present","response":"present","rt":920.5,"correct":true,"confidence":-1},{"trial_n":18,"min":65,"max":190,"target":"present","response":"present","rt":1085.7000000477,"correct":true,"confidence":-1},{"trial_n":19,"min":73,"max":182,"target":"present","response":"present","rt":874.90000009537,"correct":true,"confidence":-1},{"trial_n":20,"min":73,"max":182,"target":"present","response":"absent","rt":978.19999992847,"correct":false,"confidence":-1},{"trial_n":21,"min":69,"max":186,"target":"absent","response":"absent","rt":1181,"correct":true,"confidence":2},{"trial_n":22,"min":69,"max":186,"target":"absent","response":"absent","rt":1451,"correct":true,"confidence":3},{"trial_n":23,"min":73,"max":182,"target":"present","response":"present","rt":1289.1000000238,"correct":true,"confidence":5},{"trial_n":24,"min":73,"max":182,"target":"present","response":"present","rt":807.20000004768,"correct":true,"confidence":4},{"trial_n":25,"min":77,"max":178,"target":"present","response":"present","rt":1191.7000000477,"correct":true,"confidence":5},{"trial_n":26,"min":77,"max":178,"target":"present","response":"present","rt":989,"correct":true,"confidence":5},{"trial_n":27,"min":81,"max":174,"target":"absent","response":"absent","rt":1106.7999999523,"correct":true,"confidence":2},{"trial_n":28,"min":81,"max":174,"target":"absent","response":"absent","rt":840.60000002384,"correct":true,"confidence":4},{"trial_n":29,"min":85,"max":170,"target":"absent","response":"absent","rt":9427.3000000715,"correct":true,"confidence":1},{"trial_n":30,"min":85,"max":170,"target":"absent","response":"absent","rt":1341,"correct":true,"confidence":3},{"trial_n":31,"min":87,"max":168,"target":"absent","response":"present","rt":1344.2999999523,"correct":false,"confidence":3},{"trial_n":32,"min":85,"max":170,"target":"absent","response":"absent","rt":576.80000007153,"correct":true,"confidence":4},{"trial_n":33,"min":85,"max":170,"target":"absent","response":"absent","rt":6648.8000000715,"correct":true,"confidence":2},{"trial_n":34,"min":87,"max":168,"target":"present","response":"present","rt":2357.9000000954,"correct":true,"confidence":5},{"trial_n":35,"min":87,"max":168,"target":"present","response":"present","rt":1038.1999999285,"correct":true,"confidence":4},{"trial_n":36,"min":89,"max":166,"target":"present","response":"present","rt":886.60000002384,"correct":true,"confidence":4},{"trial_n":37,"min":89,"max":166,"target":"absent","response":"present","rt":1649.5,"correct":false,"confidence":3},{"trial_n":38,"min":87,"max":168,"target":"present","response":"absent","rt":1014.1999999285,"correct":false,"confidence":4},{"trial_n":39,"min":85,"max":170,"target":"present","response":"present","rt":1044.8000000715,"correct":true,"confidence":4},{"trial_n":40,"min":85,"max":170,"target":"absent","response":"absent","rt":1639.7000000477,"correct":true,"confidence":4},{"trial_n":41,"min":86,"max":169,"target":"absent","response":"absent","rt":883.5,"correct":true,"confidence":5},{"trial_n":42,"min":86,"max":169,"target":"present","response":"present","rt":903.79999995232,"correct":true,"confidence":5},{"trial_n":43,"min":87,"max":168,"target":"absent","response":"present","rt":1135.5,"correct":false,"confidence":5},{"trial_n":44,"min":86,"max":169,"target":"present","response":"absent","rt":911.10000002384,"correct":false,"confidence":4},{"trial_n":45,"min":85,"max":170,"target":"absent","response":"present","rt":1322.1999999285,"correct":false,"confidence":4},{"trial_n":46,"min":84,"max":171,"target":"present","response":"absent","rt":928.39999997616,"correct":false,"confidence":3},{"trial_n":47,"min":83,"max":172,"target":"present","response":"present","rt":882.80000007153,"correct":true,"confidence":4},{"trial_n":48,"min":83,"max":172,"target":"absent","response":"absent","rt":803.19999992847,"correct":true,"confidence":4},{"trial_n":49,"min":84,"max":171,"target":"present","response":"absent","rt":1036.2999999523,"correct":false,"confidence":4},{"trial_n":50,"min":83,"max":172,"target":"absent","response":"absent","rt":914.59999990463,"correct":true,"confidence":4},{"trial_n":51,"min":83,"max":172,"target":"present","response":"absent","rt":1978.6000000238,"correct":false,"confidence":1},{"trial_n":52,"min":82,"max":173,"target":"present","response":"present","rt":843.80000007153,"correct":true,"confidence":5},{"trial_n":53,"min":82,"max":173,"target":"present","response":"present","rt":1360,"correct":true,"confidence":3},{"trial_n":54,"min":83,"max":172,"target":"absent","response":"present","rt":1166.7000000477,"correct":false,"confidence":3},{"trial_n":55,"min":82,"max":173,"target":"absent","response":"absent","rt":782,"correct":true,"confidence":3},{"trial_n":56,"min":82,"max":173,"target":"present","response":"present","rt":866.29999995232,"correct":true,"confidence":4},{"trial_n":57,"min":83,"max":172,"target":"absent","response":"absent","rt":1249.3999999762,"correct":true,"confidence":4},{"trial_n":58,"min":83,"max":172,"target":"absent","response":"absent","rt":1206.2000000477,"correct":true,"confidence":4},{"trial_n":59,"min":84,"max":171,"target":"present","response":"present","rt":898.5,"correct":true,"confidence":5},{"trial_n":60,"min":84,"max":171,"target":"absent","response":"absent","rt":955.89999997616,"correct":true,"confidence":5},{"trial_n":61,"min":85,"max":170,"target":"absent","response":"absent","rt":2019.8000000715,"correct":true,"confidence":5},{"trial_n":62,"min":85,"max":170,"target":"present","response":"absent","rt":1379.5,"correct":false,"confidence":4},{"trial_n":63,"min":84,"max":171,"target":"absent","response":"absent","rt":1094.3000000715,"correct":true,"confidence":4},{"trial_n":64,"min":84,"max":171,"target":"present","response":"present","rt":832.79999995232,"correct":true,"confidence":3},{"trial_n":65,"min":85,"max":170,"target":"absent","response":"absent","rt":807.10000002384,"correct":true,"confidence":5},{"trial_n":66,"min":85,"max":170,"target":"present","response":"present","rt":1023.6999999285,"correct":true,"confidence":4},{"trial_n":67,"min":86,"max":169,"target":"present","response":"absent","rt":906.5,"correct":false,"confidence":5},{"trial_n":68,"min":85,"max":170,"target":"present","response":"absent","rt":871.39999997616,"correct":false,"confidence":5},{"trial_n":69,"min":84,"max":171,"target":"present","response":"absent","rt":1208.2000000477,"correct":false,"confidence":3},{"trial_n":70,"min":83,"max":172,"target":"present","response":"present","rt":844.5,"correct":true,"confidence":5},{"trial_n":71,"min":41,"max":214,"target":"present","response":"present","rt":5267.1000000238,"correct":true,"confidence":-1},{"trial_n":72,"min":41,"max":214,"target":"present","response":"present","rt":669.5,"correct":true,"confidence":-1},{"trial_n":73,"min":57,"max":198,"target":"absent","response":"absent","rt":878.89999997616,"correct":true,"confidence":-1},{"trial_n":74,"min":57,"max":198,"target":"absent","response":"absent","rt":1247.2999999523,"correct":true,"confidence":-1},{"trial_n":75,"min":73,"max":182,"target":"present","response":"present","rt":1013.3999999762,"correct":true,"confidence":-1},{"trial_n":76,"min":73,"max":182,"target":"present","response":"present","rt":768.39999997616,"correct":true,"confidence":-1},{"trial_n":77,"min":89,"max":166,"target":"present","response":"present","rt":1320,"correct":true,"confidence":-1},{"trial_n":78,"min":89,"max":166,"target":"absent","response":"present","rt":606.69999992847,"correct":false,"confidence":-1},{"trial_n":79,"min":73,"max":182,"target":"absent","response":"present","rt":477.20000004768,"correct":false,"confidence":-1},{"trial_n":80,"min":57,"max":198,"target":"absent","response":"absent","rt":396.10000002384,"correct":true,"confidence":-1},{"trial_n":81,"min":57,"max":198,"target":"absent","response":"absent","rt":389.09999990463,"correct":true,"confidence":-1},{"trial_n":82,"min":65,"max":190,"target":"present","response":"present","rt":227.40000009537,"correct":true,"confidence":-1},{"trial_n":83,"min":65,"max":190,"target":"present","response":"present","rt":351.60000002384,"correct":true,"confidence":-1},{"trial_n":84,"min":73,"max":182,"target":"present","response":"present","rt":307.10000002384,"correct":true,"confidence":-1},{"trial_n":85,"min":73,"max":182,"target":"absent","response":"absent","rt":410.20000004768,"correct":true,"confidence":-1},{"trial_n":86,"min":81,"max":174,"target":"present","response":"present","rt":318.30000007153,"correct":true,"confidence":-1},{"trial_n":87,"min":81,"max":174,"target":"absent","response":"present","rt":601.20000004768,"correct":false,"confidence":-1},{"trial_n":88,"min":73,"max":182,"target":"absent","response":"absent","rt":316,"correct":true,"confidence":-1},{"trial_n":89,"min":73,"max":182,"target":"absent","response":"present","rt":682.80000007153,"correct":false,"confidence":-1},{"trial_n":90,"min":65,"max":190,"target":"absent","response":"absent","rt":411.09999990463,"correct":true,"confidence":-1},{"trial_n":91,"min":65,"max":190,"target":"present","response":"present","rt":356.29999995232,"correct":true,"confidence":5},{"trial_n":92,"min":69,"max":186,"target":"absent","response":"absent","rt":632.40000009537,"correct":true,"confidence":5},{"trial_n":93,"min":69,"max":186,"target":"present","response":"present","rt":437,"correct":true,"confidence":5},{"trial_n":94,"min":73,"max":182,"target":"present","response":"present","rt":277.39999997616,"correct":true,"confidence":5},{"trial_n":95,"min":73,"max":182,"target":"present","response":"present","rt":1098.9000000954,"correct":true,"confidence":5},{"trial_n":96,"min":77,"max":178,"target":"present","response":"present","rt":632.70000004768,"correct":true,"confidence":5},{"trial_n":97,"min":77,"max":178,"target":"present","response":"present","rt":734.10000002384,"correct":true,"confidence":5},{"trial_n":98,"min":81,"max":174,"target":"present","response":"present","rt":869.90000009537,"correct":true,"confidence":5},{"trial_n":99,"min":81,"max":174,"target":"present","response":"present","rt":1241.3999999762,"correct":true,"confidence":5},{"trial_n":100,"min":85,"max":170,"target":"present","response":"present","rt":1240.5,"correct":true,"confidence":5},{"trial_n":101,"min":85,"max":170,"target":"present","response":"present","rt":758.20000004768,"correct":true,"confidence":5},{"trial_n":102,"min":87,"max":168,"target":"absent","response":"present","rt":998.70000004768,"correct":false,"confidence":3},{"trial_n":103,"min":85,"max":170,"target":"absent","response":"absent","rt":1013.2999999523,"correct":true,"confidence":4},{"trial_n":104,"min":85,"max":170,"target":"absent","response":"present","rt":849.10000002384,"correct":false,"confidence":4},{"trial_n":105,"min":83,"max":172,"target":"absent","response":"absent","rt":866.90000009537,"correct":true,"confidence":3},{"trial_n":106,"min":83,"max":172,"target":"absent","response":"present","rt":1094.3000000715,"correct":false,"confidence":3},{"trial_n":107,"min":81,"max":174,"target":"present","response":"present","rt":873.20000004768,"correct":true,"confidence":5},{"trial_n":108,"min":81,"max":174,"target":"absent","response":"absent","rt":1134.9000000954,"correct":true,"confidence":2},{"trial_n":109,"min":83,"max":172,"target":"absent","response":"present","rt":1241.8000000715,"correct":false,"confidence":1},{"trial_n":110,"min":81,"max":174,"target":"absent","response":"absent","rt":1363.1000000238,"correct":true,"confidence":1},{"trial_n":111,"min":81,"max":174,"target":"present","response":"present","rt":813.5,"correct":true,"confidence":5},{"trial_n":112,"min":82,"max":173,"target":"absent","response":"absent","rt":1411.6000000238,"correct":true,"confidence":3},{"trial_n":113,"min":82,"max":173,"target":"present","response":"present","rt":947.5,"correct":true,"confidence":5},{"trial_n":114,"min":83,"max":172,"target":"present","response":"present","rt":1080.7999999523,"correct":true,"confidence":5},{"trial_n":115,"min":83,"max":172,"target":"absent","response":"present","rt":1847.2999999523,"correct":false,"confidence":3},{"trial_n":116,"min":82,"max":173,"target":"present","response":"present","rt":880.80000007153,"correct":true,"confidence":4},{"trial_n":117,"min":82,"max":173,"target":"absent","response":"present","rt":907.60000002384,"correct":false,"confidence":4},{"trial_n":118,"min":81,"max":174,"target":"absent","response":"absent","rt":909.70000004768,"correct":true,"confidence":5},{"trial_n":119,"min":81,"max":174,"target":"absent","response":"present","rt":1209.2000000477,"correct":false,"confidence":2},{"trial_n":120,"min":80,"max":175,"target":"present","response":"present","rt":979.60000002384,"correct":true,"confidence":4},{"trial_n":121,"min":80,"max":175,"target":"present","response":"present","rt":980.70000004768,"correct":true,"confidence":5},{"trial_n":122,"min":81,"max":174,"target":"present","response":"present","rt":808.70000004768,"correct":true,"confidence":5},{"trial_n":123,"min":81,"max":174,"target":"absent","response":"absent","rt":785.09999990463,"correct":true,"confidence":5},{"trial_n":124,"min":82,"max":173,"target":"absent","response":"absent","rt":791.70000004768,"correct":true,"confidence":3},{"trial_n":125,"min":82,"max":173,"target":"present","response":"present","rt":779.10000002384,"correct":true,"confidence":5},{"trial_n":126,"min":83,"max":172,"target":"present","response":"present","rt":856.10000002384,"correct":true,"confidence":5},{"trial_n":127,"min":83,"max":172,"target":"present","response":"present","rt":1058.4000000954,"correct":true,"confidence":5},{"trial_n":128,"min":84,"max":171,"target":"present","response":"present","rt":983,"correct":true,"confidence":5},{"trial_n":129,"min":84,"max":171,"target":"absent","response":"present","rt":1067.2000000477,"correct":false,"confidence":4},{"trial_n":130,"min":83,"max":172,"target":"absent","response":"present","rt":913.20000004768,"correct":false,"confidence":3},{"trial_n":131,"min":82,"max":173,"target":"present","response":"present","rt":1114.1000000238,"correct":true,"confidence":5},{"trial_n":132,"min":82,"max":173,"target":"absent","response":"absent","rt":996.5,"correct":true,"confidence":5},{"trial_n":133,"min":83,"max":172,"target":"present","response":"present","rt":336,"correct":true,"confidence":5},{"trial_n":134,"min":83,"max":172,"target":"absent","response":"absent","rt":762.80000007153,"correct":true,"confidence":2},{"trial_n":135,"min":84,"max":171,"target":"absent","response":"present","rt":987.5,"correct":false,"confidence":2},{"trial_n":136,"min":83,"max":172,"target":"absent","response":"absent","rt":1128.4000000954,"correct":true,"confidence":4},{"trial_n":137,"min":83,"max":172,"target":"present","response":"present","rt":1224.7999999523,"correct":true,"confidence":5},{"trial_n":138,"min":84,"max":171,"target":"present","response":"present","rt":458.59999990463,"correct":true,"confidence":5},{"trial_n":139,"min":84,"max":171,"target":"present","response":"present","rt":509,"correct":true,"confidence":4},{"trial_n":140,"min":85,"max":170,"target":"absent","response":"present","rt":642.79999995232,"correct":false,"confidence":3}]