[{"trial_n":1,"min":25,"max":230,"target":"present","response":"present","rt":4126.3999999999,"correct":true,"confidence":-1},{"trial_n":2,"min":25,"max":230,"target":"present","response":"present","rt":546.19999999972,"correct":true,"confidence":-1},{"trial_n":3,"min":41,"max":214,"target":"absent","response":"absent","rt":726.60000000009,"correct":true,"confidence":-1},{"trial_n":4,"min":41,"max":214,"target":"absent","response":"absent","rt":1662.6000000001,"correct":true,"confidence":-1},{"trial_n":5,"min":57,"max":198,"target":"present","response":"present","rt":327.5,"correct":true,"confidence":-1},{"trial_n":6,"min":57,"max":198,"target":"present","response":"present","rt":412.70000000019,"correct":true,"confidence":-1},{"trial_n":7,"min":73,"max":182,"target":"absent","response":"absent","rt":294,"correct":true,"confidence":-1},{"trial_n":8,"min":73,"max":182,"target":"absent","response":"absent","rt":243.70000000019,"correct":true,"confidence":-1},{"trial_n":9,"min":89,"max":166,"target":"present","response":"present","rt":466.5,"correct":true,"confidence":-1},{"trial_n":10,"min":89,"max":166,"target":"absent","response":"absent","rt":441.5,"correct":true,"confidence":-1},{"trial_n":11,"min":97,"max":158,"target":"absent","response":"absent","rt":415.60000000009,"correct":true,"confidence":-1},{"trial_n":12,"min":97,"max":158,"target":"present","response":"absent","rt":356.80000000028,"correct":false,"confidence":-1},{"trial_n":13,"min":89,"max":166,"target":"present","response":"absent","rt":1129.7999999998,"correct":false,"confidence":-1},{"trial_n":14,"min":81,"max":174,"target":"absent","response":"absent","rt":1354.9000000004,"correct":true,"confidence":-1},{"trial_n":15,"min":81,"max":174,"target":"present","response":"present","rt":405.29999999981,"correct":true,"confidence":-1},{"trial_n":16,"min":89,"max":166,"target":"present","response":"absent","rt":577.39999999991,"correct":false,"confidence":-1},{"trial_n":17,"min":81,"max":174,"target":"present","response":"present","rt":353.29999999981,"correct":true,"confidence":-1},{"trial_n":18,"min":81,"max":174,"target":"absent","response":"absent","rt":476.30000000028,"correct":true,"confidence":-1},{"trial_n":19,"min":89,"max":166,"target":"present","response":"present","rt":432.79999999981,"correct":true,"confidence":-1},{"trial_n":20,"min":89,"max":166,"target":"present","response":"absent","rt":421.5,"correct":false,"confidence":-1},{"trial_n":21,"min":85,"max":170,"target":"present","response":"absent","rt":589.5,"correct":false,"confidence":3},{"trial_n":22,"min":81,"max":174,"target":"absent","response":"absent","rt":495.89999999991,"correct":true,"confidence":5},{"trial_n":23,"min":81,"max":174,"target":"present","response":"present","rt":452.70000000019,"correct":true,"confidence":4},{"trial_n":24,"min":85,"max":170,"target":"absent","response":"absent","rt":468.20000000019,"correct":true,"confidence":4},{"trial_n":25,"min":85,"max":170,"target":"present","response":"present","rt":399,"correct":true,"confidence":5},{"trial_n":26,"min":89,"max":166,"target":"present","response":"present","rt":551.60000000009,"correct":true,"confidence":5},{"trial_n":27,"min":89,"max":166,"target":"present","response":"present","rt":786.69999999972,"correct":true,"confidence":4},{"trial_n":28,"min":93,"max":162,"target":"present","response":"present","rt":896.80000000028,"correct":true,"confidence":4},{"trial_n":29,"min":93,"max":162,"target":"absent","response":"absent","rt":334.79999999981,"correct":true,"confidence":3},{"trial_n":30,"min":97,"max":158,"target":"present","response":"absent","rt":572.30000000028,"correct":false,"confidence":4},{"trial_n":31,"min":95,"max":160,"target":"absent","response":"present","rt":1434.1000000001,"correct":false,"confidence":2},{"trial_n":32,"min":93,"max":162,"target":"present","response":"present","rt":1002.8999999999,"correct":true,"confidence":3},{"trial_n":33,"min":93,"max":162,"target":"present","response":"absent","rt":451.10000000009,"correct":false,"confidence":4},{"trial_n":34,"min":91,"max":164,"target":"present","response":"present","rt":336.19999999972,"correct":true,"confidence":4},{"trial_n":35,"min":91,"max":164,"target":"absent","response":"present","rt":685.39999999991,"correct":false,"confidence":4},{"trial_n":36,"min":89,"max":166,"target":"present","response":"absent","rt":471.89999999991,"correct":false,"confidence":3},{"trial_n":37,"min":87,"max":168,"target":"present","response":"present","rt":391,"correct":true,"confidence":4},{"trial_n":38,"min":87,"max":168,"target":"present","response":"present","rt":443.60000000009,"correct":true,"confidence":4},{"trial_n":39,"min":89,"max":166,"target":"absent","response":"absent","rt":346,"correct":true,"confidence":4},{"trial_n":40,"min":89,"max":166,"target":"absent","response":"absent","rt":406.20000000019,"correct":true,"confidence":3},{"trial_n":41,"min":90,"max":165,"target":"absent","response":"absent","rt":658.40000000037,"correct":true,"confidence":4},{"trial_n":42,"min":90,"max":165,"target":"absent","response":"absent","rt":1687.2999999998,"correct":true,"confidence":4},{"trial_n":43,"min":91,"max":164,"target":"absent","response":"absent","rt":443.19999999972,"correct":true,"confidence":3},{"trial_n":44,"min":91,"max":164,"target":"present","response":"present","rt":717,"correct":true,"confidence":3},{"trial_n":45,"min":92,"max":163,"target":"present","response":"present","rt":884.10000000009,"correct":true,"confidence":4},{"trial_n":46,"min":92,"max":163,"target":"present","response":"absent","rt":568.10000000009,"correct":false,"confidence":3},{"trial_n":47,"min":91,"max":164,"target":"absent","response":"absent","rt":1214.6000000001,"correct":true,"confidence":2},{"trial_n":48,"min":91,"max":164,"target":"absent","response":"absent","rt":594.29999999981,"correct":true,"confidence":1},{"trial_n":49,"min":92,"max":163,"target":"absent","response":"absent","rt":1915.1999999997,"correct":true,"confidence":1},{"trial_n":50,"min":92,"max":163,"target":"absent","response":"absent","rt":938,"correct":true,"confidence":3},{"trial_n":51,"min":93,"max":162,"target":"present","response":"absent","rt":552.10000000009,"correct":false,"confidence":4},{"trial_n":52,"min":92,"max":163,"target":"present","response":"absent","rt":2197.6999999997,"correct":false,"confidence":4},{"trial_n":53,"min":91,"max":164,"target":"absent","response":"present","rt":574.29999999981,"correct":false,"confidence":3},{"trial_n":54,"min":90,"max":165,"target":"absent","response":"absent","rt":672.89999999991,"correct":true,"confidence":3},{"trial_n":55,"min":90,"max":165,"target":"absent","response":"absent","rt":584.60000000009,"correct":true,"confidence":3},{"trial_n":56,"min":91,"max":164,"target":"absent","response":"absent","rt":382.39999999991,"correct":true,"confidence":3},{"trial_n":57,"min":91,"max":164,"target":"absent","response":"absent","rt":616.5,"correct":true,"confidence":2},{"trial_n":58,"min":92,"max":163,"target":"present","response":"present","rt":5498.7999999998,"correct":true,"confidence":3},{"trial_n":59,"min":92,"max":163,"target":"present","response":"present","rt":655.39999999991,"correct":true,"confidence":4},{"trial_n":60,"min":93,"max":162,"target":"absent","response":"absent","rt":564.60000000009,"correct":true,"confidence":2},{"trial_n":61,"min":93,"max":162,"target":"absent","response":"present","rt":668.30000000028,"correct":false,"confidence":2},{"trial_n":62,"min":92,"max":163,"target":"present","response":"present","rt":1451.1000000001,"correct":true,"confidence":3},{"trial_n":63,"min":92,"max":163,"target":"present","response":"absent","rt":422.69999999972,"correct":false,"confidence":2},{"trial_n":64,"min":91,"max":164,"target":"absent","response":"absent","rt":1232.4000000004,"correct":true,"confidence":1},{"trial_n":65,"min":91,"max":164,"target":"absent","response":"absent","rt":1625.9000000004,"correct":true,"confidence":2},{"trial_n":66,"min":92,"max":163,"target":"absent","response":"absent","rt":583.10000000009,"correct":true,"confidence":3},{"trial_n":67,"min":92,"max":163,"target":"present","response":"absent","rt":1190.3999999999,"correct":false,"confidence":1},{"trial_n":68,"min":91,"max":164,"target":"present","response":"absent","rt":519.20000000019,"correct":false,"confidence":1},{"trial_n":69,"min":90,"max":165,"target":"absent","response":"absent","rt":1620.5,"correct":true,"confidence":1},{"trial_n":70,"min":90,"max":165,"target":"absent","response":"present","rt":1006.3999999999,"correct":false,"confidence":1},{"trial_n":71,"min":41,"max":214,"target":"present","response":"absent","rt":11103.6,"correct":false,"confidence":-1},{"trial_n":72,"min":41,"max":214,"target":"present","response":"present","rt":1102,"correct":true,"confidence":-1},{"trial_n":73,"min":41,"max":214,"target":"absent","response":"absent","rt":1438.7999999998,"correct":true,"confidence":-1},{"trial_n":74,"min":57,"max":198,"target":"absent","response":"absent","rt":421.30000000028,"correct":true,"confidence":-1},{"trial_n":75,"min":57,"max":198,"target":"present","response":"present","rt":289.5,"correct":true,"confidence":-1},{"trial_n":76,"min":73,"max":182,"target":"absent","response":"absent","rt":358.29999999981,"correct":true,"confidence":-1},{"trial_n":77,"min":73,"max":182,"target":"present","response":"present","rt":225.19999999972,"correct":true,"confidence":-1},{"trial_n":78,"min":89,"max":166,"target":"present","response":"present","rt":580.10000000009,"correct":true,"confidence":-1},{"trial_n":79,"min":89,"max":166,"target":"present","response":"present","rt":263.30000000028,"correct":true,"confidence":-1},{"trial_n":80,"min":105,"max":150,"target":"absent","response":"present","rt":1012.2999999998,"correct":false,"confidence":-1},{"trial_n":81,"min":97,"max":158,"target":"present","response":"absent","rt":454.79999999981,"correct":false,"confidence":-1},{"trial_n":82,"min":89,"max":166,"target":"present","response":"present","rt":485.30000000028,"correct":true,"confidence":-1},{"trial_n":83,"min":89,"max":166,"target":"present","response":"absent","rt":196.19999999972,"correct":false,"confidence":-1},{"trial_n":84,"min":81,"max":174,"target":"absent","response":"absent","rt":465.39999999991,"correct":true,"confidence":-1},{"trial_n":85,"min":81,"max":174,"target":"absent","response":"absent","rt":306.70000000019,"correct":true,"confidence":-1},{"trial_n":86,"min":89,"max":166,"target":"present","response":"present","rt":385.60000000009,"correct":true,"confidence":-1},{"trial_n":87,"min":89,"max":166,"target":"present","response":"present","rt":371.39999999991,"correct":true,"confidence":-1},{"trial_n":88,"min":97,"max":158,"target":"present","response":"absent","rt":742.70000000019,"correct":false,"confidence":-1},{"trial_n":89,"min":89,"max":166,"target":"present","response":"present","rt":333.30000000028,"correct":true,"confidence":-1},{"trial_n":90,"min":89,"max":166,"target":"absent","response":"present","rt":401.5,"correct":false,"confidence":-1},{"trial_n":91,"min":85,"max":170,"target":"absent","response":"present","rt":736.29999999981,"correct":false,"confidence":2},{"trial_n":92,"min":81,"max":174,"target":"present","response":"present","rt":265.89999999991,"correct":true,"confidence":2},{"trial_n":93,"min":81,"max":174,"target":"present","response":"present","rt":557.19999999972,"correct":true,"confidence":4},{"trial_n":94,"min":85,"max":170,"target":"present","response":"present","rt":464.5,"correct":true,"confidence":4},{"trial_n":95,"min":85,"max":170,"target":"absent","response":"absent","rt":581.5,"correct":true,"confidence":2},{"trial_n":96,"min":89,"max":166,"target":"absent","response":"absent","rt":827.39999999991,"correct":true,"confidence":2},{"trial_n":97,"min":89,"max":166,"target":"present","response":"present","rt":1227.1000000001,"correct":true,"confidence":1},{"trial_n":98,"min":93,"max":162,"target":"present","response":"absent","rt":439.89999999991,"correct":false,"confidence":2},{"trial_n":99,"min":89,"max":166,"target":"absent","response":"absent","rt":1823.6000000001,"correct":true,"confidence":2},{"trial_n":100,"min":89,"max":166,"target":"present","response":"present","rt":426.69999999972,"correct":true,"confidence":1},{"trial_n":101,"min":91,"max":164,"target":"absent","response":"present","rt":626.20000000019,"correct":false,"confidence":1},{"trial_n":102,"min":89,"max":166,"target":"absent","response":"absent","rt":558.20000000019,"correct":true,"confidence":2},{"trial_n":103,"min":89,"max":166,"target":"present","response":"absent","rt":321.5,"correct":false,"confidence":2},{"trial_n":104,"min":87,"max":168,"target":"present","response":"present","rt":992.89999999991,"correct":true,"confidence":2},{"trial_n":105,"min":87,"max":168,"target":"present","response":"present","rt":86.5,"correct":true,"confidence":4},{"trial_n":106,"min":89,"max":166,"target":"absent","response":"present","rt":1380.3999999999,"correct":false,"confidence":2},{"trial_n":107,"min":87,"max":168,"target":"present","response":"present","rt":341.89999999991,"correct":true,"confidence":2},{"trial_n":108,"min":87,"max":168,"target":"absent","response":"absent","rt":940.20000000019,"correct":true,"confidence":3},{"trial_n":109,"min":89,"max":166,"target":"absent","response":"present","rt":426.70000000019,"correct":false,"confidence":4},{"trial_n":110,"min":87,"max":168,"target":"absent","response":"absent","rt":587.69999999972,"correct":true,"confidence":2},{"trial_n":111,"min":87,"max":168,"target":"present","response":"present","rt":319.69999999972,"correct":true,"confidence":1},{"trial_n":112,"min":88,"max":167,"target":"absent","response":"present","rt":1223.7999999998,"correct":false,"confidence":3},{"trial_n":113,"min":87,"max":168,"target":"absent","response":"absent","rt":1334.3999999999,"correct":true,"confidence":3},{"trial_n":114,"min":87,"max":168,"target":"absent","response":"absent","rt":1304.0999999996,"correct":true,"confidence":3},{"trial_n":115,"min":88,"max":167,"target":"present","response":"present","rt":288.80000000028,"correct":true,"confidence":2},{"trial_n":116,"min":88,"max":167,"target":"absent","response":"present","rt":662.90000000037,"correct":false,"confidence":3},{"trial_n":117,"min":87,"max":168,"target":"absent","response":"absent","rt":661.30000000028,"correct":true,"confidence":3},{"trial_n":118,"min":87,"max":168,"target":"absent","response":"absent","rt":586.59999999963,"correct":true,"confidence":3},{"trial_n":119,"min":88,"max":167,"target":"present","response":"present","rt":408.79999999981,"correct":true,"confidence":2},{"trial_n":120,"min":88,"max":167,"target":"absent","response":"absent","rt":508.89999999991,"correct":true,"confidence":4},{"trial_n":121,"min":89,"max":166,"target":"absent","response":"present","rt":448.30000000028,"correct":false,"confidence":3},{"trial_n":122,"min":88,"max":167,"target":"present","response":"present","rt":1055.3000000003,"correct":true,"confidence":2},{"trial_n":123,"min":88,"max":167,"target":"present","response":"present","rt":398.10000000009,"correct":true,"confidence":4},{"trial_n":124,"min":89,"max":166,"target":"absent","response":"absent","rt":681.5,"correct":true,"confidence":4},{"trial_n":125,"min":89,"max":166,"target":"absent","response":"present","rt":449.29999999981,"correct":false,"confidence":3},{"trial_n":126,"min":88,"max":167,"target":"present","response":"present","rt":619,"correct":true,"confidence":3},{"trial_n":127,"min":88,"max":167,"target":"present","response":"present","rt":352.89999999991,"correct":true,"confidence":3},{"trial_n":128,"min":89,"max":166,"target":"present","response":"present","rt":2126.2000000002,"correct":true,"confidence":2},{"trial_n":129,"min":89,"max":166,"target":"present","response":"present","rt":184.09999999963,"correct":true,"confidence":4},{"trial_n":130,"min":90,"max":165,"target":"absent","response":"absent","rt":569.5,"correct":true,"confidence":3},{"trial_n":131,"min":90,"max":165,"target":"present","response":"present","rt":335.79999999981,"correct":true,"confidence":3},{"trial_n":132,"min":91,"max":164,"target":"absent","response":"present","rt":373.89999999991,"correct":false,"confidence":4},{"trial_n":133,"min":90,"max":165,"target":"absent","response":"absent","rt":1459,"correct":true,"confidence":1},{"trial_n":134,"min":90,"max":165,"target":"absent","response":"present","rt":668.79999999981,"correct":false,"confidence":3},{"trial_n":135,"min":89,"max":166,"target":"present","response":"present","rt":439.09999999963,"correct":true,"confidence":2},{"trial_n":136,"min":89,"max":166,"target":"absent","response":"absent","rt":665.70000000019,"correct":true,"confidence":3},{"trial_n":137,"min":90,"max":165,"target":"present","response":"present","rt":730.10000000009,"correct":true,"confidence":3},{"trial_n":138,"min":90,"max":165,"target":"present","response":"present","rt":738.60000000009,"correct":true,"confidence":2},{"trial_n":139,"min":91,"max":164,"target":"absent","response":"absent","rt":693.60000000009,"correct":true,"confidence":1},{"trial_n":140,"min":91,"max":164,"target":"absent","response":"present","rt":684.79999999981,"correct":false,"confidence":1}]