[{"trial_n":1,"n_dots":4.25,"target":"left","response":"right","rt":3869,"correct":false,"confidence":-1},{"trial_n":2,"n_dots":4.25,"target":"left","response":"left","rt":808,"correct":true,"confidence":-1},{"trial_n":3,"n_dots":4.25,"target":"left","response":"left","rt":777,"correct":true,"confidence":-1},{"trial_n":4,"n_dots":3.85,"target":"left","response":"right","rt":745,"correct":false,"confidence":-1},{"trial_n":5,"n_dots":4.25,"target":"left","response":"left","rt":474,"correct":true,"confidence":-1},{"trial_n":6,"n_dots":4.25,"target":"left","response":"left","rt":492,"correct":true,"confidence":-1},{"trial_n":7,"n_dots":3.85,"target":"left","response":"left","rt":684,"correct":true,"confidence":-1},{"trial_n":8,"n_dots":3.85,"target":"left","response":"left","rt":786,"correct":true,"confidence":-1},{"trial_n":9,"n_dots":3.65,"target":"right","response":"left","rt":815,"correct":false,"confidence":-1},{"trial_n":10,"n_dots":3.85,"target":"left","response":"right","rt":598,"correct":false,"confidence":-1},{"trial_n":11,"n_dots":4.05,"target":"left","response":"left","rt":906,"correct":true,"confidence":-1},{"trial_n":12,"n_dots":4.05,"target":"left","response":"right","rt":540,"correct":false,"confidence":-1},{"trial_n":13,"n_dots":4.15,"target":"right","response":"left","rt":8208,"correct":false,"confidence":-1},{"trial_n":14,"n_dots":4.25,"target":"right","response":"right","rt":616,"correct":true,"confidence":-1},{"trial_n":15,"n_dots":4.25,"target":"right","response":"right","rt":770,"correct":true,"confidence":-1},{"trial_n":16,"n_dots":4.15,"target":"left","response":"left","rt":721,"correct":true,"confidence":-1},{"trial_n":17,"n_dots":4.15,"target":"left","response":"left","rt":613,"correct":true,"confidence":-1},{"trial_n":18,"n_dots":4.05,"target":"left","response":"left","rt":586,"correct":true,"confidence":-1},{"trial_n":19,"n_dots":4.05,"target":"right","response":"right","rt":495,"correct":true,"confidence":-1},{"trial_n":20,"n_dots":3.95,"target":"right","response":"right","rt":452,"correct":true,"confidence":-1},{"trial_n":21,"n_dots":3.95,"target":"right","response":"right","rt":413,"correct":true,"confidence":3},{"trial_n":22,"n_dots":3.85,"target":"right","response":"right","rt":1039,"correct":true,"confidence":3},{"trial_n":23,"n_dots":3.85,"target":"right","response":"right","rt":2291,"correct":true,"confidence":3},{"trial_n":24,"n_dots":3.75,"target":"right","response":"right","rt":2341,"correct":true,"confidence":2},{"trial_n":25,"n_dots":3.75,"target":"left","response":"left","rt":1397,"correct":true,"confidence":2},{"trial_n":26,"n_dots":3.65,"target":"left","response":"left","rt":1043,"correct":true,"confidence":2},{"trial_n":27,"n_dots":3.65,"target":"right","response":"right","rt":1336,"correct":true,"confidence":3},{"trial_n":28,"n_dots":3.55,"target":"left","response":"left","rt":2035,"correct":true,"confidence":3},{"trial_n":29,"n_dots":3.55,"target":"right","response":"right","rt":1085,"correct":true,"confidence":1},{"trial_n":30,"n_dots":3.45,"target":"right","response":"right","rt":1160,"correct":true,"confidence":1},{"trial_n":31,"n_dots":3.45,"target":"right","response":"right","rt":912,"correct":true,"confidence":2},{"trial_n":32,"n_dots":3.35,"target":"right","response":"right","rt":1093,"correct":true,"confidence":2},{"trial_n":33,"n_dots":3.35,"target":"right","response":"left","rt":900,"correct":false,"confidence":2},{"trial_n":34,"n_dots":3.45,"target":"right","response":"right","rt":2401,"correct":true,"confidence":3},{"trial_n":35,"n_dots":3.45,"target":"right","response":"right","rt":1290,"correct":true,"confidence":2},{"trial_n":36,"n_dots":3.35,"target":"left","response":"right","rt":857,"correct":false,"confidence":2},{"trial_n":37,"n_dots":3.45,"target":"left","response":"left","rt":673,"correct":true,"confidence":3},{"trial_n":38,"n_dots":3.45,"target":"right","response":"right","rt":1116,"correct":true,"confidence":3},{"trial_n":39,"n_dots":3.35,"target":"right","response":"left","rt":1681,"correct":false,"confidence":2},{"trial_n":40,"n_dots":3.45,"target":"left","response":"left","rt":936,"correct":true,"confidence":3},{"trial_n":41,"n_dots":3.45,"target":"right","response":"left","rt":1704,"correct":false,"confidence":2},{"trial_n":42,"n_dots":3.55,"target":"left","response":"left","rt":2017,"correct":true,"confidence":2},{"trial_n":43,"n_dots":3.55,"target":"left","response":"left","rt":1039,"correct":true,"confidence":1},{"trial_n":44,"n_dots":3.45,"target":"left","response":"left","rt":678,"correct":true,"confidence":2},{"trial_n":45,"n_dots":3.45,"target":"left","response":"left","rt":7935,"correct":true,"confidence":1},{"trial_n":46,"n_dots":3.35,"target":"left","response":"left","rt":2504,"correct":true,"confidence":1},{"trial_n":47,"n_dots":3.35,"target":"left","response":"right","rt":1562,"correct":false,"confidence":1},{"trial_n":48,"n_dots":3.45,"target":"right","response":"right","rt":4428,"correct":true,"confidence":1},{"trial_n":49,"n_dots":3.45,"target":"left","response":"right","rt":785,"correct":false,"confidence":2},{"trial_n":50,"n_dots":3.55,"target":"right","response":"right","rt":3018,"correct":true,"confidence":2},{"trial_n":51,"n_dots":3.55,"target":"left","response":"left","rt":1038,"correct":true,"confidence":3},{"trial_n":52,"n_dots":3.45,"target":"right","response":"left","rt":16032,"correct":false,"confidence":1},{"trial_n":53,"n_dots":3.55,"target":"left","response":"right","rt":1103,"correct":false,"confidence":1},{"trial_n":54,"n_dots":3.65,"target":"right","response":"right","rt":707,"correct":true,"confidence":1},{"trial_n":55,"n_dots":3.65,"target":"right","response":"right","rt":663,"correct":true,"confidence":1},{"trial_n":56,"n_dots":3.55,"target":"right","response":"right","rt":590,"correct":true,"confidence":1},{"trial_n":57,"n_dots":3.55,"target":"left","response":"right","rt":17088,"correct":false,"confidence":1},{"trial_n":58,"n_dots":3.65,"target":"left","response":"left","rt":1644,"correct":true,"confidence":1},{"trial_n":59,"n_dots":3.65,"target":"right","response":"left","rt":2998,"correct":false,"confidence":1},{"trial_n":60,"n_dots":3.75,"target":"left","response":"left","rt":1034,"correct":true,"confidence":1},{"trial_n":61,"n_dots":3.75,"target":"right","response":"right","rt":1896,"correct":true,"confidence":1},{"trial_n":62,"n_dots":3.65,"target":"right","response":"right","rt":1937,"correct":true,"confidence":1},{"trial_n":63,"n_dots":3.65,"target":"left","response":"right","rt":863,"correct":false,"confidence":1},{"trial_n":64,"n_dots":3.75,"target":"right","response":"right","rt":1796,"correct":true,"confidence":2},{"trial_n":65,"n_dots":3.75,"target":"right","response":"right","rt":1382,"correct":true,"confidence":3},{"trial_n":66,"n_dots":3.65,"target":"left","response":"left","rt":5214,"correct":true,"confidence":1},{"trial_n":67,"n_dots":3.65,"target":"right","response":"right","rt":878,"correct":true,"confidence":2},{"trial_n":68,"n_dots":3.55,"target":"right","response":"right","rt":702,"correct":true,"confidence":1},{"trial_n":69,"n_dots":3.55,"target":"left","response":"left","rt":833,"correct":true,"confidence":2},{"trial_n":70,"n_dots":3.45,"target":"left","response":"right","rt":712,"correct":false,"confidence":2},{"trial_n":71,"n_dots":3.55,"target":"left","response":"left","rt":1303,"correct":true,"confidence":1},{"trial_n":72,"n_dots":3.55,"target":"right","response":"left","rt":19135,"correct":false,"confidence":1},{"trial_n":73,"n_dots":3.65,"target":"right","response":"left","rt":7791,"correct":false,"confidence":1},{"trial_n":74,"n_dots":3.75,"target":"right","response":"left","rt":503,"correct":false,"confidence":1},{"trial_n":75,"n_dots":3.85,"target":"left","response":"left","rt":165,"correct":true,"confidence":1},{"trial_n":76,"n_dots":3.85,"target":"left","response":"left","rt":1701,"correct":true,"confidence":1},{"trial_n":77,"n_dots":3.75,"target":"left","response":"left","rt":784,"correct":true,"confidence":1},{"trial_n":78,"n_dots":3.75,"target":"left","response":"right","rt":722,"correct":false,"confidence":1},{"trial_n":79,"n_dots":3.85,"target":"right","response":"right","rt":1432,"correct":true,"confidence":2},{"trial_n":80,"n_dots":3.85,"target":"left","response":"left","rt":1339,"correct":true,"confidence":3},{"trial_n":81,"n_dots":3.75,"target":"left","response":"left","rt":850,"correct":true,"confidence":2},{"trial_n":82,"n_dots":3.75,"target":"right","response":"right","rt":1334,"correct":true,"confidence":1},{"trial_n":83,"n_dots":3.65,"target":"left","response":"left","rt":1944,"correct":true,"confidence":2},{"trial_n":84,"n_dots":3.65,"target":"right","response":"right","rt":1328,"correct":true,"confidence":3},{"trial_n":85,"n_dots":3.55,"target":"right","response":"right","rt":641,"correct":true,"confidence":2},{"trial_n":86,"n_dots":3.55,"target":"right","response":"right","rt":697,"correct":true,"confidence":1},{"trial_n":87,"n_dots":3.45,"target":"left","response":"left","rt":18967,"correct":true,"confidence":1},{"trial_n":88,"n_dots":3.45,"target":"left","response":"left","rt":760,"correct":true,"confidence":1},{"trial_n":89,"n_dots":3.35,"target":"left","response":"left","rt":845,"correct":true,"confidence":1},{"trial_n":90,"n_dots":3.35,"target":"right","response":"right","rt":1006,"correct":true,"confidence":2},{"trial_n":91,"n_dots":3.25,"target":"right","response":"right","rt":626,"correct":true,"confidence":3},{"trial_n":92,"n_dots":3.25,"target":"left","response":"right","rt":607,"correct":false,"confidence":2},{"trial_n":93,"n_dots":3.35,"target":"right","response":"left","rt":923,"correct":false,"confidence":1},{"trial_n":94,"n_dots":3.45,"target":"left","response":"left","rt":941,"correct":true,"confidence":1},{"trial_n":95,"n_dots":3.45,"target":"right","response":"right","rt":772,"correct":true,"confidence":2},{"trial_n":96,"n_dots":3.35,"target":"right","response":"left","rt":9980,"correct":false,"confidence":1},{"trial_n":97,"n_dots":3.45,"target":"left","response":"left","rt":840,"correct":true,"confidence":1},{"trial_n":98,"n_dots":3.45,"target":"right","response":"right","rt":1791,"correct":true,"confidence":1},{"trial_n":99,"n_dots":3.35,"target":"right","response":"right","rt":5033,"correct":true,"confidence":1},{"trial_n":100,"n_dots":3.35,"target":"left","response":"right","rt":35798,"correct":false,"confidence":1},{"trial_n":101,"n_dots":3.45,"target":"right","response":"right","rt":676,"correct":true,"confidence":2},{"trial_n":102,"n_dots":3.45,"target":"left","response":"left","rt":27847,"correct":true,"confidence":1},{"trial_n":103,"n_dots":3.35,"target":"left","response":"left","rt":870,"correct":true,"confidence":1},{"trial_n":104,"n_dots":3.35,"target":"left","response":"right","rt":926,"correct":false,"confidence":1},{"trial_n":105,"n_dots":3.45,"target":"left","response":"left","rt":525,"correct":true,"confidence":1},{"trial_n":106,"n_dots":3.45,"target":"right","response":"right","rt":688,"correct":true,"confidence":1},{"trial_n":107,"n_dots":3.35,"target":"right","response":"right","rt":841,"correct":true,"confidence":1},{"trial_n":108,"n_dots":3.35,"target":"right","response":"right","rt":1016,"correct":true,"confidence":1},{"trial_n":109,"n_dots":3.25,"target":"right","response":"right","rt":965,"correct":true,"confidence":1},{"trial_n":110,"n_dots":3.25,"target":"right","response":"left","rt":425,"correct":false,"confidence":1},{"trial_n":111,"n_dots":3.35,"target":"right","response":"right","rt":6251,"correct":true,"confidence":1},{"trial_n":112,"n_dots":3.35,"target":"right","response":"right","rt":27788,"correct":true,"confidence":1},{"trial_n":113,"n_dots":3.25,"target":"left","response":"left","rt":965,"correct":true,"confidence":1},{"trial_n":114,"n_dots":3.25,"target":"left","response":"left","rt":18625,"correct":true,"confidence":1},{"trial_n":115,"n_dots":3.15,"target":"left","response":"right","rt":677,"correct":false,"confidence":1},{"trial_n":116,"n_dots":3.25,"target":"left","response":"right","rt":697,"correct":false,"confidence":1},{"trial_n":117,"n_dots":3.35,"target":"left","response":"left","rt":709,"correct":true,"confidence":1},{"trial_n":118,"n_dots":3.35,"target":"right","response":"right","rt":683,"correct":true,"confidence":1},{"trial_n":119,"n_dots":3.25,"target":"right","response":"right","rt":267,"correct":true,"confidence":1},{"trial_n":120,"n_dots":3.25,"target":"right","response":"right","rt":3693,"correct":true,"confidence":1}]