[{"trial_n":1,"n_dots":4.25,"target":"left","response":"left","rt":20200,"correct":true,"confidence":-1},{"trial_n":2,"n_dots":4.25,"target":"right","response":"right","rt":1307.5,"correct":true,"confidence":-1},{"trial_n":3,"n_dots":3.85,"target":"left","response":"right","rt":1440.5,"correct":false,"confidence":-1},{"trial_n":4,"n_dots":4.25,"target":"right","response":"left","rt":1258.900000006,"correct":false,"confidence":-1},{"trial_n":5,"n_dots":4.65,"target":"left","response":"left","rt":949.79999998212,"correct":true,"confidence":-1},{"trial_n":6,"n_dots":4.65,"target":"left","response":"left","rt":926.19999998808,"correct":true,"confidence":-1},{"trial_n":7,"n_dots":4.25,"target":"left","response":"left","rt":890.19999998808,"correct":true,"confidence":-1},{"trial_n":8,"n_dots":4.25,"target":"left","response":"left","rt":808.10000002384,"correct":true,"confidence":-1},{"trial_n":9,"n_dots":4.05,"target":"right","response":"right","rt":968.30000001192,"correct":true,"confidence":-1},{"trial_n":10,"n_dots":4.05,"target":"right","response":"right","rt":786.80000001192,"correct":true,"confidence":-1},{"trial_n":11,"n_dots":3.85,"target":"right","response":"right","rt":702.5,"correct":true,"confidence":-1},{"trial_n":12,"n_dots":3.85,"target":"right","response":"left","rt":1052.599999994,"correct":false,"confidence":-1},{"trial_n":13,"n_dots":3.95,"target":"left","response":"left","rt":720,"correct":true,"confidence":-1},{"trial_n":14,"n_dots":3.95,"target":"right","response":"right","rt":801.80000001192,"correct":true,"confidence":-1},{"trial_n":15,"n_dots":3.85,"target":"left","response":"left","rt":692.5,"correct":true,"confidence":-1},{"trial_n":16,"n_dots":3.85,"target":"left","response":"left","rt":659.69999998808,"correct":true,"confidence":-1},{"trial_n":17,"n_dots":3.75,"target":"right","response":"left","rt":660.30000001192,"correct":false,"confidence":-1},{"trial_n":18,"n_dots":3.85,"target":"right","response":"right","rt":697.69999998808,"correct":true,"confidence":-1},{"trial_n":19,"n_dots":3.85,"target":"left","response":"left","rt":671.09999999404,"correct":true,"confidence":-1},{"trial_n":20,"n_dots":3.75,"target":"left","response":"left","rt":43283.200000018,"correct":true,"confidence":-1},{"trial_n":21,"n_dots":3.75,"target":"right","response":"right","rt":1730.6999999881,"correct":true,"confidence":4},{"trial_n":22,"n_dots":3.65,"target":"left","response":"left","rt":1050.8000000119,"correct":true,"confidence":3},{"trial_n":23,"n_dots":3.65,"target":"right","response":"right","rt":1816.3000000119,"correct":true,"confidence":2},{"trial_n":24,"n_dots":3.55,"target":"left","response":"left","rt":1263.1000000238,"correct":true,"confidence":3},{"trial_n":25,"n_dots":3.55,"target":"left","response":"left","rt":1208.7999999821,"correct":true,"confidence":3},{"trial_n":26,"n_dots":3.45,"target":"right","response":"right","rt":1429.599999994,"correct":true,"confidence":2},{"trial_n":27,"n_dots":3.45,"target":"right","response":"right","rt":1157.1000000238,"correct":true,"confidence":3},{"trial_n":28,"n_dots":3.35,"target":"right","response":"left","rt":1191.5,"correct":false,"confidence":4},{"trial_n":29,"n_dots":3.45,"target":"right","response":"left","rt":1287,"correct":false,"confidence":3},{"trial_n":30,"n_dots":3.55,"target":"left","response":"left","rt":1126.400000006,"correct":true,"confidence":3},{"trial_n":31,"n_dots":3.55,"target":"left","response":"left","rt":1159.5,"correct":true,"confidence":3},{"trial_n":32,"n_dots":3.45,"target":"left","response":"left","rt":932.30000001192,"correct":true,"confidence":4},{"trial_n":33,"n_dots":3.45,"target":"left","response":"left","rt":1125.099999994,"correct":true,"confidence":4},{"trial_n":34,"n_dots":3.35,"target":"left","response":"left","rt":922.5,"correct":true,"confidence":4},{"trial_n":35,"n_dots":3.35,"target":"left","response":"right","rt":981.09999999404,"correct":false,"confidence":3},{"trial_n":36,"n_dots":3.45,"target":"left","response":"left","rt":890.69999998808,"correct":true,"confidence":5},{"trial_n":37,"n_dots":3.45,"target":"left","response":"left","rt":948.90000000596,"correct":true,"confidence":5},{"trial_n":38,"n_dots":3.35,"target":"right","response":"right","rt":1296.400000006,"correct":true,"confidence":2},{"trial_n":39,"n_dots":3.35,"target":"left","response":"right","rt":1288.3000000119,"correct":false,"confidence":2},{"trial_n":40,"n_dots":3.45,"target":"right","response":"left","rt":1159.2999999821,"correct":false,"confidence":1},{"trial_n":41,"n_dots":3.55,"target":"left","response":"left","rt":1082.599999994,"correct":true,"confidence":2},{"trial_n":42,"n_dots":3.55,"target":"right","response":"right","rt":12452.899999976,"correct":true,"confidence":1},{"trial_n":43,"n_dots":3.45,"target":"left","response":"left","rt":1002.6999999881,"correct":true,"confidence":2},{"trial_n":44,"n_dots":3.45,"target":"right","response":"left","rt":1079.8000000119,"correct":false,"confidence":2},{"trial_n":45,"n_dots":3.55,"target":"right","response":"right","rt":1187.099999994,"correct":true,"confidence":3},{"trial_n":46,"n_dots":3.55,"target":"right","response":"right","rt":870,"correct":true,"confidence":4},{"trial_n":47,"n_dots":3.45,"target":"right","response":"left","rt":1263.3000000119,"correct":false,"confidence":1},{"trial_n":48,"n_dots":3.55,"target":"left","response":"left","rt":979.89999997616,"correct":true,"confidence":4},{"trial_n":49,"n_dots":3.55,"target":"left","response":"left","rt":1039.3999999762,"correct":true,"confidence":5},{"trial_n":50,"n_dots":3.45,"target":"left","response":"left","rt":835.69999998808,"correct":true,"confidence":4},{"trial_n":51,"n_dots":3.45,"target":"left","response":"left","rt":1566.6999999881,"correct":true,"confidence":3},{"trial_n":52,"n_dots":3.35,"target":"right","response":"right","rt":1050.599999994,"correct":true,"confidence":2},{"trial_n":53,"n_dots":3.35,"target":"left","response":"left","rt":760.59999999404,"correct":true,"confidence":4},{"trial_n":54,"n_dots":3.25,"target":"right","response":"right","rt":869.09999999404,"correct":true,"confidence":2},{"trial_n":55,"n_dots":3.25,"target":"right","response":"left","rt":1247.099999994,"correct":false,"confidence":2},{"trial_n":56,"n_dots":3.35,"target":"right","response":"right","rt":1008,"correct":true,"confidence":3},{"trial_n":57,"n_dots":3.35,"target":"left","response":"left","rt":1198.5,"correct":true,"confidence":3},{"trial_n":58,"n_dots":3.25,"target":"right","response":"right","rt":1005,"correct":true,"confidence":4},{"trial_n":59,"n_dots":3.25,"target":"right","response":"left","rt":1107,"correct":false,"confidence":3},{"trial_n":60,"n_dots":3.35,"target":"left","response":"left","rt":781.40000000596,"correct":true,"confidence":3},{"trial_n":61,"n_dots":3.35,"target":"left","response":"left","rt":881.90000000596,"correct":true,"confidence":4},{"trial_n":62,"n_dots":3.25,"target":"left","response":"left","rt":700.69999998808,"correct":true,"confidence":4},{"trial_n":63,"n_dots":3.25,"target":"right","response":"left","rt":1095.1999999881,"correct":false,"confidence":2},{"trial_n":64,"n_dots":3.35,"target":"left","response":"left","rt":967.40000000596,"correct":true,"confidence":1},{"trial_n":65,"n_dots":3.35,"target":"right","response":"right","rt":978.19999998808,"correct":true,"confidence":3},{"trial_n":66,"n_dots":3.25,"target":"left","response":"left","rt":689.09999999404,"correct":true,"confidence":3},{"trial_n":67,"n_dots":3.25,"target":"right","response":"right","rt":877.09999999404,"correct":true,"confidence":3},{"trial_n":68,"n_dots":3.15,"target":"left","response":"left","rt":1274.5,"correct":true,"confidence":2},{"trial_n":69,"n_dots":3.15,"target":"right","response":"left","rt":1173.7999999821,"correct":false,"confidence":3},{"trial_n":70,"n_dots":3.25,"target":"right","response":"left","rt":7708.099999994,"correct":false,"confidence":1},{"trial_n":71,"n_dots":3.35,"target":"left","response":"left","rt":1006,"correct":true,"confidence":2},{"trial_n":72,"n_dots":3.35,"target":"right","response":"right","rt":1110.5,"correct":true,"confidence":2},{"trial_n":73,"n_dots":3.25,"target":"left","response":"right","rt":1137.900000006,"correct":false,"confidence":2},{"trial_n":74,"n_dots":3.35,"target":"right","response":"left","rt":1661.3999999762,"correct":false,"confidence":2},{"trial_n":75,"n_dots":3.45,"target":"left","response":"right","rt":1506,"correct":false,"confidence":2},{"trial_n":76,"n_dots":3.55,"target":"right","response":"right","rt":1324.8999999762,"correct":true,"confidence":3},{"trial_n":77,"n_dots":3.55,"target":"right","response":"right","rt":1135.7999999821,"correct":true,"confidence":3},{"trial_n":78,"n_dots":3.45,"target":"left","response":"right","rt":1300.400000006,"correct":false,"confidence":3},{"trial_n":79,"n_dots":3.55,"target":"right","response":"right","rt":1065.8999999762,"correct":true,"confidence":3},{"trial_n":80,"n_dots":3.55,"target":"left","response":"left","rt":1134.099999994,"correct":true,"confidence":2},{"trial_n":81,"n_dots":3.45,"target":"left","response":"right","rt":1008.099999994,"correct":false,"confidence":3},{"trial_n":82,"n_dots":3.55,"target":"left","response":"right","rt":1054.2000000179,"correct":false,"confidence":2},{"trial_n":83,"n_dots":3.65,"target":"right","response":"right","rt":1041.900000006,"correct":true,"confidence":3},{"trial_n":84,"n_dots":3.65,"target":"left","response":"left","rt":1216,"correct":true,"confidence":3},{"trial_n":85,"n_dots":3.55,"target":"right","response":"right","rt":1339.6999999881,"correct":true,"confidence":2},{"trial_n":86,"n_dots":3.55,"target":"right","response":"left","rt":992.80000001192,"correct":false,"confidence":2},{"trial_n":87,"n_dots":3.65,"target":"left","response":"left","rt":829.70000001788,"correct":true,"confidence":3},{"trial_n":88,"n_dots":3.65,"target":"right","response":"right","rt":1158.599999994,"correct":true,"confidence":3},{"trial_n":89,"n_dots":3.55,"target":"right","response":"right","rt":1233,"correct":true,"confidence":3},{"trial_n":90,"n_dots":3.55,"target":"left","response":"left","rt":1030.1000000238,"correct":true,"confidence":4},{"trial_n":91,"n_dots":3.45,"target":"left","response":"left","rt":991.20000001788,"correct":true,"confidence":4},{"trial_n":92,"n_dots":3.45,"target":"left","response":"left","rt":998.69999998808,"correct":true,"confidence":3},{"trial_n":93,"n_dots":3.35,"target":"right","response":"left","rt":989.40000000596,"correct":false,"confidence":2},{"trial_n":94,"n_dots":3.45,"target":"right","response":"right","rt":1641.400000006,"correct":true,"confidence":3},{"trial_n":95,"n_dots":3.45,"target":"right","response":"right","rt":972.09999999404,"correct":true,"confidence":4},{"trial_n":96,"n_dots":3.35,"target":"left","response":"right","rt":1055.7999999821,"correct":false,"confidence":3},{"trial_n":97,"n_dots":3.45,"target":"right","response":"right","rt":1613.3000000119,"correct":true,"confidence":3},{"trial_n":98,"n_dots":3.45,"target":"right","response":"right","rt":1189.400000006,"correct":true,"confidence":4},{"trial_n":99,"n_dots":3.35,"target":"left","response":"left","rt":1110,"correct":true,"confidence":4},{"trial_n":100,"n_dots":3.35,"target":"right","response":"right","rt":1065.8999999762,"correct":true,"confidence":3},{"trial_n":101,"n_dots":3.25,"target":"left","response":"left","rt":949.89999997616,"correct":true,"confidence":2},{"trial_n":102,"n_dots":3.25,"target":"left","response":"left","rt":646.5,"correct":true,"confidence":3},{"trial_n":103,"n_dots":3.15,"target":"right","response":"right","rt":826.19999998808,"correct":true,"confidence":3},{"trial_n":104,"n_dots":3.15,"target":"right","response":"right","rt":710.5,"correct":true,"confidence":3},{"trial_n":105,"n_dots":3.05,"target":"left","response":"right","rt":646.30000001192,"correct":false,"confidence":1},{"trial_n":106,"n_dots":3.15,"target":"left","response":"left","rt":912.29999998212,"correct":true,"confidence":3},{"trial_n":107,"n_dots":3.15,"target":"left","response":"left","rt":808.29999998212,"correct":true,"confidence":3},{"trial_n":108,"n_dots":3.05,"target":"right","response":"left","rt":587.5,"correct":false,"confidence":3},{"trial_n":109,"n_dots":3.15,"target":"right","response":"left","rt":895.69999998808,"correct":false,"confidence":3},{"trial_n":110,"n_dots":3.25,"target":"left","response":"left","rt":1786.7999999821,"correct":true,"confidence":5},{"trial_n":111,"n_dots":3.25,"target":"right","response":"left","rt":16046.5,"correct":false,"confidence":4},{"trial_n":112,"n_dots":3.35,"target":"right","response":"right","rt":603.29999998212,"correct":true,"confidence":5},{"trial_n":113,"n_dots":3.35,"target":"left","response":"left","rt":881.90000000596,"correct":true,"confidence":3},{"trial_n":114,"n_dots":3.25,"target":"right","response":"right","rt":892.80000001192,"correct":true,"confidence":3},{"trial_n":115,"n_dots":3.25,"target":"right","response":"left","rt":1039.5,"correct":false,"confidence":1},{"trial_n":116,"n_dots":3.35,"target":"right","response":"right","rt":814.70000001788,"correct":true,"confidence":3},{"trial_n":117,"n_dots":3.35,"target":"right","response":"right","rt":787.19999998808,"correct":true,"confidence":4},{"trial_n":118,"n_dots":3.25,"target":"left","response":"left","rt":779.5,"correct":true,"confidence":4},{"trial_n":119,"n_dots":3.25,"target":"right","response":"right","rt":922.09999999404,"correct":true,"confidence":4},{"trial_n":120,"n_dots":3.15,"target":"left","response":"right","rt":966.80000001192,"correct":false,"confidence":4}]