[{"trial_n":1,"min":25,"max":230,"target":"present","response":"present","rt":8757.7000000179,"correct":true,"confidence":-1},{"trial_n":2,"min":25,"max":230,"target":"present","response":"present","rt":583.39999997616,"correct":true,"confidence":-1},{"trial_n":3,"min":41,"max":214,"target":"absent","response":"absent","rt":448.30000001192,"correct":true,"confidence":-1},{"trial_n":4,"min":41,"max":214,"target":"absent","response":"absent","rt":335.80000001192,"correct":true,"confidence":-1},{"trial_n":5,"min":57,"max":198,"target":"present","response":"present","rt":405.70000001788,"correct":true,"confidence":-1},{"trial_n":6,"min":57,"max":198,"target":"absent","response":"absent","rt":342.5,"correct":true,"confidence":-1},{"trial_n":7,"min":73,"max":182,"target":"absent","response":"absent","rt":331.30000001192,"correct":true,"confidence":-1},{"trial_n":8,"min":73,"max":182,"target":"present","response":"present","rt":372.90000000596,"correct":true,"confidence":-1},{"trial_n":9,"min":89,"max":166,"target":"absent","response":"absent","rt":335.19999998808,"correct":true,"confidence":-1},{"trial_n":10,"min":89,"max":166,"target":"present","response":"absent","rt":330.5,"correct":false,"confidence":-1},{"trial_n":11,"min":81,"max":174,"target":"present","response":"present","rt":582.40000000596,"correct":true,"confidence":-1},{"trial_n":12,"min":81,"max":174,"target":"absent","response":"absent","rt":402.30000001192,"correct":true,"confidence":-1},{"trial_n":13,"min":89,"max":166,"target":"present","response":"present","rt":420.69999998808,"correct":true,"confidence":-1},{"trial_n":14,"min":89,"max":166,"target":"absent","response":"absent","rt":473.89999997616,"correct":true,"confidence":-1},{"trial_n":15,"min":97,"max":158,"target":"present","response":"present","rt":458.69999998808,"correct":true,"confidence":-1},{"trial_n":16,"min":97,"max":158,"target":"absent","response":"absent","rt":494.80000001192,"correct":true,"confidence":-1},{"trial_n":17,"min":105,"max":150,"target":"absent","response":"present","rt":665,"correct":false,"confidence":-1},{"trial_n":18,"min":97,"max":158,"target":"present","response":"absent","rt":392.79999998212,"correct":false,"confidence":-1},{"trial_n":19,"min":89,"max":166,"target":"absent","response":"absent","rt":398.79999998212,"correct":true,"confidence":-1},{"trial_n":20,"min":89,"max":166,"target":"present","response":"absent","rt":384,"correct":false,"confidence":-1},{"trial_n":21,"min":85,"max":170,"target":"present","response":"present","rt":438.90000000596,"correct":true,"confidence":5},{"trial_n":22,"min":85,"max":170,"target":"present","response":"present","rt":480.59999999404,"correct":true,"confidence":5},{"trial_n":23,"min":89,"max":166,"target":"present","response":"absent","rt":716.5,"correct":false,"confidence":5},{"trial_n":24,"min":85,"max":170,"target":"absent","response":"present","rt":1296.8999999762,"correct":false,"confidence":4},{"trial_n":25,"min":81,"max":174,"target":"absent","response":"present","rt":581.69999998808,"correct":false,"confidence":4},{"trial_n":26,"min":77,"max":178,"target":"absent","response":"present","rt":825.5,"correct":false,"confidence":5},{"trial_n":27,"min":73,"max":182,"target":"present","response":"present","rt":523.69999998808,"correct":true,"confidence":5},{"trial_n":28,"min":73,"max":182,"target":"absent","response":"present","rt":5117,"correct":false,"confidence":3},{"trial_n":29,"min":69,"max":186,"target":"present","response":"present","rt":478.40000000596,"correct":true,"confidence":5},{"trial_n":30,"min":69,"max":186,"target":"absent","response":"present","rt":1145.900000006,"correct":false,"confidence":5},{"trial_n":31,"min":67,"max":188,"target":"present","response":"present","rt":919.69999998808,"correct":true,"confidence":5},{"trial_n":32,"min":67,"max":188,"target":"present","response":"present","rt":1529.5,"correct":true,"confidence":5},{"trial_n":33,"min":69,"max":186,"target":"present","response":"present","rt":342.59999999404,"correct":true,"confidence":5},{"trial_n":34,"min":69,"max":186,"target":"present","response":"present","rt":603.09999999404,"correct":true,"confidence":5},{"trial_n":35,"min":71,"max":184,"target":"present","response":"present","rt":1718.400000006,"correct":true,"confidence":5},{"trial_n":36,"min":71,"max":184,"target":"absent","response":"present","rt":2105.7000000179,"correct":false,"confidence":5},{"trial_n":37,"min":69,"max":186,"target":"present","response":"present","rt":1468.6999999881,"correct":true,"confidence":5},{"trial_n":38,"min":69,"max":186,"target":"absent","response":"present","rt":2198.3000000119,"correct":false,"confidence":5},{"trial_n":39,"min":67,"max":188,"target":"absent","response":"present","rt":968.40000000596,"correct":false,"confidence":5},{"trial_n":40,"min":65,"max":190,"target":"absent","response":"absent","rt":1242.599999994,"correct":true,"confidence":3},{"trial_n":41,"min":65,"max":190,"target":"absent","response":"present","rt":1906.6999999881,"correct":false,"confidence":3},{"trial_n":42,"min":64,"max":191,"target":"absent","response":"absent","rt":970.40000000596,"correct":true,"confidence":3},{"trial_n":43,"min":64,"max":191,"target":"present","response":"present","rt":1357.3000000119,"correct":true,"confidence":5},{"trial_n":44,"min":65,"max":190,"target":"absent","response":"present","rt":1407.7999999821,"correct":false,"confidence":4},{"trial_n":45,"min":64,"max":191,"target":"absent","response":"present","rt":1817,"correct":false,"confidence":4},{"trial_n":46,"min":63,"max":192,"target":"present","response":"present","rt":753.5,"correct":true,"confidence":5},{"trial_n":47,"min":63,"max":192,"target":"present","response":"present","rt":681.10000002384,"correct":true,"confidence":5},{"trial_n":48,"min":64,"max":191,"target":"present","response":"present","rt":600.40000000596,"correct":true,"confidence":5},{"trial_n":49,"min":64,"max":191,"target":"absent","response":"absent","rt":1557.2000000179,"correct":true,"confidence":3},{"trial_n":50,"min":65,"max":190,"target":"absent","response":"absent","rt":1114.2000000179,"correct":true,"confidence":3},{"trial_n":51,"min":65,"max":190,"target":"present","response":"present","rt":1766.6999999881,"correct":true,"confidence":5},{"trial_n":52,"min":66,"max":189,"target":"present","response":"present","rt":914,"correct":true,"confidence":5},{"trial_n":53,"min":66,"max":189,"target":"present","response":"present","rt":930.69999998808,"correct":true,"confidence":5},{"trial_n":54,"min":67,"max":188,"target":"present","response":"present","rt":741.09999999404,"correct":true,"confidence":5},{"trial_n":55,"min":67,"max":188,"target":"absent","response":"absent","rt":1002.6999999881,"correct":true,"confidence":4},{"trial_n":56,"min":68,"max":187,"target":"present","response":"present","rt":1478.900000006,"correct":true,"confidence":5},{"trial_n":57,"min":68,"max":187,"target":"absent","response":"absent","rt":1240.900000006,"correct":true,"confidence":3},{"trial_n":58,"min":69,"max":186,"target":"present","response":"present","rt":635.5,"correct":true,"confidence":5},{"trial_n":59,"min":69,"max":186,"target":"present","response":"present","rt":1438.3000000119,"correct":true,"confidence":5},{"trial_n":60,"min":70,"max":185,"target":"present","response":"present","rt":841.09999999404,"correct":true,"confidence":5},{"trial_n":61,"min":70,"max":185,"target":"absent","response":"absent","rt":2198,"correct":true,"confidence":3},{"trial_n":62,"min":71,"max":184,"target":"absent","response":"absent","rt":1448.900000006,"correct":true,"confidence":3},{"trial_n":63,"min":71,"max":184,"target":"absent","response":"absent","rt":1827.099999994,"correct":true,"confidence":4},{"trial_n":64,"min":72,"max":183,"target":"absent","response":"absent","rt":1035,"correct":true,"confidence":4},{"trial_n":65,"min":72,"max":183,"target":"present","response":"present","rt":1958,"correct":true,"confidence":5},{"trial_n":66,"min":73,"max":182,"target":"present","response":"absent","rt":5232.5,"correct":false,"confidence":2},{"trial_n":67,"min":72,"max":183,"target":"absent","response":"present","rt":4082.2000000179,"correct":false,"confidence":5},{"trial_n":68,"min":71,"max":184,"target":"absent","response":"absent","rt":1016.6000000238,"correct":true,"confidence":5},{"trial_n":69,"min":71,"max":184,"target":"absent","response":"absent","rt":959.40000000596,"correct":true,"confidence":5},{"trial_n":70,"min":72,"max":183,"target":"present","response":"present","rt":982.79999998212,"correct":true,"confidence":5},{"trial_n":71,"min":41,"max":214,"target":"present","response":"absent","rt":8893,"correct":false,"confidence":-1},{"trial_n":72,"min":41,"max":214,"target":"present","response":"present","rt":1010.8000000119,"correct":true,"confidence":-1},{"trial_n":73,"min":41,"max":214,"target":"absent","response":"absent","rt":738.09999999404,"correct":true,"confidence":-1},{"trial_n":74,"min":57,"max":198,"target":"absent","response":"present","rt":400.40000000596,"correct":false,"confidence":-1},{"trial_n":75,"min":41,"max":214,"target":"present","response":"present","rt":589.10000002384,"correct":true,"confidence":-1},{"trial_n":76,"min":41,"max":214,"target":"absent","response":"absent","rt":486.70000001788,"correct":true,"confidence":-1},{"trial_n":77,"min":57,"max":198,"target":"absent","response":"absent","rt":366.40000000596,"correct":true,"confidence":-1},{"trial_n":78,"min":57,"max":198,"target":"absent","response":"absent","rt":390.19999998808,"correct":true,"confidence":-1},{"trial_n":79,"min":73,"max":182,"target":"present","response":"present","rt":319.69999998808,"correct":true,"confidence":-1},{"trial_n":80,"min":73,"max":182,"target":"present","response":"present","rt":538.09999999404,"correct":true,"confidence":-1},{"trial_n":81,"min":81,"max":174,"target":"present","response":"present","rt":348.60000002384,"correct":true,"confidence":-1},{"trial_n":82,"min":81,"max":174,"target":"present","response":"present","rt":569.59999999404,"correct":true,"confidence":-1},{"trial_n":83,"min":89,"max":166,"target":"present","response":"present","rt":585.20000001788,"correct":true,"confidence":-1},{"trial_n":84,"min":89,"max":166,"target":"absent","response":"absent","rt":675.30000001192,"correct":true,"confidence":-1},{"trial_n":85,"min":97,"max":158,"target":"present","response":"present","rt":712.30000001192,"correct":true,"confidence":-1},{"trial_n":86,"min":97,"max":158,"target":"absent","response":"present","rt":1105.599999994,"correct":false,"confidence":-1},{"trial_n":87,"min":89,"max":166,"target":"present","response":"absent","rt":431.5,"correct":false,"confidence":-1},{"trial_n":88,"min":81,"max":174,"target":"present","response":"present","rt":298.09999999404,"correct":true,"confidence":-1},{"trial_n":89,"min":81,"max":174,"target":"absent","response":"present","rt":562.29999998212,"correct":false,"confidence":-1},{"trial_n":90,"min":73,"max":182,"target":"absent","response":"absent","rt":841.09999999404,"correct":true,"confidence":-1},{"trial_n":91,"min":73,"max":182,"target":"absent","response":"absent","rt":717.80000001192,"correct":true,"confidence":5},{"trial_n":92,"min":77,"max":178,"target":"absent","response":"present","rt":875.5,"correct":false,"confidence":1},{"trial_n":93,"min":73,"max":182,"target":"present","response":"present","rt":1195,"correct":true,"confidence":5},{"trial_n":94,"min":73,"max":182,"target":"absent","response":"absent","rt":918,"correct":true,"confidence":5},{"trial_n":95,"min":77,"max":178,"target":"absent","response":"absent","rt":633.29999998212,"correct":true,"confidence":5},{"trial_n":96,"min":77,"max":178,"target":"present","response":"present","rt":392.5,"correct":true,"confidence":5},{"trial_n":97,"min":81,"max":174,"target":"absent","response":"absent","rt":757.19999998808,"correct":true,"confidence":5},{"trial_n":98,"min":81,"max":174,"target":"absent","response":"absent","rt":673.09999999404,"correct":true,"confidence":5},{"trial_n":99,"min":85,"max":170,"target":"present","response":"present","rt":686.5,"correct":true,"confidence":5},{"trial_n":100,"min":85,"max":170,"target":"absent","response":"absent","rt":652.5,"correct":true,"confidence":5},{"trial_n":101,"min":87,"max":168,"target":"absent","response":"present","rt":635.59999999404,"correct":false,"confidence":3},{"trial_n":102,"min":85,"max":170,"target":"present","response":"present","rt":1672.099999994,"correct":true,"confidence":5},{"trial_n":103,"min":85,"max":170,"target":"absent","response":"absent","rt":4264.3000000119,"correct":true,"confidence":3},{"trial_n":104,"min":87,"max":168,"target":"absent","response":"present","rt":462.29999998212,"correct":false,"confidence":5},{"trial_n":105,"min":85,"max":170,"target":"absent","response":"present","rt":405.30000001192,"correct":false,"confidence":5},{"trial_n":106,"min":83,"max":172,"target":"present","response":"absent","rt":1614.2999999821,"correct":false,"confidence":2},{"trial_n":107,"min":81,"max":174,"target":"present","response":"present","rt":421.39999997616,"correct":true,"confidence":5},{"trial_n":108,"min":81,"max":174,"target":"present","response":"present","rt":517.90000000596,"correct":true,"confidence":5},{"trial_n":109,"min":83,"max":172,"target":"present","response":"absent","rt":623.59999999404,"correct":false,"confidence":5},{"trial_n":110,"min":81,"max":174,"target":"present","response":"present","rt":445.59999999404,"correct":true,"confidence":5},{"trial_n":111,"min":81,"max":174,"target":"absent","response":"absent","rt":613.5,"correct":true,"confidence":5},{"trial_n":112,"min":82,"max":173,"target":"absent","response":"present","rt":638.30000001192,"correct":false,"confidence":5},{"trial_n":113,"min":81,"max":174,"target":"present","response":"present","rt":497.60000002384,"correct":true,"confidence":5},{"trial_n":114,"min":81,"max":174,"target":"present","response":"present","rt":414.19999998808,"correct":true,"confidence":5},{"trial_n":115,"min":82,"max":173,"target":"present","response":"present","rt":304.19999998808,"correct":true,"confidence":5},{"trial_n":116,"min":82,"max":173,"target":"present","response":"present","rt":372.09999999404,"correct":true,"confidence":5},{"trial_n":117,"min":83,"max":172,"target":"absent","response":"absent","rt":452.29999998212,"correct":true,"confidence":5},{"trial_n":118,"min":83,"max":172,"target":"present","response":"present","rt":1719.7000000179,"correct":true,"confidence":2},{"trial_n":119,"min":84,"max":171,"target":"absent","response":"absent","rt":1296.900000006,"correct":true,"confidence":5},{"trial_n":120,"min":84,"max":171,"target":"present","response":"present","rt":2224.3999999762,"correct":true,"confidence":3},{"trial_n":121,"min":85,"max":170,"target":"absent","response":"absent","rt":545.09999999404,"correct":true,"confidence":5},{"trial_n":122,"min":85,"max":170,"target":"absent","response":"absent","rt":1639.099999994,"correct":true,"confidence":5},{"trial_n":123,"min":86,"max":169,"target":"present","response":"absent","rt":517.29999998212,"correct":false,"confidence":5},{"trial_n":124,"min":85,"max":170,"target":"present","response":"absent","rt":530.40000000596,"correct":false,"confidence":5},{"trial_n":125,"min":84,"max":171,"target":"present","response":"present","rt":884.09999999404,"correct":true,"confidence":4},{"trial_n":126,"min":84,"max":171,"target":"absent","response":"absent","rt":1915,"correct":true,"confidence":2},{"trial_n":127,"min":85,"max":170,"target":"absent","response":"absent","rt":697.19999998808,"correct":true,"confidence":4},{"trial_n":128,"min":85,"max":170,"target":"absent","response":"absent","rt":627.89999997616,"correct":true,"confidence":3},{"trial_n":129,"min":86,"max":169,"target":"present","response":"present","rt":2363.1999999881,"correct":true,"confidence":3},{"trial_n":130,"min":86,"max":169,"target":"absent","response":"present","rt":1975,"correct":false,"confidence":1},{"trial_n":131,"min":85,"max":170,"target":"present","response":"present","rt":328.79999998212,"correct":true,"confidence":5},{"trial_n":132,"min":85,"max":170,"target":"absent","response":"absent","rt":586.80000001192,"correct":true,"confidence":5},{"trial_n":133,"min":86,"max":169,"target":"present","response":"absent","rt":383,"correct":false,"confidence":5},{"trial_n":134,"min":85,"max":170,"target":"present","response":"present","rt":1482.3000000119,"correct":true,"confidence":5},{"trial_n":135,"min":85,"max":170,"target":"absent","response":"absent","rt":676.40000000596,"correct":true,"confidence":5},{"trial_n":136,"min":86,"max":169,"target":"present","response":"present","rt":314.5,"correct":true,"confidence":5},{"trial_n":137,"min":86,"max":169,"target":"present","response":"absent","rt":240.70000001788,"correct":false,"confidence":5},{"trial_n":138,"min":85,"max":170,"target":"absent","response":"absent","rt":1114.5,"correct":true,"confidence":5},{"trial_n":139,"min":85,"max":170,"target":"present","response":"present","rt":403,"correct":true,"confidence":5},{"trial_n":140,"min":86,"max":169,"target":"absent","response":"present","rt":1609.8999999762,"correct":false,"confidence":4}]