[{"trial_n":1,"span":8,"encoder":"04056814","distractor":"08056814","target":"present","response":"present","rt":"5746","correct":true,"confidence":-1},{"trial_n":2,"span":8,"encoder":"93636639","distractor":"63636639","target":"present","response":"present","rt":"1816","correct":true,"confidence":-1},{"trial_n":3,"span":10,"encoder":"7596467646","distractor":"4596467646","target":"absent","response":"absent","rt":"1438","correct":true,"confidence":-1},{"trial_n":4,"span":10,"encoder":"9500146739","distractor":"9500146733","target":"absent","response":"absent","rt":"4570","correct":true,"confidence":-1},{"trial_n":5,"span":12,"encoder":"086490990694","distractor":"086490993694","target":"present","response":"absent","rt":"2154","correct":false,"confidence":-1},{"trial_n":6,"span":10,"encoder":"7143451819","distractor":"3143451819","target":"present","response":"present","rt":"1279","correct":true,"confidence":-1},{"trial_n":7,"span":10,"encoder":"0217276562","distractor":"0217256562","target":"absent","response":"absent","rt":"3343","correct":true,"confidence":-1},{"trial_n":8,"span":12,"encoder":"087215733887","distractor":"087215733827","target":"present","response":"present","rt":"1710","correct":true,"confidence":-1},{"trial_n":9,"span":12,"encoder":"979509589745","distractor":"979589589745","target":"present","response":"present","rt":"1773","correct":true,"confidence":-1},{"trial_n":10,"span":14,"encoder":"40964183874802","distractor":"40964183274802","target":"absent","response":"absent","rt":"13621","correct":true,"confidence":-1},{"trial_n":11,"span":14,"encoder":"95128719895508","distractor":"95126719895508","target":"absent","response":"present","rt":"2087","correct":false,"confidence":-1},{"trial_n":12,"span":13,"encoder":"2967839095277","distractor":"2967839095227","target":"present","response":"present","rt":"3374","correct":true,"confidence":-1},{"trial_n":13,"span":13,"encoder":"2182108317362","distractor":"2182108217362","target":"present","response":"absent","rt":"13232","correct":false,"confidence":-1},{"trial_n":14,"span":12,"encoder":"411684967427","distractor":"411681967427","target":"absent","response":"present","rt":"1579","correct":false,"confidence":-1},{"trial_n":15,"span":11,"encoder":"48452479647","distractor":"58452479647","target":"present","response":"present","rt":"2032","correct":true,"confidence":-1},{"trial_n":16,"span":11,"encoder":"66207217719","distractor":"66407217719","target":"absent","response":"present","rt":"1327","correct":false,"confidence":-1},{"trial_n":17,"span":10,"encoder":"4121948808","distractor":"1121948808","target":"present","response":"present","rt":"11461","correct":true,"confidence":-1},{"trial_n":18,"span":10,"encoder":"9400726580","distractor":"5400726580","target":"present","response":"absent","rt":"1441","correct":false,"confidence":-1},{"trial_n":19,"span":9,"encoder":"826318760","distractor":"826311760","target":"absent","response":"present","rt":"1244","correct":false,"confidence":-1},{"trial_n":20,"span":8,"encoder":"56424064","distractor":"56424164","target":"present","response":"present","rt":"2173","correct":true,"confidence":-1},{"trial_n":21,"span":8,"encoder":"44386127","distractor":"54386127","target":"absent","response":"present","rt":"3388","correct":false,"confidence":1},{"trial_n":22,"span":7,"encoder":"9536132","distractor":"0536132","target":"absent","response":"absent","rt":"4561","correct":true,"confidence":2},{"trial_n":23,"span":7,"encoder":"5242989","distractor":"5142989","target":"absent","response":"present","rt":"1668","correct":false,"confidence":3},{"trial_n":24,"span":6,"encoder":"420619","distractor":"320619","target":"present","response":"present","rt":"2976","correct":true,"confidence":3},{"trial_n":25,"span":6,"encoder":"814034","distractor":"814024","target":"present","response":"absent","rt":"1845","correct":false,"confidence":3},{"trial_n":26,"span":5,"encoder":"63729","distractor":"63429","target":"absent","response":"present","rt":"1363","correct":false,"confidence":3},{"trial_n":27,"span":4,"encoder":"1286","distractor":"1296","target":"present","response":"absent","rt":"1611","correct":false,"confidence":3},{"trial_n":28,"span":3,"encoder":"365","distractor":"395","target":"absent","response":"present","rt":"2012","correct":false,"confidence":3},{"trial_n":29,"span":2,"encoder":"49","distractor":"29","target":"present","response":"present","rt":"1386","correct":true,"confidence":5},{"trial_n":30,"span":2,"encoder":"75","distractor":"70","target":"absent","response":"absent","rt":"1876","correct":true,"confidence":5},{"trial_n":31,"span":3,"encoder":"786","distractor":"726","target":"present","response":"present","rt":"2198","correct":true,"confidence":5},{"trial_n":32,"span":3,"encoder":"532","distractor":"502","target":"present","response":"present","rt":"2458","correct":true,"confidence":5},{"trial_n":33,"span":4,"encoder":"2656","distractor":"2653","target":"present","response":"present","rt":"1454","correct":true,"confidence":5},{"trial_n":34,"span":4,"encoder":"7318","distractor":"0318","target":"absent","response":"absent","rt":"2434","correct":true,"confidence":5},{"trial_n":35,"span":5,"encoder":"46912","distractor":"66912","target":"present","response":"absent","rt":"8908","correct":false,"confidence":1},{"trial_n":36,"span":4,"encoder":"9822","distractor":"9821","target":"present","response":"absent","rt":"3732","correct":false,"confidence":5},{"trial_n":37,"span":3,"encoder":"624","distractor":"621","target":"absent","response":"absent","rt":"11370","correct":true,"confidence":1},{"trial_n":38,"span":3,"encoder":"419","distractor":"919","target":"absent","response":"absent","rt":"3270","correct":true,"confidence":5},{"trial_n":39,"span":4,"encoder":"9217","distractor":"3217","target":"absent","response":"absent","rt":"579254","correct":true,"confidence":1},{"trial_n":40,"span":4,"encoder":"9555","distractor":"9595","target":"absent","response":"present","rt":"1678","correct":false,"confidence":1},{"trial_n":41,"span":3,"encoder":"966","distractor":"166","target":"present","response":"present","rt":"5788","correct":true,"confidence":5},{"trial_n":42,"span":3,"encoder":"099","distractor":"199","target":"present","response":"present","rt":"1787","correct":true,"confidence":5},{"trial_n":43,"span":4,"encoder":"0709","distractor":"0809","target":"present","response":"present","rt":"1464","correct":true,"confidence":5},{"trial_n":44,"span":4,"encoder":"5708","distractor":"5408","target":"present","response":"present","rt":"1141","correct":true,"confidence":1},{"trial_n":45,"span":5,"encoder":"45655","distractor":"45656","target":"present","response":"present","rt":"845","correct":true,"confidence":1},{"trial_n":46,"span":5,"encoder":"07115","distractor":"07110","target":"absent","response":"absent","rt":"25953","correct":true,"confidence":1},{"trial_n":47,"span":6,"encoder":"487607","distractor":"407607","target":"absent","response":"absent","rt":"1507","correct":true,"confidence":4},{"trial_n":48,"span":6,"encoder":"418881","distractor":"418885","target":"absent","response":"absent","rt":"1659","correct":true,"confidence":1},{"trial_n":49,"span":7,"encoder":"1321511","distractor":"1321551","target":"absent","response":"absent","rt":"1217","correct":true,"confidence":2},{"trial_n":50,"span":7,"encoder":"9172348","distractor":"9172848","target":"absent","response":"absent","rt":"1129","correct":true,"confidence":1},{"trial_n":51,"span":8,"encoder":"65883061","distractor":"65873061","target":"absent","response":"absent","rt":"2335","correct":true,"confidence":4},{"trial_n":52,"span":8,"encoder":"20343858","distractor":"20341858","target":"absent","response":"present","rt":"826","correct":false,"confidence":2},{"trial_n":53,"span":7,"encoder":"1956785","distractor":"1956765","target":"absent","response":"absent","rt":"1693","correct":true,"confidence":3},{"trial_n":54,"span":7,"encoder":"4614980","distractor":"4610980","target":"present","response":"absent","rt":"1054","correct":false,"confidence":2},{"trial_n":55,"span":6,"encoder":"842426","distractor":"842626","target":"absent","response":"absent","rt":"2501","correct":true,"confidence":1},{"trial_n":56,"span":6,"encoder":"142530","distractor":"112530","target":"absent","response":"present","rt":"1775","correct":false,"confidence":2},{"trial_n":57,"span":5,"encoder":"03652","distractor":"03252","target":"present","response":"present","rt":"5152","correct":true,"confidence":1},{"trial_n":58,"span":5,"encoder":"16237","distractor":"86237","target":"absent","response":"present","rt":"873","correct":false,"confidence":1},{"trial_n":59,"span":4,"encoder":"9676","distractor":"9672","target":"absent","response":"absent","rt":"4205","correct":true,"confidence":1},{"trial_n":60,"span":4,"encoder":"8290","distractor":"8292","target":"present","response":"absent","rt":"2831","correct":false,"confidence":1},{"trial_n":61,"span":3,"encoder":"850","distractor":"820","target":"present","response":"present","rt":"1177","correct":true,"confidence":5},{"trial_n":62,"span":3,"encoder":"021","distractor":"024","target":"present","response":"present","rt":"5635","correct":true,"confidence":5},{"trial_n":63,"span":4,"encoder":"4202","distractor":"4208","target":"present","response":"present","rt":"1918","correct":true,"confidence":2},{"trial_n":64,"span":4,"encoder":"8818","distractor":"8318","target":"present","response":"present","rt":"1178","correct":true,"confidence":5},{"trial_n":65,"span":5,"encoder":"43438","distractor":"43338","target":"absent","response":"absent","rt":"1761","correct":true,"confidence":5},{"trial_n":66,"span":5,"encoder":"09482","distractor":"09489","target":"absent","response":"absent","rt":"2451","correct":true,"confidence":5},{"trial_n":67,"span":6,"encoder":"341517","distractor":"341515","target":"present","response":"absent","rt":"3017","correct":false,"confidence":5},{"trial_n":68,"span":5,"encoder":"45006","distractor":"55006","target":"present","response":"present","rt":"1981","correct":true,"confidence":5},{"trial_n":69,"span":5,"encoder":"48092","distractor":"48091","target":"absent","response":"absent","rt":"1262","correct":true,"confidence":5},{"trial_n":70,"span":6,"encoder":"640613","distractor":"640113","target":"present","response":"present","rt":"1961","correct":true,"confidence":5},{"trial_n":71,"span":8,"encoder":"76035448","distractor":"76075448","target":"present","response":"absent","rt":"6499","correct":false,"confidence":-1},{"trial_n":72,"span":7,"encoder":"9654644","distractor":"9654645","target":"present","response":"present","rt":"1601","correct":true,"confidence":-1},{"trial_n":73,"span":7,"encoder":"9548488","distractor":"9545488","target":"absent","response":"present","rt":"1570","correct":false,"confidence":-1},{"trial_n":74,"span":6,"encoder":"688105","distractor":"681105","target":"absent","response":"absent","rt":"1868","correct":true,"confidence":-1},{"trial_n":75,"span":6,"encoder":"742505","distractor":"749505","target":"present","response":"present","rt":"1762","correct":true,"confidence":-1},{"trial_n":76,"span":7,"encoder":"5184120","distractor":"5174120","target":"absent","response":"present","rt":"1064","correct":false,"confidence":-1},{"trial_n":77,"span":6,"encoder":"175071","distractor":"175571","target":"absent","response":"absent","rt":"1081","correct":true,"confidence":-1},{"trial_n":78,"span":6,"encoder":"742630","distractor":"749630","target":"present","response":"present","rt":"2366","correct":true,"confidence":-1},{"trial_n":79,"span":7,"encoder":"0487958","distractor":"0587958","target":"present","response":"present","rt":"1910","correct":true,"confidence":-1},{"trial_n":80,"span":7,"encoder":"1303029","distractor":"1307029","target":"present","response":"absent","rt":"2360","correct":false,"confidence":-1},{"trial_n":81,"span":6,"encoder":"587545","distractor":"589545","target":"present","response":"present","rt":"2590","correct":true,"confidence":-1},{"trial_n":82,"span":6,"encoder":"710891","distractor":"710841","target":"absent","response":"absent","rt":"1106","correct":true,"confidence":-1},{"trial_n":83,"span":7,"encoder":"4693703","distractor":"4693303","target":"absent","response":"absent","rt":"1415","correct":true,"confidence":-1},{"trial_n":84,"span":7,"encoder":"4347953","distractor":"4347952","target":"present","response":"present","rt":"5866","correct":true,"confidence":-1},{"trial_n":85,"span":8,"encoder":"83343578","distractor":"83353578","target":"absent","response":"absent","rt":"1438","correct":true,"confidence":-1},{"trial_n":86,"span":8,"encoder":"39998266","distractor":"49998266","target":"present","response":"absent","rt":"4326","correct":false,"confidence":-1},{"trial_n":87,"span":7,"encoder":"0436846","distractor":"0436844","target":"absent","response":"absent","rt":"1423","correct":true,"confidence":-1},{"trial_n":88,"span":7,"encoder":"3329795","distractor":"3349795","target":"present","response":"present","rt":"3120","correct":true,"confidence":-1},{"trial_n":89,"span":8,"encoder":"59904141","distractor":"52904141","target":"absent","response":"present","rt":"2412","correct":false,"confidence":-1},{"trial_n":90,"span":7,"encoder":"8106800","distractor":"8106880","target":"present","response":"absent","rt":"1421","correct":false,"confidence":-1},{"trial_n":91,"span":6,"encoder":"452304","distractor":"452364","target":"present","response":"absent","rt":"1219","correct":false,"confidence":1},{"trial_n":92,"span":5,"encoder":"37340","distractor":"39340","target":"present","response":"present","rt":"1834","correct":true,"confidence":3},{"trial_n":93,"span":5,"encoder":"70902","distractor":"73902","target":"present","response":"absent","rt":"1559","correct":false,"confidence":3},{"trial_n":94,"span":4,"encoder":"4197","distractor":"4198","target":"absent","response":"present","rt":"18333","correct":false,"confidence":1},{"trial_n":95,"span":3,"encoder":"267","distractor":"067","target":"present","response":"present","rt":"31223","correct":true,"confidence":1},{"trial_n":96,"span":3,"encoder":"986","distractor":"988","target":"absent","response":"present","rt":"964","correct":false,"confidence":1},{"trial_n":97,"span":2,"encoder":"31","distractor":"32","target":"absent","response":"absent","rt":"1108","correct":true,"confidence":3},{"trial_n":98,"span":2,"encoder":"78","distractor":"73","target":"present","response":"present","rt":"1375","correct":true,"confidence":5},{"trial_n":99,"span":3,"encoder":"131","distractor":"181","target":"absent","response":"absent","rt":"2148","correct":true,"confidence":5},{"trial_n":100,"span":3,"encoder":"666","distractor":"266","target":"absent","response":"present","rt":"2032","correct":false,"confidence":5},{"trial_n":101,"span":2,"encoder":"90","distractor":"50","target":"present","response":"present","rt":"1724","correct":true,"confidence":5},{"trial_n":102,"span":2,"encoder":"50","distractor":"53","target":"present","response":"present","rt":"801","correct":true,"confidence":5},{"trial_n":103,"span":3,"encoder":"037","distractor":"035","target":"absent","response":"absent","rt":"1152","correct":true,"confidence":5},{"trial_n":104,"span":3,"encoder":"896","distractor":"897","target":"absent","response":"absent","rt":"1282","correct":true,"confidence":5},{"trial_n":105,"span":4,"encoder":"0744","distractor":"7744","target":"present","response":"present","rt":"1458","correct":true,"confidence":5},{"trial_n":106,"span":4,"encoder":"0941","distractor":"0961","target":"present","response":"present","rt":"959","correct":true,"confidence":5},{"trial_n":107,"span":5,"encoder":"05446","distractor":"65446","target":"absent","response":"absent","rt":"1057","correct":true,"confidence":5},{"trial_n":108,"span":5,"encoder":"69580","distractor":"63580","target":"present","response":"present","rt":"1630","correct":true,"confidence":5},{"trial_n":109,"span":6,"encoder":"956159","distractor":"950159","target":"present","response":"present","rt":"1683","correct":true,"confidence":4},{"trial_n":110,"span":6,"encoder":"146615","distractor":"946615","target":"absent","response":"absent","rt":"2148","correct":true,"confidence":5},{"trial_n":111,"span":7,"encoder":"2047964","distractor":"2047974","target":"absent","response":"absent","rt":"2699","correct":true,"confidence":4},{"trial_n":112,"span":7,"encoder":"4411508","distractor":"4411558","target":"absent","response":"absent","rt":"2361","correct":true,"confidence":3},{"trial_n":113,"span":8,"encoder":"99216963","distractor":"99216763","target":"present","response":"present","rt":"2743","correct":true,"confidence":4},{"trial_n":114,"span":8,"encoder":"81860010","distractor":"81867010","target":"absent","response":"present","rt":"1690","correct":false,"confidence":1},{"trial_n":115,"span":7,"encoder":"2380443","distractor":"2080443","target":"absent","response":"present","rt":"2113","correct":false,"confidence":1},{"trial_n":116,"span":6,"encoder":"249305","distractor":"249805","target":"absent","response":"absent","rt":"2086","correct":true,"confidence":3},{"trial_n":117,"span":6,"encoder":"315059","distractor":"015059","target":"present","response":"present","rt":"2174","correct":true,"confidence":1},{"trial_n":118,"span":7,"encoder":"3420420","distractor":"3220420","target":"present","response":"present","rt":"1817","correct":true,"confidence":2},{"trial_n":119,"span":7,"encoder":"2961585","distractor":"2961581","target":"absent","response":"absent","rt":"3250","correct":true,"confidence":2},{"trial_n":120,"span":8,"encoder":"89638429","distractor":"89698429","target":"present","response":"absent","rt":"3181","correct":false,"confidence":2},{"trial_n":121,"span":7,"encoder":"8899764","distractor":"8899724","target":"absent","response":"absent","rt":"3478","correct":true,"confidence":4},{"trial_n":122,"span":7,"encoder":"2161421","distractor":"2161491","target":"present","response":"present","rt":"3148","correct":true,"confidence":4},{"trial_n":123,"span":8,"encoder":"86354847","distractor":"88354847","target":"absent","response":"absent","rt":"2476","correct":true,"confidence":3},{"trial_n":124,"span":8,"encoder":"31627711","distractor":"31627716","target":"present","response":"present","rt":"3192","correct":true,"confidence":4},{"trial_n":125,"span":9,"encoder":"300119832","distractor":"300189832","target":"absent","response":"absent","rt":"3347","correct":true,"confidence":3},{"trial_n":126,"span":9,"encoder":"532610372","distractor":"532610362","target":"absent","response":"absent","rt":"3201","correct":true,"confidence":2},{"trial_n":127,"span":10,"encoder":"9019369517","distractor":"9019369547","target":"absent","response":"absent","rt":"1412","correct":true,"confidence":2},{"trial_n":128,"span":10,"encoder":"3775257399","distractor":"3775457399","target":"absent","response":"present","rt":"8182","correct":false,"confidence":1},{"trial_n":129,"span":9,"encoder":"001916632","distractor":"000916632","target":"present","response":"present","rt":"7206","correct":true,"confidence":1},{"trial_n":130,"span":9,"encoder":"099954486","distractor":"099954426","target":"absent","response":"absent","rt":"2781","correct":true,"confidence":5},{"trial_n":131,"span":10,"encoder":"8654963238","distractor":"8659963238","target":"present","response":"absent","rt":"1416","correct":false,"confidence":1},{"trial_n":132,"span":9,"encoder":"457534102","distractor":"458534102","target":"absent","response":"absent","rt":"5397","correct":true,"confidence":1},{"trial_n":133,"span":9,"encoder":"479044963","distractor":"471044963","target":"present","response":"absent","rt":"2156","correct":false,"confidence":1},{"trial_n":134,"span":8,"encoder":"66080910","distractor":"60080910","target":"present","response":"present","rt":"4226","correct":true,"confidence":1},{"trial_n":135,"span":8,"encoder":"01728644","distractor":"01428644","target":"present","response":"present","rt":"3546","correct":true,"confidence":4},{"trial_n":136,"span":9,"encoder":"822862426","distractor":"522862426","target":"absent","response":"absent","rt":"3341","correct":true,"confidence":1},{"trial_n":137,"span":9,"encoder":"260427000","distractor":"280427000","target":"present","response":"absent","rt":"2665","correct":false,"confidence":1},{"trial_n":138,"span":8,"encoder":"94814926","distractor":"94414926","target":"present","response":"present","rt":"2035","correct":true,"confidence":1},{"trial_n":139,"span":8,"encoder":"36387531","distractor":"36387539","target":"absent","response":"absent","rt":"1576","correct":true,"confidence":4},{"trial_n":140,"span":9,"encoder":"348469585","distractor":"348499585","target":"present","response":"present","rt":"2944","correct":true,"confidence":2}]