[{"trial_n":1,"min":25,"max":230,"target":"present","response":"present","rt":8100,"correct":true,"confidence":-1},{"trial_n":2,"min":25,"max":230,"target":"present","response":"present","rt":1639,"correct":true,"confidence":-1},{"trial_n":3,"min":41,"max":214,"target":"absent","response":"absent","rt":930,"correct":true,"confidence":-1},{"trial_n":4,"min":41,"max":214,"target":"absent","response":"absent","rt":494,"correct":true,"confidence":-1},{"trial_n":5,"min":57,"max":198,"target":"present","response":"present","rt":295,"correct":true,"confidence":-1},{"trial_n":6,"min":57,"max":198,"target":"absent","response":"absent","rt":370,"correct":true,"confidence":-1},{"trial_n":7,"min":73,"max":182,"target":"present","response":"present","rt":268,"correct":true,"confidence":-1},{"trial_n":8,"min":73,"max":182,"target":"present","response":"present","rt":516,"correct":true,"confidence":-1},{"trial_n":9,"min":89,"max":166,"target":"present","response":"absent","rt":242,"correct":false,"confidence":-1},{"trial_n":10,"min":73,"max":182,"target":"present","response":"present","rt":390,"correct":true,"confidence":-1},{"trial_n":11,"min":73,"max":182,"target":"absent","response":"absent","rt":329,"correct":true,"confidence":-1},{"trial_n":12,"min":81,"max":174,"target":"present","response":"present","rt":311,"correct":true,"confidence":-1},{"trial_n":13,"min":81,"max":174,"target":"absent","response":"present","rt":372,"correct":false,"confidence":-1},{"trial_n":14,"min":73,"max":182,"target":"absent","response":"present","rt":431,"correct":false,"confidence":-1},{"trial_n":15,"min":65,"max":190,"target":"present","response":"present","rt":528,"correct":true,"confidence":-1},{"trial_n":16,"min":65,"max":190,"target":"absent","response":"absent","rt":724,"correct":true,"confidence":-1},{"trial_n":17,"min":73,"max":182,"target":"present","response":"present","rt":402,"correct":true,"confidence":-1},{"trial_n":18,"min":73,"max":182,"target":"present","response":"present","rt":436,"correct":true,"confidence":-1},{"trial_n":19,"min":81,"max":174,"target":"absent","response":"absent","rt":216,"correct":true,"confidence":-1},{"trial_n":20,"min":81,"max":174,"target":"present","response":"absent","rt":878,"correct":false,"confidence":-1},{"trial_n":21,"min":77,"max":178,"target":"present","response":"absent","rt":771,"correct":false,"confidence":3},{"trial_n":22,"min":73,"max":182,"target":"present","response":"present","rt":986,"correct":true,"confidence":3},{"trial_n":23,"min":73,"max":182,"target":"present","response":"present","rt":647,"correct":true,"confidence":4},{"trial_n":24,"min":77,"max":178,"target":"present","response":"present","rt":605.99999999999,"correct":true,"confidence":4},{"trial_n":25,"min":77,"max":178,"target":"present","response":"present","rt":535.00000000001,"correct":true,"confidence":4},{"trial_n":26,"min":81,"max":174,"target":"absent","response":"absent","rt":604.99999999999,"correct":true,"confidence":4},{"trial_n":27,"min":81,"max":174,"target":"present","response":"absent","rt":737,"correct":false,"confidence":3},{"trial_n":28,"min":77,"max":178,"target":"present","response":"present","rt":658,"correct":true,"confidence":5},{"trial_n":29,"min":77,"max":178,"target":"absent","response":"absent","rt":652,"correct":true,"confidence":3},{"trial_n":30,"min":81,"max":174,"target":"present","response":"absent","rt":1232,"correct":false,"confidence":3},{"trial_n":31,"min":79,"max":176,"target":"absent","response":"present","rt":1365,"correct":false,"confidence":2},{"trial_n":32,"min":77,"max":178,"target":"present","response":"present","rt":792,"correct":true,"confidence":3},{"trial_n":33,"min":77,"max":178,"target":"absent","response":"absent","rt":538,"correct":true,"confidence":4},{"trial_n":34,"min":79,"max":176,"target":"present","response":"present","rt":558,"correct":true,"confidence":4},{"trial_n":35,"min":79,"max":176,"target":"absent","response":"absent","rt":583,"correct":true,"confidence":4},{"trial_n":36,"min":81,"max":174,"target":"present","response":"absent","rt":512.99999999999,"correct":false,"confidence":4},{"trial_n":37,"min":79,"max":176,"target":"absent","response":"absent","rt":615,"correct":true,"confidence":4},{"trial_n":38,"min":79,"max":176,"target":"absent","response":"absent","rt":778,"correct":true,"confidence":4},{"trial_n":39,"min":81,"max":174,"target":"absent","response":"absent","rt":685,"correct":true,"confidence":4},{"trial_n":40,"min":81,"max":174,"target":"absent","response":"absent","rt":541.99999999997,"correct":true,"confidence":4},{"trial_n":41,"min":82,"max":173,"target":"absent","response":"absent","rt":552,"correct":true,"confidence":4},{"trial_n":42,"min":82,"max":173,"target":"present","response":"present","rt":707,"correct":true,"confidence":4},{"trial_n":43,"min":83,"max":172,"target":"present","response":"absent","rt":488,"correct":false,"confidence":4},{"trial_n":44,"min":82,"max":173,"target":"present","response":"present","rt":662,"correct":true,"confidence":5},{"trial_n":45,"min":82,"max":173,"target":"absent","response":"absent","rt":467,"correct":true,"confidence":4},{"trial_n":46,"min":83,"max":172,"target":"present","response":"present","rt":728,"correct":true,"confidence":5},{"trial_n":47,"min":83,"max":172,"target":"absent","response":"absent","rt":798,"correct":true,"confidence":4},{"trial_n":48,"min":84,"max":171,"target":"absent","response":"absent","rt":721,"correct":true,"confidence":4},{"trial_n":49,"min":84,"max":171,"target":"absent","response":"absent","rt":663,"correct":true,"confidence":4},{"trial_n":50,"min":85,"max":170,"target":"absent","response":"present","rt":729,"correct":false,"confidence":4},{"trial_n":51,"min":84,"max":171,"target":"present","response":"absent","rt":1044,"correct":false,"confidence":4},{"trial_n":52,"min":83,"max":172,"target":"absent","response":"absent","rt":470.99999999997,"correct":true,"confidence":4},{"trial_n":53,"min":83,"max":172,"target":"absent","response":"absent","rt":409.99999999997,"correct":true,"confidence":4},{"trial_n":54,"min":84,"max":171,"target":"present","response":"absent","rt":500,"correct":false,"confidence":4},{"trial_n":55,"min":83,"max":172,"target":"absent","response":"absent","rt":487,"correct":true,"confidence":4},{"trial_n":56,"min":83,"max":172,"target":"present","response":"absent","rt":589,"correct":false,"confidence":4},{"trial_n":57,"min":82,"max":173,"target":"absent","response":"absent","rt":570,"correct":true,"confidence":4},{"trial_n":58,"min":82,"max":173,"target":"absent","response":"absent","rt":2278,"correct":true,"confidence":4},{"trial_n":59,"min":83,"max":172,"target":"absent","response":"absent","rt":475.00000000003,"correct":true,"confidence":4},{"trial_n":60,"min":83,"max":172,"target":"present","response":"present","rt":633,"correct":true,"confidence":5},{"trial_n":61,"min":84,"max":171,"target":"absent","response":"absent","rt":634,"correct":true,"confidence":4},{"trial_n":62,"min":84,"max":171,"target":"present","response":"present","rt":757,"correct":true,"confidence":4},{"trial_n":63,"min":85,"max":170,"target":"absent","response":"absent","rt":640,"correct":true,"confidence":4},{"trial_n":64,"min":85,"max":170,"target":"absent","response":"absent","rt":767,"correct":true,"confidence":4},{"trial_n":65,"min":86,"max":169,"target":"absent","response":"absent","rt":783.99999999997,"correct":true,"confidence":4},{"trial_n":66,"min":86,"max":169,"target":"present","response":"present","rt":873,"correct":true,"confidence":5},{"trial_n":67,"min":87,"max":168,"target":"absent","response":"absent","rt":654.00000000003,"correct":true,"confidence":4},{"trial_n":68,"min":87,"max":168,"target":"present","response":"present","rt":698,"correct":true,"confidence":4},{"trial_n":69,"min":88,"max":167,"target":"present","response":"absent","rt":513.00000000003,"correct":false,"confidence":4},{"trial_n":70,"min":87,"max":168,"target":"present","response":"present","rt":593.99999999997,"correct":true,"confidence":5},{"trial_n":71,"min":41,"max":214,"target":"present","response":"present","rt":8186,"correct":true,"confidence":-1},{"trial_n":72,"min":41,"max":214,"target":"present","response":"absent","rt":1825,"correct":false,"confidence":-1},{"trial_n":73,"min":25,"max":230,"target":"absent","response":"present","rt":2149,"correct":false,"confidence":-1},{"trial_n":74,"min":9,"max":246,"target":"absent","response":"absent","rt":1489,"correct":true,"confidence":-1},{"trial_n":75,"min":9,"max":246,"target":"present","response":"present","rt":845,"correct":true,"confidence":-1},{"trial_n":76,"min":25,"max":230,"target":"present","response":"present","rt":784,"correct":true,"confidence":-1},{"trial_n":77,"min":25,"max":230,"target":"present","response":"absent","rt":1554,"correct":false,"confidence":-1},{"trial_n":78,"min":9,"max":246,"target":"present","response":"present","rt":897.00000000006,"correct":true,"confidence":-1},{"trial_n":79,"min":9,"max":246,"target":"present","response":"present","rt":495,"correct":true,"confidence":-1},{"trial_n":80,"min":25,"max":230,"target":"absent","response":"absent","rt":593,"correct":true,"confidence":-1},{"trial_n":81,"min":25,"max":230,"target":"absent","response":"absent","rt":391,"correct":true,"confidence":-1},{"trial_n":82,"min":33,"max":222,"target":"present","response":"present","rt":465.99999999994,"correct":true,"confidence":-1},{"trial_n":83,"min":33,"max":222,"target":"absent","response":"present","rt":330,"correct":false,"confidence":-1},{"trial_n":84,"min":25,"max":230,"target":"present","response":"present","rt":363,"correct":true,"confidence":-1},{"trial_n":85,"min":25,"max":230,"target":"present","response":"present","rt":301,"correct":true,"confidence":-1},{"trial_n":86,"min":33,"max":222,"target":"present","response":"present","rt":267,"correct":true,"confidence":-1},{"trial_n":87,"min":33,"max":222,"target":"present","response":"present","rt":303,"correct":true,"confidence":-1},{"trial_n":88,"min":41,"max":214,"target":"absent","response":"absent","rt":419.99999999994,"correct":true,"confidence":-1},{"trial_n":89,"min":41,"max":214,"target":"absent","response":"absent","rt":280.99999999994,"correct":true,"confidence":-1},{"trial_n":90,"min":49,"max":206,"target":"present","response":"present","rt":331,"correct":true,"confidence":-1},{"trial_n":91,"min":49,"max":206,"target":"present","response":"present","rt":2251,"correct":true,"confidence":3},{"trial_n":92,"min":53,"max":202,"target":"present","response":"present","rt":406,"correct":true,"confidence":5},{"trial_n":93,"min":53,"max":202,"target":"absent","response":"present","rt":1956,"correct":false,"confidence":1},{"trial_n":94,"min":49,"max":206,"target":"absent","response":"absent","rt":626,"correct":true,"confidence":5},{"trial_n":95,"min":49,"max":206,"target":"absent","response":"absent","rt":560,"correct":true,"confidence":5},{"trial_n":96,"min":53,"max":202,"target":"present","response":"present","rt":284,"correct":true,"confidence":5},{"trial_n":97,"min":53,"max":202,"target":"absent","response":"absent","rt":437,"correct":true,"confidence":5},{"trial_n":98,"min":57,"max":198,"target":"absent","response":"absent","rt":666,"correct":true,"confidence":4},{"trial_n":99,"min":57,"max":198,"target":"present","response":"present","rt":343,"correct":true,"confidence":5},{"trial_n":100,"min":61,"max":194,"target":"absent","response":"absent","rt":552,"correct":true,"confidence":4},{"trial_n":101,"min":61,"max":194,"target":"present","response":"present","rt":379,"correct":true,"confidence":4},{"trial_n":102,"min":63,"max":192,"target":"present","response":"present","rt":316,"correct":true,"confidence":5},{"trial_n":103,"min":63,"max":192,"target":"absent","response":"absent","rt":277,"correct":true,"confidence":5},{"trial_n":104,"min":65,"max":190,"target":"present","response":"present","rt":202,"correct":true,"confidence":5},{"trial_n":105,"min":65,"max":190,"target":"absent","response":"absent","rt":450,"correct":true,"confidence":5},{"trial_n":106,"min":67,"max":188,"target":"absent","response":"absent","rt":587,"correct":true,"confidence":5},{"trial_n":107,"min":67,"max":188,"target":"present","response":"present","rt":1077,"correct":true,"confidence":4},{"trial_n":108,"min":69,"max":186,"target":"absent","response":"absent","rt":458,"correct":true,"confidence":5},{"trial_n":109,"min":69,"max":186,"target":"absent","response":"absent","rt":532,"correct":true,"confidence":5},{"trial_n":110,"min":71,"max":184,"target":"absent","response":"absent","rt":1100,"correct":true,"confidence":3},{"trial_n":111,"min":71,"max":184,"target":"present","response":"present","rt":334.99999999994,"correct":true,"confidence":4},{"trial_n":112,"min":72,"max":183,"target":"present","response":"present","rt":1174,"correct":true,"confidence":2},{"trial_n":113,"min":72,"max":183,"target":"absent","response":"absent","rt":798.00000000006,"correct":true,"confidence":4},{"trial_n":114,"min":73,"max":182,"target":"present","response":"present","rt":568,"correct":true,"confidence":4},{"trial_n":115,"min":73,"max":182,"target":"present","response":"present","rt":191,"correct":true,"confidence":4},{"trial_n":116,"min":74,"max":181,"target":"present","response":"present","rt":699,"correct":true,"confidence":4},{"trial_n":117,"min":74,"max":181,"target":"present","response":"present","rt":634.99999999994,"correct":true,"confidence":4},{"trial_n":118,"min":75,"max":180,"target":"present","response":"present","rt":545,"correct":true,"confidence":4},{"trial_n":119,"min":75,"max":180,"target":"absent","response":"absent","rt":1140,"correct":true,"confidence":4},{"trial_n":120,"min":76,"max":179,"target":"absent","response":"absent","rt":594,"correct":true,"confidence":4},{"trial_n":121,"min":76,"max":179,"target":"present","response":"present","rt":943.99999999994,"correct":true,"confidence":4},{"trial_n":122,"min":77,"max":178,"target":"absent","response":"present","rt":1033.0000000001,"correct":false,"confidence":2},{"trial_n":123,"min":76,"max":179,"target":"present","response":"absent","rt":955,"correct":false,"confidence":2},{"trial_n":124,"min":75,"max":180,"target":"absent","response":"absent","rt":443,"correct":true,"confidence":5},{"trial_n":125,"min":75,"max":180,"target":"present","response":"absent","rt":851,"correct":false,"confidence":3},{"trial_n":126,"min":74,"max":181,"target":"absent","response":"absent","rt":725.00000000006,"correct":true,"confidence":4},{"trial_n":127,"min":74,"max":181,"target":"absent","response":"absent","rt":889,"correct":true,"confidence":4},{"trial_n":128,"min":75,"max":180,"target":"absent","response":"absent","rt":287.00000000006,"correct":true,"confidence":5},{"trial_n":129,"min":75,"max":180,"target":"absent","response":"absent","rt":422.00000000006,"correct":true,"confidence":5},{"trial_n":130,"min":76,"max":179,"target":"present","response":"present","rt":1029,"correct":true,"confidence":3},{"trial_n":131,"min":76,"max":179,"target":"absent","response":"absent","rt":419,"correct":true,"confidence":4},{"trial_n":132,"min":77,"max":178,"target":"absent","response":"absent","rt":903,"correct":true,"confidence":4},{"trial_n":133,"min":77,"max":178,"target":"absent","response":"absent","rt":746,"correct":true,"confidence":4},{"trial_n":134,"min":78,"max":177,"target":"absent","response":"present","rt":669.00000000006,"correct":false,"confidence":3},{"trial_n":135,"min":77,"max":178,"target":"absent","response":"absent","rt":1142,"correct":true,"confidence":4},{"trial_n":136,"min":77,"max":178,"target":"present","response":"present","rt":888,"correct":true,"confidence":4},{"trial_n":137,"min":78,"max":177,"target":"present","response":"absent","rt":265,"correct":false,"confidence":2},{"trial_n":138,"min":77,"max":178,"target":"absent","response":"absent","rt":704,"correct":true,"confidence":4},{"trial_n":139,"min":77,"max":178,"target":"present","response":"absent","rt":2141,"correct":false,"confidence":1},{"trial_n":140,"min":76,"max":179,"target":"present","response":"absent","rt":1723.0000000001,"correct":false,"confidence":4}]