[{"trial_n":1,"span":8,"encoder":"24043923","distractor":"24073923","target":"present","response":"present","rt":"4793","correct":true,"confidence":-1},{"trial_n":2,"span":8,"encoder":"41758862","distractor":"41758362","target":"present","response":"present","rt":"1958","correct":true,"confidence":-1},{"trial_n":3,"span":10,"encoder":"7056642597","distractor":"7066642597","target":"absent","response":"present","rt":"1792","correct":false,"confidence":-1},{"trial_n":4,"span":8,"encoder":"42643478","distractor":"42643448","target":"absent","response":"absent","rt":"1540","correct":true,"confidence":-1},{"trial_n":5,"span":8,"encoder":"67724422","distractor":"67724428","target":"present","response":"present","rt":"2091","correct":true,"confidence":-1},{"trial_n":6,"span":10,"encoder":"3980502937","distractor":"3980002937","target":"absent","response":"present","rt":"2857","correct":false,"confidence":-1},{"trial_n":7,"span":8,"encoder":"01824148","distractor":"06824148","target":"present","response":"present","rt":"1044","correct":true,"confidence":-1},{"trial_n":8,"span":8,"encoder":"83798173","distractor":"83768173","target":"absent","response":"present","rt":"1167","correct":false,"confidence":-1},{"trial_n":9,"span":6,"encoder":"338413","distractor":"333413","target":"absent","response":"present","rt":"1428","correct":false,"confidence":-1},{"trial_n":10,"span":4,"encoder":"6329","distractor":"6359","target":"present","response":"present","rt":"1234","correct":true,"confidence":-1},{"trial_n":11,"span":4,"encoder":"1438","distractor":"1138","target":"present","response":"present","rt":"916","correct":true,"confidence":-1},{"trial_n":12,"span":5,"encoder":"03035","distractor":"08035","target":"absent","response":"present","rt":"933.00000000001","correct":false,"confidence":-1},{"trial_n":13,"span":4,"encoder":"9910","distractor":"9990","target":"absent","response":"absent","rt":"1146","correct":true,"confidence":-1},{"trial_n":14,"span":4,"encoder":"2952","distractor":"2951","target":"present","response":"present","rt":"856.00000000001","correct":true,"confidence":-1},{"trial_n":15,"span":5,"encoder":"59931","distractor":"89931","target":"present","response":"absent","rt":"1206","correct":false,"confidence":-1},{"trial_n":16,"span":4,"encoder":"8798","distractor":"8718","target":"present","response":"present","rt":"1298","correct":true,"confidence":-1},{"trial_n":17,"span":4,"encoder":"5138","distractor":"4138","target":"present","response":"present","rt":"952.99999999999","correct":true,"confidence":-1},{"trial_n":18,"span":5,"encoder":"26195","distractor":"28195","target":"present","response":"present","rt":"1261","correct":true,"confidence":-1},{"trial_n":19,"span":5,"encoder":"10914","distractor":"10414","target":"absent","response":"absent","rt":"1284","correct":true,"confidence":-1},{"trial_n":20,"span":6,"encoder":"369886","distractor":"364886","target":"absent","response":"present","rt":"1386","correct":false,"confidence":-1},{"trial_n":21,"span":5,"encoder":"27467","distractor":"27767","target":"present","response":"present","rt":"1947","correct":true,"confidence":3},{"trial_n":22,"span":5,"encoder":"93647","distractor":"99647","target":"present","response":"present","rt":"1032","correct":true,"confidence":4},{"trial_n":23,"span":6,"encoder":"587569","distractor":"187569","target":"present","response":"present","rt":"1826","correct":true,"confidence":3},{"trial_n":24,"span":6,"encoder":"505027","distractor":"505020","target":"present","response":"present","rt":"1382","correct":true,"confidence":5},{"trial_n":25,"span":7,"encoder":"0334432","distractor":"6334432","target":"absent","response":"absent","rt":"2184","correct":true,"confidence":4},{"trial_n":26,"span":7,"encoder":"7271463","distractor":"7271464","target":"present","response":"present","rt":"1818","correct":true,"confidence":4},{"trial_n":27,"span":8,"encoder":"83218748","distractor":"73218748","target":"absent","response":"absent","rt":"3085","correct":true,"confidence":4},{"trial_n":28,"span":8,"encoder":"59069763","distractor":"59039763","target":"present","response":"present","rt":"1902","correct":true,"confidence":4},{"trial_n":29,"span":9,"encoder":"377344337","distractor":"377340337","target":"absent","response":"absent","rt":"2088","correct":true,"confidence":4},{"trial_n":30,"span":9,"encoder":"888368129","distractor":"888318129","target":"present","response":"present","rt":"2085","correct":true,"confidence":4},{"trial_n":31,"span":10,"encoder":"3154929624","distractor":"3154329624","target":"absent","response":"absent","rt":"2465","correct":true,"confidence":4},{"trial_n":32,"span":10,"encoder":"8553097901","distractor":"8553097501","target":"absent","response":"present","rt":"1523","correct":false,"confidence":4},{"trial_n":33,"span":9,"encoder":"715574907","distractor":"712574907","target":"absent","response":"present","rt":"1614","correct":false,"confidence":4},{"trial_n":34,"span":8,"encoder":"16154944","distractor":"06154944","target":"absent","response":"present","rt":"1725","correct":false,"confidence":5},{"trial_n":35,"span":7,"encoder":"2462524","distractor":"2462525","target":"present","response":"present","rt":"1884","correct":true,"confidence":4},{"trial_n":36,"span":7,"encoder":"4482364","distractor":"4482314","target":"present","response":"present","rt":"3159","correct":true,"confidence":3},{"trial_n":37,"span":8,"encoder":"89433527","distractor":"89433521","target":"absent","response":"present","rt":"795.00000000003","correct":false,"confidence":4},{"trial_n":38,"span":7,"encoder":"3071901","distractor":"3071501","target":"absent","response":"absent","rt":"1388","correct":true,"confidence":4},{"trial_n":39,"span":7,"encoder":"0478673","distractor":"0778673","target":"present","response":"present","rt":"1200","correct":true,"confidence":4},{"trial_n":40,"span":8,"encoder":"84675017","distractor":"84675097","target":"absent","response":"present","rt":"1278","correct":false,"confidence":4},{"trial_n":41,"span":7,"encoder":"7412456","distractor":"7411456","target":"present","response":"present","rt":"4215","correct":true,"confidence":3},{"trial_n":42,"span":7,"encoder":"5861710","distractor":"5261710","target":"absent","response":"absent","rt":"2049.0000000001","correct":true,"confidence":4},{"trial_n":43,"span":8,"encoder":"58007494","distractor":"58007414","target":"present","response":"present","rt":"3648","correct":true,"confidence":4},{"trial_n":44,"span":8,"encoder":"11869579","distractor":"91869579","target":"absent","response":"absent","rt":"1719.9999999999","correct":true,"confidence":5},{"trial_n":45,"span":9,"encoder":"394610194","distractor":"394615194","target":"absent","response":"absent","rt":"1980","correct":true,"confidence":5},{"trial_n":46,"span":9,"encoder":"615066420","distractor":"614066420","target":"present","response":"present","rt":"3248","correct":true,"confidence":4},{"trial_n":47,"span":10,"encoder":"9569128008","distractor":"9569108008","target":"present","response":"present","rt":"1814","correct":true,"confidence":4},{"trial_n":48,"span":10,"encoder":"1353766331","distractor":"1353763331","target":"present","response":"present","rt":"1729.0000000001","correct":true,"confidence":4},{"trial_n":49,"span":11,"encoder":"96374139905","distractor":"96374109905","target":"present","response":"present","rt":"2514","correct":true,"confidence":4},{"trial_n":50,"span":11,"encoder":"41769916598","distractor":"41768916598","target":"present","response":"absent","rt":"2031.9999999999","correct":false,"confidence":4},{"trial_n":51,"span":10,"encoder":"8503230353","distractor":"8903230353","target":"absent","response":"present","rt":"1237","correct":false,"confidence":4},{"trial_n":52,"span":9,"encoder":"096782218","distractor":"096782215","target":"present","response":"present","rt":"1485","correct":true,"confidence":4},{"trial_n":53,"span":9,"encoder":"051713290","distractor":"051713250","target":"present","response":"present","rt":"1542","correct":true,"confidence":4},{"trial_n":54,"span":10,"encoder":"9604364156","distractor":"9604364166","target":"present","response":"present","rt":"2115","correct":true,"confidence":4},{"trial_n":55,"span":10,"encoder":"1972407875","distractor":"1975407875","target":"absent","response":"present","rt":"5346","correct":false,"confidence":4},{"trial_n":56,"span":9,"encoder":"230319976","distractor":"230318976","target":"absent","response":"absent","rt":"2316","correct":true,"confidence":4},{"trial_n":57,"span":9,"encoder":"309761671","distractor":"309721671","target":"absent","response":"present","rt":"1874","correct":false,"confidence":4},{"trial_n":58,"span":8,"encoder":"95745366","distractor":"95745368","target":"absent","response":"absent","rt":"2184.0000000001","correct":true,"confidence":4},{"trial_n":59,"span":8,"encoder":"38937034","distractor":"38997034","target":"present","response":"absent","rt":"1462","correct":false,"confidence":4},{"trial_n":60,"span":7,"encoder":"8233325","distractor":"8233324","target":"absent","response":"absent","rt":"1958","correct":true,"confidence":4},{"trial_n":61,"span":7,"encoder":"7679293","distractor":"7679273","target":"present","response":"present","rt":"1570","correct":true,"confidence":4},{"trial_n":62,"span":8,"encoder":"52112986","distractor":"52012986","target":"present","response":"present","rt":"1535","correct":true,"confidence":4},{"trial_n":63,"span":8,"encoder":"96243979","distractor":"96203979","target":"present","response":"present","rt":"2173.9999999999","correct":true,"confidence":4},{"trial_n":64,"span":9,"encoder":"848649491","distractor":"848649471","target":"absent","response":"absent","rt":"4159","correct":true,"confidence":4},{"trial_n":65,"span":9,"encoder":"258985550","distractor":"254985550","target":"absent","response":"present","rt":"2138","correct":false,"confidence":4},{"trial_n":66,"span":8,"encoder":"90192953","distractor":"90292953","target":"absent","response":"present","rt":"2651.0000000001","correct":false,"confidence":4},{"trial_n":67,"span":7,"encoder":"0107259","distractor":"7107259","target":"present","response":"present","rt":"1841","correct":true,"confidence":4},{"trial_n":68,"span":7,"encoder":"3145433","distractor":"3145431","target":"absent","response":"absent","rt":"1531.0000000001","correct":true,"confidence":5},{"trial_n":69,"span":8,"encoder":"89360162","distractor":"89460162","target":"absent","response":"present","rt":"1422","correct":false,"confidence":4},{"trial_n":70,"span":7,"encoder":"7397323","distractor":"2397323","target":"absent","response":"present","rt":"2535","correct":false,"confidence":4},{"trial_n":71,"span":8,"encoder":"60395122","distractor":"68395122","target":"present","response":"present","rt":"5689.0000000001","correct":true,"confidence":-1},{"trial_n":72,"span":8,"encoder":"55267351","distractor":"55260351","target":"present","response":"present","rt":"5116","correct":true,"confidence":-1},{"trial_n":73,"span":9,"encoder":"265185051","distractor":"255185051","target":"absent","response":"absent","rt":"4045","correct":true,"confidence":-1},{"trial_n":74,"span":9,"encoder":"334979381","distractor":"334949381","target":"absent","response":"absent","rt":"6683","correct":true,"confidence":-1},{"trial_n":75,"span":10,"encoder":"2181046506","distractor":"2181246506","target":"present","response":"absent","rt":"5058","correct":false,"confidence":-1},{"trial_n":76,"span":9,"encoder":"796529430","distractor":"796829430","target":"present","response":"present","rt":"8250","correct":true,"confidence":-1},{"trial_n":77,"span":9,"encoder":"058237679","distractor":"056237679","target":"absent","response":"present","rt":"2265.0000000001","correct":false,"confidence":-1},{"trial_n":78,"span":8,"encoder":"89980263","distractor":"89985263","target":"present","response":"present","rt":"3738","correct":true,"confidence":-1},{"trial_n":79,"span":8,"encoder":"70582861","distractor":"70582851","target":"present","response":"absent","rt":"3251","correct":false,"confidence":-1},{"trial_n":80,"span":7,"encoder":"8824907","distractor":"7824907","target":"absent","response":"present","rt":"2840","correct":false,"confidence":-1},{"trial_n":81,"span":6,"encoder":"446781","distractor":"426781","target":"absent","response":"absent","rt":"2126","correct":true,"confidence":-1},{"trial_n":82,"span":6,"encoder":"455420","distractor":"455424","target":"absent","response":"absent","rt":"2173","correct":true,"confidence":-1},{"trial_n":83,"span":7,"encoder":"8296807","distractor":"8296307","target":"absent","response":"absent","rt":"3847","correct":true,"confidence":-1},{"trial_n":84,"span":7,"encoder":"3940429","distractor":"3940479","target":"present","response":"present","rt":"2731","correct":true,"confidence":-1},{"trial_n":85,"span":8,"encoder":"07608736","distractor":"07808736","target":"absent","response":"present","rt":"4057","correct":false,"confidence":-1},{"trial_n":86,"span":7,"encoder":"9839199","distractor":"9832199","target":"present","response":"present","rt":"7587","correct":true,"confidence":-1},{"trial_n":87,"span":7,"encoder":"5324978","distractor":"5124978","target":"present","response":"absent","rt":"4088.9999999999","correct":false,"confidence":-1},{"trial_n":88,"span":6,"encoder":"637694","distractor":"637194","target":"present","response":"present","rt":"2590","correct":true,"confidence":-1},{"trial_n":89,"span":6,"encoder":"484272","distractor":"489272","target":"present","response":"present","rt":"2660","correct":true,"confidence":-1},{"trial_n":90,"span":7,"encoder":"0109755","distractor":"0179755","target":"absent","response":"absent","rt":"3372","correct":true,"confidence":-1},{"trial_n":91,"span":7,"encoder":"8524763","distractor":"8524766","target":"present","response":"present","rt":"1718.9999999999","correct":true,"confidence":5},{"trial_n":92,"span":8,"encoder":"55884293","distractor":"45884293","target":"present","response":"present","rt":"2378","correct":true,"confidence":4},{"trial_n":93,"span":8,"encoder":"09959579","distractor":"19959579","target":"absent","response":"absent","rt":"1707","correct":true,"confidence":5},{"trial_n":94,"span":9,"encoder":"114631773","distractor":"174631773","target":"absent","response":"absent","rt":"2114","correct":true,"confidence":4},{"trial_n":95,"span":9,"encoder":"630699073","distractor":"630699033","target":"absent","response":"absent","rt":"3006","correct":true,"confidence":4},{"trial_n":96,"span":10,"encoder":"7974373633","distractor":"7974073633","target":"present","response":"present","rt":"2048","correct":true,"confidence":5},{"trial_n":97,"span":10,"encoder":"7901253363","distractor":"7901253360","target":"absent","response":"absent","rt":"1394.9999999999","correct":true,"confidence":5},{"trial_n":98,"span":11,"encoder":"38032507881","distractor":"38032505881","target":"present","response":"present","rt":"2389.9999999999","correct":true,"confidence":4},{"trial_n":99,"span":11,"encoder":"43263193397","distractor":"43261193397","target":"absent","response":"absent","rt":"2848","correct":true,"confidence":4},{"trial_n":100,"span":12,"encoder":"293625965837","distractor":"296625965837","target":"present","response":"present","rt":"6472.9999999999","correct":true,"confidence":3},{"trial_n":101,"span":12,"encoder":"146618507198","distractor":"146619507198","target":"absent","response":"present","rt":"5391","correct":false,"confidence":4},{"trial_n":102,"span":11,"encoder":"90352815008","distractor":"90352855008","target":"absent","response":"absent","rt":"3395.9999999999","correct":true,"confidence":4},{"trial_n":103,"span":11,"encoder":"73191037118","distractor":"93191037118","target":"present","response":"present","rt":"3979.0000000001","correct":true,"confidence":4},{"trial_n":104,"span":12,"encoder":"911774725824","distractor":"911754725824","target":"absent","response":"absent","rt":"1683","correct":true,"confidence":4},{"trial_n":105,"span":12,"encoder":"986608515058","distractor":"966608515058","target":"absent","response":"absent","rt":"7743","correct":true,"confidence":4},{"trial_n":106,"span":13,"encoder":"8936489668682","distractor":"2936489668682","target":"present","response":"present","rt":"7548","correct":true,"confidence":4},{"trial_n":107,"span":13,"encoder":"8294327961433","distractor":"8294327968433","target":"absent","response":"absent","rt":"5566","correct":true,"confidence":1},{"trial_n":108,"span":14,"encoder":"08081632766847","distractor":"08081642766847","target":"absent","response":"absent","rt":"6399","correct":true,"confidence":4},{"trial_n":109,"span":14,"encoder":"09440529998443","distractor":"09400529998443","target":"present","response":"present","rt":"3936.9999999998","correct":true,"confidence":4},{"trial_n":110,"span":15,"encoder":"191768730772120","distractor":"191768730772820","target":"absent","response":"absent","rt":"2618","correct":true,"confidence":4},{"trial_n":111,"span":15,"encoder":"941408522860397","distractor":"941408512860397","target":"present","response":"absent","rt":"2198","correct":false,"confidence":4},{"trial_n":112,"span":14,"encoder":"13329456407076","distractor":"11329456407076","target":"absent","response":"present","rt":"2451","correct":false,"confidence":4},{"trial_n":113,"span":13,"encoder":"6374995986003","distractor":"6374295986003","target":"present","response":"present","rt":"4353","correct":true,"confidence":4},{"trial_n":114,"span":13,"encoder":"9131785453225","distractor":"9131785553225","target":"absent","response":"absent","rt":"4393","correct":true,"confidence":1},{"trial_n":115,"span":14,"encoder":"20772090508266","distractor":"20772090808266","target":"present","response":"present","rt":"7501","correct":true,"confidence":4},{"trial_n":116,"span":14,"encoder":"70117920469020","distractor":"70117020469020","target":"present","response":"present","rt":"6167","correct":true,"confidence":4},{"trial_n":117,"span":15,"encoder":"311779580250768","distractor":"311779585250768","target":"absent","response":"absent","rt":"6538","correct":true,"confidence":3},{"trial_n":118,"span":15,"encoder":"173630442152398","distractor":"173630442142398","target":"present","response":"absent","rt":"7619","correct":false,"confidence":4},{"trial_n":119,"span":14,"encoder":"57521633411169","distractor":"57521633412169","target":"present","response":"absent","rt":"2147","correct":false,"confidence":4},{"trial_n":120,"span":13,"encoder":"6362962084542","distractor":"7362962084542","target":"present","response":"absent","rt":"2329","correct":false,"confidence":4},{"trial_n":121,"span":12,"encoder":"962162146426","distractor":"962112146426","target":"present","response":"present","rt":"5402","correct":true,"confidence":5},{"trial_n":122,"span":12,"encoder":"773747339400","distractor":"773747329400","target":"absent","response":"present","rt":"1482","correct":false,"confidence":4},{"trial_n":123,"span":11,"encoder":"25994702859","distractor":"26994702859","target":"absent","response":"absent","rt":"1413","correct":true,"confidence":4},{"trial_n":124,"span":11,"encoder":"16350772676","distractor":"16357772676","target":"absent","response":"absent","rt":"2989","correct":true,"confidence":4},{"trial_n":125,"span":12,"encoder":"493556711960","distractor":"433556711960","target":"absent","response":"absent","rt":"3889.9999999998","correct":true,"confidence":4},{"trial_n":126,"span":12,"encoder":"800327487705","distractor":"900327487705","target":"present","response":"present","rt":"4416","correct":true,"confidence":4},{"trial_n":127,"span":13,"encoder":"8195655876492","distractor":"8195655879492","target":"absent","response":"present","rt":"11837","correct":false,"confidence":4},{"trial_n":128,"span":12,"encoder":"772358904833","distractor":"774358904833","target":"present","response":"absent","rt":"5939","correct":false,"confidence":4},{"trial_n":129,"span":11,"encoder":"28327082276","distractor":"28327082279","target":"present","response":"absent","rt":"2959","correct":false,"confidence":4},{"trial_n":130,"span":10,"encoder":"7784240452","distractor":"7784240652","target":"absent","response":"present","rt":"1393","correct":false,"confidence":4},{"trial_n":131,"span":9,"encoder":"624046901","distractor":"624346901","target":"present","response":"absent","rt":"1784","correct":false,"confidence":4},{"trial_n":132,"span":8,"encoder":"34568375","distractor":"34568305","target":"present","response":"absent","rt":"1098","correct":false,"confidence":4},{"trial_n":133,"span":7,"encoder":"8221977","distractor":"8225977","target":"absent","response":"absent","rt":"2025","correct":true,"confidence":4},{"trial_n":134,"span":7,"encoder":"0993951","distractor":"6993951","target":"absent","response":"present","rt":"3219","correct":false,"confidence":4},{"trial_n":135,"span":6,"encoder":"774023","distractor":"774013","target":"absent","response":"present","rt":"2422","correct":false,"confidence":4},{"trial_n":136,"span":5,"encoder":"44862","distractor":"47862","target":"present","response":"present","rt":"3394","correct":true,"confidence":4},{"trial_n":137,"span":5,"encoder":"52009","distractor":"53009","target":"present","response":"absent","rt":"2189","correct":false,"confidence":4},{"trial_n":138,"span":4,"encoder":"7717","distractor":"7517","target":"absent","response":"present","rt":"1754","correct":false,"confidence":4},{"trial_n":139,"span":3,"encoder":"052","distractor":"252","target":"present","response":"present","rt":"2017","correct":true,"confidence":4},{"trial_n":140,"span":3,"encoder":"791","distractor":"991","target":"present","response":"present","rt":"1677","correct":true,"confidence":5}]