[{"trial_n":1,"span":8,"encoder":"22043625","distractor":"22643625","target":"present","response":"absent","rt":"5261.599999994","correct":false,"confidence":-1},{"trial_n":2,"span":6,"encoder":"104477","distractor":"104471","target":"present","response":"present","rt":"3413.3000000119","correct":true,"confidence":-1},{"trial_n":3,"span":6,"encoder":"593802","distractor":"593882","target":"absent","response":"absent","rt":"1642","correct":true,"confidence":-1},{"trial_n":4,"span":8,"encoder":"39579953","distractor":"99579953","target":"absent","response":"present","rt":"1991.2999999821","correct":false,"confidence":-1},{"trial_n":5,"span":6,"encoder":"208008","distractor":"268008","target":"present","response":"present","rt":"1156.099999994","correct":true,"confidence":-1},{"trial_n":6,"span":6,"encoder":"869681","distractor":"869781","target":"absent","response":"absent","rt":"1645.099999994","correct":true,"confidence":-1},{"trial_n":7,"span":8,"encoder":"07850527","distractor":"07850227","target":"present","response":"present","rt":"1101.599999994","correct":true,"confidence":-1},{"trial_n":8,"span":8,"encoder":"46225508","distractor":"46225568","target":"present","response":"present","rt":"1304.6000000238","correct":true,"confidence":-1},{"trial_n":9,"span":10,"encoder":"0786281792","distractor":"0786281492","target":"absent","response":"present","rt":"938.90000000596","correct":false,"confidence":-1},{"trial_n":10,"span":8,"encoder":"78193933","distractor":"78193333","target":"absent","response":"absent","rt":"1558.6999999881","correct":true,"confidence":-1},{"trial_n":11,"span":8,"encoder":"68041292","distractor":"68741292","target":"absent","response":"absent","rt":"1562.8999999762","correct":true,"confidence":-1},{"trial_n":12,"span":9,"encoder":"619910115","distractor":"619910715","target":"present","response":"present","rt":"3127.8999999762","correct":true,"confidence":-1},{"trial_n":13,"span":9,"encoder":"886181490","distractor":"882181490","target":"absent","response":"absent","rt":"1046.6999999881","correct":true,"confidence":-1},{"trial_n":14,"span":10,"encoder":"7397434855","distractor":"7397434835","target":"present","response":"absent","rt":"1657.8000000119","correct":false,"confidence":-1},{"trial_n":15,"span":9,"encoder":"031443760","distractor":"031443763","target":"absent","response":"present","rt":"2995.599999994","correct":false,"confidence":-1},{"trial_n":16,"span":8,"encoder":"30948081","distractor":"30948087","target":"absent","response":"absent","rt":"1237.900000006","correct":true,"confidence":-1},{"trial_n":17,"span":8,"encoder":"87721264","distractor":"97721264","target":"absent","response":"absent","rt":"1045","correct":true,"confidence":-1},{"trial_n":18,"span":9,"encoder":"301658939","distractor":"331658939","target":"absent","response":"present","rt":"162.10000002384","correct":false,"confidence":-1},{"trial_n":19,"span":8,"encoder":"81601787","distractor":"81401787","target":"absent","response":"absent","rt":"1172.1999999881","correct":true,"confidence":-1},{"trial_n":20,"span":8,"encoder":"15565601","distractor":"15565801","target":"absent","response":"present","rt":"969.80000001192","correct":false,"confidence":-1},{"trial_n":21,"span":7,"encoder":"4594048","distractor":"4534048","target":"present","response":"present","rt":"3483.3999999762","correct":true,"confidence":3},{"trial_n":22,"span":7,"encoder":"5900433","distractor":"5900438","target":"present","response":"present","rt":"2015","correct":true,"confidence":4},{"trial_n":23,"span":8,"encoder":"35172905","distractor":"35174905","target":"absent","response":"absent","rt":"1981.5","correct":true,"confidence":2},{"trial_n":24,"span":8,"encoder":"43194750","distractor":"43194755","target":"absent","response":"absent","rt":"4063","correct":true,"confidence":5},{"trial_n":25,"span":9,"encoder":"498459593","distractor":"098459593","target":"absent","response":"absent","rt":"5455.5","correct":true,"confidence":2},{"trial_n":26,"span":9,"encoder":"725960918","distractor":"325960918","target":"absent","response":"absent","rt":"4950","correct":true,"confidence":2},{"trial_n":27,"span":10,"encoder":"6232222841","distractor":"6032222841","target":"present","response":"present","rt":"2737.599999994","correct":true,"confidence":5},{"trial_n":28,"span":10,"encoder":"9188906619","distractor":"9188906019","target":"absent","response":"present","rt":"2380.2000000179","correct":false,"confidence":5},{"trial_n":29,"span":9,"encoder":"624952323","distractor":"624902323","target":"present","response":"present","rt":"3010.099999994","correct":true,"confidence":4},{"trial_n":30,"span":9,"encoder":"787599208","distractor":"789599208","target":"absent","response":"present","rt":"3466.7999999821","correct":false,"confidence":3},{"trial_n":31,"span":8,"encoder":"22674733","distractor":"22684733","target":"present","response":"present","rt":"1151.900000006","correct":true,"confidence":4},{"trial_n":32,"span":8,"encoder":"00663742","distractor":"00623742","target":"absent","response":"absent","rt":"3622.099999994","correct":true,"confidence":3},{"trial_n":33,"span":9,"encoder":"699144521","distractor":"799144521","target":"present","response":"present","rt":"2728.8000000119","correct":true,"confidence":4},{"trial_n":34,"span":9,"encoder":"647880648","distractor":"647880658","target":"absent","response":"absent","rt":"1974.099999994","correct":true,"confidence":3},{"trial_n":35,"span":10,"encoder":"8069721368","distractor":"8069921368","target":"absent","response":"present","rt":"3524.8000000119","correct":false,"confidence":2},{"trial_n":36,"span":9,"encoder":"738539781","distractor":"731539781","target":"absent","response":"absent","rt":"2481.6999999881","correct":true,"confidence":3},{"trial_n":37,"span":9,"encoder":"752990209","distractor":"752990289","target":"absent","response":"present","rt":"2233.5","correct":false,"confidence":3},{"trial_n":38,"span":8,"encoder":"53818647","distractor":"53318647","target":"absent","response":"present","rt":"1293","correct":false,"confidence":4},{"trial_n":39,"span":7,"encoder":"2744004","distractor":"2744064","target":"absent","response":"absent","rt":"1756.599999994","correct":true,"confidence":5},{"trial_n":40,"span":7,"encoder":"6206855","distractor":"6206555","target":"present","response":"present","rt":"1911.3000000119","correct":true,"confidence":5},{"trial_n":41,"span":8,"encoder":"68352303","distractor":"68352302","target":"present","response":"present","rt":"1774.599999994","correct":true,"confidence":4},{"trial_n":42,"span":8,"encoder":"00287170","distractor":"00287178","target":"present","response":"absent","rt":"3339.3999999762","correct":false,"confidence":2},{"trial_n":43,"span":7,"encoder":"4052348","distractor":"4852348","target":"present","response":"present","rt":"1002.6999999881","correct":true,"confidence":4},{"trial_n":44,"span":7,"encoder":"9328582","distractor":"9318582","target":"absent","response":"present","rt":"1557.599999994","correct":false,"confidence":3},{"trial_n":45,"span":6,"encoder":"042767","distractor":"042769","target":"present","response":"present","rt":"2064.3000000119","correct":true,"confidence":4},{"trial_n":46,"span":6,"encoder":"379734","distractor":"376734","target":"present","response":"present","rt":"981.90000000596","correct":true,"confidence":4},{"trial_n":47,"span":7,"encoder":"4497283","distractor":"4457283","target":"absent","response":"absent","rt":"2513.5","correct":true,"confidence":3},{"trial_n":48,"span":7,"encoder":"1660864","distractor":"1667864","target":"present","response":"present","rt":"787.79999998212","correct":true,"confidence":3},{"trial_n":49,"span":8,"encoder":"00232639","distractor":"00232632","target":"absent","response":"absent","rt":"1167.3000000119","correct":true,"confidence":5},{"trial_n":50,"span":8,"encoder":"00136408","distractor":"00736408","target":"present","response":"present","rt":"1210.2999999821","correct":true,"confidence":4},{"trial_n":51,"span":9,"encoder":"067783532","distractor":"067785532","target":"present","response":"present","rt":"4625.7999999821","correct":true,"confidence":3},{"trial_n":52,"span":9,"encoder":"017242932","distractor":"017242232","target":"present","response":"absent","rt":"7579.8999999762","correct":false,"confidence":4},{"trial_n":53,"span":8,"encoder":"98312376","distractor":"98315376","target":"present","response":"present","rt":"3373.400000006","correct":true,"confidence":2},{"trial_n":54,"span":8,"encoder":"35718912","distractor":"35716912","target":"present","response":"present","rt":"3067.8999999762","correct":true,"confidence":4},{"trial_n":55,"span":9,"encoder":"709364226","distractor":"709360226","target":"absent","response":"present","rt":"4238.599999994","correct":false,"confidence":3},{"trial_n":56,"span":8,"encoder":"33174166","distractor":"33171166","target":"present","response":"present","rt":"3053.5","correct":true,"confidence":4},{"trial_n":57,"span":8,"encoder":"50430684","distractor":"50630684","target":"absent","response":"present","rt":"7072.3000000119","correct":false,"confidence":2},{"trial_n":58,"span":7,"encoder":"1331650","distractor":"1831650","target":"present","response":"absent","rt":"3766.5","correct":false,"confidence":4},{"trial_n":59,"span":6,"encoder":"445229","distractor":"455229","target":"present","response":"present","rt":"3432.2999999821","correct":true,"confidence":4},{"trial_n":60,"span":6,"encoder":"771427","distractor":"701427","target":"present","response":"present","rt":"811.5","correct":true,"confidence":3},{"trial_n":61,"span":7,"encoder":"3636224","distractor":"3656224","target":"present","response":"present","rt":"1112.5","correct":true,"confidence":4},{"trial_n":62,"span":7,"encoder":"6210008","distractor":"6910008","target":"present","response":"present","rt":"803","correct":true,"confidence":4},{"trial_n":63,"span":8,"encoder":"10813510","distractor":"10813518","target":"present","response":"absent","rt":"2457.099999994","correct":false,"confidence":3},{"trial_n":64,"span":7,"encoder":"9704608","distractor":"4704608","target":"absent","response":"present","rt":"4603.1999999881","correct":false,"confidence":5},{"trial_n":65,"span":6,"encoder":"445103","distractor":"545103","target":"present","response":"present","rt":"1603.400000006","correct":true,"confidence":3},{"trial_n":66,"span":6,"encoder":"877326","distractor":"877526","target":"absent","response":"absent","rt":"2719.8000000119","correct":true,"confidence":4},{"trial_n":67,"span":7,"encoder":"0888643","distractor":"0888143","target":"absent","response":"absent","rt":"2856.6999999881","correct":true,"confidence":4},{"trial_n":68,"span":7,"encoder":"9103426","distractor":"9143426","target":"present","response":"present","rt":"2034.6999999881","correct":true,"confidence":4},{"trial_n":69,"span":8,"encoder":"98905377","distractor":"98995377","target":"present","response":"present","rt":"1706.599999994","correct":true,"confidence":5},{"trial_n":70,"span":8,"encoder":"16779974","distractor":"16777974","target":"present","response":"present","rt":"1494.3000000119","correct":true,"confidence":5},{"trial_n":71,"span":8,"encoder":"41957275","distractor":"41957277","target":"present","response":"present","rt":"7091.6999999881","correct":true,"confidence":-1},{"trial_n":72,"span":8,"encoder":"82383689","distractor":"82383639","target":"present","response":"present","rt":"13663","correct":true,"confidence":-1},{"trial_n":73,"span":9,"encoder":"958805183","distractor":"958605183","target":"absent","response":"absent","rt":"4058.5","correct":true,"confidence":-1},{"trial_n":74,"span":9,"encoder":"615773888","distractor":"615773884","target":"absent","response":"absent","rt":"1817.1999999881","correct":true,"confidence":-1},{"trial_n":75,"span":10,"encoder":"7937625320","distractor":"0937625320","target":"present","response":"absent","rt":"7022.3999999762","correct":false,"confidence":-1},{"trial_n":76,"span":9,"encoder":"415095888","distractor":"415091888","target":"absent","response":"absent","rt":"1968.5","correct":true,"confidence":-1},{"trial_n":77,"span":9,"encoder":"861479423","distractor":"861479413","target":"present","response":"present","rt":"3676.900000006","correct":true,"confidence":-1},{"trial_n":78,"span":10,"encoder":"4841803262","distractor":"4841603262","target":"absent","response":"present","rt":"1694","correct":false,"confidence":-1},{"trial_n":79,"span":9,"encoder":"486341218","distractor":"486341219","target":"absent","response":"absent","rt":"1727","correct":true,"confidence":-1},{"trial_n":80,"span":9,"encoder":"505638091","distractor":"595638091","target":"absent","response":"present","rt":"3017.2999999821","correct":false,"confidence":-1},{"trial_n":81,"span":8,"encoder":"16948570","distractor":"16958570","target":"present","response":"present","rt":"2806.7000000179","correct":true,"confidence":-1},{"trial_n":82,"span":8,"encoder":"11791494","distractor":"11761494","target":"absent","response":"absent","rt":"3211","correct":true,"confidence":-1},{"trial_n":83,"span":9,"encoder":"555120628","distractor":"555120618","target":"present","response":"present","rt":"2231.599999994","correct":true,"confidence":-1},{"trial_n":84,"span":9,"encoder":"352361002","distractor":"352360002","target":"present","response":"present","rt":"1685.7999999821","correct":true,"confidence":-1},{"trial_n":85,"span":10,"encoder":"8456686407","distractor":"8456686497","target":"absent","response":"absent","rt":"2053.8000000119","correct":true,"confidence":-1},{"trial_n":86,"span":10,"encoder":"0612893596","distractor":"0612893592","target":"present","response":"present","rt":"2770.400000006","correct":true,"confidence":-1},{"trial_n":87,"span":11,"encoder":"04442600903","distractor":"04542600903","target":"present","response":"present","rt":"2271","correct":true,"confidence":-1},{"trial_n":88,"span":11,"encoder":"02002971632","distractor":"02002971622","target":"present","response":"present","rt":"1531.900000006","correct":true,"confidence":-1},{"trial_n":89,"span":12,"encoder":"690928317432","distractor":"690928317433","target":"present","response":"present","rt":"1458.099999994","correct":true,"confidence":-1},{"trial_n":90,"span":12,"encoder":"956997162460","distractor":"956097162460","target":"absent","response":"present","rt":"1868.900000006","correct":false,"confidence":-1},{"trial_n":91,"span":11,"encoder":"25155467481","distractor":"25157467481","target":"absent","response":"present","rt":"3141","correct":false,"confidence":2},{"trial_n":92,"span":10,"encoder":"4959408809","distractor":"4959608809","target":"absent","response":"absent","rt":"5306.2999999821","correct":true,"confidence":3},{"trial_n":93,"span":10,"encoder":"6934536170","distractor":"6904536170","target":"absent","response":"absent","rt":"3603.2999999821","correct":true,"confidence":4},{"trial_n":94,"span":11,"encoder":"09608563030","distractor":"09608569030","target":"present","response":"present","rt":"5497.900000006","correct":true,"confidence":2},{"trial_n":95,"span":11,"encoder":"58879936412","distractor":"58879736412","target":"absent","response":"present","rt":"4656.1999999881","correct":false,"confidence":2},{"trial_n":96,"span":10,"encoder":"4434899759","distractor":"4434499759","target":"absent","response":"absent","rt":"1793.400000006","correct":true,"confidence":2},{"trial_n":97,"span":10,"encoder":"2637195924","distractor":"2637195984","target":"absent","response":"absent","rt":"2188.8000000119","correct":true,"confidence":4},{"trial_n":98,"span":11,"encoder":"62248496265","distractor":"62248496245","target":"present","response":"present","rt":"3151.900000006","correct":true,"confidence":2},{"trial_n":99,"span":11,"encoder":"11665031028","distractor":"51665031028","target":"absent","response":"absent","rt":"2350.900000006","correct":true,"confidence":5},{"trial_n":100,"span":12,"encoder":"430607998552","distractor":"430607998557","target":"absent","response":"absent","rt":"4575.599999994","correct":true,"confidence":5},{"trial_n":101,"span":12,"encoder":"200148351665","distractor":"200148351663","target":"present","response":"present","rt":"1935","correct":true,"confidence":5},{"trial_n":102,"span":13,"encoder":"5648000510744","distractor":"5648000510754","target":"absent","response":"present","rt":"4105.5","correct":false,"confidence":1},{"trial_n":103,"span":12,"encoder":"724027250001","distractor":"724227250001","target":"present","response":"present","rt":"5204","correct":true,"confidence":1},{"trial_n":104,"span":12,"encoder":"415476899528","distractor":"915476899528","target":"present","response":"absent","rt":"4232.599999994","correct":false,"confidence":2},{"trial_n":105,"span":11,"encoder":"01695948948","distractor":"01695941948","target":"absent","response":"present","rt":"5332","correct":false,"confidence":1},{"trial_n":106,"span":10,"encoder":"3847072702","distractor":"3837072702","target":"present","response":"present","rt":"2949.3000000119","correct":true,"confidence":3},{"trial_n":107,"span":10,"encoder":"2249729674","distractor":"2249729670","target":"present","response":"present","rt":"1961.8999999762","correct":true,"confidence":4},{"trial_n":108,"span":11,"encoder":"22619128090","distractor":"22619228090","target":"absent","response":"present","rt":"9697.3000000119","correct":false,"confidence":2},{"trial_n":109,"span":10,"encoder":"5760905948","distractor":"5760901948","target":"present","response":"present","rt":"5064.8999999762","correct":true,"confidence":3},{"trial_n":110,"span":10,"encoder":"9886596471","distractor":"9886586471","target":"absent","response":"present","rt":"3170.400000006","correct":false,"confidence":1},{"trial_n":111,"span":9,"encoder":"054172017","distractor":"054972017","target":"absent","response":"present","rt":"4457.599999994","correct":false,"confidence":2},{"trial_n":112,"span":8,"encoder":"74999966","distractor":"77999966","target":"present","response":"present","rt":"2357.400000006","correct":true,"confidence":5},{"trial_n":113,"span":8,"encoder":"18978625","distractor":"10978625","target":"present","response":"present","rt":"2255.1000000238","correct":true,"confidence":5},{"trial_n":114,"span":9,"encoder":"302660352","distractor":"302660382","target":"absent","response":"absent","rt":"4709.2000000179","correct":true,"confidence":1},{"trial_n":115,"span":9,"encoder":"280099417","distractor":"280029417","target":"absent","response":"absent","rt":"2371.599999994","correct":true,"confidence":5},{"trial_n":116,"span":10,"encoder":"2992693930","distractor":"2992693990","target":"present","response":"present","rt":"5594","correct":true,"confidence":4},{"trial_n":117,"span":10,"encoder":"3348061305","distractor":"3388061305","target":"present","response":"present","rt":"3853.8999999762","correct":true,"confidence":1},{"trial_n":118,"span":11,"encoder":"07962410143","distractor":"87962410143","target":"absent","response":"absent","rt":"2492.3000000119","correct":true,"confidence":1},{"trial_n":119,"span":11,"encoder":"76123059236","distractor":"76123029236","target":"present","response":"absent","rt":"3007.7999999821","correct":false,"confidence":2},{"trial_n":120,"span":10,"encoder":"3494488532","distractor":"3494489532","target":"present","response":"absent","rt":"5266.2999999821","correct":false,"confidence":3},{"trial_n":121,"span":9,"encoder":"343479602","distractor":"343479662","target":"absent","response":"absent","rt":"3116.7999999821","correct":true,"confidence":4},{"trial_n":122,"span":9,"encoder":"332322392","distractor":"332122392","target":"present","response":"absent","rt":"2577.8999999762","correct":false,"confidence":1},{"trial_n":123,"span":8,"encoder":"36442707","distractor":"37442707","target":"present","response":"present","rt":"4573.7999999821","correct":true,"confidence":3},{"trial_n":124,"span":8,"encoder":"10840886","distractor":"10840856","target":"absent","response":"absent","rt":"3738.599999994","correct":true,"confidence":3},{"trial_n":125,"span":9,"encoder":"731408779","distractor":"731408079","target":"present","response":"absent","rt":"1941.3999999762","correct":false,"confidence":2},{"trial_n":126,"span":8,"encoder":"52689145","distractor":"52689143","target":"absent","response":"absent","rt":"1762.599999994","correct":true,"confidence":4},{"trial_n":127,"span":8,"encoder":"22148929","distractor":"22148969","target":"absent","response":"absent","rt":"2172.3000000119","correct":true,"confidence":5},{"trial_n":128,"span":9,"encoder":"876889753","distractor":"871889753","target":"present","response":"present","rt":"3261.400000006","correct":true,"confidence":1},{"trial_n":129,"span":9,"encoder":"174401959","distractor":"174404959","target":"absent","response":"present","rt":"3499.2000000179","correct":false,"confidence":1},{"trial_n":130,"span":8,"encoder":"08713504","distractor":"08711504","target":"present","response":"present","rt":"3363.400000006","correct":true,"confidence":5},{"trial_n":131,"span":8,"encoder":"99737009","distractor":"99737019","target":"absent","response":"absent","rt":"2841.7000000179","correct":true,"confidence":3},{"trial_n":132,"span":9,"encoder":"736764842","distractor":"736164842","target":"present","response":"present","rt":"2961.400000006","correct":true,"confidence":1},{"trial_n":133,"span":9,"encoder":"439275893","distractor":"434275893","target":"absent","response":"absent","rt":"7670.400000006","correct":true,"confidence":3},{"trial_n":134,"span":10,"encoder":"8795993734","distractor":"8795963734","target":"present","response":"present","rt":"5398","correct":true,"confidence":1},{"trial_n":135,"span":10,"encoder":"9986023435","distractor":"9966023435","target":"present","response":"present","rt":"2739.599999994","correct":true,"confidence":4},{"trial_n":136,"span":11,"encoder":"76944893206","distractor":"76844893206","target":"present","response":"absent","rt":"3478.2000000179","correct":false,"confidence":3},{"trial_n":137,"span":10,"encoder":"1395662018","distractor":"1396662018","target":"absent","response":"present","rt":"2617.3000000119","correct":false,"confidence":4},{"trial_n":138,"span":9,"encoder":"249365492","distractor":"259365492","target":"present","response":"present","rt":"3651.099999994","correct":true,"confidence":4},{"trial_n":139,"span":9,"encoder":"293654092","distractor":"293654099","target":"present","response":"present","rt":"2272.400000006","correct":true,"confidence":1},{"trial_n":140,"span":10,"encoder":"1396717437","distractor":"1396717037","target":"absent","response":"present","rt":"5792.1999999881","correct":false,"confidence":1}]