[{"trial_n":1,"n_dots":4.25,"target":"right","response":"left","rt":4458,"correct":false,"confidence":-1},{"trial_n":2,"n_dots":4.25,"target":"left","response":"left","rt":417,"correct":true,"confidence":-1},{"trial_n":3,"n_dots":4.25,"target":"left","response":"left","rt":338,"correct":true,"confidence":-1},{"trial_n":4,"n_dots":3.85,"target":"left","response":"left","rt":494,"correct":true,"confidence":-1},{"trial_n":5,"n_dots":3.85,"target":"right","response":"left","rt":184,"correct":false,"confidence":-1},{"trial_n":6,"n_dots":4.25,"target":"right","response":"right","rt":76,"correct":true,"confidence":-1},{"trial_n":7,"n_dots":4.25,"target":"right","response":"right","rt":153,"correct":true,"confidence":-1},{"trial_n":8,"n_dots":4.05,"target":"left","response":"left","rt":64,"correct":true,"confidence":-1},{"trial_n":9,"n_dots":4.05,"target":"left","response":"left","rt":4110,"correct":true,"confidence":-1},{"trial_n":10,"n_dots":3.85,"target":"left","response":"right","rt":265,"correct":false,"confidence":-1},{"trial_n":11,"n_dots":4.05,"target":"left","response":"left","rt":-12.999999999993,"correct":true,"confidence":-1},{"trial_n":12,"n_dots":4.05,"target":"right","response":"right","rt":100,"correct":true,"confidence":-1},{"trial_n":13,"n_dots":3.95,"target":"left","response":"left","rt":96,"correct":true,"confidence":-1},{"trial_n":14,"n_dots":3.95,"target":"left","response":"left","rt":7.0000000000073,"correct":true,"confidence":-1},{"trial_n":15,"n_dots":3.85,"target":"left","response":"left","rt":64,"correct":true,"confidence":-1},{"trial_n":16,"n_dots":3.85,"target":"right","response":"right","rt":829.00000000001,"correct":true,"confidence":-1},{"trial_n":17,"n_dots":3.75,"target":"left","response":"left","rt":259,"correct":true,"confidence":-1},{"trial_n":18,"n_dots":3.75,"target":"right","response":"right","rt":1540,"correct":true,"confidence":-1},{"trial_n":19,"n_dots":3.65,"target":"left","response":"left","rt":250,"correct":true,"confidence":-1},{"trial_n":20,"n_dots":3.65,"target":"left","response":"left","rt":75,"correct":true,"confidence":-1},{"trial_n":21,"n_dots":3.55,"target":"left","response":"left","rt":1018,"correct":true,"confidence":3},{"trial_n":22,"n_dots":3.55,"target":"right","response":"right","rt":544.99999999999,"correct":true,"confidence":3},{"trial_n":23,"n_dots":3.45,"target":"left","response":"left","rt":3893,"correct":true,"confidence":3},{"trial_n":24,"n_dots":3.45,"target":"right","response":"left","rt":803,"correct":false,"confidence":4},{"trial_n":25,"n_dots":3.55,"target":"right","response":"left","rt":672.00000000001,"correct":false,"confidence":3},{"trial_n":26,"n_dots":3.65,"target":"right","response":"right","rt":684,"correct":true,"confidence":4},{"trial_n":27,"n_dots":3.65,"target":"right","response":"right","rt":680,"correct":true,"confidence":4},{"trial_n":28,"n_dots":3.55,"target":"right","response":"right","rt":573,"correct":true,"confidence":4},{"trial_n":29,"n_dots":3.55,"target":"right","response":"right","rt":1002,"correct":true,"confidence":5},{"trial_n":30,"n_dots":3.45,"target":"left","response":"left","rt":708.99999999997,"correct":true,"confidence":5},{"trial_n":31,"n_dots":3.45,"target":"left","response":"left","rt":1129,"correct":true,"confidence":4},{"trial_n":32,"n_dots":3.35,"target":"right","response":"left","rt":958,"correct":false,"confidence":3},{"trial_n":33,"n_dots":3.45,"target":"right","response":"left","rt":2144,"correct":false,"confidence":2},{"trial_n":34,"n_dots":3.55,"target":"left","response":"left","rt":692,"correct":true,"confidence":4},{"trial_n":35,"n_dots":3.55,"target":"left","response":"left","rt":620,"correct":true,"confidence":5},{"trial_n":36,"n_dots":3.45,"target":"right","response":"left","rt":2900,"correct":false,"confidence":2},{"trial_n":37,"n_dots":3.55,"target":"left","response":"left","rt":653,"correct":true,"confidence":4},{"trial_n":38,"n_dots":3.55,"target":"left","response":"left","rt":602.00000000003,"correct":true,"confidence":4},{"trial_n":39,"n_dots":3.45,"target":"right","response":"right","rt":444,"correct":true,"confidence":4},{"trial_n":40,"n_dots":3.45,"target":"right","response":"right","rt":537,"correct":true,"confidence":4},{"trial_n":41,"n_dots":3.35,"target":"left","response":"right","rt":717,"correct":false,"confidence":3},{"trial_n":42,"n_dots":3.45,"target":"left","response":"left","rt":496,"correct":true,"confidence":2},{"trial_n":43,"n_dots":3.45,"target":"right","response":"right","rt":440,"correct":true,"confidence":2},{"trial_n":44,"n_dots":3.35,"target":"right","response":"right","rt":491,"correct":true,"confidence":4},{"trial_n":45,"n_dots":3.35,"target":"left","response":"left","rt":678.00000000003,"correct":true,"confidence":4},{"trial_n":46,"n_dots":3.25,"target":"right","response":"right","rt":534,"correct":true,"confidence":3},{"trial_n":47,"n_dots":3.25,"target":"right","response":"left","rt":644.00000000003,"correct":false,"confidence":3},{"trial_n":48,"n_dots":3.35,"target":"right","response":"right","rt":437,"correct":true,"confidence":4},{"trial_n":49,"n_dots":3.35,"target":"left","response":"left","rt":422,"correct":true,"confidence":3},{"trial_n":50,"n_dots":3.25,"target":"left","response":"left","rt":682,"correct":true,"confidence":2},{"trial_n":51,"n_dots":3.25,"target":"right","response":"right","rt":380,"correct":true,"confidence":2},{"trial_n":52,"n_dots":3.15,"target":"left","response":"left","rt":670,"correct":true,"confidence":3},{"trial_n":53,"n_dots":3.15,"target":"right","response":"right","rt":1138,"correct":true,"confidence":2},{"trial_n":54,"n_dots":3.05,"target":"right","response":"right","rt":1238,"correct":true,"confidence":1},{"trial_n":55,"n_dots":3.05,"target":"right","response":"right","rt":750.99999999994,"correct":true,"confidence":4},{"trial_n":56,"n_dots":2.95,"target":"right","response":"right","rt":620,"correct":true,"confidence":3},{"trial_n":57,"n_dots":2.95,"target":"left","response":"left","rt":612.00000000006,"correct":true,"confidence":4},{"trial_n":58,"n_dots":2.85,"target":"left","response":"left","rt":641,"correct":true,"confidence":5},{"trial_n":59,"n_dots":2.85,"target":"right","response":"left","rt":608.99999999994,"correct":false,"confidence":5},{"trial_n":60,"n_dots":2.95,"target":"right","response":"right","rt":455,"correct":true,"confidence":4},{"trial_n":61,"n_dots":2.95,"target":"right","response":"left","rt":540,"correct":false,"confidence":2},{"trial_n":62,"n_dots":3.05,"target":"left","response":"left","rt":639,"correct":true,"confidence":4},{"trial_n":63,"n_dots":3.05,"target":"left","response":"right","rt":285,"correct":false,"confidence":3},{"trial_n":64,"n_dots":3.15,"target":"right","response":"right","rt":429,"correct":true,"confidence":2},{"trial_n":65,"n_dots":3.15,"target":"left","response":"right","rt":414,"correct":false,"confidence":3},{"trial_n":66,"n_dots":3.25,"target":"right","response":"right","rt":525,"correct":true,"confidence":3},{"trial_n":67,"n_dots":3.25,"target":"right","response":"left","rt":1826,"correct":false,"confidence":2},{"trial_n":68,"n_dots":3.35,"target":"left","response":"left","rt":525,"correct":true,"confidence":4},{"trial_n":69,"n_dots":3.35,"target":"left","response":"left","rt":627.99999999994,"correct":true,"confidence":3},{"trial_n":70,"n_dots":3.25,"target":"right","response":"right","rt":328,"correct":true,"confidence":2},{"trial_n":71,"n_dots":3.25,"target":"right","response":"right","rt":374,"correct":true,"confidence":4},{"trial_n":72,"n_dots":3.15,"target":"right","response":"left","rt":842.00000000006,"correct":false,"confidence":2},{"trial_n":73,"n_dots":3.25,"target":"right","response":"right","rt":609,"correct":true,"confidence":1},{"trial_n":74,"n_dots":3.25,"target":"right","response":"left","rt":992,"correct":false,"confidence":2},{"trial_n":75,"n_dots":3.35,"target":"right","response":"right","rt":584,"correct":true,"confidence":4},{"trial_n":76,"n_dots":3.35,"target":"left","response":"right","rt":962,"correct":false,"confidence":3},{"trial_n":77,"n_dots":3.45,"target":"left","response":"left","rt":1198,"correct":true,"confidence":3},{"trial_n":78,"n_dots":3.45,"target":"left","response":"left","rt":725,"correct":true,"confidence":4},{"trial_n":79,"n_dots":3.35,"target":"right","response":"left","rt":630,"correct":false,"confidence":4},{"trial_n":80,"n_dots":3.45,"target":"right","response":"right","rt":1184,"correct":true,"confidence":4},{"trial_n":81,"n_dots":3.45,"target":"right","response":"right","rt":614.00000000006,"correct":true,"confidence":3},{"trial_n":82,"n_dots":3.35,"target":"right","response":"left","rt":619.00000000006,"correct":false,"confidence":4},{"trial_n":83,"n_dots":3.45,"target":"right","response":"right","rt":405,"correct":true,"confidence":3},{"trial_n":84,"n_dots":3.45,"target":"right","response":"right","rt":444,"correct":true,"confidence":3},{"trial_n":85,"n_dots":3.35,"target":"left","response":"left","rt":631,"correct":true,"confidence":4},{"trial_n":86,"n_dots":3.35,"target":"left","response":"left","rt":740,"correct":true,"confidence":3},{"trial_n":87,"n_dots":3.25,"target":"left","response":"left","rt":590,"correct":true,"confidence":4},{"trial_n":88,"n_dots":3.25,"target":"left","response":"left","rt":479.99999999994,"correct":true,"confidence":4},{"trial_n":89,"n_dots":3.15,"target":"right","response":"right","rt":420.99999999994,"correct":true,"confidence":2},{"trial_n":90,"n_dots":3.15,"target":"right","response":"right","rt":385.99999999994,"correct":true,"confidence":3},{"trial_n":91,"n_dots":3.05,"target":"right","response":"right","rt":516,"correct":true,"confidence":3},{"trial_n":92,"n_dots":3.05,"target":"right","response":"right","rt":957,"correct":true,"confidence":1},{"trial_n":93,"n_dots":2.95,"target":"right","response":"left","rt":1324,"correct":false,"confidence":3},{"trial_n":94,"n_dots":3.05,"target":"right","response":"left","rt":771.99999999994,"correct":false,"confidence":3},{"trial_n":95,"n_dots":3.15,"target":"left","response":"left","rt":541.00000000006,"correct":true,"confidence":3},{"trial_n":96,"n_dots":3.15,"target":"left","response":"left","rt":1086,"correct":true,"confidence":3},{"trial_n":97,"n_dots":3.05,"target":"left","response":"left","rt":717,"correct":true,"confidence":4},{"trial_n":98,"n_dots":3.05,"target":"right","response":"right","rt":784,"correct":true,"confidence":4},{"trial_n":99,"n_dots":2.95,"target":"left","response":"left","rt":823,"correct":true,"confidence":3},{"trial_n":100,"n_dots":2.95,"target":"left","response":"right","rt":699,"correct":false,"confidence":2},{"trial_n":101,"n_dots":3.05,"target":"right","response":"right","rt":582.99999999994,"correct":true,"confidence":3},{"trial_n":102,"n_dots":3.05,"target":"left","response":"left","rt":871.00000000006,"correct":true,"confidence":2},{"trial_n":103,"n_dots":2.95,"target":"left","response":"right","rt":661,"correct":false,"confidence":3},{"trial_n":104,"n_dots":3.05,"target":"left","response":"left","rt":843,"correct":true,"confidence":3},{"trial_n":105,"n_dots":3.05,"target":"right","response":"right","rt":459,"correct":true,"confidence":4},{"trial_n":106,"n_dots":2.95,"target":"right","response":"right","rt":471,"correct":true,"confidence":3},{"trial_n":107,"n_dots":2.95,"target":"left","response":"left","rt":434.99999999994,"correct":true,"confidence":3},{"trial_n":108,"n_dots":2.85,"target":"left","response":"left","rt":513,"correct":true,"confidence":3},{"trial_n":109,"n_dots":2.85,"target":"left","response":"right","rt":1077,"correct":false,"confidence":4},{"trial_n":110,"n_dots":2.95,"target":"left","response":"left","rt":382,"correct":true,"confidence":3},{"trial_n":111,"n_dots":2.95,"target":"right","response":"right","rt":292,"correct":true,"confidence":3},{"trial_n":112,"n_dots":2.85,"target":"left","response":"left","rt":260,"correct":true,"confidence":3},{"trial_n":113,"n_dots":2.85,"target":"left","response":"left","rt":592,"correct":true,"confidence":2},{"trial_n":114,"n_dots":2.75,"target":"left","response":"right","rt":868,"correct":false,"confidence":3},{"trial_n":115,"n_dots":2.85,"target":"left","response":"left","rt":619,"correct":true,"confidence":3},{"trial_n":116,"n_dots":2.85,"target":"left","response":"right","rt":423,"correct":false,"confidence":3},{"trial_n":117,"n_dots":2.95,"target":"right","response":"left","rt":292,"correct":false,"confidence":3},{"trial_n":118,"n_dots":3.05,"target":"left","response":"left","rt":677,"correct":true,"confidence":3},{"trial_n":119,"n_dots":3.05,"target":"left","response":"left","rt":660,"correct":true,"confidence":4},{"trial_n":120,"n_dots":2.95,"target":"right","response":"left","rt":646,"correct":false,"confidence":4}]