[{"trial_n":1,"span":8,"encoder":"02516809","distractor":"02516839","target":"present","response":"absent","rt":"4851","correct":false,"confidence":-1},{"trial_n":2,"span":6,"encoder":"302560","distractor":"302580","target":"present","response":"absent","rt":"3059","correct":false,"confidence":-1},{"trial_n":3,"span":4,"encoder":"9632","distractor":"9630","target":"absent","response":"absent","rt":"1279","correct":true,"confidence":-1},{"trial_n":4,"span":4,"encoder":"8996","distractor":"8906","target":"absent","response":"absent","rt":"1866","correct":true,"confidence":-1},{"trial_n":5,"span":6,"encoder":"887423","distractor":"887425","target":"present","response":"present","rt":"3754","correct":true,"confidence":-1},{"trial_n":6,"span":6,"encoder":"036550","distractor":"032550","target":"present","response":"present","rt":"1355","correct":true,"confidence":-1},{"trial_n":7,"span":8,"encoder":"19515976","distractor":"19515970","target":"present","response":"present","rt":"1222","correct":true,"confidence":-1},{"trial_n":8,"span":8,"encoder":"11509121","distractor":"18509121","target":"present","response":"present","rt":"4102","correct":true,"confidence":-1},{"trial_n":9,"span":10,"encoder":"8013238452","distractor":"8013238252","target":"present","response":"present","rt":"1732","correct":true,"confidence":-1},{"trial_n":10,"span":10,"encoder":"9036214900","distractor":"9026214900","target":"present","response":"present","rt":"1983","correct":true,"confidence":-1},{"trial_n":11,"span":12,"encoder":"171763986835","distractor":"171763986805","target":"present","response":"present","rt":"1249","correct":true,"confidence":-1},{"trial_n":12,"span":12,"encoder":"114011726437","distractor":"114014726437","target":"absent","response":"present","rt":"2248","correct":false,"confidence":-1},{"trial_n":13,"span":11,"encoder":"95058061601","distractor":"95058061611","target":"absent","response":"present","rt":"678","correct":false,"confidence":-1},{"trial_n":14,"span":10,"encoder":"0087568078","distractor":"0082568078","target":"present","response":"present","rt":"981","correct":true,"confidence":-1},{"trial_n":15,"span":10,"encoder":"7939726373","distractor":"5939726373","target":"absent","response":"absent","rt":"551","correct":true,"confidence":-1},{"trial_n":16,"span":11,"encoder":"49805580305","distractor":"49801580305","target":"present","response":"present","rt":"692.00000000001","correct":true,"confidence":-1},{"trial_n":17,"span":11,"encoder":"35471785778","distractor":"35471785772","target":"present","response":"present","rt":"714","correct":true,"confidence":-1},{"trial_n":18,"span":12,"encoder":"380017455341","distractor":"380017455345","target":"present","response":"present","rt":"574","correct":true,"confidence":-1},{"trial_n":19,"span":12,"encoder":"748375812554","distractor":"748345812554","target":"present","response":"present","rt":"626","correct":true,"confidence":-1},{"trial_n":20,"span":13,"encoder":"4327963475240","distractor":"4327063475240","target":"present","response":"present","rt":"698","correct":true,"confidence":-1},{"trial_n":21,"span":13,"encoder":"1520639130600","distractor":"1530639130600","target":"present","response":"present","rt":"672.99999999997","correct":true,"confidence":4},{"trial_n":22,"span":14,"encoder":"85756220930257","distractor":"85736220930257","target":"absent","response":"absent","rt":"2216","correct":true,"confidence":3},{"trial_n":23,"span":14,"encoder":"74351420722626","distractor":"74351420822626","target":"absent","response":"present","rt":"1580","correct":false,"confidence":4},{"trial_n":24,"span":13,"encoder":"7723361353902","distractor":"8723361353902","target":"present","response":"present","rt":"934","correct":true,"confidence":4},{"trial_n":25,"span":13,"encoder":"4049802286483","distractor":"4049802986483","target":"absent","response":"present","rt":"1278","correct":false,"confidence":3},{"trial_n":26,"span":12,"encoder":"326042976002","distractor":"326042906002","target":"absent","response":"present","rt":"1175","correct":false,"confidence":3},{"trial_n":27,"span":11,"encoder":"34101139396","distractor":"94101139396","target":"present","response":"present","rt":"1065","correct":true,"confidence":4},{"trial_n":28,"span":11,"encoder":"21595205003","distractor":"21595205006","target":"present","response":"present","rt":"1060","correct":true,"confidence":4},{"trial_n":29,"span":12,"encoder":"854554463508","distractor":"854554423508","target":"present","response":"present","rt":"782","correct":true,"confidence":4},{"trial_n":30,"span":12,"encoder":"159917006948","distractor":"159917006943","target":"absent","response":"present","rt":"936","correct":false,"confidence":4},{"trial_n":31,"span":11,"encoder":"30877688989","distractor":"37877688989","target":"absent","response":"present","rt":"2829","correct":false,"confidence":3},{"trial_n":32,"span":10,"encoder":"6729113791","distractor":"6723113791","target":"absent","response":"present","rt":"984","correct":false,"confidence":3},{"trial_n":33,"span":9,"encoder":"123401101","distractor":"123401102","target":"present","response":"present","rt":"790","correct":true,"confidence":3},{"trial_n":34,"span":9,"encoder":"894750443","distractor":"894750413","target":"present","response":"present","rt":"741","correct":true,"confidence":4},{"trial_n":35,"span":10,"encoder":"1199730888","distractor":"1199732888","target":"absent","response":"present","rt":"852.00000000006","correct":false,"confidence":5},{"trial_n":36,"span":9,"encoder":"509968898","distractor":"509068898","target":"absent","response":"present","rt":"985","correct":false,"confidence":4},{"trial_n":37,"span":8,"encoder":"29414695","distractor":"29494695","target":"absent","response":"present","rt":"1104","correct":false,"confidence":4},{"trial_n":38,"span":7,"encoder":"2388962","distractor":"2368962","target":"present","response":"present","rt":"1038","correct":true,"confidence":4},{"trial_n":39,"span":7,"encoder":"8594257","distractor":"4594257","target":"absent","response":"present","rt":"13812","correct":false,"confidence":3},{"trial_n":40,"span":6,"encoder":"095941","distractor":"095961","target":"present","response":"present","rt":"1057","correct":true,"confidence":3},{"trial_n":41,"span":6,"encoder":"623439","distractor":"623939","target":"present","response":"present","rt":"679","correct":true,"confidence":4},{"trial_n":42,"span":7,"encoder":"9920077","distractor":"9920577","target":"present","response":"present","rt":"674","correct":true,"confidence":5},{"trial_n":43,"span":7,"encoder":"9776061","distractor":"9796061","target":"absent","response":"present","rt":"1119","correct":false,"confidence":5},{"trial_n":44,"span":6,"encoder":"905881","distractor":"935881","target":"absent","response":"present","rt":"730","correct":false,"confidence":4},{"trial_n":45,"span":5,"encoder":"29933","distractor":"99933","target":"absent","response":"present","rt":"507","correct":false,"confidence":4},{"trial_n":46,"span":4,"encoder":"5235","distractor":"5237","target":"absent","response":"present","rt":"734","correct":false,"confidence":5},{"trial_n":47,"span":3,"encoder":"762","distractor":"712","target":"present","response":"present","rt":"2224","correct":true,"confidence":3},{"trial_n":48,"span":3,"encoder":"208","distractor":"268","target":"present","response":"present","rt":"686","correct":true,"confidence":5},{"trial_n":49,"span":4,"encoder":"6290","distractor":"6890","target":"absent","response":"present","rt":"944.00000000006","correct":false,"confidence":5},{"trial_n":50,"span":3,"encoder":"412","distractor":"432","target":"present","response":"present","rt":"721","correct":true,"confidence":5},{"trial_n":51,"span":3,"encoder":"778","distractor":"738","target":"absent","response":"present","rt":"750","correct":false,"confidence":1},{"trial_n":52,"span":2,"encoder":"40","distractor":"20","target":"absent","response":"absent","rt":"1402","correct":true,"confidence":5},{"trial_n":53,"span":2,"encoder":"59","distractor":"57","target":"absent","response":"absent","rt":"1168.9999999999","correct":true,"confidence":5},{"trial_n":54,"span":3,"encoder":"539","distractor":"534","target":"present","response":"present","rt":"1291","correct":true,"confidence":5},{"trial_n":55,"span":3,"encoder":"832","distractor":"837","target":"present","response":"present","rt":"972.99999999994","correct":true,"confidence":5},{"trial_n":56,"span":4,"encoder":"3460","distractor":"3462","target":"present","response":"present","rt":"928","correct":true,"confidence":5},{"trial_n":57,"span":4,"encoder":"2369","distractor":"9369","target":"present","response":"present","rt":"1347","correct":true,"confidence":5},{"trial_n":58,"span":5,"encoder":"86381","distractor":"88381","target":"present","response":"absent","rt":"2701","correct":false,"confidence":5},{"trial_n":59,"span":4,"encoder":"8154","distractor":"8184","target":"present","response":"present","rt":"1183","correct":true,"confidence":5},{"trial_n":60,"span":4,"encoder":"8021","distractor":"3021","target":"absent","response":"absent","rt":"1347","correct":true,"confidence":5},{"trial_n":61,"span":5,"encoder":"71465","distractor":"71469","target":"absent","response":"absent","rt":"1645","correct":true,"confidence":5},{"trial_n":62,"span":5,"encoder":"22401","distractor":"22431","target":"absent","response":"absent","rt":"1568","correct":true,"confidence":5},{"trial_n":63,"span":6,"encoder":"585441","distractor":"985441","target":"absent","response":"absent","rt":"1923","correct":true,"confidence":5},{"trial_n":64,"span":6,"encoder":"427651","distractor":"127651","target":"present","response":"absent","rt":"1690","correct":false,"confidence":5},{"trial_n":65,"span":5,"encoder":"82561","distractor":"82521","target":"absent","response":"absent","rt":"1939","correct":true,"confidence":5},{"trial_n":66,"span":5,"encoder":"67985","distractor":"77985","target":"absent","response":"absent","rt":"1153","correct":true,"confidence":5},{"trial_n":67,"span":6,"encoder":"513889","distractor":"213889","target":"absent","response":"present","rt":"1457","correct":false,"confidence":5},{"trial_n":68,"span":5,"encoder":"35352","distractor":"35353","target":"absent","response":"absent","rt":"1053","correct":true,"confidence":5},{"trial_n":69,"span":5,"encoder":"87738","distractor":"17738","target":"absent","response":"absent","rt":"1019","correct":true,"confidence":5},{"trial_n":70,"span":6,"encoder":"325127","distractor":"325122","target":"absent","response":"absent","rt":"1019","correct":true,"confidence":5},{"trial_n":71,"span":8,"encoder":"13816911","distractor":"13816211","target":"present","response":"present","rt":"1951","correct":true,"confidence":-1},{"trial_n":72,"span":8,"encoder":"13258915","distractor":"13258215","target":"present","response":"absent","rt":"2504","correct":false,"confidence":-1},{"trial_n":73,"span":7,"encoder":"9126797","distractor":"8126797","target":"absent","response":"present","rt":"958","correct":false,"confidence":-1},{"trial_n":74,"span":6,"encoder":"285241","distractor":"285281","target":"absent","response":"present","rt":"1211","correct":false,"confidence":-1},{"trial_n":75,"span":5,"encoder":"55527","distractor":"55547","target":"present","response":"present","rt":"1254","correct":true,"confidence":-1},{"trial_n":76,"span":5,"encoder":"32647","distractor":"12647","target":"present","response":"absent","rt":"5136.9999999999","correct":false,"confidence":-1},{"trial_n":77,"span":4,"encoder":"1573","distractor":"1563","target":"present","response":"present","rt":"866","correct":true,"confidence":-1},{"trial_n":78,"span":4,"encoder":"2156","distractor":"2556","target":"present","response":"present","rt":"15335","correct":true,"confidence":-1},{"trial_n":79,"span":5,"encoder":"20541","distractor":"20548","target":"present","response":"present","rt":"1321.0000000001","correct":true,"confidence":-1},{"trial_n":80,"span":5,"encoder":"27714","distractor":"27717","target":"present","response":"present","rt":"1604","correct":true,"confidence":-1},{"trial_n":81,"span":6,"encoder":"782480","distractor":"702480","target":"present","response":"present","rt":"875","correct":true,"confidence":-1},{"trial_n":82,"span":6,"encoder":"750456","distractor":"753456","target":"absent","response":"absent","rt":"1475","correct":true,"confidence":-1},{"trial_n":83,"span":7,"encoder":"1210585","distractor":"1210589","target":"present","response":"present","rt":"1280","correct":true,"confidence":-1},{"trial_n":84,"span":7,"encoder":"0619637","distractor":"4619637","target":"present","response":"present","rt":"1399","correct":true,"confidence":-1},{"trial_n":85,"span":8,"encoder":"46688270","distractor":"46688970","target":"absent","response":"present","rt":"1018","correct":false,"confidence":-1},{"trial_n":86,"span":7,"encoder":"5730884","distractor":"9730884","target":"absent","response":"present","rt":"949","correct":false,"confidence":-1},{"trial_n":87,"span":6,"encoder":"279372","distractor":"271372","target":"absent","response":"absent","rt":"1228","correct":true,"confidence":-1},{"trial_n":88,"span":6,"encoder":"025809","distractor":"025309","target":"absent","response":"absent","rt":"1092","correct":true,"confidence":-1},{"trial_n":89,"span":7,"encoder":"9806055","distractor":"9846055","target":"present","response":"present","rt":"1431","correct":true,"confidence":-1},{"trial_n":90,"span":7,"encoder":"1697871","distractor":"1697771","target":"absent","response":"present","rt":"1100.0000000001","correct":false,"confidence":-1},{"trial_n":91,"span":6,"encoder":"509582","distractor":"504582","target":"absent","response":"absent","rt":"1112","correct":true,"confidence":3},{"trial_n":92,"span":6,"encoder":"809838","distractor":"609838","target":"absent","response":"present","rt":"1262","correct":false,"confidence":3},{"trial_n":93,"span":5,"encoder":"84235","distractor":"81235","target":"present","response":"present","rt":"923","correct":true,"confidence":3},{"trial_n":94,"span":5,"encoder":"12527","distractor":"12537","target":"present","response":"absent","rt":"890","correct":false,"confidence":3},{"trial_n":95,"span":4,"encoder":"4281","distractor":"4241","target":"absent","response":"absent","rt":"686","correct":true,"confidence":4},{"trial_n":96,"span":4,"encoder":"3661","distractor":"0661","target":"present","response":"present","rt":"3535","correct":true,"confidence":5},{"trial_n":97,"span":5,"encoder":"41859","distractor":"71859","target":"absent","response":"absent","rt":"1674","correct":true,"confidence":5},{"trial_n":98,"span":5,"encoder":"58594","distractor":"58564","target":"absent","response":"absent","rt":"1075","correct":true,"confidence":5},{"trial_n":99,"span":6,"encoder":"549396","distractor":"540396","target":"present","response":"absent","rt":"1097","correct":false,"confidence":5},{"trial_n":100,"span":5,"encoder":"58502","distractor":"58002","target":"absent","response":"present","rt":"876","correct":false,"confidence":4},{"trial_n":101,"span":4,"encoder":"7621","distractor":"7601","target":"absent","response":"absent","rt":"1799","correct":true,"confidence":4},{"trial_n":102,"span":4,"encoder":"9057","distractor":"9047","target":"absent","response":"present","rt":"3771","correct":false,"confidence":3},{"trial_n":103,"span":3,"encoder":"693","distractor":"493","target":"absent","response":"absent","rt":"2001","correct":true,"confidence":5},{"trial_n":104,"span":3,"encoder":"862","distractor":"822","target":"present","response":"present","rt":"1766","correct":true,"confidence":3},{"trial_n":105,"span":4,"encoder":"8351","distractor":"8381","target":"absent","response":"absent","rt":"1475","correct":true,"confidence":4},{"trial_n":106,"span":4,"encoder":"4165","distractor":"4164","target":"absent","response":"present","rt":"1440","correct":false,"confidence":3},{"trial_n":107,"span":3,"encoder":"478","distractor":"678","target":"present","response":"present","rt":"1385","correct":true,"confidence":4},{"trial_n":108,"span":3,"encoder":"093","distractor":"293","target":"absent","response":"absent","rt":"2353","correct":true,"confidence":3},{"trial_n":109,"span":4,"encoder":"3831","distractor":"3837","target":"present","response":"present","rt":"1257.0000000001","correct":true,"confidence":3},{"trial_n":110,"span":4,"encoder":"1132","distractor":"1122","target":"absent","response":"absent","rt":"1474","correct":true,"confidence":5},{"trial_n":111,"span":5,"encoder":"37912","distractor":"38912","target":"present","response":"present","rt":"1678","correct":true,"confidence":4},{"trial_n":112,"span":5,"encoder":"77478","distractor":"77488","target":"absent","response":"absent","rt":"1148","correct":true,"confidence":4},{"trial_n":113,"span":6,"encoder":"280738","distractor":"280734","target":"present","response":"present","rt":"1433","correct":true,"confidence":4},{"trial_n":114,"span":6,"encoder":"326903","distractor":"326003","target":"present","response":"present","rt":"1550","correct":true,"confidence":4},{"trial_n":115,"span":7,"encoder":"1810304","distractor":"1819304","target":"present","response":"present","rt":"1205.0000000001","correct":true,"confidence":4},{"trial_n":116,"span":7,"encoder":"4879626","distractor":"4879629","target":"present","response":"present","rt":"1538.0000000001","correct":true,"confidence":4},{"trial_n":117,"span":8,"encoder":"70660537","distractor":"70680537","target":"present","response":"absent","rt":"862.00000000012","correct":false,"confidence":4},{"trial_n":118,"span":7,"encoder":"6966072","distractor":"6966002","target":"present","response":"absent","rt":"806","correct":false,"confidence":4},{"trial_n":119,"span":6,"encoder":"108233","distractor":"178233","target":"present","response":"absent","rt":"754","correct":false,"confidence":4},{"trial_n":120,"span":5,"encoder":"12425","distractor":"16425","target":"absent","response":"present","rt":"1198.0000000001","correct":false,"confidence":3},{"trial_n":121,"span":4,"encoder":"2391","distractor":"2321","target":"absent","response":"absent","rt":"1893","correct":true,"confidence":3},{"trial_n":122,"span":4,"encoder":"1790","distractor":"5790","target":"present","response":"present","rt":"1730.9999999999","correct":true,"confidence":4},{"trial_n":123,"span":5,"encoder":"28979","distractor":"28978","target":"present","response":"present","rt":"1418","correct":true,"confidence":3},{"trial_n":124,"span":5,"encoder":"40521","distractor":"40821","target":"absent","response":"present","rt":"1286.0000000001","correct":false,"confidence":3},{"trial_n":125,"span":4,"encoder":"0518","distractor":"0538","target":"present","response":"present","rt":"1381","correct":true,"confidence":3},{"trial_n":126,"span":4,"encoder":"1751","distractor":"1741","target":"absent","response":"present","rt":"964","correct":false,"confidence":3},{"trial_n":127,"span":3,"encoder":"000","distractor":"900","target":"present","response":"present","rt":"1356.9999999999","correct":true,"confidence":4},{"trial_n":128,"span":3,"encoder":"487","distractor":"427","target":"absent","response":"absent","rt":"1426","correct":true,"confidence":3},{"trial_n":129,"span":4,"encoder":"0983","distractor":"0993","target":"absent","response":"absent","rt":"1696","correct":true,"confidence":3},{"trial_n":130,"span":4,"encoder":"3463","distractor":"3363","target":"absent","response":"present","rt":"1781","correct":false,"confidence":3},{"trial_n":131,"span":3,"encoder":"114","distractor":"117","target":"present","response":"present","rt":"1214.9999999999","correct":true,"confidence":4},{"trial_n":132,"span":3,"encoder":"169","distractor":"163","target":"absent","response":"absent","rt":"1379.0000000001","correct":true,"confidence":4},{"trial_n":133,"span":4,"encoder":"6921","distractor":"5921","target":"present","response":"present","rt":"1165","correct":true,"confidence":3},{"trial_n":134,"span":4,"encoder":"7674","distractor":"7474","target":"absent","response":"absent","rt":"1465","correct":true,"confidence":3},{"trial_n":135,"span":5,"encoder":"81958","distractor":"81928","target":"absent","response":"absent","rt":"919","correct":true,"confidence":3},{"trial_n":136,"span":5,"encoder":"77083","distractor":"75083","target":"present","response":"absent","rt":"2088","correct":false,"confidence":4},{"trial_n":137,"span":4,"encoder":"7395","distractor":"7995","target":"absent","response":"absent","rt":"1299.9999999999","correct":true,"confidence":3},{"trial_n":138,"span":4,"encoder":"2140","distractor":"2143","target":"present","response":"present","rt":"981.99999999988","correct":true,"confidence":4},{"trial_n":139,"span":5,"encoder":"53553","distractor":"53503","target":"absent","response":"absent","rt":"1187","correct":true,"confidence":3},{"trial_n":140,"span":5,"encoder":"29456","distractor":"23456","target":"present","response":"present","rt":"1471","correct":true,"confidence":3}]