[{"trial_n":1,"span":8,"encoder":"22959089","distractor":"22999089","target":"present","response":"absent","rt":"4447","correct":false,"confidence":-1},{"trial_n":2,"span":6,"encoder":"858557","distractor":"258557","target":"present","response":"present","rt":"2191","correct":true,"confidence":-1},{"trial_n":3,"span":6,"encoder":"031125","distractor":"031126","target":"absent","response":"absent","rt":"1923","correct":true,"confidence":-1},{"trial_n":4,"span":8,"encoder":"34752416","distractor":"32752416","target":"absent","response":"absent","rt":"1862","correct":true,"confidence":-1},{"trial_n":5,"span":8,"encoder":"20110108","distractor":"20114108","target":"present","response":"present","rt":"3034","correct":true,"confidence":-1},{"trial_n":6,"span":10,"encoder":"4430978004","distractor":"4430938004","target":"absent","response":"absent","rt":"1411","correct":true,"confidence":-1},{"trial_n":7,"span":10,"encoder":"6122859685","distractor":"6122856685","target":"present","response":"present","rt":"3211","correct":true,"confidence":-1},{"trial_n":8,"span":12,"encoder":"193359478303","distractor":"193359078303","target":"present","response":"absent","rt":"8877","correct":false,"confidence":-1},{"trial_n":9,"span":10,"encoder":"0709988109","distractor":"0709288109","target":"present","response":"absent","rt":"4942","correct":false,"confidence":-1},{"trial_n":10,"span":8,"encoder":"51141357","distractor":"51161357","target":"absent","response":"present","rt":"1964","correct":false,"confidence":-1},{"trial_n":11,"span":6,"encoder":"137146","distractor":"137186","target":"present","response":"present","rt":"1601","correct":true,"confidence":-1},{"trial_n":12,"span":6,"encoder":"513469","distractor":"563469","target":"present","response":"present","rt":"2318","correct":true,"confidence":-1},{"trial_n":13,"span":7,"encoder":"2107280","distractor":"2107980","target":"absent","response":"present","rt":"1223","correct":false,"confidence":-1},{"trial_n":14,"span":6,"encoder":"598464","distractor":"598164","target":"present","response":"present","rt":"892","correct":true,"confidence":-1},{"trial_n":15,"span":6,"encoder":"213938","distractor":"216938","target":"absent","response":"present","rt":"959","correct":false,"confidence":-1},{"trial_n":16,"span":5,"encoder":"02296","distractor":"02295","target":"absent","response":"absent","rt":"1208","correct":true,"confidence":-1},{"trial_n":17,"span":5,"encoder":"39908","distractor":"39988","target":"absent","response":"absent","rt":"2281","correct":true,"confidence":-1},{"trial_n":18,"span":6,"encoder":"105860","distractor":"105760","target":"absent","response":"absent","rt":"1336.9999999999","correct":true,"confidence":-1},{"trial_n":19,"span":6,"encoder":"864252","distractor":"867252","target":"present","response":"present","rt":"844","correct":true,"confidence":-1},{"trial_n":20,"span":7,"encoder":"7136734","distractor":"7136744","target":"present","response":"absent","rt":"3259","correct":false,"confidence":-1},{"trial_n":21,"span":6,"encoder":"320658","distractor":"320258","target":"present","response":"present","rt":"21704","correct":true,"confidence":2},{"trial_n":22,"span":6,"encoder":"081987","distractor":"081917","target":"absent","response":"absent","rt":"7508","correct":true,"confidence":3},{"trial_n":23,"span":7,"encoder":"5418236","distractor":"5468236","target":"absent","response":"absent","rt":"15707","correct":true,"confidence":2},{"trial_n":24,"span":7,"encoder":"6410197","distractor":"6450197","target":"absent","response":"absent","rt":"40642","correct":true,"confidence":2},{"trial_n":25,"span":8,"encoder":"25012940","distractor":"25092940","target":"present","response":"present","rt":"8989","correct":true,"confidence":4},{"trial_n":26,"span":8,"encoder":"51246275","distractor":"51246277","target":"present","response":"present","rt":"50993","correct":true,"confidence":2},{"trial_n":27,"span":9,"encoder":"752884632","distractor":"752284632","target":"absent","response":"present","rt":"53185","correct":false,"confidence":3},{"trial_n":28,"span":8,"encoder":"95628707","distractor":"95628717","target":"absent","response":"absent","rt":"1555","correct":true,"confidence":3},{"trial_n":29,"span":8,"encoder":"50716276","distractor":"52716276","target":"absent","response":"absent","rt":"1810","correct":true,"confidence":5},{"trial_n":30,"span":9,"encoder":"456529929","distractor":"456329929","target":"absent","response":"absent","rt":"36352","correct":true,"confidence":2},{"trial_n":31,"span":9,"encoder":"481976813","distractor":"488976813","target":"absent","response":"absent","rt":"2757","correct":true,"confidence":3},{"trial_n":32,"span":10,"encoder":"6674214527","distractor":"6674214521","target":"absent","response":"present","rt":"1746","correct":false,"confidence":4},{"trial_n":33,"span":9,"encoder":"022707745","distractor":"021707745","target":"absent","response":"present","rt":"1728.0000000001","correct":false,"confidence":4},{"trial_n":34,"span":8,"encoder":"92444366","distractor":"62444366","target":"present","response":"absent","rt":"4828","correct":false,"confidence":3},{"trial_n":35,"span":7,"encoder":"5520306","distractor":"5520346","target":"present","response":"present","rt":"1282","correct":true,"confidence":5},{"trial_n":36,"span":7,"encoder":"7058332","distractor":"7958332","target":"present","response":"absent","rt":"1309.0000000001","correct":false,"confidence":4},{"trial_n":37,"span":6,"encoder":"284612","distractor":"684612","target":"absent","response":"present","rt":"1054","correct":false,"confidence":4},{"trial_n":38,"span":5,"encoder":"09654","distractor":"05654","target":"present","response":"present","rt":"1483.0000000001","correct":true,"confidence":5},{"trial_n":39,"span":5,"encoder":"34993","distractor":"34933","target":"present","response":"present","rt":"1867","correct":true,"confidence":5},{"trial_n":40,"span":6,"encoder":"724322","distractor":"724372","target":"absent","response":"present","rt":"2373.0000000001","correct":false,"confidence":4},{"trial_n":41,"span":5,"encoder":"48406","distractor":"08406","target":"absent","response":"absent","rt":"1915","correct":true,"confidence":4},{"trial_n":42,"span":5,"encoder":"16620","distractor":"16320","target":"absent","response":"absent","rt":"1673","correct":true,"confidence":5},{"trial_n":43,"span":6,"encoder":"262110","distractor":"292110","target":"present","response":"present","rt":"1417","correct":true,"confidence":5},{"trial_n":44,"span":6,"encoder":"147131","distractor":"147136","target":"absent","response":"absent","rt":"2433","correct":true,"confidence":5},{"trial_n":45,"span":7,"encoder":"4388474","distractor":"4388472","target":"absent","response":"absent","rt":"1698","correct":true,"confidence":5},{"trial_n":46,"span":7,"encoder":"3546698","distractor":"3546498","target":"present","response":"present","rt":"3350","correct":true,"confidence":5},{"trial_n":47,"span":8,"encoder":"71343524","distractor":"71303524","target":"present","response":"present","rt":"1042","correct":true,"confidence":5},{"trial_n":48,"span":8,"encoder":"16640615","distractor":"16640614","target":"absent","response":"present","rt":"1934","correct":false,"confidence":2},{"trial_n":49,"span":7,"encoder":"2341679","distractor":"2341669","target":"present","response":"present","rt":"1940.0000000001","correct":true,"confidence":4},{"trial_n":50,"span":7,"encoder":"8249469","distractor":"8249479","target":"absent","response":"absent","rt":"3755","correct":true,"confidence":4},{"trial_n":51,"span":8,"encoder":"00021040","distractor":"02021040","target":"absent","response":"absent","rt":"1972.0000000001","correct":true,"confidence":1},{"trial_n":52,"span":8,"encoder":"08644231","distractor":"08644931","target":"present","response":"present","rt":"1323","correct":true,"confidence":4},{"trial_n":53,"span":9,"encoder":"642331445","distractor":"692331445","target":"present","response":"present","rt":"2647.0000000002","correct":true,"confidence":4},{"trial_n":54,"span":9,"encoder":"181321765","distractor":"981321765","target":"present","response":"present","rt":"2035","correct":true,"confidence":4},{"trial_n":55,"span":10,"encoder":"9948790684","distractor":"9948710684","target":"present","response":"absent","rt":"1803","correct":false,"confidence":4},{"trial_n":56,"span":9,"encoder":"242393372","distractor":"222393372","target":"present","response":"present","rt":"2911","correct":true,"confidence":4},{"trial_n":57,"span":9,"encoder":"295257839","distractor":"205257839","target":"present","response":"absent","rt":"1274","correct":false,"confidence":4},{"trial_n":58,"span":8,"encoder":"71841386","distractor":"51841386","target":"absent","response":"absent","rt":"1113","correct":true,"confidence":3},{"trial_n":59,"span":8,"encoder":"25447133","distractor":"25747133","target":"present","response":"present","rt":"1095","correct":true,"confidence":4},{"trial_n":60,"span":9,"encoder":"655081219","distractor":"655081119","target":"absent","response":"absent","rt":"4108","correct":true,"confidence":4},{"trial_n":61,"span":9,"encoder":"665245382","distractor":"665245389","target":"absent","response":"absent","rt":"2118","correct":true,"confidence":4},{"trial_n":62,"span":10,"encoder":"9353656155","distractor":"9353655155","target":"absent","response":"present","rt":"1762","correct":false,"confidence":4},{"trial_n":63,"span":9,"encoder":"783821112","distractor":"783861112","target":"present","response":"present","rt":"1462","correct":true,"confidence":4},{"trial_n":64,"span":9,"encoder":"724846038","distractor":"724846238","target":"present","response":"present","rt":"976","correct":true,"confidence":3},{"trial_n":65,"span":10,"encoder":"5455282149","distractor":"5455282143","target":"present","response":"present","rt":"1176","correct":true,"confidence":3},{"trial_n":66,"span":10,"encoder":"1719669167","distractor":"3719669167","target":"present","response":"present","rt":"1629","correct":true,"confidence":5},{"trial_n":67,"span":11,"encoder":"60883432182","distractor":"60884432182","target":"absent","response":"present","rt":"3324","correct":false,"confidence":5},{"trial_n":68,"span":10,"encoder":"3908661863","distractor":"3908161863","target":"present","response":"absent","rt":"1926","correct":false,"confidence":4},{"trial_n":69,"span":9,"encoder":"487493132","distractor":"487493131","target":"absent","response":"absent","rt":"1855","correct":true,"confidence":5},{"trial_n":70,"span":9,"encoder":"207669948","distractor":"207660948","target":"present","response":"present","rt":"1997","correct":true,"confidence":5},{"trial_n":71,"span":8,"encoder":"47807781","distractor":"47307781","target":"present","response":"present","rt":"3835","correct":true,"confidence":-1},{"trial_n":72,"span":8,"encoder":"27312240","distractor":"27372240","target":"present","response":"present","rt":"4790.9999999998","correct":true,"confidence":-1},{"trial_n":73,"span":9,"encoder":"304790356","distractor":"304790358","target":"absent","response":"absent","rt":"2660","correct":true,"confidence":-1},{"trial_n":74,"span":9,"encoder":"326844570","distractor":"326844670","target":"absent","response":"absent","rt":"6946","correct":true,"confidence":-1},{"trial_n":75,"span":10,"encoder":"0535947449","distractor":"0535947445","target":"present","response":"absent","rt":"4476","correct":false,"confidence":-1},{"trial_n":76,"span":9,"encoder":"748935822","distractor":"948935822","target":"absent","response":"present","rt":"20264","correct":false,"confidence":-1},{"trial_n":77,"span":8,"encoder":"53724738","distractor":"53794738","target":"present","response":"absent","rt":"3245","correct":false,"confidence":-1},{"trial_n":78,"span":7,"encoder":"5316553","distractor":"5516553","target":"absent","response":"present","rt":"856.99999999977","correct":false,"confidence":-1},{"trial_n":79,"span":6,"encoder":"847542","distractor":"848542","target":"present","response":"present","rt":"2397.9999999998","correct":true,"confidence":-1},{"trial_n":80,"span":6,"encoder":"713453","distractor":"713483","target":"present","response":"absent","rt":"3542","correct":false,"confidence":-1},{"trial_n":81,"span":5,"encoder":"27657","distractor":"27654","target":"present","response":"present","rt":"1233","correct":true,"confidence":-1},{"trial_n":82,"span":5,"encoder":"91513","distractor":"91313","target":"absent","response":"absent","rt":"1582","correct":true,"confidence":-1},{"trial_n":83,"span":6,"encoder":"333558","distractor":"333553","target":"absent","response":"absent","rt":"1730","correct":true,"confidence":-1},{"trial_n":84,"span":6,"encoder":"337888","distractor":"337880","target":"present","response":"present","rt":"1639.9999999998","correct":true,"confidence":-1},{"trial_n":85,"span":7,"encoder":"6298343","distractor":"6298373","target":"present","response":"present","rt":"1950","correct":true,"confidence":-1},{"trial_n":86,"span":7,"encoder":"9435893","distractor":"9425893","target":"absent","response":"absent","rt":"1778","correct":true,"confidence":-1},{"trial_n":87,"span":8,"encoder":"84871852","distractor":"84871812","target":"present","response":"present","rt":"2541","correct":true,"confidence":-1},{"trial_n":88,"span":8,"encoder":"81702673","distractor":"81702623","target":"absent","response":"absent","rt":"2351","correct":true,"confidence":-1},{"trial_n":89,"span":9,"encoder":"632036544","distractor":"672036544","target":"absent","response":"present","rt":"3143","correct":false,"confidence":-1},{"trial_n":90,"span":8,"encoder":"70766711","distractor":"70766411","target":"absent","response":"present","rt":"3671","correct":false,"confidence":-1},{"trial_n":91,"span":7,"encoder":"8288460","distractor":"8288480","target":"absent","response":"absent","rt":"1503","correct":true,"confidence":5},{"trial_n":92,"span":7,"encoder":"3725236","distractor":"3725286","target":"present","response":"present","rt":"1833.0000000002","correct":true,"confidence":5},{"trial_n":93,"span":8,"encoder":"60751892","distractor":"00751892","target":"absent","response":"absent","rt":"1503.0000000002","correct":true,"confidence":5},{"trial_n":94,"span":8,"encoder":"64565286","distractor":"54565286","target":"absent","response":"absent","rt":"1247","correct":true,"confidence":5},{"trial_n":95,"span":9,"encoder":"410141213","distractor":"417141213","target":"absent","response":"absent","rt":"1834","correct":true,"confidence":5},{"trial_n":96,"span":9,"encoder":"450458088","distractor":"450454088","target":"present","response":"present","rt":"6479.0000000002","correct":true,"confidence":5},{"trial_n":97,"span":10,"encoder":"1234643647","distractor":"1264643647","target":"absent","response":"absent","rt":"1639","correct":true,"confidence":5},{"trial_n":98,"span":10,"encoder":"1215212771","distractor":"1215212776","target":"absent","response":"absent","rt":"3690","correct":true,"confidence":5},{"trial_n":99,"span":11,"encoder":"25310666124","distractor":"25310666125","target":"present","response":"absent","rt":"1623","correct":false,"confidence":1},{"trial_n":100,"span":10,"encoder":"3238462500","distractor":"3238422500","target":"present","response":"present","rt":"5351.9999999998","correct":true,"confidence":5},{"trial_n":101,"span":10,"encoder":"6629453133","distractor":"6629453173","target":"absent","response":"absent","rt":"4850","correct":true,"confidence":5},{"trial_n":102,"span":11,"encoder":"11573262918","distractor":"11573262917","target":"present","response":"present","rt":"2779","correct":true,"confidence":5},{"trial_n":103,"span":11,"encoder":"76717891313","distractor":"76717891319","target":"absent","response":"absent","rt":"1353.9999999998","correct":true,"confidence":5},{"trial_n":104,"span":12,"encoder":"731232555090","distractor":"731732555090","target":"present","response":"absent","rt":"5579.9999999998","correct":false,"confidence":2},{"trial_n":105,"span":11,"encoder":"40121119032","distractor":"40121419032","target":"present","response":"present","rt":"3161","correct":true,"confidence":5},{"trial_n":106,"span":11,"encoder":"78688430702","distractor":"78688430102","target":"absent","response":"absent","rt":"3596","correct":true,"confidence":2},{"trial_n":107,"span":12,"encoder":"665723200417","distractor":"665723200413","target":"absent","response":"absent","rt":"1151","correct":true,"confidence":5},{"trial_n":108,"span":12,"encoder":"670706710268","distractor":"671706710268","target":"present","response":"absent","rt":"7311.0000000002","correct":false,"confidence":3},{"trial_n":109,"span":11,"encoder":"17007701693","distractor":"17007701623","target":"absent","response":"absent","rt":"3594","correct":true,"confidence":5},{"trial_n":110,"span":11,"encoder":"90968619348","distractor":"90768619348","target":"present","response":"absent","rt":"4928","correct":false,"confidence":4},{"trial_n":111,"span":10,"encoder":"2791964803","distractor":"2791968803","target":"present","response":"absent","rt":"3897.0000000002","correct":false,"confidence":2},{"trial_n":112,"span":9,"encoder":"158099304","distractor":"158099306","target":"absent","response":"absent","rt":"1512","correct":true,"confidence":5},{"trial_n":113,"span":9,"encoder":"876009943","distractor":"876009941","target":"present","response":"present","rt":"1789","correct":true,"confidence":5},{"trial_n":114,"span":10,"encoder":"8231616326","distractor":"8232616326","target":"absent","response":"present","rt":"14329","correct":false,"confidence":4},{"trial_n":115,"span":9,"encoder":"739985663","distractor":"739984663","target":"absent","response":"present","rt":"4084","correct":false,"confidence":1},{"trial_n":116,"span":8,"encoder":"30740426","distractor":"32740426","target":"absent","response":"absent","rt":"2449","correct":true,"confidence":4},{"trial_n":117,"span":8,"encoder":"49652638","distractor":"49652668","target":"present","response":"present","rt":"2359","correct":true,"confidence":5},{"trial_n":118,"span":9,"encoder":"910118182","distractor":"914118182","target":"present","response":"present","rt":"2723","correct":true,"confidence":5},{"trial_n":119,"span":9,"encoder":"194167141","distractor":"184167141","target":"present","response":"present","rt":"1368","correct":true,"confidence":1},{"trial_n":120,"span":10,"encoder":"4441407500","distractor":"4441402500","target":"absent","response":"absent","rt":"3298.9999999998","correct":true,"confidence":5},{"trial_n":121,"span":10,"encoder":"6563490961","distractor":"9563490961","target":"present","response":"present","rt":"3107.9999999998","correct":true,"confidence":4},{"trial_n":122,"span":11,"encoder":"56512729384","distractor":"56512729388","target":"present","response":"present","rt":"3954","correct":true,"confidence":5},{"trial_n":123,"span":11,"encoder":"08795312018","distractor":"04795312018","target":"present","response":"present","rt":"2439","correct":true,"confidence":5},{"trial_n":124,"span":12,"encoder":"711998187578","distractor":"711998187574","target":"present","response":"absent","rt":"3859.9999999998","correct":false,"confidence":3},{"trial_n":125,"span":11,"encoder":"41817446716","distractor":"41517446716","target":"present","response":"present","rt":"5730","correct":true,"confidence":3},{"trial_n":126,"span":11,"encoder":"67254605506","distractor":"67254615506","target":"absent","response":"absent","rt":"2918","correct":true,"confidence":4},{"trial_n":127,"span":12,"encoder":"729347431159","distractor":"729347431179","target":"present","response":"absent","rt":"2584","correct":false,"confidence":3},{"trial_n":128,"span":11,"encoder":"58229793372","distractor":"59229793372","target":"absent","response":"absent","rt":"4743","correct":true,"confidence":4},{"trial_n":129,"span":11,"encoder":"25059109761","distractor":"25052109761","target":"absent","response":"absent","rt":"2547","correct":true,"confidence":4},{"trial_n":130,"span":12,"encoder":"182431440932","distractor":"182431440922","target":"absent","response":"present","rt":"4052.0000000002","correct":false,"confidence":4},{"trial_n":131,"span":11,"encoder":"56484514030","distractor":"56484014030","target":"absent","response":"present","rt":"4908","correct":false,"confidence":4},{"trial_n":132,"span":10,"encoder":"2222301141","distractor":"2222311141","target":"present","response":"present","rt":"1731","correct":true,"confidence":5},{"trial_n":133,"span":10,"encoder":"5190856316","distractor":"5190856116","target":"present","response":"present","rt":"4061","correct":true,"confidence":4},{"trial_n":134,"span":11,"encoder":"81192979058","distractor":"81192978058","target":"present","response":"present","rt":"4269.0000000005","correct":true,"confidence":2},{"trial_n":135,"span":11,"encoder":"47715069940","distractor":"47711069940","target":"absent","response":"absent","rt":"4065","correct":true,"confidence":4},{"trial_n":136,"span":12,"encoder":"288750998174","distractor":"288750498174","target":"present","response":"present","rt":"2279","correct":true,"confidence":5},{"trial_n":137,"span":12,"encoder":"704162732357","distractor":"704162712357","target":"absent","response":"present","rt":"3551","correct":false,"confidence":4},{"trial_n":138,"span":11,"encoder":"66727745344","distractor":"63727745344","target":"absent","response":"absent","rt":"1928.0000000005","correct":true,"confidence":5},{"trial_n":139,"span":11,"encoder":"48627619823","distractor":"48627619825","target":"present","response":"present","rt":"4966","correct":true,"confidence":4},{"trial_n":140,"span":12,"encoder":"765593472273","distractor":"765593452273","target":"present","response":"absent","rt":"8206.9999999995","correct":false,"confidence":3}]