[{"trial_n":1,"min":25,"max":230,"target":"present","response":"absent","rt":6189,"correct":false,"confidence":-1},{"trial_n":2,"min":25,"max":230,"target":"present","response":"present","rt":810,"correct":true,"confidence":-1},{"trial_n":3,"min":25,"max":230,"target":"absent","response":"present","rt":1096,"correct":false,"confidence":-1},{"trial_n":4,"min":9,"max":246,"target":"absent","response":"absent","rt":1138,"correct":true,"confidence":-1},{"trial_n":5,"min":9,"max":246,"target":"present","response":"present","rt":587,"correct":true,"confidence":-1},{"trial_n":6,"min":25,"max":230,"target":"present","response":"present","rt":264,"correct":true,"confidence":-1},{"trial_n":7,"min":25,"max":230,"target":"absent","response":"absent","rt":638,"correct":true,"confidence":-1},{"trial_n":8,"min":41,"max":214,"target":"present","response":"absent","rt":544,"correct":false,"confidence":-1},{"trial_n":9,"min":25,"max":230,"target":"present","response":"present","rt":694,"correct":true,"confidence":-1},{"trial_n":10,"min":25,"max":230,"target":"present","response":"present","rt":338,"correct":true,"confidence":-1},{"trial_n":11,"min":33,"max":222,"target":"present","response":"present","rt":363,"correct":true,"confidence":-1},{"trial_n":12,"min":33,"max":222,"target":"present","response":"present","rt":201,"correct":true,"confidence":-1},{"trial_n":13,"min":41,"max":214,"target":"absent","response":"absent","rt":528,"correct":true,"confidence":-1},{"trial_n":14,"min":41,"max":214,"target":"present","response":"present","rt":909,"correct":true,"confidence":-1},{"trial_n":15,"min":49,"max":206,"target":"absent","response":"absent","rt":456,"correct":true,"confidence":-1},{"trial_n":16,"min":49,"max":206,"target":"present","response":"present","rt":595,"correct":true,"confidence":-1},{"trial_n":17,"min":57,"max":198,"target":"present","response":"present","rt":244,"correct":true,"confidence":-1},{"trial_n":18,"min":57,"max":198,"target":"absent","response":"absent","rt":464,"correct":true,"confidence":-1},{"trial_n":19,"min":65,"max":190,"target":"absent","response":"absent","rt":424,"correct":true,"confidence":-1},{"trial_n":20,"min":65,"max":190,"target":"present","response":"present","rt":528.99999999999,"correct":true,"confidence":-1},{"trial_n":21,"min":69,"max":186,"target":"absent","response":"absent","rt":937,"correct":true,"confidence":3},{"trial_n":22,"min":69,"max":186,"target":"absent","response":"absent","rt":600.00000000001,"correct":true,"confidence":5},{"trial_n":23,"min":73,"max":182,"target":"absent","response":"absent","rt":2428,"correct":true,"confidence":5},{"trial_n":24,"min":73,"max":182,"target":"absent","response":"absent","rt":809,"correct":true,"confidence":5},{"trial_n":25,"min":77,"max":178,"target":"present","response":"absent","rt":751.99999999999,"correct":false,"confidence":5},{"trial_n":26,"min":73,"max":182,"target":"present","response":"absent","rt":823,"correct":false,"confidence":5},{"trial_n":27,"min":69,"max":186,"target":"present","response":"absent","rt":767,"correct":false,"confidence":5},{"trial_n":28,"min":65,"max":190,"target":"absent","response":"absent","rt":682,"correct":true,"confidence":5},{"trial_n":29,"min":65,"max":190,"target":"absent","response":"absent","rt":515,"correct":true,"confidence":5},{"trial_n":30,"min":69,"max":186,"target":"absent","response":"absent","rt":631,"correct":true,"confidence":5},{"trial_n":31,"min":69,"max":186,"target":"absent","response":"absent","rt":905,"correct":true,"confidence":5},{"trial_n":32,"min":71,"max":184,"target":"absent","response":"absent","rt":607.99999999999,"correct":true,"confidence":5},{"trial_n":33,"min":71,"max":184,"target":"present","response":"absent","rt":640,"correct":false,"confidence":5},{"trial_n":34,"min":69,"max":186,"target":"present","response":"present","rt":1178,"correct":true,"confidence":5},{"trial_n":35,"min":69,"max":186,"target":"absent","response":"absent","rt":559,"correct":true,"confidence":5},{"trial_n":36,"min":71,"max":184,"target":"present","response":"present","rt":1400,"correct":true,"confidence":5},{"trial_n":37,"min":71,"max":184,"target":"present","response":"present","rt":1129,"correct":true,"confidence":5},{"trial_n":38,"min":73,"max":182,"target":"absent","response":"absent","rt":1046,"correct":true,"confidence":5},{"trial_n":39,"min":73,"max":182,"target":"present","response":"present","rt":773,"correct":true,"confidence":5},{"trial_n":40,"min":75,"max":180,"target":"absent","response":"absent","rt":537.00000000001,"correct":true,"confidence":5},{"trial_n":41,"min":75,"max":180,"target":"present","response":"absent","rt":561,"correct":false,"confidence":5},{"trial_n":42,"min":74,"max":181,"target":"present","response":"absent","rt":902,"correct":false,"confidence":5},{"trial_n":43,"min":73,"max":182,"target":"absent","response":"absent","rt":706,"correct":true,"confidence":5},{"trial_n":44,"min":73,"max":182,"target":"present","response":"present","rt":2125,"correct":true,"confidence":5},{"trial_n":45,"min":74,"max":181,"target":"present","response":"absent","rt":881,"correct":false,"confidence":5},{"trial_n":46,"min":73,"max":182,"target":"absent","response":"absent","rt":1555,"correct":true,"confidence":5},{"trial_n":47,"min":73,"max":182,"target":"present","response":"absent","rt":1286,"correct":false,"confidence":5},{"trial_n":48,"min":72,"max":183,"target":"present","response":"present","rt":2543,"correct":true,"confidence":5},{"trial_n":49,"min":72,"max":183,"target":"absent","response":"present","rt":763.00000000003,"correct":false,"confidence":5},{"trial_n":50,"min":71,"max":184,"target":"absent","response":"present","rt":995,"correct":false,"confidence":5},{"trial_n":51,"min":70,"max":185,"target":"absent","response":"absent","rt":867,"correct":true,"confidence":5},{"trial_n":52,"min":70,"max":185,"target":"present","response":"absent","rt":765,"correct":false,"confidence":5},{"trial_n":53,"min":69,"max":186,"target":"absent","response":"present","rt":679,"correct":false,"confidence":5},{"trial_n":54,"min":68,"max":187,"target":"present","response":"present","rt":771,"correct":true,"confidence":5},{"trial_n":55,"min":68,"max":187,"target":"absent","response":"absent","rt":1532,"correct":true,"confidence":5},{"trial_n":56,"min":69,"max":186,"target":"present","response":"present","rt":800,"correct":true,"confidence":5},{"trial_n":57,"min":69,"max":186,"target":"absent","response":"absent","rt":973,"correct":true,"confidence":5},{"trial_n":58,"min":70,"max":185,"target":"absent","response":"absent","rt":1821,"correct":true,"confidence":5},{"trial_n":59,"min":70,"max":185,"target":"absent","response":"absent","rt":934,"correct":true,"confidence":5},{"trial_n":60,"min":71,"max":184,"target":"absent","response":"present","rt":1010,"correct":false,"confidence":5},{"trial_n":61,"min":70,"max":185,"target":"absent","response":"present","rt":1531,"correct":false,"confidence":5},{"trial_n":62,"min":69,"max":186,"target":"present","response":"present","rt":1122,"correct":true,"confidence":5},{"trial_n":63,"min":69,"max":186,"target":"present","response":"present","rt":766,"correct":true,"confidence":5},{"trial_n":64,"min":70,"max":185,"target":"present","response":"present","rt":770,"correct":true,"confidence":5},{"trial_n":65,"min":70,"max":185,"target":"present","response":"present","rt":775.00000000003,"correct":true,"confidence":5},{"trial_n":66,"min":71,"max":184,"target":"absent","response":"present","rt":1279,"correct":false,"confidence":5},{"trial_n":67,"min":70,"max":185,"target":"absent","response":"present","rt":1412,"correct":false,"confidence":5},{"trial_n":68,"min":69,"max":186,"target":"present","response":"present","rt":807,"correct":true,"confidence":5},{"trial_n":69,"min":69,"max":186,"target":"absent","response":"present","rt":675,"correct":false,"confidence":5},{"trial_n":70,"min":68,"max":187,"target":"present","response":"present","rt":575.00000000003,"correct":true,"confidence":5},{"trial_n":71,"min":41,"max":214,"target":"present","response":"present","rt":9350,"correct":true,"confidence":-1},{"trial_n":72,"min":41,"max":214,"target":"present","response":"absent","rt":7011,"correct":false,"confidence":-1},{"trial_n":73,"min":25,"max":230,"target":"absent","response":"absent","rt":2601,"correct":true,"confidence":-1},{"trial_n":74,"min":25,"max":230,"target":"absent","response":"absent","rt":760,"correct":true,"confidence":-1},{"trial_n":75,"min":41,"max":214,"target":"present","response":"absent","rt":354.00000000003,"correct":false,"confidence":-1},{"trial_n":76,"min":25,"max":230,"target":"present","response":"present","rt":972.00000000003,"correct":true,"confidence":-1},{"trial_n":77,"min":25,"max":230,"target":"present","response":"present","rt":1062,"correct":true,"confidence":-1},{"trial_n":78,"min":41,"max":214,"target":"absent","response":"absent","rt":3910,"correct":true,"confidence":-1},{"trial_n":79,"min":41,"max":214,"target":"absent","response":"absent","rt":861,"correct":true,"confidence":-1},{"trial_n":80,"min":57,"max":198,"target":"present","response":"present","rt":950,"correct":true,"confidence":-1},{"trial_n":81,"min":57,"max":198,"target":"present","response":"present","rt":1936,"correct":true,"confidence":-1},{"trial_n":82,"min":65,"max":190,"target":"present","response":"present","rt":499,"correct":true,"confidence":-1},{"trial_n":83,"min":65,"max":190,"target":"absent","response":"absent","rt":1412,"correct":true,"confidence":-1},{"trial_n":84,"min":73,"max":182,"target":"present","response":"present","rt":639.00000000006,"correct":true,"confidence":-1},{"trial_n":85,"min":73,"max":182,"target":"present","response":"present","rt":1550,"correct":true,"confidence":-1},{"trial_n":86,"min":81,"max":174,"target":"absent","response":"absent","rt":630,"correct":true,"confidence":-1},{"trial_n":87,"min":81,"max":174,"target":"absent","response":"present","rt":844,"correct":false,"confidence":-1},{"trial_n":88,"min":73,"max":182,"target":"absent","response":"present","rt":2244,"correct":false,"confidence":-1},{"trial_n":89,"min":65,"max":190,"target":"present","response":"present","rt":1127,"correct":true,"confidence":-1},{"trial_n":90,"min":65,"max":190,"target":"absent","response":"absent","rt":1299,"correct":true,"confidence":-1},{"trial_n":91,"min":69,"max":186,"target":"absent","response":"present","rt":1409.9999999999,"correct":false,"confidence":2},{"trial_n":92,"min":65,"max":190,"target":"present","response":"present","rt":1697,"correct":true,"confidence":5},{"trial_n":93,"min":65,"max":190,"target":"present","response":"present","rt":686,"correct":true,"confidence":5},{"trial_n":94,"min":69,"max":186,"target":"absent","response":"present","rt":1204.9999999999,"correct":false,"confidence":5},{"trial_n":95,"min":65,"max":190,"target":"absent","response":"absent","rt":797,"correct":true,"confidence":5},{"trial_n":96,"min":65,"max":190,"target":"present","response":"present","rt":1083,"correct":true,"confidence":5},{"trial_n":97,"min":69,"max":186,"target":"present","response":"present","rt":1045,"correct":true,"confidence":5},{"trial_n":98,"min":69,"max":186,"target":"absent","response":"absent","rt":714,"correct":true,"confidence":5},{"trial_n":99,"min":73,"max":182,"target":"absent","response":"absent","rt":651,"correct":true,"confidence":5},{"trial_n":100,"min":73,"max":182,"target":"absent","response":"absent","rt":1889,"correct":true,"confidence":5},{"trial_n":101,"min":75,"max":180,"target":"absent","response":"absent","rt":620,"correct":true,"confidence":5},{"trial_n":102,"min":75,"max":180,"target":"absent","response":"absent","rt":808.00000000006,"correct":true,"confidence":5},{"trial_n":103,"min":77,"max":178,"target":"present","response":"present","rt":1159.9999999999,"correct":true,"confidence":5},{"trial_n":104,"min":77,"max":178,"target":"present","response":"present","rt":670,"correct":true,"confidence":5},{"trial_n":105,"min":79,"max":176,"target":"present","response":"present","rt":1566,"correct":true,"confidence":5},{"trial_n":106,"min":79,"max":176,"target":"present","response":"present","rt":211,"correct":true,"confidence":3},{"trial_n":107,"min":81,"max":174,"target":"absent","response":"present","rt":605,"correct":false,"confidence":3},{"trial_n":108,"min":79,"max":176,"target":"present","response":"present","rt":1161,"correct":true,"confidence":5},{"trial_n":109,"min":79,"max":176,"target":"present","response":"present","rt":327,"correct":true,"confidence":5},{"trial_n":110,"min":81,"max":174,"target":"absent","response":"absent","rt":1271.9999999999,"correct":true,"confidence":4},{"trial_n":111,"min":81,"max":174,"target":"present","response":"present","rt":348,"correct":true,"confidence":5},{"trial_n":112,"min":82,"max":173,"target":"absent","response":"absent","rt":1477,"correct":true,"confidence":2},{"trial_n":113,"min":82,"max":173,"target":"present","response":"present","rt":103,"correct":true,"confidence":5},{"trial_n":114,"min":83,"max":172,"target":"present","response":"absent","rt":1533,"correct":false,"confidence":1},{"trial_n":115,"min":82,"max":173,"target":"absent","response":"present","rt":356,"correct":false,"confidence":4},{"trial_n":116,"min":81,"max":174,"target":"present","response":"present","rt":143,"correct":true,"confidence":4},{"trial_n":117,"min":81,"max":174,"target":"absent","response":"absent","rt":1487,"correct":true,"confidence":1},{"trial_n":118,"min":82,"max":173,"target":"absent","response":"present","rt":794,"correct":false,"confidence":4},{"trial_n":119,"min":81,"max":174,"target":"absent","response":"absent","rt":1081,"correct":true,"confidence":1},{"trial_n":120,"min":81,"max":174,"target":"absent","response":"present","rt":1391,"correct":false,"confidence":1},{"trial_n":121,"min":80,"max":175,"target":"present","response":"present","rt":1247,"correct":true,"confidence":1},{"trial_n":122,"min":80,"max":175,"target":"present","response":"present","rt":246,"correct":true,"confidence":5},{"trial_n":123,"min":81,"max":174,"target":"present","response":"present","rt":73.000000000058,"correct":true,"confidence":5},{"trial_n":124,"min":81,"max":174,"target":"present","response":"present","rt":78,"correct":true,"confidence":5},{"trial_n":125,"min":82,"max":173,"target":"absent","response":"absent","rt":1683,"correct":true,"confidence":5},{"trial_n":126,"min":82,"max":173,"target":"present","response":"present","rt":366.99999999994,"correct":true,"confidence":5},{"trial_n":127,"min":83,"max":172,"target":"present","response":"present","rt":1208,"correct":true,"confidence":5},{"trial_n":128,"min":83,"max":172,"target":"absent","response":"absent","rt":769,"correct":true,"confidence":5},{"trial_n":129,"min":84,"max":171,"target":"absent","response":"present","rt":1058,"correct":false,"confidence":2},{"trial_n":130,"min":83,"max":172,"target":"absent","response":"present","rt":719.99999999994,"correct":false,"confidence":1},{"trial_n":131,"min":82,"max":173,"target":"absent","response":"present","rt":1037,"correct":false,"confidence":1},{"trial_n":132,"min":81,"max":174,"target":"present","response":"absent","rt":394,"correct":false,"confidence":1},{"trial_n":133,"min":80,"max":175,"target":"absent","response":"present","rt":1490,"correct":false,"confidence":1},{"trial_n":134,"min":79,"max":176,"target":"present","response":"present","rt":311.99999999994,"correct":true,"confidence":5},{"trial_n":135,"min":79,"max":176,"target":"absent","response":"present","rt":248.99999999994,"correct":false,"confidence":5},{"trial_n":136,"min":78,"max":177,"target":"present","response":"present","rt":512,"correct":true,"confidence":5},{"trial_n":137,"min":78,"max":177,"target":"present","response":"present","rt":369,"correct":true,"confidence":5},{"trial_n":138,"min":79,"max":176,"target":"absent","response":"present","rt":786,"correct":false,"confidence":1},{"trial_n":139,"min":78,"max":177,"target":"absent","response":"absent","rt":1342,"correct":true,"confidence":4},{"trial_n":140,"min":78,"max":177,"target":"present","response":"absent","rt":725.00000000006,"correct":false,"confidence":4}]