[{"trial_n":1,"n_dots":4.25,"target":"right","response":"right","rt":2500,"correct":true,"confidence":-1},{"trial_n":2,"n_dots":4.25,"target":"right","response":"left","rt":920,"correct":false,"confidence":-1},{"trial_n":3,"n_dots":4.65,"target":"right","response":"right","rt":554,"correct":true,"confidence":-1},{"trial_n":4,"n_dots":4.65,"target":"right","response":"right","rt":387,"correct":true,"confidence":-1},{"trial_n":5,"n_dots":4.25,"target":"left","response":"left","rt":685,"correct":true,"confidence":-1},{"trial_n":6,"n_dots":4.25,"target":"left","response":"left","rt":412,"correct":true,"confidence":-1},{"trial_n":7,"n_dots":3.85,"target":"right","response":"right","rt":603,"correct":true,"confidence":-1},{"trial_n":8,"n_dots":3.85,"target":"left","response":"left","rt":988,"correct":true,"confidence":-1},{"trial_n":9,"n_dots":3.65,"target":"right","response":"right","rt":596,"correct":true,"confidence":-1},{"trial_n":10,"n_dots":3.65,"target":"left","response":"left","rt":979,"correct":true,"confidence":-1},{"trial_n":11,"n_dots":3.45,"target":"left","response":"left","rt":366,"correct":true,"confidence":-1},{"trial_n":12,"n_dots":3.45,"target":"left","response":"left","rt":463,"correct":true,"confidence":-1},{"trial_n":13,"n_dots":3.35,"target":"right","response":"left","rt":463.00000000001,"correct":false,"confidence":-1},{"trial_n":14,"n_dots":3.45,"target":"right","response":"left","rt":300.00000000001,"correct":false,"confidence":-1},{"trial_n":15,"n_dots":3.55,"target":"left","response":"right","rt":825,"correct":false,"confidence":-1},{"trial_n":16,"n_dots":3.65,"target":"right","response":"left","rt":578,"correct":false,"confidence":-1},{"trial_n":17,"n_dots":3.75,"target":"left","response":"left","rt":342,"correct":true,"confidence":-1},{"trial_n":18,"n_dots":3.75,"target":"left","response":"left","rt":170,"correct":true,"confidence":-1},{"trial_n":19,"n_dots":3.65,"target":"left","response":"left","rt":575,"correct":true,"confidence":-1},{"trial_n":20,"n_dots":3.65,"target":"right","response":"left","rt":201,"correct":false,"confidence":-1},{"trial_n":21,"n_dots":3.75,"target":"right","response":"right","rt":452,"correct":true,"confidence":4},{"trial_n":22,"n_dots":3.75,"target":"right","response":"right","rt":332,"correct":true,"confidence":5},{"trial_n":23,"n_dots":3.65,"target":"right","response":"right","rt":981,"correct":true,"confidence":4},{"trial_n":24,"n_dots":3.65,"target":"right","response":"left","rt":947,"correct":false,"confidence":2},{"trial_n":25,"n_dots":3.75,"target":"right","response":"right","rt":828,"correct":true,"confidence":4},{"trial_n":26,"n_dots":3.75,"target":"right","response":"right","rt":547.99999999999,"correct":true,"confidence":5},{"trial_n":27,"n_dots":3.65,"target":"left","response":"left","rt":657,"correct":true,"confidence":5},{"trial_n":28,"n_dots":3.65,"target":"right","response":"right","rt":449,"correct":true,"confidence":4},{"trial_n":29,"n_dots":3.55,"target":"left","response":"left","rt":584.99999999999,"correct":true,"confidence":4},{"trial_n":30,"n_dots":3.55,"target":"left","response":"left","rt":623,"correct":true,"confidence":4},{"trial_n":31,"n_dots":3.45,"target":"right","response":"right","rt":396.00000000001,"correct":true,"confidence":4},{"trial_n":32,"n_dots":3.45,"target":"right","response":"right","rt":425,"correct":true,"confidence":4},{"trial_n":33,"n_dots":3.35,"target":"left","response":"left","rt":507,"correct":true,"confidence":4},{"trial_n":34,"n_dots":3.35,"target":"right","response":"right","rt":757,"correct":true,"confidence":4},{"trial_n":35,"n_dots":3.25,"target":"left","response":"left","rt":417,"correct":true,"confidence":4},{"trial_n":36,"n_dots":3.25,"target":"left","response":"left","rt":354,"correct":true,"confidence":4},{"trial_n":37,"n_dots":3.15,"target":"right","response":"left","rt":597.99999999997,"correct":false,"confidence":4},{"trial_n":38,"n_dots":3.25,"target":"left","response":"left","rt":538,"correct":true,"confidence":4},{"trial_n":39,"n_dots":3.25,"target":"right","response":"left","rt":685.00000000003,"correct":false,"confidence":4},{"trial_n":40,"n_dots":3.35,"target":"left","response":"left","rt":598,"correct":true,"confidence":5},{"trial_n":41,"n_dots":3.35,"target":"left","response":"left","rt":815,"correct":true,"confidence":5},{"trial_n":42,"n_dots":3.25,"target":"right","response":"right","rt":506,"correct":true,"confidence":4},{"trial_n":43,"n_dots":3.25,"target":"left","response":"left","rt":676.99999999997,"correct":true,"confidence":5},{"trial_n":44,"n_dots":3.15,"target":"left","response":"left","rt":682.99999999997,"correct":true,"confidence":5},{"trial_n":45,"n_dots":3.15,"target":"left","response":"left","rt":2187,"correct":true,"confidence":4},{"trial_n":46,"n_dots":3.05,"target":"right","response":"right","rt":410,"correct":true,"confidence":5},{"trial_n":47,"n_dots":3.05,"target":"right","response":"right","rt":470,"correct":true,"confidence":5},{"trial_n":48,"n_dots":2.95,"target":"right","response":"left","rt":945.99999999997,"correct":false,"confidence":4},{"trial_n":49,"n_dots":3.05,"target":"right","response":"right","rt":470,"correct":true,"confidence":4},{"trial_n":50,"n_dots":3.05,"target":"right","response":"right","rt":246.00000000003,"correct":true,"confidence":3},{"trial_n":51,"n_dots":2.95,"target":"left","response":"right","rt":841,"correct":false,"confidence":2},{"trial_n":52,"n_dots":3.05,"target":"left","response":"left","rt":349,"correct":true,"confidence":5},{"trial_n":53,"n_dots":3.05,"target":"left","response":"left","rt":415,"correct":true,"confidence":5},{"trial_n":54,"n_dots":2.95,"target":"left","response":"left","rt":416,"correct":true,"confidence":5},{"trial_n":55,"n_dots":2.95,"target":"right","response":"left","rt":498,"correct":false,"confidence":3},{"trial_n":56,"n_dots":3.05,"target":"left","response":"left","rt":331,"correct":true,"confidence":5},{"trial_n":57,"n_dots":3.05,"target":"right","response":"left","rt":361.99999999997,"correct":false,"confidence":5},{"trial_n":58,"n_dots":3.15,"target":"right","response":"left","rt":239,"correct":false,"confidence":4},{"trial_n":59,"n_dots":3.25,"target":"left","response":"left","rt":119,"correct":true,"confidence":4},{"trial_n":60,"n_dots":3.25,"target":"right","response":"right","rt":120,"correct":true,"confidence":4},{"trial_n":61,"n_dots":3.15,"target":"right","response":"right","rt":326,"correct":true,"confidence":4},{"trial_n":62,"n_dots":3.15,"target":"left","response":"left","rt":400,"correct":true,"confidence":4},{"trial_n":63,"n_dots":3.05,"target":"left","response":"left","rt":83,"correct":true,"confidence":4},{"trial_n":64,"n_dots":3.05,"target":"right","response":"right","rt":594,"correct":true,"confidence":4},{"trial_n":65,"n_dots":2.95,"target":"left","response":"left","rt":146,"correct":true,"confidence":4},{"trial_n":66,"n_dots":2.95,"target":"left","response":"right","rt":262,"correct":false,"confidence":5},{"trial_n":67,"n_dots":3.05,"target":"right","response":"right","rt":232.99999999994,"correct":true,"confidence":5},{"trial_n":68,"n_dots":3.05,"target":"right","response":"left","rt":553,"correct":false,"confidence":4},{"trial_n":69,"n_dots":3.15,"target":"right","response":"right","rt":285,"correct":true,"confidence":4},{"trial_n":70,"n_dots":3.15,"target":"left","response":"left","rt":165,"correct":true,"confidence":4},{"trial_n":71,"n_dots":3.05,"target":"left","response":"left","rt":349,"correct":true,"confidence":4},{"trial_n":72,"n_dots":3.05,"target":"right","response":"left","rt":263,"correct":false,"confidence":4},{"trial_n":73,"n_dots":3.15,"target":"left","response":"left","rt":469.99999999994,"correct":true,"confidence":4},{"trial_n":74,"n_dots":3.15,"target":"right","response":"right","rt":545,"correct":true,"confidence":4},{"trial_n":75,"n_dots":3.05,"target":"left","response":"left","rt":395,"correct":true,"confidence":4},{"trial_n":76,"n_dots":3.05,"target":"left","response":"left","rt":822.00000000006,"correct":true,"confidence":4},{"trial_n":77,"n_dots":2.95,"target":"right","response":"left","rt":368.99999999994,"correct":false,"confidence":3},{"trial_n":78,"n_dots":3.05,"target":"right","response":"right","rt":291,"correct":true,"confidence":5},{"trial_n":79,"n_dots":3.05,"target":"right","response":"right","rt":270,"correct":true,"confidence":5},{"trial_n":80,"n_dots":2.95,"target":"right","response":"right","rt":573,"correct":true,"confidence":2},{"trial_n":81,"n_dots":2.95,"target":"right","response":"right","rt":329,"correct":true,"confidence":5},{"trial_n":82,"n_dots":2.85,"target":"left","response":"left","rt":631.99999999994,"correct":true,"confidence":3},{"trial_n":83,"n_dots":2.85,"target":"right","response":"right","rt":-3.9999999999418,"correct":true,"confidence":4},{"trial_n":84,"n_dots":2.75,"target":"right","response":"right","rt":694,"correct":true,"confidence":2},{"trial_n":85,"n_dots":2.75,"target":"left","response":"right","rt":398,"correct":false,"confidence":2},{"trial_n":86,"n_dots":2.85,"target":"left","response":"left","rt":275.00000000006,"correct":true,"confidence":2},{"trial_n":87,"n_dots":2.85,"target":"left","response":"right","rt":422,"correct":false,"confidence":5},{"trial_n":88,"n_dots":2.95,"target":"left","response":"left","rt":292,"correct":true,"confidence":5},{"trial_n":89,"n_dots":2.95,"target":"left","response":"right","rt":374,"correct":false,"confidence":5},{"trial_n":90,"n_dots":3.05,"target":"left","response":"left","rt":66.000000000058,"correct":true,"confidence":5},{"trial_n":91,"n_dots":3.05,"target":"left","response":"left","rt":194,"correct":true,"confidence":5},{"trial_n":92,"n_dots":2.95,"target":"left","response":"left","rt":267,"correct":true,"confidence":5},{"trial_n":93,"n_dots":2.95,"target":"right","response":"left","rt":583,"correct":false,"confidence":3},{"trial_n":94,"n_dots":3.05,"target":"right","response":"left","rt":765,"correct":false,"confidence":4},{"trial_n":95,"n_dots":3.15,"target":"right","response":"right","rt":291,"correct":true,"confidence":4},{"trial_n":96,"n_dots":3.15,"target":"right","response":"right","rt":156,"correct":true,"confidence":4},{"trial_n":97,"n_dots":3.05,"target":"left","response":"right","rt":758,"correct":false,"confidence":4},{"trial_n":98,"n_dots":3.15,"target":"left","response":"left","rt":411,"correct":true,"confidence":4},{"trial_n":99,"n_dots":3.15,"target":"left","response":"left","rt":690,"correct":true,"confidence":4},{"trial_n":100,"n_dots":3.05,"target":"left","response":"left","rt":4460,"correct":true,"confidence":1},{"trial_n":101,"n_dots":3.05,"target":"right","response":"left","rt":393.00000000006,"correct":false,"confidence":2},{"trial_n":102,"n_dots":3.15,"target":"left","response":"left","rt":187,"correct":true,"confidence":2},{"trial_n":103,"n_dots":3.15,"target":"left","response":"left","rt":399,"correct":true,"confidence":4},{"trial_n":104,"n_dots":3.05,"target":"right","response":"right","rt":9874.0000000001,"correct":true,"confidence":3},{"trial_n":105,"n_dots":3.05,"target":"right","response":"right","rt":526,"correct":true,"confidence":4},{"trial_n":106,"n_dots":2.95,"target":"right","response":"right","rt":412.99999999994,"correct":true,"confidence":4},{"trial_n":107,"n_dots":2.95,"target":"left","response":"left","rt":438,"correct":true,"confidence":3},{"trial_n":108,"n_dots":2.85,"target":"right","response":"left","rt":703,"correct":false,"confidence":3},{"trial_n":109,"n_dots":2.95,"target":"right","response":"left","rt":1743,"correct":false,"confidence":3},{"trial_n":110,"n_dots":3.05,"target":"right","response":"left","rt":1393,"correct":false,"confidence":2},{"trial_n":111,"n_dots":3.15,"target":"left","response":"left","rt":237,"correct":true,"confidence":2},{"trial_n":112,"n_dots":3.15,"target":"left","response":"left","rt":1002,"correct":true,"confidence":3},{"trial_n":113,"n_dots":3.05,"target":"right","response":"right","rt":662,"correct":true,"confidence":4},{"trial_n":114,"n_dots":3.05,"target":"right","response":"left","rt":664.99999999994,"correct":false,"confidence":3},{"trial_n":115,"n_dots":3.15,"target":"left","response":"left","rt":1109.9999999999,"correct":true,"confidence":2},{"trial_n":116,"n_dots":3.15,"target":"left","response":"left","rt":308,"correct":true,"confidence":5},{"trial_n":117,"n_dots":3.05,"target":"left","response":"left","rt":548,"correct":true,"confidence":4},{"trial_n":118,"n_dots":3.05,"target":"left","response":"left","rt":633,"correct":true,"confidence":3},{"trial_n":119,"n_dots":2.95,"target":"right","response":"left","rt":804,"correct":false,"confidence":4},{"trial_n":120,"n_dots":3.05,"target":"left","response":"left","rt":726,"correct":true,"confidence":3}]