[{"trial_n":1,"n_dots":4.25,"target":"left","response":"left","rt":17939,"correct":true,"confidence":-1},{"trial_n":2,"n_dots":4.25,"target":"left","response":"left","rt":351.00000000001,"correct":true,"confidence":-1},{"trial_n":3,"n_dots":3.85,"target":"left","response":"left","rt":405,"correct":true,"confidence":-1},{"trial_n":4,"n_dots":3.85,"target":"left","response":"left","rt":341.99999999999,"correct":true,"confidence":-1},{"trial_n":5,"n_dots":3.45,"target":"right","response":"right","rt":329,"correct":true,"confidence":-1},{"trial_n":6,"n_dots":3.45,"target":"left","response":"left","rt":413.00000000001,"correct":true,"confidence":-1},{"trial_n":7,"n_dots":3.05,"target":"right","response":"right","rt":299,"correct":true,"confidence":-1},{"trial_n":8,"n_dots":3.05,"target":"right","response":"right","rt":327,"correct":true,"confidence":-1},{"trial_n":9,"n_dots":2.85,"target":"right","response":"right","rt":260,"correct":true,"confidence":-1},{"trial_n":10,"n_dots":2.85,"target":"left","response":"right","rt":520,"correct":false,"confidence":-1},{"trial_n":11,"n_dots":3.05,"target":"right","response":"left","rt":376,"correct":false,"confidence":-1},{"trial_n":12,"n_dots":3.25,"target":"left","response":"right","rt":303,"correct":false,"confidence":-1},{"trial_n":13,"n_dots":3.35,"target":"left","response":"left","rt":640.99999999999,"correct":true,"confidence":-1},{"trial_n":14,"n_dots":3.35,"target":"right","response":"left","rt":687,"correct":false,"confidence":-1},{"trial_n":15,"n_dots":3.45,"target":"right","response":"right","rt":955,"correct":true,"confidence":-1},{"trial_n":16,"n_dots":3.45,"target":"left","response":"left","rt":821,"correct":true,"confidence":-1},{"trial_n":17,"n_dots":3.35,"target":"right","response":"right","rt":733,"correct":true,"confidence":-1},{"trial_n":18,"n_dots":3.35,"target":"left","response":"left","rt":886,"correct":true,"confidence":-1},{"trial_n":19,"n_dots":3.25,"target":"right","response":"right","rt":447,"correct":true,"confidence":-1},{"trial_n":20,"n_dots":3.25,"target":"left","response":"left","rt":386,"correct":true,"confidence":-1},{"trial_n":21,"n_dots":3.15,"target":"right","response":"right","rt":332,"correct":true,"confidence":4},{"trial_n":22,"n_dots":3.15,"target":"right","response":"right","rt":468,"correct":true,"confidence":4},{"trial_n":23,"n_dots":3.05,"target":"right","response":"right","rt":991,"correct":true,"confidence":4},{"trial_n":24,"n_dots":3.05,"target":"left","response":"left","rt":531,"correct":true,"confidence":5},{"trial_n":25,"n_dots":2.95,"target":"left","response":"left","rt":1078,"correct":true,"confidence":5},{"trial_n":26,"n_dots":2.95,"target":"left","response":"left","rt":1767,"correct":true,"confidence":3},{"trial_n":27,"n_dots":2.85,"target":"left","response":"left","rt":453.00000000001,"correct":true,"confidence":4},{"trial_n":28,"n_dots":2.85,"target":"left","response":"left","rt":642,"correct":true,"confidence":3},{"trial_n":29,"n_dots":2.75,"target":"left","response":"left","rt":590,"correct":true,"confidence":3},{"trial_n":30,"n_dots":2.75,"target":"right","response":"right","rt":425,"correct":true,"confidence":4},{"trial_n":31,"n_dots":2.65,"target":"left","response":"left","rt":608,"correct":true,"confidence":4},{"trial_n":32,"n_dots":2.65,"target":"left","response":"left","rt":866,"correct":true,"confidence":4},{"trial_n":33,"n_dots":2.55,"target":"left","response":"right","rt":709,"correct":false,"confidence":2},{"trial_n":34,"n_dots":2.65,"target":"left","response":"left","rt":792,"correct":true,"confidence":2},{"trial_n":35,"n_dots":2.65,"target":"right","response":"left","rt":431.99999999997,"correct":false,"confidence":1},{"trial_n":36,"n_dots":2.75,"target":"right","response":"right","rt":1044,"correct":true,"confidence":4},{"trial_n":37,"n_dots":2.75,"target":"right","response":"right","rt":643,"correct":true,"confidence":4},{"trial_n":38,"n_dots":2.65,"target":"right","response":"right","rt":482,"correct":true,"confidence":4},{"trial_n":39,"n_dots":2.65,"target":"right","response":"right","rt":317,"correct":true,"confidence":5},{"trial_n":40,"n_dots":2.55,"target":"right","response":"right","rt":729,"correct":true,"confidence":5},{"trial_n":41,"n_dots":2.55,"target":"left","response":"left","rt":492.00000000003,"correct":true,"confidence":3},{"trial_n":42,"n_dots":2.45,"target":"right","response":"left","rt":979,"correct":false,"confidence":2},{"trial_n":43,"n_dots":2.55,"target":"left","response":"left","rt":532,"correct":true,"confidence":4},{"trial_n":44,"n_dots":2.55,"target":"left","response":"right","rt":1349,"correct":false,"confidence":4},{"trial_n":45,"n_dots":2.65,"target":"right","response":"right","rt":636,"correct":true,"confidence":5},{"trial_n":46,"n_dots":2.65,"target":"right","response":"right","rt":1125,"correct":true,"confidence":4},{"trial_n":47,"n_dots":2.55,"target":"left","response":"right","rt":557.99999999997,"correct":false,"confidence":4},{"trial_n":48,"n_dots":2.65,"target":"left","response":"left","rt":480,"correct":true,"confidence":3},{"trial_n":49,"n_dots":2.65,"target":"right","response":"right","rt":195,"correct":true,"confidence":5},{"trial_n":50,"n_dots":2.55,"target":"right","response":"right","rt":499,"correct":true,"confidence":4},{"trial_n":51,"n_dots":2.55,"target":"right","response":"right","rt":493,"correct":true,"confidence":3},{"trial_n":52,"n_dots":2.45,"target":"left","response":"left","rt":919.99999999997,"correct":true,"confidence":4},{"trial_n":53,"n_dots":2.45,"target":"right","response":"right","rt":591,"correct":true,"confidence":4},{"trial_n":54,"n_dots":2.35,"target":"right","response":"right","rt":496,"correct":true,"confidence":3},{"trial_n":55,"n_dots":2.35,"target":"right","response":"left","rt":491.99999999997,"correct":false,"confidence":3},{"trial_n":56,"n_dots":2.45,"target":"left","response":"right","rt":601,"correct":false,"confidence":2},{"trial_n":57,"n_dots":2.55,"target":"left","response":"left","rt":164,"correct":true,"confidence":4},{"trial_n":58,"n_dots":2.55,"target":"left","response":"left","rt":304,"correct":true,"confidence":5},{"trial_n":59,"n_dots":2.45,"target":"right","response":"right","rt":430,"correct":true,"confidence":5},{"trial_n":60,"n_dots":2.45,"target":"left","response":"left","rt":1401,"correct":true,"confidence":2},{"trial_n":61,"n_dots":2.35,"target":"left","response":"left","rt":220,"correct":true,"confidence":3},{"trial_n":62,"n_dots":2.35,"target":"right","response":"right","rt":456.00000000003,"correct":true,"confidence":4},{"trial_n":63,"n_dots":2.25,"target":"right","response":"left","rt":351.99999999997,"correct":false,"confidence":3},{"trial_n":64,"n_dots":2.35,"target":"left","response":"left","rt":316,"correct":true,"confidence":5},{"trial_n":65,"n_dots":2.35,"target":"left","response":"left","rt":164.00000000006,"correct":true,"confidence":5},{"trial_n":66,"n_dots":2.25,"target":"right","response":"left","rt":93,"correct":false,"confidence":4},{"trial_n":67,"n_dots":2.35,"target":"right","response":"right","rt":306,"correct":true,"confidence":3},{"trial_n":68,"n_dots":2.35,"target":"left","response":"left","rt":159,"correct":true,"confidence":4},{"trial_n":69,"n_dots":2.25,"target":"left","response":"left","rt":165,"correct":true,"confidence":4},{"trial_n":70,"n_dots":2.25,"target":"right","response":"left","rt":179,"correct":false,"confidence":4},{"trial_n":71,"n_dots":2.35,"target":"left","response":"left","rt":138.99999999994,"correct":true,"confidence":4},{"trial_n":72,"n_dots":2.35,"target":"left","response":"right","rt":682,"correct":false,"confidence":4},{"trial_n":73,"n_dots":2.45,"target":"left","response":"left","rt":284,"correct":true,"confidence":5},{"trial_n":74,"n_dots":2.45,"target":"left","response":"left","rt":199,"correct":true,"confidence":5},{"trial_n":75,"n_dots":2.35,"target":"right","response":"left","rt":313,"correct":false,"confidence":5},{"trial_n":76,"n_dots":2.45,"target":"right","response":"left","rt":171,"correct":false,"confidence":4},{"trial_n":77,"n_dots":2.55,"target":"right","response":"left","rt":310,"correct":false,"confidence":5},{"trial_n":78,"n_dots":2.65,"target":"left","response":"left","rt":216,"correct":true,"confidence":4},{"trial_n":79,"n_dots":2.65,"target":"right","response":"left","rt":324,"correct":false,"confidence":5},{"trial_n":80,"n_dots":2.75,"target":"left","response":"left","rt":215,"correct":true,"confidence":5},{"trial_n":81,"n_dots":2.75,"target":"left","response":"left","rt":2288,"correct":true,"confidence":4},{"trial_n":82,"n_dots":2.65,"target":"right","response":"right","rt":485.00000000006,"correct":true,"confidence":4},{"trial_n":83,"n_dots":2.65,"target":"left","response":"left","rt":330,"correct":true,"confidence":4},{"trial_n":84,"n_dots":2.55,"target":"left","response":"left","rt":118,"correct":true,"confidence":4},{"trial_n":85,"n_dots":2.55,"target":"right","response":"left","rt":138,"correct":false,"confidence":4},{"trial_n":86,"n_dots":2.65,"target":"right","response":"left","rt":291,"correct":false,"confidence":4},{"trial_n":87,"n_dots":2.75,"target":"right","response":"left","rt":165,"correct":false,"confidence":5},{"trial_n":88,"n_dots":2.85,"target":"right","response":"left","rt":1429,"correct":false,"confidence":4},{"trial_n":89,"n_dots":2.95,"target":"left","response":"left","rt":323,"correct":true,"confidence":4},{"trial_n":90,"n_dots":2.95,"target":"left","response":"left","rt":387,"correct":true,"confidence":4},{"trial_n":91,"n_dots":2.85,"target":"left","response":"left","rt":374,"correct":true,"confidence":5},{"trial_n":92,"n_dots":2.85,"target":"left","response":"left","rt":392,"correct":true,"confidence":5},{"trial_n":93,"n_dots":2.75,"target":"right","response":"right","rt":734.00000000006,"correct":true,"confidence":4},{"trial_n":94,"n_dots":2.75,"target":"left","response":"left","rt":237,"correct":true,"confidence":5},{"trial_n":95,"n_dots":2.65,"target":"left","response":"left","rt":373,"correct":true,"confidence":5},{"trial_n":96,"n_dots":2.65,"target":"right","response":"right","rt":750,"correct":true,"confidence":3},{"trial_n":97,"n_dots":2.55,"target":"left","response":"left","rt":375,"correct":true,"confidence":5},{"trial_n":98,"n_dots":2.55,"target":"right","response":"left","rt":336.99999999994,"correct":false,"confidence":3},{"trial_n":99,"n_dots":2.65,"target":"left","response":"left","rt":287,"correct":true,"confidence":5},{"trial_n":100,"n_dots":2.65,"target":"right","response":"left","rt":275,"correct":false,"confidence":5},{"trial_n":101,"n_dots":2.75,"target":"right","response":"left","rt":216,"correct":false,"confidence":3},{"trial_n":102,"n_dots":2.85,"target":"right","response":"left","rt":165,"correct":false,"confidence":5},{"trial_n":103,"n_dots":2.95,"target":"right","response":"right","rt":348.00000000006,"correct":true,"confidence":3},{"trial_n":104,"n_dots":2.95,"target":"left","response":"left","rt":433,"correct":true,"confidence":2},{"trial_n":105,"n_dots":2.85,"target":"right","response":"left","rt":412,"correct":false,"confidence":2},{"trial_n":106,"n_dots":2.95,"target":"left","response":"left","rt":444,"correct":true,"confidence":4},{"trial_n":107,"n_dots":2.95,"target":"left","response":"left","rt":360.00000000006,"correct":true,"confidence":5},{"trial_n":108,"n_dots":2.85,"target":"right","response":"right","rt":339,"correct":true,"confidence":2},{"trial_n":109,"n_dots":2.85,"target":"right","response":"left","rt":1580.9999999999,"correct":false,"confidence":3},{"trial_n":110,"n_dots":2.95,"target":"right","response":"right","rt":385,"correct":true,"confidence":3},{"trial_n":111,"n_dots":2.95,"target":"right","response":"right","rt":325,"correct":true,"confidence":4},{"trial_n":112,"n_dots":2.85,"target":"right","response":"right","rt":472,"correct":true,"confidence":2},{"trial_n":113,"n_dots":2.85,"target":"right","response":"right","rt":477,"correct":true,"confidence":3},{"trial_n":114,"n_dots":2.75,"target":"left","response":"left","rt":264,"correct":true,"confidence":3},{"trial_n":115,"n_dots":2.75,"target":"right","response":"right","rt":353.00000000006,"correct":true,"confidence":2},{"trial_n":116,"n_dots":2.65,"target":"left","response":"left","rt":279,"correct":true,"confidence":5},{"trial_n":117,"n_dots":2.65,"target":"right","response":"right","rt":341.99999999994,"correct":true,"confidence":5},{"trial_n":118,"n_dots":2.55,"target":"right","response":"left","rt":298.99999999994,"correct":false,"confidence":5},{"trial_n":119,"n_dots":2.65,"target":"left","response":"left","rt":381,"correct":true,"confidence":5},{"trial_n":120,"n_dots":2.65,"target":"left","response":"right","rt":347,"correct":false,"confidence":3}]