[{"trial_n":1,"min":25,"max":230,"target":"present","response":"absent","rt":5027,"correct":false,"confidence":-1},{"trial_n":2,"min":25,"max":230,"target":"present","response":"present","rt":2231,"correct":true,"confidence":-1},{"trial_n":3,"min":25,"max":230,"target":"absent","response":"present","rt":1244,"correct":false,"confidence":-1},{"trial_n":4,"min":9,"max":246,"target":"absent","response":"absent","rt":531,"correct":true,"confidence":-1},{"trial_n":5,"min":9,"max":246,"target":"present","response":"present","rt":267.00000000003,"correct":true,"confidence":-1},{"trial_n":6,"min":25,"max":230,"target":"present","response":"present","rt":303,"correct":true,"confidence":-1},{"trial_n":7,"min":25,"max":230,"target":"present","response":"present","rt":288,"correct":true,"confidence":-1},{"trial_n":8,"min":41,"max":214,"target":"absent","response":"absent","rt":257.99999999997,"correct":true,"confidence":-1},{"trial_n":9,"min":41,"max":214,"target":"absent","response":"absent","rt":288,"correct":true,"confidence":-1},{"trial_n":10,"min":57,"max":198,"target":"present","response":"present","rt":505.00000000003,"correct":true,"confidence":-1},{"trial_n":11,"min":57,"max":198,"target":"present","response":"present","rt":306,"correct":true,"confidence":-1},{"trial_n":12,"min":65,"max":190,"target":"present","response":"present","rt":379.99999999997,"correct":true,"confidence":-1},{"trial_n":13,"min":65,"max":190,"target":"present","response":"present","rt":295,"correct":true,"confidence":-1},{"trial_n":14,"min":73,"max":182,"target":"present","response":"present","rt":293,"correct":true,"confidence":-1},{"trial_n":15,"min":73,"max":182,"target":"present","response":"present","rt":282,"correct":true,"confidence":-1},{"trial_n":16,"min":81,"max":174,"target":"present","response":"absent","rt":252,"correct":false,"confidence":-1},{"trial_n":17,"min":73,"max":182,"target":"absent","response":"absent","rt":441,"correct":true,"confidence":-1},{"trial_n":18,"min":73,"max":182,"target":"absent","response":"absent","rt":376,"correct":true,"confidence":-1},{"trial_n":19,"min":81,"max":174,"target":"present","response":"absent","rt":428,"correct":false,"confidence":-1},{"trial_n":20,"min":73,"max":182,"target":"absent","response":"absent","rt":482,"correct":true,"confidence":-1},{"trial_n":21,"min":73,"max":182,"target":"absent","response":"absent","rt":595,"correct":true,"confidence":4},{"trial_n":22,"min":77,"max":178,"target":"absent","response":"absent","rt":760,"correct":true,"confidence":4},{"trial_n":23,"min":77,"max":178,"target":"absent","response":"absent","rt":1282,"correct":true,"confidence":3},{"trial_n":24,"min":81,"max":174,"target":"present","response":"absent","rt":487.00000000003,"correct":false,"confidence":3},{"trial_n":25,"min":77,"max":178,"target":"absent","response":"absent","rt":719.00000000003,"correct":true,"confidence":4},{"trial_n":26,"min":77,"max":178,"target":"present","response":"present","rt":943,"correct":true,"confidence":4},{"trial_n":27,"min":81,"max":174,"target":"absent","response":"absent","rt":544.99999999997,"correct":true,"confidence":3},{"trial_n":28,"min":81,"max":174,"target":"absent","response":"absent","rt":628,"correct":true,"confidence":3},{"trial_n":29,"min":85,"max":170,"target":"present","response":"absent","rt":503,"correct":false,"confidence":4},{"trial_n":30,"min":81,"max":174,"target":"present","response":"absent","rt":1039,"correct":false,"confidence":3},{"trial_n":31,"min":79,"max":176,"target":"present","response":"absent","rt":704,"correct":false,"confidence":4},{"trial_n":32,"min":77,"max":178,"target":"absent","response":"absent","rt":443,"correct":true,"confidence":3},{"trial_n":33,"min":77,"max":178,"target":"absent","response":"absent","rt":434,"correct":true,"confidence":3},{"trial_n":34,"min":79,"max":176,"target":"absent","response":"absent","rt":463.00000000003,"correct":true,"confidence":3},{"trial_n":35,"min":79,"max":176,"target":"absent","response":"absent","rt":436,"correct":true,"confidence":3},{"trial_n":36,"min":81,"max":174,"target":"absent","response":"absent","rt":568.00000000003,"correct":true,"confidence":4},{"trial_n":37,"min":81,"max":174,"target":"absent","response":"absent","rt":373.99999999997,"correct":true,"confidence":4},{"trial_n":38,"min":83,"max":172,"target":"present","response":"absent","rt":409,"correct":false,"confidence":3},{"trial_n":39,"min":81,"max":174,"target":"absent","response":"absent","rt":425,"correct":true,"confidence":4},{"trial_n":40,"min":81,"max":174,"target":"absent","response":"absent","rt":452,"correct":true,"confidence":4},{"trial_n":41,"min":82,"max":173,"target":"present","response":"absent","rt":859,"correct":false,"confidence":3},{"trial_n":42,"min":81,"max":174,"target":"absent","response":"absent","rt":428,"correct":true,"confidence":4},{"trial_n":43,"min":81,"max":174,"target":"present","response":"present","rt":1162,"correct":true,"confidence":4},{"trial_n":44,"min":82,"max":173,"target":"present","response":"present","rt":862,"correct":true,"confidence":4},{"trial_n":45,"min":82,"max":173,"target":"absent","response":"absent","rt":511,"correct":true,"confidence":3},{"trial_n":46,"min":83,"max":172,"target":"present","response":"absent","rt":461.99999999994,"correct":false,"confidence":4},{"trial_n":47,"min":82,"max":173,"target":"absent","response":"absent","rt":305,"correct":true,"confidence":4},{"trial_n":48,"min":82,"max":173,"target":"present","response":"absent","rt":316.00000000006,"correct":false,"confidence":1},{"trial_n":49,"min":81,"max":174,"target":"present","response":"absent","rt":410,"correct":false,"confidence":4},{"trial_n":50,"min":80,"max":175,"target":"absent","response":"absent","rt":330,"correct":true,"confidence":4},{"trial_n":51,"min":80,"max":175,"target":"absent","response":"absent","rt":513,"correct":true,"confidence":4},{"trial_n":52,"min":81,"max":174,"target":"absent","response":"absent","rt":259,"correct":true,"confidence":4},{"trial_n":53,"min":81,"max":174,"target":"present","response":"absent","rt":529.00000000006,"correct":false,"confidence":4},{"trial_n":54,"min":80,"max":175,"target":"absent","response":"absent","rt":384,"correct":true,"confidence":4},{"trial_n":55,"min":80,"max":175,"target":"absent","response":"absent","rt":306.00000000006,"correct":true,"confidence":4},{"trial_n":56,"min":81,"max":174,"target":"present","response":"absent","rt":393,"correct":false,"confidence":3},{"trial_n":57,"min":80,"max":175,"target":"present","response":"present","rt":948,"correct":true,"confidence":4},{"trial_n":58,"min":80,"max":175,"target":"present","response":"present","rt":1335,"correct":true,"confidence":5},{"trial_n":59,"min":81,"max":174,"target":"absent","response":"absent","rt":462,"correct":true,"confidence":5},{"trial_n":60,"min":81,"max":174,"target":"present","response":"present","rt":884,"correct":true,"confidence":5},{"trial_n":61,"min":82,"max":173,"target":"absent","response":"absent","rt":1026.0000000001,"correct":true,"confidence":3},{"trial_n":62,"min":82,"max":173,"target":"absent","response":"absent","rt":520,"correct":true,"confidence":4},{"trial_n":63,"min":83,"max":172,"target":"present","response":"present","rt":549,"correct":true,"confidence":5},{"trial_n":64,"min":83,"max":172,"target":"present","response":"present","rt":585,"correct":true,"confidence":5},{"trial_n":65,"min":84,"max":171,"target":"absent","response":"absent","rt":479,"correct":true,"confidence":3},{"trial_n":66,"min":84,"max":171,"target":"absent","response":"absent","rt":740,"correct":true,"confidence":4},{"trial_n":67,"min":85,"max":170,"target":"present","response":"present","rt":662,"correct":true,"confidence":5},{"trial_n":68,"min":85,"max":170,"target":"present","response":"present","rt":812,"correct":true,"confidence":2},{"trial_n":69,"min":86,"max":169,"target":"present","response":"present","rt":483,"correct":true,"confidence":4},{"trial_n":70,"min":86,"max":169,"target":"present","response":"present","rt":691.00000000006,"correct":true,"confidence":4},{"trial_n":71,"min":41,"max":214,"target":"present","response":"present","rt":2202,"correct":true,"confidence":-1},{"trial_n":72,"min":41,"max":214,"target":"present","response":"absent","rt":785,"correct":false,"confidence":-1},{"trial_n":73,"min":25,"max":230,"target":"absent","response":"absent","rt":1235,"correct":true,"confidence":-1},{"trial_n":74,"min":25,"max":230,"target":"absent","response":"absent","rt":819.99999999994,"correct":true,"confidence":-1},{"trial_n":75,"min":41,"max":214,"target":"present","response":"present","rt":1287,"correct":true,"confidence":-1},{"trial_n":76,"min":41,"max":214,"target":"absent","response":"absent","rt":869,"correct":true,"confidence":-1},{"trial_n":77,"min":57,"max":198,"target":"present","response":"present","rt":968,"correct":true,"confidence":-1},{"trial_n":78,"min":57,"max":198,"target":"absent","response":"absent","rt":735,"correct":true,"confidence":-1},{"trial_n":79,"min":73,"max":182,"target":"absent","response":"absent","rt":1118,"correct":true,"confidence":-1},{"trial_n":80,"min":73,"max":182,"target":"present","response":"present","rt":969,"correct":true,"confidence":-1},{"trial_n":81,"min":81,"max":174,"target":"absent","response":"absent","rt":753,"correct":true,"confidence":-1},{"trial_n":82,"min":81,"max":174,"target":"present","response":"present","rt":1252,"correct":true,"confidence":-1},{"trial_n":83,"min":89,"max":166,"target":"present","response":"absent","rt":885,"correct":false,"confidence":-1},{"trial_n":84,"min":81,"max":174,"target":"absent","response":"present","rt":819,"correct":false,"confidence":-1},{"trial_n":85,"min":73,"max":182,"target":"absent","response":"absent","rt":668.00000000006,"correct":true,"confidence":-1},{"trial_n":86,"min":73,"max":182,"target":"absent","response":"absent","rt":636,"correct":true,"confidence":-1},{"trial_n":87,"min":81,"max":174,"target":"present","response":"present","rt":769,"correct":true,"confidence":-1},{"trial_n":88,"min":81,"max":174,"target":"present","response":"present","rt":1803.0000000001,"correct":true,"confidence":-1},{"trial_n":89,"min":89,"max":166,"target":"absent","response":"absent","rt":851,"correct":true,"confidence":-1},{"trial_n":90,"min":89,"max":166,"target":"absent","response":"absent","rt":723,"correct":true,"confidence":-1},{"trial_n":91,"min":93,"max":162,"target":"present","response":"absent","rt":1395.0000000001,"correct":false,"confidence":3},{"trial_n":92,"min":89,"max":166,"target":"absent","response":"absent","rt":871,"correct":true,"confidence":3},{"trial_n":93,"min":89,"max":166,"target":"absent","response":"absent","rt":1205,"correct":true,"confidence":3},{"trial_n":94,"min":93,"max":162,"target":"present","response":"absent","rt":904,"correct":false,"confidence":3},{"trial_n":95,"min":89,"max":166,"target":"absent","response":"absent","rt":705,"correct":true,"confidence":3},{"trial_n":96,"min":89,"max":166,"target":"present","response":"present","rt":804,"correct":true,"confidence":3},{"trial_n":97,"min":93,"max":162,"target":"absent","response":"absent","rt":1171.9999999999,"correct":true,"confidence":2},{"trial_n":98,"min":93,"max":162,"target":"present","response":"absent","rt":1137.9999999999,"correct":false,"confidence":3},{"trial_n":99,"min":89,"max":166,"target":"present","response":"present","rt":1721,"correct":true,"confidence":3},{"trial_n":100,"min":89,"max":166,"target":"absent","response":"present","rt":1090,"correct":false,"confidence":3},{"trial_n":101,"min":87,"max":168,"target":"present","response":"present","rt":745,"correct":true,"confidence":3},{"trial_n":102,"min":87,"max":168,"target":"absent","response":"present","rt":1038.9999999999,"correct":false,"confidence":2},{"trial_n":103,"min":85,"max":170,"target":"absent","response":"absent","rt":1288.0000000001,"correct":true,"confidence":3},{"trial_n":104,"min":85,"max":170,"target":"absent","response":"present","rt":1323.0000000001,"correct":false,"confidence":3},{"trial_n":105,"min":83,"max":172,"target":"present","response":"present","rt":672,"correct":true,"confidence":3},{"trial_n":106,"min":83,"max":172,"target":"present","response":"present","rt":1272,"correct":true,"confidence":3},{"trial_n":107,"min":85,"max":170,"target":"present","response":"present","rt":572.99999999994,"correct":true,"confidence":3},{"trial_n":108,"min":85,"max":170,"target":"present","response":"present","rt":1439.0000000001,"correct":true,"confidence":3},{"trial_n":109,"min":87,"max":168,"target":"present","response":"present","rt":856.99999999994,"correct":true,"confidence":3},{"trial_n":110,"min":87,"max":168,"target":"absent","response":"absent","rt":773,"correct":true,"confidence":3},{"trial_n":111,"min":88,"max":167,"target":"absent","response":"absent","rt":1361,"correct":true,"confidence":3},{"trial_n":112,"min":88,"max":167,"target":"absent","response":"absent","rt":943,"correct":true,"confidence":3},{"trial_n":113,"min":89,"max":166,"target":"present","response":"present","rt":264,"correct":true,"confidence":4},{"trial_n":114,"min":89,"max":166,"target":"present","response":"present","rt":620.99999999988,"correct":true,"confidence":3},{"trial_n":115,"min":90,"max":165,"target":"present","response":"present","rt":607,"correct":true,"confidence":3},{"trial_n":116,"min":90,"max":165,"target":"present","response":"present","rt":420,"correct":true,"confidence":5},{"trial_n":117,"min":91,"max":164,"target":"present","response":"present","rt":460.00000000012,"correct":true,"confidence":5},{"trial_n":118,"min":91,"max":164,"target":"present","response":"present","rt":928,"correct":true,"confidence":4},{"trial_n":119,"min":92,"max":163,"target":"present","response":"present","rt":479,"correct":true,"confidence":3},{"trial_n":120,"min":92,"max":163,"target":"absent","response":"present","rt":610,"correct":false,"confidence":3},{"trial_n":121,"min":91,"max":164,"target":"present","response":"present","rt":646,"correct":true,"confidence":2},{"trial_n":122,"min":91,"max":164,"target":"present","response":"present","rt":545.00000000012,"correct":true,"confidence":5},{"trial_n":123,"min":92,"max":163,"target":"absent","response":"absent","rt":700.00000000012,"correct":true,"confidence":2},{"trial_n":124,"min":92,"max":163,"target":"absent","response":"present","rt":505.00000000012,"correct":false,"confidence":1},{"trial_n":125,"min":91,"max":164,"target":"present","response":"present","rt":397,"correct":true,"confidence":1},{"trial_n":126,"min":91,"max":164,"target":"present","response":"present","rt":531,"correct":true,"confidence":1},{"trial_n":127,"min":92,"max":163,"target":"absent","response":"present","rt":395,"correct":false,"confidence":1},{"trial_n":128,"min":91,"max":164,"target":"absent","response":"absent","rt":584,"correct":true,"confidence":1},{"trial_n":129,"min":91,"max":164,"target":"absent","response":"present","rt":504,"correct":false,"confidence":1},{"trial_n":130,"min":90,"max":165,"target":"absent","response":"present","rt":419.00000000012,"correct":false,"confidence":1},{"trial_n":131,"min":89,"max":166,"target":"absent","response":"present","rt":437,"correct":false,"confidence":1},{"trial_n":132,"min":88,"max":167,"target":"present","response":"absent","rt":1069,"correct":false,"confidence":1},{"trial_n":133,"min":87,"max":168,"target":"present","response":"present","rt":294,"correct":true,"confidence":5},{"trial_n":134,"min":87,"max":168,"target":"present","response":"absent","rt":628.99999999988,"correct":false,"confidence":2},{"trial_n":135,"min":86,"max":169,"target":"absent","response":"absent","rt":647.99999999988,"correct":true,"confidence":5},{"trial_n":136,"min":86,"max":169,"target":"absent","response":"absent","rt":565,"correct":true,"confidence":5},{"trial_n":137,"min":87,"max":168,"target":"absent","response":"absent","rt":538.00000000012,"correct":true,"confidence":5},{"trial_n":138,"min":87,"max":168,"target":"present","response":"present","rt":518,"correct":true,"confidence":4},{"trial_n":139,"min":88,"max":167,"target":"absent","response":"absent","rt":538,"correct":true,"confidence":4},{"trial_n":140,"min":88,"max":167,"target":"present","response":"absent","rt":561,"correct":false,"confidence":1}]