[{"trial_n":1,"min":25,"max":230,"target":"present","response":"absent","rt":7270.2999999989,"correct":false,"confidence":-1},{"trial_n":2,"min":25,"max":230,"target":"present","response":"absent","rt":5764,"correct":false,"confidence":-1},{"trial_n":3,"min":9,"max":246,"target":"absent","response":"present","rt":1964.4000000004,"correct":false,"confidence":-1},{"trial_n":4,"min":0,"max":255,"target":"absent","response":"present","rt":2789.1000000015,"correct":false,"confidence":-1},{"trial_n":5,"min":0,"max":255,"target":"present","response":"present","rt":1098.3000000007,"correct":true,"confidence":-1},{"trial_n":6,"min":0,"max":255,"target":"present","response":"present","rt":449.90000000037,"correct":true,"confidence":-1},{"trial_n":7,"min":16,"max":239,"target":"present","response":"present","rt":430.80000000075,"correct":true,"confidence":-1},{"trial_n":8,"min":16,"max":239,"target":"present","response":"present","rt":114.19999999925,"correct":true,"confidence":-1},{"trial_n":9,"min":32,"max":223,"target":"present","response":"present","rt":643.70000000112,"correct":true,"confidence":-1},{"trial_n":10,"min":32,"max":223,"target":"absent","response":"absent","rt":511.20000000112,"correct":true,"confidence":-1},{"trial_n":11,"min":40,"max":215,"target":"absent","response":"absent","rt":435.59999999963,"correct":true,"confidence":-1},{"trial_n":12,"min":40,"max":215,"target":"absent","response":"absent","rt":419,"correct":true,"confidence":-1},{"trial_n":13,"min":48,"max":207,"target":"absent","response":"absent","rt":448.59999999963,"correct":true,"confidence":-1},{"trial_n":14,"min":48,"max":207,"target":"absent","response":"absent","rt":392,"correct":true,"confidence":-1},{"trial_n":15,"min":56,"max":199,"target":"present","response":"present","rt":459.40000000037,"correct":true,"confidence":-1},{"trial_n":16,"min":56,"max":199,"target":"present","response":"present","rt":578.5,"correct":true,"confidence":-1},{"trial_n":17,"min":64,"max":191,"target":"absent","response":"absent","rt":492.69999999925,"correct":true,"confidence":-1},{"trial_n":18,"min":64,"max":191,"target":"absent","response":"absent","rt":456.60000000149,"correct":true,"confidence":-1},{"trial_n":19,"min":72,"max":183,"target":"absent","response":"absent","rt":637.60000000149,"correct":true,"confidence":-1},{"trial_n":20,"min":72,"max":183,"target":"present","response":"absent","rt":675.29999999888,"correct":false,"confidence":-1},{"trial_n":21,"min":68,"max":187,"target":"present","response":"absent","rt":1027.3000000007,"correct":false,"confidence":1},{"trial_n":22,"min":64,"max":191,"target":"present","response":"present","rt":420.30000000075,"correct":true,"confidence":4},{"trial_n":23,"min":64,"max":191,"target":"present","response":"present","rt":487.90000000037,"correct":true,"confidence":4},{"trial_n":24,"min":68,"max":187,"target":"present","response":"present","rt":947.39999999851,"correct":true,"confidence":3},{"trial_n":25,"min":68,"max":187,"target":"present","response":"present","rt":476.10000000149,"correct":true,"confidence":4},{"trial_n":26,"min":72,"max":183,"target":"absent","response":"absent","rt":708.80000000075,"correct":true,"confidence":1},{"trial_n":27,"min":72,"max":183,"target":"absent","response":"absent","rt":602.20000000112,"correct":true,"confidence":3},{"trial_n":28,"min":76,"max":179,"target":"present","response":"present","rt":458.59999999963,"correct":true,"confidence":3},{"trial_n":29,"min":76,"max":179,"target":"absent","response":"absent","rt":849.40000000037,"correct":true,"confidence":1},{"trial_n":30,"min":80,"max":175,"target":"absent","response":"absent","rt":629.90000000037,"correct":true,"confidence":3},{"trial_n":31,"min":80,"max":175,"target":"present","response":"present","rt":732.09999999963,"correct":true,"confidence":3},{"trial_n":32,"min":82,"max":173,"target":"present","response":"present","rt":509.09999999963,"correct":true,"confidence":3},{"trial_n":33,"min":82,"max":173,"target":"absent","response":"absent","rt":639.69999999925,"correct":true,"confidence":1},{"trial_n":34,"min":84,"max":171,"target":"present","response":"absent","rt":797.59999999963,"correct":false,"confidence":1},{"trial_n":35,"min":82,"max":173,"target":"present","response":"present","rt":876.40000000037,"correct":true,"confidence":2},{"trial_n":36,"min":82,"max":173,"target":"absent","response":"present","rt":997,"correct":false,"confidence":1},{"trial_n":37,"min":80,"max":175,"target":"absent","response":"absent","rt":649.90000000037,"correct":true,"confidence":4},{"trial_n":38,"min":80,"max":175,"target":"present","response":"absent","rt":603.59999999963,"correct":false,"confidence":1},{"trial_n":39,"min":78,"max":177,"target":"absent","response":"absent","rt":571.60000000149,"correct":true,"confidence":4},{"trial_n":40,"min":78,"max":177,"target":"present","response":"present","rt":333.80000000075,"correct":true,"confidence":4},{"trial_n":41,"min":79,"max":176,"target":"present","response":"present","rt":439.09999999963,"correct":true,"confidence":3},{"trial_n":42,"min":79,"max":176,"target":"absent","response":"absent","rt":493.09999999963,"correct":true,"confidence":3},{"trial_n":43,"min":80,"max":175,"target":"absent","response":"absent","rt":414.90000000037,"correct":true,"confidence":3},{"trial_n":44,"min":80,"max":175,"target":"absent","response":"absent","rt":414.59999999963,"correct":true,"confidence":4},{"trial_n":45,"min":81,"max":174,"target":"present","response":"present","rt":441.5,"correct":true,"confidence":3},{"trial_n":46,"min":81,"max":174,"target":"absent","response":"absent","rt":418.19999999925,"correct":true,"confidence":4},{"trial_n":47,"min":82,"max":173,"target":"absent","response":"absent","rt":399.5,"correct":true,"confidence":5},{"trial_n":48,"min":82,"max":173,"target":"present","response":"absent","rt":455.30000000075,"correct":false,"confidence":4},{"trial_n":49,"min":81,"max":174,"target":"present","response":"absent","rt":434.60000000149,"correct":false,"confidence":4},{"trial_n":50,"min":80,"max":175,"target":"present","response":"absent","rt":323.40000000037,"correct":false,"confidence":5},{"trial_n":51,"min":79,"max":176,"target":"present","response":"absent","rt":492.90000000037,"correct":false,"confidence":4},{"trial_n":52,"min":78,"max":177,"target":"present","response":"absent","rt":520.29999999888,"correct":false,"confidence":4},{"trial_n":53,"min":77,"max":178,"target":"absent","response":"absent","rt":857.30000000075,"correct":true,"confidence":5},{"trial_n":54,"min":77,"max":178,"target":"absent","response":"absent","rt":376.59999999963,"correct":true,"confidence":5},{"trial_n":55,"min":78,"max":177,"target":"absent","response":"absent","rt":453.5,"correct":true,"confidence":4},{"trial_n":56,"min":78,"max":177,"target":"absent","response":"absent","rt":543.20000000112,"correct":true,"confidence":4},{"trial_n":57,"min":79,"max":176,"target":"absent","response":"absent","rt":321.59999999963,"correct":true,"confidence":5},{"trial_n":58,"min":79,"max":176,"target":"present","response":"present","rt":946.30000000075,"correct":true,"confidence":3},{"trial_n":59,"min":80,"max":175,"target":"present","response":"absent","rt":463.30000000075,"correct":false,"confidence":4},{"trial_n":60,"min":79,"max":176,"target":"absent","response":"absent","rt":365.19999999925,"correct":true,"confidence":4},{"trial_n":61,"min":79,"max":176,"target":"present","response":"absent","rt":397.20000000112,"correct":false,"confidence":3},{"trial_n":62,"min":78,"max":177,"target":"absent","response":"absent","rt":326.29999999888,"correct":true,"confidence":4},{"trial_n":63,"min":78,"max":177,"target":"absent","response":"absent","rt":434.90000000037,"correct":true,"confidence":4},{"trial_n":64,"min":79,"max":176,"target":"absent","response":"absent","rt":472.29999999888,"correct":true,"confidence":4},{"trial_n":65,"min":79,"max":176,"target":"present","response":"absent","rt":355.30000000075,"correct":false,"confidence":4},{"trial_n":66,"min":78,"max":177,"target":"absent","response":"absent","rt":285,"correct":true,"confidence":4},{"trial_n":67,"min":78,"max":177,"target":"present","response":"absent","rt":363.19999999925,"correct":false,"confidence":4},{"trial_n":68,"min":77,"max":178,"target":"absent","response":"absent","rt":286.40000000037,"correct":true,"confidence":4},{"trial_n":69,"min":77,"max":178,"target":"present","response":"absent","rt":427.40000000037,"correct":false,"confidence":4},{"trial_n":70,"min":76,"max":179,"target":"present","response":"absent","rt":23249.1,"correct":false,"confidence":3},{"trial_n":71,"min":41,"max":214,"target":"present","response":"present","rt":3763.2999999989,"correct":true,"confidence":-1},{"trial_n":72,"min":41,"max":214,"target":"present","response":"present","rt":953.90000000037,"correct":true,"confidence":-1},{"trial_n":73,"min":57,"max":198,"target":"absent","response":"absent","rt":631.79999999888,"correct":true,"confidence":-1},{"trial_n":74,"min":57,"max":198,"target":"absent","response":"absent","rt":632.70000000112,"correct":true,"confidence":-1},{"trial_n":75,"min":73,"max":182,"target":"present","response":"present","rt":579.59999999963,"correct":true,"confidence":-1},{"trial_n":76,"min":73,"max":182,"target":"present","response":"absent","rt":900.09999999963,"correct":false,"confidence":-1},{"trial_n":77,"min":57,"max":198,"target":"absent","response":"absent","rt":652.90000000037,"correct":true,"confidence":-1},{"trial_n":78,"min":57,"max":198,"target":"present","response":"present","rt":737,"correct":true,"confidence":-1},{"trial_n":79,"min":73,"max":182,"target":"present","response":"absent","rt":527.29999999888,"correct":false,"confidence":-1},{"trial_n":80,"min":57,"max":198,"target":"absent","response":"absent","rt":706.09999999963,"correct":true,"confidence":-1},{"trial_n":81,"min":57,"max":198,"target":"absent","response":"absent","rt":606.59999999963,"correct":true,"confidence":-1},{"trial_n":82,"min":65,"max":190,"target":"absent","response":"absent","rt":567.80000000075,"correct":true,"confidence":-1},{"trial_n":83,"min":65,"max":190,"target":"present","response":"absent","rt":63,"correct":false,"confidence":-1},{"trial_n":84,"min":57,"max":198,"target":"present","response":"present","rt":720.40000000037,"correct":true,"confidence":-1},{"trial_n":85,"min":57,"max":198,"target":"absent","response":"absent","rt":738.59999999963,"correct":true,"confidence":-1},{"trial_n":86,"min":65,"max":190,"target":"present","response":"present","rt":722.40000000037,"correct":true,"confidence":-1},{"trial_n":87,"min":65,"max":190,"target":"absent","response":"absent","rt":1073.5999999996,"correct":true,"confidence":-1},{"trial_n":88,"min":73,"max":182,"target":"absent","response":"absent","rt":813.80000000075,"correct":true,"confidence":-1},{"trial_n":89,"min":73,"max":182,"target":"absent","response":"absent","rt":524.89999999851,"correct":true,"confidence":-1},{"trial_n":90,"min":81,"max":174,"target":"present","response":"present","rt":512.90000000037,"correct":true,"confidence":-1},{"trial_n":91,"min":81,"max":174,"target":"absent","response":"absent","rt":714.40000000037,"correct":true,"confidence":4},{"trial_n":92,"min":85,"max":170,"target":"absent","response":"absent","rt":705.60000000149,"correct":true,"confidence":4},{"trial_n":93,"min":85,"max":170,"target":"absent","response":"absent","rt":692.40000000037,"correct":true,"confidence":4},{"trial_n":94,"min":89,"max":166,"target":"present","response":"present","rt":1028.7000000011,"correct":true,"confidence":3},{"trial_n":95,"min":89,"max":166,"target":"present","response":"present","rt":835.40000000037,"correct":true,"confidence":1},{"trial_n":96,"min":93,"max":162,"target":"absent","response":"absent","rt":991,"correct":true,"confidence":3},{"trial_n":97,"min":93,"max":162,"target":"absent","response":"present","rt":873.30000000075,"correct":false,"confidence":1},{"trial_n":98,"min":89,"max":166,"target":"absent","response":"absent","rt":920.80000000075,"correct":true,"confidence":3},{"trial_n":99,"min":89,"max":166,"target":"absent","response":"absent","rt":654.89999999851,"correct":true,"confidence":4},{"trial_n":100,"min":93,"max":162,"target":"present","response":"present","rt":1986,"correct":true,"confidence":1},{"trial_n":101,"min":93,"max":162,"target":"present","response":"absent","rt":982.59999999963,"correct":false,"confidence":1},{"trial_n":102,"min":91,"max":164,"target":"absent","response":"present","rt":905.80000000075,"correct":false,"confidence":3},{"trial_n":103,"min":89,"max":166,"target":"present","response":"present","rt":850.90000000037,"correct":true,"confidence":3},{"trial_n":104,"min":89,"max":166,"target":"absent","response":"absent","rt":787.29999999888,"correct":true,"confidence":4},{"trial_n":105,"min":91,"max":164,"target":"absent","response":"present","rt":897.80000000075,"correct":false,"confidence":1},{"trial_n":106,"min":89,"max":166,"target":"present","response":"present","rt":599,"correct":true,"confidence":4},{"trial_n":107,"min":89,"max":166,"target":"absent","response":"absent","rt":908.90000000037,"correct":true,"confidence":4},{"trial_n":108,"min":91,"max":164,"target":"present","response":"present","rt":333.70000000112,"correct":true,"confidence":4},{"trial_n":109,"min":91,"max":164,"target":"absent","response":"absent","rt":1065.2000000011,"correct":true,"confidence":4},{"trial_n":110,"min":93,"max":162,"target":"absent","response":"present","rt":1176.1999999993,"correct":false,"confidence":4},{"trial_n":111,"min":92,"max":163,"target":"present","response":"absent","rt":914.19999999925,"correct":false,"confidence":4},{"trial_n":112,"min":91,"max":164,"target":"present","response":"present","rt":697.59999999963,"correct":true,"confidence":4},{"trial_n":113,"min":91,"max":164,"target":"present","response":"present","rt":625.90000000037,"correct":true,"confidence":4},{"trial_n":114,"min":92,"max":163,"target":"present","response":"present","rt":1038.5,"correct":true,"confidence":4},{"trial_n":115,"min":92,"max":163,"target":"absent","response":"present","rt":319.20000000112,"correct":false,"confidence":1},{"trial_n":116,"min":91,"max":164,"target":"absent","response":"present","rt":634.5,"correct":false,"confidence":1},{"trial_n":117,"min":90,"max":165,"target":"present","response":"present","rt":329,"correct":true,"confidence":4},{"trial_n":118,"min":90,"max":165,"target":"present","response":"present","rt":617.09999999963,"correct":true,"confidence":4},{"trial_n":119,"min":91,"max":164,"target":"present","response":"present","rt":273,"correct":true,"confidence":4},{"trial_n":120,"min":91,"max":164,"target":"present","response":"absent","rt":990.5,"correct":false,"confidence":1},{"trial_n":121,"min":90,"max":165,"target":"present","response":"present","rt":666.09999999963,"correct":true,"confidence":3},{"trial_n":122,"min":90,"max":165,"target":"absent","response":"present","rt":691.89999999851,"correct":false,"confidence":3},{"trial_n":123,"min":89,"max":166,"target":"present","response":"present","rt":346.80000000075,"correct":true,"confidence":4},{"trial_n":124,"min":89,"max":166,"target":"absent","response":"present","rt":559.40000000037,"correct":false,"confidence":4},{"trial_n":125,"min":88,"max":167,"target":"present","response":"present","rt":411.90000000037,"correct":true,"confidence":4},{"trial_n":126,"min":88,"max":167,"target":"present","response":"present","rt":1001.2000000011,"correct":true,"confidence":1},{"trial_n":127,"min":89,"max":166,"target":"present","response":"present","rt":363.29999999888,"correct":true,"confidence":4},{"trial_n":128,"min":89,"max":166,"target":"absent","response":"present","rt":383.10000000149,"correct":false,"confidence":1},{"trial_n":129,"min":88,"max":167,"target":"absent","response":"present","rt":3788,"correct":false,"confidence":1},{"trial_n":130,"min":87,"max":168,"target":"present","response":"present","rt":232.69999999925,"correct":true,"confidence":4},{"trial_n":131,"min":87,"max":168,"target":"present","response":"present","rt":344.09999999963,"correct":true,"confidence":4},{"trial_n":132,"min":88,"max":167,"target":"present","response":"present","rt":660.59999999963,"correct":true,"confidence":1},{"trial_n":133,"min":88,"max":167,"target":"present","response":"present","rt":416,"correct":true,"confidence":3},{"trial_n":134,"min":89,"max":166,"target":"absent","response":"absent","rt":911.30000000075,"correct":true,"confidence":3},{"trial_n":135,"min":89,"max":166,"target":"present","response":"present","rt":311.10000000149,"correct":true,"confidence":5},{"trial_n":136,"min":90,"max":165,"target":"present","response":"present","rt":418.80000000075,"correct":true,"confidence":3},{"trial_n":137,"min":90,"max":165,"target":"absent","response":"absent","rt":635.20000000112,"correct":true,"confidence":3},{"trial_n":138,"min":91,"max":164,"target":"absent","response":"present","rt":377.90000000037,"correct":false,"confidence":4},{"trial_n":139,"min":90,"max":165,"target":"absent","response":"present","rt":536.59999999963,"correct":false,"confidence":3},{"trial_n":140,"min":89,"max":166,"target":"absent","response":"present","rt":475.90000000037,"correct":false,"confidence":1}]