[{"trial_n":1,"span":8,"encoder":"89927320","distractor":"89929320","target":"present","response":"present","rt":"1984.0999999996","correct":true,"confidence":-1},{"trial_n":2,"span":8,"encoder":"23934214","distractor":"23934264","target":"present","response":"absent","rt":"5114.2000000002","correct":false,"confidence":-1},{"trial_n":3,"span":6,"encoder":"054283","distractor":"054183","target":"absent","response":"present","rt":"1844.3999999999","correct":false,"confidence":-1},{"trial_n":4,"span":4,"encoder":"0326","distractor":"1326","target":"absent","response":"absent","rt":"1753.7999999998","correct":true,"confidence":-1},{"trial_n":5,"span":4,"encoder":"6766","distractor":"6786","target":"present","response":"present","rt":"1831.1000000001","correct":true,"confidence":-1},{"trial_n":6,"span":6,"encoder":"661470","distractor":"669470","target":"absent","response":"absent","rt":"2658.3000000003","correct":true,"confidence":-1},{"trial_n":7,"span":6,"encoder":"589214","distractor":"582214","target":"present","response":"present","rt":"3514","correct":true,"confidence":-1},{"trial_n":8,"span":8,"encoder":"95220657","distractor":"95290657","target":"present","response":"present","rt":"3215","correct":true,"confidence":-1},{"trial_n":9,"span":8,"encoder":"69061855","distractor":"69061857","target":"absent","response":"absent","rt":"917.39999999991","correct":true,"confidence":-1},{"trial_n":10,"span":10,"encoder":"8634790006","distractor":"8634791006","target":"absent","response":"present","rt":"964.80000000028","correct":false,"confidence":-1},{"trial_n":11,"span":8,"encoder":"89991904","distractor":"89961904","target":"absent","response":"present","rt":"53.599999999627","correct":false,"confidence":-1},{"trial_n":12,"span":7,"encoder":"6056953","distractor":"6056933","target":"present","response":"present","rt":"634","correct":true,"confidence":-1},{"trial_n":13,"span":7,"encoder":"6658215","distractor":"6651215","target":"absent","response":"present","rt":"634.10000000009","correct":false,"confidence":-1},{"trial_n":14,"span":6,"encoder":"383420","distractor":"383422","target":"absent","response":"absent","rt":"923.89999999991","correct":true,"confidence":-1},{"trial_n":15,"span":6,"encoder":"852464","distractor":"052464","target":"present","response":"absent","rt":"513.60000000009","correct":false,"confidence":-1},{"trial_n":16,"span":5,"encoder":"85526","distractor":"85523","target":"present","response":"absent","rt":"441.40000000037","correct":false,"confidence":-1},{"trial_n":17,"span":4,"encoder":"7899","distractor":"7890","target":"present","response":"absent","rt":"561.69999999972","correct":false,"confidence":-1},{"trial_n":18,"span":3,"encoder":"736","distractor":"796","target":"absent","response":"absent","rt":"375.89999999991","correct":true,"confidence":-1},{"trial_n":19,"span":3,"encoder":"989","distractor":"689","target":"absent","response":"present","rt":"1157","correct":false,"confidence":-1},{"trial_n":20,"span":2,"encoder":"89","distractor":"81","target":"present","response":"present","rt":"1440.9000000004","correct":true,"confidence":-1},{"trial_n":21,"span":2,"encoder":"30","distractor":"20","target":"present","response":"present","rt":"1323.1000000001","correct":true,"confidence":5},{"trial_n":22,"span":3,"encoder":"708","distractor":"408","target":"present","response":"absent","rt":"1745.1999999997","correct":false,"confidence":3},{"trial_n":23,"span":2,"encoder":"24","distractor":"64","target":"absent","response":"absent","rt":"1645.7999999998","correct":true,"confidence":5},{"trial_n":24,"span":2,"encoder":"85","distractor":"55","target":"present","response":"present","rt":"1608.5","correct":true,"confidence":5},{"trial_n":25,"span":3,"encoder":"578","distractor":"518","target":"absent","response":"absent","rt":"1609.1999999997","correct":true,"confidence":5},{"trial_n":26,"span":3,"encoder":"300","distractor":"390","target":"present","response":"present","rt":"1263.3999999999","correct":true,"confidence":5},{"trial_n":27,"span":4,"encoder":"5560","distractor":"3560","target":"absent","response":"absent","rt":"1640.6000000001","correct":true,"confidence":4},{"trial_n":28,"span":4,"encoder":"2985","distractor":"9985","target":"present","response":"present","rt":"1473.8000000003","correct":true,"confidence":5},{"trial_n":29,"span":5,"encoder":"11055","distractor":"16055","target":"absent","response":"absent","rt":"1456.7000000002","correct":true,"confidence":5},{"trial_n":30,"span":5,"encoder":"90924","distractor":"70924","target":"absent","response":"absent","rt":"1635.7999999998","correct":true,"confidence":5},{"trial_n":31,"span":6,"encoder":"481659","distractor":"491659","target":"absent","response":"absent","rt":"2148.1999999997","correct":true,"confidence":3},{"trial_n":32,"span":6,"encoder":"397014","distractor":"397054","target":"absent","response":"absent","rt":"2408.8999999999","correct":true,"confidence":3},{"trial_n":33,"span":7,"encoder":"9040669","distractor":"9090669","target":"present","response":"present","rt":"2363.7999999998","correct":true,"confidence":4},{"trial_n":34,"span":7,"encoder":"6108910","distractor":"6108900","target":"absent","response":"absent","rt":"1557.3000000003","correct":true,"confidence":5},{"trial_n":35,"span":8,"encoder":"83702314","distractor":"83702714","target":"absent","response":"absent","rt":"1589.7999999998","correct":true,"confidence":3},{"trial_n":36,"span":8,"encoder":"93515460","distractor":"90515460","target":"absent","response":"present","rt":"2149.8000000003","correct":false,"confidence":5},{"trial_n":37,"span":7,"encoder":"9915560","distractor":"9910560","target":"absent","response":"present","rt":"2018.3999999999","correct":false,"confidence":3},{"trial_n":38,"span":6,"encoder":"152496","distractor":"152426","target":"present","response":"present","rt":"2232.5999999996","correct":true,"confidence":3},{"trial_n":39,"span":6,"encoder":"216691","distractor":"216191","target":"present","response":"absent","rt":"2282.1000000001","correct":false,"confidence":2},{"trial_n":40,"span":5,"encoder":"13910","distractor":"13940","target":"present","response":"present","rt":"1864.8999999999","correct":true,"confidence":3},{"trial_n":41,"span":5,"encoder":"52336","distractor":"52536","target":"present","response":"present","rt":"1515.6000000001","correct":true,"confidence":1},{"trial_n":42,"span":6,"encoder":"468609","distractor":"468602","target":"absent","response":"absent","rt":"25.199999999721","correct":true,"confidence":1},{"trial_n":43,"span":6,"encoder":"816811","distractor":"816818","target":"absent","response":"present","rt":"137.90000000037","correct":false,"confidence":1},{"trial_n":44,"span":5,"encoder":"14973","distractor":"14373","target":"absent","response":"present","rt":"159.39999999991","correct":false,"confidence":1},{"trial_n":45,"span":4,"encoder":"4898","distractor":"4498","target":"present","response":"absent","rt":"246.30000000028","correct":false,"confidence":1},{"trial_n":46,"span":3,"encoder":"846","distractor":"849","target":"present","response":"present","rt":"89.599999999627","correct":true,"confidence":1},{"trial_n":47,"span":3,"encoder":"007","distractor":"407","target":"present","response":"absent","rt":"268.39999999991","correct":false,"confidence":1},{"trial_n":48,"span":2,"encoder":"96","distractor":"93","target":"absent","response":"present","rt":"183.80000000028","correct":false,"confidence":1},{"trial_n":49,"span":2,"encoder":"16","distractor":"66","target":"absent","response":"absent","rt":"95.600000000093","correct":true,"confidence":1},{"trial_n":50,"span":2,"encoder":"00","distractor":"03","target":"present","response":"present","rt":"330.89999999991","correct":true,"confidence":1},{"trial_n":51,"span":3,"encoder":"948","distractor":"978","target":"present","response":"present","rt":"215.40000000037","correct":true,"confidence":1},{"trial_n":52,"span":3,"encoder":"193","distractor":"199","target":"absent","response":"absent","rt":"187","correct":true,"confidence":1},{"trial_n":53,"span":4,"encoder":"7153","distractor":"7253","target":"present","response":"present","rt":"1254.3999999999","correct":true,"confidence":3},{"trial_n":54,"span":4,"encoder":"8683","distractor":"1683","target":"present","response":"present","rt":"1742.5999999996","correct":true,"confidence":3},{"trial_n":55,"span":5,"encoder":"32361","distractor":"32371","target":"absent","response":"absent","rt":"1453.1999999997","correct":true,"confidence":5},{"trial_n":56,"span":5,"encoder":"88771","distractor":"88371","target":"present","response":"present","rt":"1726.1000000001","correct":true,"confidence":3},{"trial_n":57,"span":6,"encoder":"396860","distractor":"396960","target":"present","response":"present","rt":"2109.2000000002","correct":true,"confidence":4},{"trial_n":58,"span":6,"encoder":"720693","distractor":"724693","target":"present","response":"absent","rt":"1359.6000000001","correct":false,"confidence":1},{"trial_n":59,"span":5,"encoder":"24582","distractor":"24482","target":"present","response":"absent","rt":"1638.6999999997","correct":false,"confidence":1},{"trial_n":60,"span":4,"encoder":"6137","distractor":"6127","target":"present","response":"present","rt":"332.70000000019","correct":true,"confidence":1},{"trial_n":61,"span":4,"encoder":"7566","distractor":"7526","target":"present","response":"present","rt":"777.59999999963","correct":true,"confidence":1},{"trial_n":62,"span":5,"encoder":"21238","distractor":"51238","target":"present","response":"absent","rt":"1030.2999999998","correct":false,"confidence":2},{"trial_n":63,"span":4,"encoder":"7488","distractor":"7485","target":"absent","response":"absent","rt":"1840.5","correct":true,"confidence":2},{"trial_n":64,"span":4,"encoder":"7003","distractor":"7006","target":"absent","response":"absent","rt":"1253","correct":true,"confidence":5},{"trial_n":65,"span":5,"encoder":"06307","distractor":"76307","target":"absent","response":"absent","rt":"1614.9000000004","correct":true,"confidence":3},{"trial_n":66,"span":5,"encoder":"46951","distractor":"46351","target":"absent","response":"absent","rt":"1390","correct":true,"confidence":3},{"trial_n":67,"span":6,"encoder":"569936","distractor":"669936","target":"present","response":"present","rt":"2047.6999999997","correct":true,"confidence":2},{"trial_n":68,"span":6,"encoder":"202372","distractor":"202072","target":"absent","response":"present","rt":"1768.8000000003","correct":false,"confidence":2},{"trial_n":69,"span":5,"encoder":"00646","distractor":"00606","target":"absent","response":"absent","rt":"999.39999999991","correct":true,"confidence":5},{"trial_n":70,"span":5,"encoder":"41598","distractor":"40598","target":"present","response":"present","rt":"1985.1999999997","correct":true,"confidence":5},{"trial_n":71,"span":8,"encoder":"44290093","distractor":"44290003","target":"present","response":"present","rt":"5591.8999999999","correct":true,"confidence":-1},{"trial_n":72,"span":8,"encoder":"26035091","distractor":"26035071","target":"present","response":"absent","rt":"489.59999999963","correct":false,"confidence":-1},{"trial_n":73,"span":7,"encoder":"2721168","distractor":"2721138","target":"absent","response":"present","rt":"1515.7999999998","correct":false,"confidence":-1},{"trial_n":74,"span":6,"encoder":"544645","distractor":"540645","target":"absent","response":"absent","rt":"1167.5","correct":true,"confidence":-1},{"trial_n":75,"span":6,"encoder":"563445","distractor":"563745","target":"present","response":"absent","rt":"209.90000000037","correct":false,"confidence":-1},{"trial_n":76,"span":5,"encoder":"32926","distractor":"36926","target":"absent","response":"absent","rt":"45.700000000186","correct":true,"confidence":-1},{"trial_n":77,"span":5,"encoder":"19948","distractor":"19918","target":"present","response":"present","rt":"19.100000000093","correct":true,"confidence":-1},{"trial_n":78,"span":6,"encoder":"563398","distractor":"573398","target":"absent","response":"absent","rt":"70","correct":true,"confidence":-1},{"trial_n":79,"span":6,"encoder":"095403","distractor":"095483","target":"present","response":"absent","rt":"10.900000000373","correct":false,"confidence":-1},{"trial_n":80,"span":5,"encoder":"59592","distractor":"51592","target":"absent","response":"absent","rt":"211.89999999991","correct":true,"confidence":-1},{"trial_n":81,"span":5,"encoder":"05630","distractor":"05633","target":"present","response":"absent","rt":"45.099999999627","correct":false,"confidence":-1},{"trial_n":82,"span":4,"encoder":"7670","distractor":"7678","target":"absent","response":"present","rt":"203.90000000037","correct":false,"confidence":-1},{"trial_n":83,"span":3,"encoder":"874","distractor":"854","target":"absent","response":"present","rt":"194.20000000019","correct":false,"confidence":-1},{"trial_n":84,"span":2,"encoder":"19","distractor":"13","target":"absent","response":"present","rt":"229.5","correct":false,"confidence":-1},{"trial_n":85,"span":2,"encoder":"85","distractor":"80","target":"present","response":"absent","rt":"315.30000000028","correct":false,"confidence":-1},{"trial_n":86,"span":2,"encoder":"07","distractor":"08","target":"present","response":"absent","rt":"63.800000000279","correct":false,"confidence":-1},{"trial_n":87,"span":2,"encoder":"48","distractor":"41","target":"present","response":"present","rt":"26","correct":true,"confidence":-1},{"trial_n":88,"span":2,"encoder":"70","distractor":"77","target":"present","response":"present","rt":"135.70000000019","correct":true,"confidence":-1},{"trial_n":89,"span":3,"encoder":"243","distractor":"242","target":"absent","response":"absent","rt":"1","correct":true,"confidence":-1},{"trial_n":90,"span":3,"encoder":"361","distractor":"321","target":"present","response":"present","rt":"5.3000000002794","correct":true,"confidence":-1},{"trial_n":91,"span":4,"encoder":"9109","distractor":"9309","target":"present","response":"absent","rt":"541","correct":false,"confidence":1},{"trial_n":92,"span":3,"encoder":"599","distractor":"199","target":"absent","response":"present","rt":"98.699999999721","correct":false,"confidence":1},{"trial_n":93,"span":2,"encoder":"36","distractor":"16","target":"present","response":"absent","rt":"23.699999999721","correct":false,"confidence":1},{"trial_n":94,"span":2,"encoder":"80","distractor":"85","target":"present","response":"present","rt":"26.700000000186","correct":true,"confidence":1},{"trial_n":95,"span":2,"encoder":"20","distractor":"25","target":"absent","response":"absent","rt":"182.69999999972","correct":true,"confidence":1},{"trial_n":96,"span":3,"encoder":"984","distractor":"988","target":"absent","response":"present","rt":"38.200000000186","correct":false,"confidence":1},{"trial_n":97,"span":2,"encoder":"54","distractor":"50","target":"present","response":"present","rt":"145.70000000019","correct":true,"confidence":1},{"trial_n":98,"span":2,"encoder":"68","distractor":"08","target":"present","response":"absent","rt":"142.89999999991","correct":false,"confidence":1},{"trial_n":99,"span":2,"encoder":"74","distractor":"64","target":"absent","response":"absent","rt":"136","correct":true,"confidence":1},{"trial_n":100,"span":2,"encoder":"27","distractor":"29","target":"absent","response":"absent","rt":"217.80000000028","correct":true,"confidence":1},{"trial_n":101,"span":3,"encoder":"196","distractor":"116","target":"absent","response":"absent","rt":"186","correct":true,"confidence":1},{"trial_n":102,"span":3,"encoder":"168","distractor":"968","target":"absent","response":"absent","rt":"115.70000000019","correct":true,"confidence":1},{"trial_n":103,"span":4,"encoder":"9221","distractor":"9281","target":"absent","response":"absent","rt":"59.099999999627","correct":true,"confidence":1},{"trial_n":104,"span":4,"encoder":"7593","distractor":"0593","target":"present","response":"absent","rt":"136.79999999981","correct":false,"confidence":1},{"trial_n":105,"span":3,"encoder":"013","distractor":"018","target":"absent","response":"absent","rt":"69.899999999907","correct":true,"confidence":1},{"trial_n":106,"span":3,"encoder":"483","distractor":"683","target":"absent","response":"absent","rt":"721.5","correct":true,"confidence":1},{"trial_n":107,"span":4,"encoder":"2898","distractor":"2858","target":"present","response":"absent","rt":"2163.2999999998","correct":false,"confidence":1},{"trial_n":108,"span":3,"encoder":"415","distractor":"315","target":"present","response":"present","rt":"2.1000000000931","correct":true,"confidence":1},{"trial_n":109,"span":3,"encoder":"526","distractor":"546","target":"present","response":"absent","rt":"60","correct":false,"confidence":1},{"trial_n":110,"span":2,"encoder":"67","distractor":"65","target":"absent","response":"present","rt":"162.89999999991","correct":false,"confidence":1},{"trial_n":111,"span":2,"encoder":"18","distractor":"13","target":"present","response":"absent","rt":"189.09999999963","correct":false,"confidence":1},{"trial_n":112,"span":2,"encoder":"90","distractor":"00","target":"absent","response":"present","rt":"151.90000000037","correct":false,"confidence":1},{"trial_n":113,"span":2,"encoder":"42","distractor":"02","target":"absent","response":"present","rt":"74.699999999721","correct":false,"confidence":1},{"trial_n":114,"span":2,"encoder":"76","distractor":"73","target":"absent","response":"absent","rt":"12.600000000093","correct":true,"confidence":1},{"trial_n":115,"span":2,"encoder":"97","distractor":"87","target":"present","response":"absent","rt":"88.799999999814","correct":false,"confidence":1},{"trial_n":116,"span":2,"encoder":"94","distractor":"44","target":"absent","response":"absent","rt":"4.7999999998137","correct":true,"confidence":1},{"trial_n":117,"span":2,"encoder":"68","distractor":"18","target":"present","response":"present","rt":"209.59999999963","correct":true,"confidence":1},{"trial_n":118,"span":3,"encoder":"559","distractor":"599","target":"present","response":"absent","rt":"1000.9000000004","correct":false,"confidence":1},{"trial_n":119,"span":2,"encoder":"86","distractor":"06","target":"absent","response":"present","rt":"2822.2000000002","correct":false,"confidence":1},{"trial_n":120,"span":2,"encoder":"59","distractor":"57","target":"present","response":"present","rt":"2683.3999999999","correct":true,"confidence":1},{"trial_n":121,"span":2,"encoder":"94","distractor":"93","target":"present","response":"absent","rt":"678.60000000009","correct":false,"confidence":1},{"trial_n":122,"span":2,"encoder":"05","distractor":"25","target":"present","response":"absent","rt":"86.200000000186","correct":false,"confidence":1},{"trial_n":123,"span":2,"encoder":"94","distractor":"91","target":"present","response":"present","rt":"615.80000000028","correct":true,"confidence":1},{"trial_n":124,"span":2,"encoder":"22","distractor":"26","target":"absent","response":"present","rt":"-0.20000000018626","correct":false,"confidence":1},{"trial_n":125,"span":2,"encoder":"43","distractor":"93","target":"absent","response":"absent","rt":"99.200000000186","correct":true,"confidence":1},{"trial_n":126,"span":2,"encoder":"46","distractor":"44","target":"present","response":"absent","rt":"77.5","correct":false,"confidence":1},{"trial_n":127,"span":2,"encoder":"16","distractor":"14","target":"absent","response":"absent","rt":"188.80000000028","correct":true,"confidence":1},{"trial_n":128,"span":2,"encoder":"61","distractor":"66","target":"present","response":"absent","rt":"95.5","correct":false,"confidence":1},{"trial_n":129,"span":2,"encoder":"13","distractor":"12","target":"present","response":"absent","rt":"53.900000000373","correct":false,"confidence":1},{"trial_n":130,"span":2,"encoder":"26","distractor":"86","target":"absent","response":"present","rt":"166.30000000028","correct":false,"confidence":1},{"trial_n":131,"span":2,"encoder":"11","distractor":"10","target":"present","response":"present","rt":"252.89999999991","correct":true,"confidence":1},{"trial_n":132,"span":2,"encoder":"28","distractor":"22","target":"present","response":"present","rt":"140.89999999991","correct":true,"confidence":1},{"trial_n":133,"span":3,"encoder":"678","distractor":"478","target":"absent","response":"present","rt":"16.300000000279","correct":false,"confidence":1},{"trial_n":134,"span":2,"encoder":"50","distractor":"80","target":"present","response":"absent","rt":"148.69999999972","correct":false,"confidence":1},{"trial_n":135,"span":2,"encoder":"85","distractor":"65","target":"present","response":"present","rt":"150.39999999991","correct":true,"confidence":1},{"trial_n":136,"span":2,"encoder":"92","distractor":"62","target":"present","response":"absent","rt":"79.100000000093","correct":false,"confidence":1},{"trial_n":137,"span":2,"encoder":"12","distractor":"22","target":"absent","response":"absent","rt":"72.099999999627","correct":true,"confidence":1},{"trial_n":138,"span":2,"encoder":"88","distractor":"84","target":"absent","response":"present","rt":"64.799999999814","correct":false,"confidence":1},{"trial_n":139,"span":2,"encoder":"79","distractor":"89","target":"absent","response":"present","rt":"24.800000000279","correct":false,"confidence":1},{"trial_n":140,"span":2,"encoder":"20","distractor":"23","target":"absent","response":"present","rt":"7","correct":false,"confidence":1}]