[{"trial_n":1,"n_dots":4.25,"target":"left","response":"left","rt":3417,"correct":true,"confidence":-1},{"trial_n":2,"n_dots":4.25,"target":"right","response":"right","rt":460.20000000298,"correct":true,"confidence":-1},{"trial_n":3,"n_dots":3.85,"target":"right","response":"right","rt":180.30000000447,"correct":true,"confidence":-1},{"trial_n":4,"n_dots":3.85,"target":"right","response":"right","rt":256.30000000447,"correct":true,"confidence":-1},{"trial_n":5,"n_dots":3.45,"target":"left","response":"left","rt":106.79999999702,"correct":true,"confidence":-1},{"trial_n":6,"n_dots":3.45,"target":"right","response":"right","rt":429.10000000149,"correct":true,"confidence":-1},{"trial_n":7,"n_dots":3.05,"target":"left","response":"left","rt":132.30000000447,"correct":true,"confidence":-1},{"trial_n":8,"n_dots":3.05,"target":"left","response":"left","rt":121.10000000149,"correct":true,"confidence":-1},{"trial_n":9,"n_dots":2.85,"target":"left","response":"left","rt":121.79999999702,"correct":true,"confidence":-1},{"trial_n":10,"n_dots":2.85,"target":"right","response":"right","rt":152.89999999851,"correct":true,"confidence":-1},{"trial_n":11,"n_dots":2.65,"target":"right","response":"right","rt":1320.1000000015,"correct":true,"confidence":-1},{"trial_n":12,"n_dots":2.65,"target":"left","response":"left","rt":401.39999999851,"correct":true,"confidence":-1},{"trial_n":13,"n_dots":2.55,"target":"left","response":"left","rt":313.29999999702,"correct":true,"confidence":-1},{"trial_n":14,"n_dots":2.55,"target":"right","response":"right","rt":217.79999999702,"correct":true,"confidence":-1},{"trial_n":15,"n_dots":2.45,"target":"left","response":"right","rt":148,"correct":false,"confidence":-1},{"trial_n":16,"n_dots":2.55,"target":"left","response":"left","rt":8.8999999985099,"correct":true,"confidence":-1},{"trial_n":17,"n_dots":2.55,"target":"left","response":"left","rt":404.29999999702,"correct":true,"confidence":-1},{"trial_n":18,"n_dots":2.45,"target":"left","response":"right","rt":795.10000000149,"correct":false,"confidence":-1},{"trial_n":19,"n_dots":2.55,"target":"right","response":"right","rt":340,"correct":true,"confidence":-1},{"trial_n":20,"n_dots":2.55,"target":"right","response":"right","rt":198.60000000149,"correct":true,"confidence":-1},{"trial_n":21,"n_dots":2.45,"target":"right","response":"right","rt":1101.1000000015,"correct":true,"confidence":4},{"trial_n":22,"n_dots":2.45,"target":"left","response":"left","rt":461.5,"correct":true,"confidence":4},{"trial_n":23,"n_dots":2.35,"target":"left","response":"right","rt":504.10000000149,"correct":false,"confidence":3},{"trial_n":24,"n_dots":2.45,"target":"left","response":"right","rt":363.39999999851,"correct":false,"confidence":4},{"trial_n":25,"n_dots":2.55,"target":"right","response":"right","rt":353.69999999553,"correct":true,"confidence":3},{"trial_n":26,"n_dots":2.55,"target":"left","response":"left","rt":697.80000000447,"correct":true,"confidence":5},{"trial_n":27,"n_dots":2.45,"target":"right","response":"right","rt":398.5,"correct":true,"confidence":4},{"trial_n":28,"n_dots":2.45,"target":"right","response":"right","rt":497.29999999702,"correct":true,"confidence":2},{"trial_n":29,"n_dots":2.35,"target":"left","response":"left","rt":631.19999999553,"correct":true,"confidence":3},{"trial_n":30,"n_dots":2.35,"target":"right","response":"right","rt":401.10000000149,"correct":true,"confidence":3},{"trial_n":31,"n_dots":2.25,"target":"right","response":"left","rt":730,"correct":false,"confidence":2},{"trial_n":32,"n_dots":2.35,"target":"right","response":"right","rt":591.10000000149,"correct":true,"confidence":2},{"trial_n":33,"n_dots":2.35,"target":"left","response":"right","rt":419.89999999851,"correct":false,"confidence":3},{"trial_n":34,"n_dots":2.45,"target":"left","response":"right","rt":636.10000000149,"correct":false,"confidence":3},{"trial_n":35,"n_dots":2.55,"target":"left","response":"left","rt":934.19999999553,"correct":true,"confidence":4},{"trial_n":36,"n_dots":2.55,"target":"right","response":"right","rt":594.09999999404,"correct":true,"confidence":3},{"trial_n":37,"n_dots":2.45,"target":"left","response":"right","rt":838.09999999404,"correct":false,"confidence":1},{"trial_n":38,"n_dots":2.55,"target":"right","response":"left","rt":129,"correct":false,"confidence":1},{"trial_n":39,"n_dots":2.65,"target":"left","response":"left","rt":463.09999999404,"correct":true,"confidence":4},{"trial_n":40,"n_dots":2.65,"target":"right","response":"right","rt":324.89999999851,"correct":true,"confidence":4},{"trial_n":41,"n_dots":2.55,"target":"right","response":"right","rt":10688.100000001,"correct":true,"confidence":4},{"trial_n":42,"n_dots":2.55,"target":"right","response":"right","rt":2452.8999999985,"correct":true,"confidence":3},{"trial_n":43,"n_dots":2.45,"target":"left","response":"left","rt":1265,"correct":true,"confidence":3},{"trial_n":44,"n_dots":2.45,"target":"left","response":"right","rt":822.60000000149,"correct":false,"confidence":4},{"trial_n":45,"n_dots":2.55,"target":"right","response":"right","rt":3142.1000000015,"correct":true,"confidence":4},{"trial_n":46,"n_dots":2.55,"target":"left","response":"right","rt":5.3999999985099,"correct":false,"confidence":3},{"trial_n":47,"n_dots":2.65,"target":"right","response":"right","rt":375.5,"correct":true,"confidence":2},{"trial_n":48,"n_dots":2.65,"target":"right","response":"right","rt":41.79999999702,"correct":true,"confidence":4},{"trial_n":49,"n_dots":2.55,"target":"left","response":"right","rt":377,"correct":false,"confidence":3},{"trial_n":50,"n_dots":2.65,"target":"left","response":"right","rt":275.10000000149,"correct":false,"confidence":4},{"trial_n":51,"n_dots":2.75,"target":"left","response":"left","rt":73.79999999702,"correct":true,"confidence":4},{"trial_n":52,"n_dots":2.75,"target":"right","response":"right","rt":211.10000000149,"correct":true,"confidence":4},{"trial_n":53,"n_dots":2.65,"target":"left","response":"right","rt":300.5,"correct":false,"confidence":4},{"trial_n":54,"n_dots":2.75,"target":"left","response":"right","rt":435,"correct":false,"confidence":3},{"trial_n":55,"n_dots":2.85,"target":"left","response":"right","rt":134.69999999553,"correct":false,"confidence":3},{"trial_n":56,"n_dots":2.95,"target":"left","response":"left","rt":291.29999999702,"correct":true,"confidence":2},{"trial_n":57,"n_dots":2.95,"target":"right","response":"right","rt":154.79999999702,"correct":true,"confidence":2},{"trial_n":58,"n_dots":2.85,"target":"right","response":"right","rt":478.10000000149,"correct":true,"confidence":4},{"trial_n":59,"n_dots":2.85,"target":"left","response":"right","rt":439.30000000447,"correct":false,"confidence":3},{"trial_n":60,"n_dots":2.95,"target":"right","response":"right","rt":153.5,"correct":true,"confidence":4},{"trial_n":61,"n_dots":2.95,"target":"left","response":"left","rt":387.69999999553,"correct":true,"confidence":3},{"trial_n":62,"n_dots":2.85,"target":"right","response":"right","rt":130.79999999702,"correct":true,"confidence":4},{"trial_n":63,"n_dots":2.85,"target":"left","response":"left","rt":50.10000000149,"correct":true,"confidence":2},{"trial_n":64,"n_dots":2.75,"target":"right","response":"right","rt":106,"correct":true,"confidence":3},{"trial_n":65,"n_dots":2.75,"target":"left","response":"right","rt":368,"correct":false,"confidence":3},{"trial_n":66,"n_dots":2.85,"target":"left","response":"left","rt":610.89999999851,"correct":true,"confidence":2},{"trial_n":67,"n_dots":2.85,"target":"left","response":"right","rt":446.29999999702,"correct":false,"confidence":1},{"trial_n":68,"n_dots":2.95,"target":"left","response":"right","rt":915.09999999404,"correct":false,"confidence":1},{"trial_n":69,"n_dots":3.05,"target":"right","response":"left","rt":684.80000000447,"correct":false,"confidence":2},{"trial_n":70,"n_dots":3.15,"target":"left","response":"right","rt":463.10000000149,"correct":false,"confidence":3},{"trial_n":71,"n_dots":3.25,"target":"left","response":"left","rt":524.90000000596,"correct":true,"confidence":3},{"trial_n":72,"n_dots":3.25,"target":"left","response":"right","rt":218.29999999702,"correct":false,"confidence":4},{"trial_n":73,"n_dots":3.35,"target":"left","response":"left","rt":403.5,"correct":true,"confidence":4},{"trial_n":74,"n_dots":3.35,"target":"right","response":"right","rt":441.20000000298,"correct":true,"confidence":4},{"trial_n":75,"n_dots":3.25,"target":"left","response":"left","rt":358.30000000447,"correct":true,"confidence":1},{"trial_n":76,"n_dots":3.25,"target":"right","response":"right","rt":374.5,"correct":true,"confidence":3},{"trial_n":77,"n_dots":3.15,"target":"left","response":"right","rt":632.60000000149,"correct":false,"confidence":4},{"trial_n":78,"n_dots":3.25,"target":"left","response":"left","rt":396.89999999851,"correct":true,"confidence":2},{"trial_n":79,"n_dots":3.25,"target":"left","response":"right","rt":358.20000000298,"correct":false,"confidence":3},{"trial_n":80,"n_dots":3.35,"target":"right","response":"right","rt":277.20000000298,"correct":true,"confidence":3},{"trial_n":81,"n_dots":3.35,"target":"right","response":"right","rt":979,"correct":true,"confidence":5},{"trial_n":82,"n_dots":3.25,"target":"right","response":"right","rt":43.90000000596,"correct":true,"confidence":5},{"trial_n":83,"n_dots":3.25,"target":"right","response":"right","rt":313.10000000149,"correct":true,"confidence":3},{"trial_n":84,"n_dots":3.15,"target":"right","response":"right","rt":517.20000000298,"correct":true,"confidence":4},{"trial_n":85,"n_dots":3.15,"target":"right","response":"right","rt":81.20000000298,"correct":true,"confidence":4},{"trial_n":86,"n_dots":3.05,"target":"right","response":"right","rt":241.10000000149,"correct":true,"confidence":3},{"trial_n":87,"n_dots":3.05,"target":"right","response":"left","rt":660,"correct":false,"confidence":2},{"trial_n":88,"n_dots":3.15,"target":"left","response":"right","rt":732.80000000447,"correct":false,"confidence":4},{"trial_n":89,"n_dots":3.25,"target":"right","response":"right","rt":542.10000000149,"correct":true,"confidence":4},{"trial_n":90,"n_dots":3.25,"target":"left","response":"left","rt":362.5,"correct":true,"confidence":3},{"trial_n":91,"n_dots":3.15,"target":"right","response":"left","rt":267.89999999851,"correct":false,"confidence":4},{"trial_n":92,"n_dots":3.25,"target":"right","response":"left","rt":46.5,"correct":false,"confidence":3},{"trial_n":93,"n_dots":3.35,"target":"right","response":"left","rt":277.10000000149,"correct":false,"confidence":4},{"trial_n":94,"n_dots":3.45,"target":"left","response":"right","rt":550.20000000298,"correct":false,"confidence":2},{"trial_n":95,"n_dots":3.55,"target":"right","response":"right","rt":302.69999999553,"correct":true,"confidence":1},{"trial_n":96,"n_dots":3.55,"target":"right","response":"right","rt":183.60000000149,"correct":true,"confidence":4},{"trial_n":97,"n_dots":3.45,"target":"right","response":"right","rt":179,"correct":true,"confidence":4},{"trial_n":98,"n_dots":3.45,"target":"right","response":"right","rt":703.29999999702,"correct":true,"confidence":5},{"trial_n":99,"n_dots":3.35,"target":"right","response":"right","rt":439.39999999851,"correct":true,"confidence":3},{"trial_n":100,"n_dots":3.35,"target":"left","response":"left","rt":659.79999999702,"correct":true,"confidence":5},{"trial_n":101,"n_dots":3.25,"target":"left","response":"left","rt":2499.1999999955,"correct":true,"confidence":1},{"trial_n":102,"n_dots":3.25,"target":"right","response":"right","rt":193.60000000149,"correct":true,"confidence":3},{"trial_n":103,"n_dots":3.15,"target":"left","response":"left","rt":198.59999999404,"correct":true,"confidence":4},{"trial_n":104,"n_dots":3.15,"target":"left","response":"left","rt":242.19999999553,"correct":true,"confidence":5},{"trial_n":105,"n_dots":3.05,"target":"right","response":"right","rt":701.79999999702,"correct":true,"confidence":4},{"trial_n":106,"n_dots":3.05,"target":"right","response":"left","rt":124.10000000149,"correct":false,"confidence":1},{"trial_n":107,"n_dots":3.15,"target":"right","response":"right","rt":688,"correct":true,"confidence":1},{"trial_n":108,"n_dots":3.15,"target":"left","response":"left","rt":762,"correct":true,"confidence":4},{"trial_n":109,"n_dots":3.05,"target":"right","response":"left","rt":242.09999999404,"correct":false,"confidence":1},{"trial_n":110,"n_dots":3.15,"target":"left","response":"left","rt":289.5,"correct":true,"confidence":1},{"trial_n":111,"n_dots":3.15,"target":"right","response":"left","rt":512.90000000596,"correct":false,"confidence":1},{"trial_n":112,"n_dots":3.25,"target":"right","response":"left","rt":248,"correct":false,"confidence":1},{"trial_n":113,"n_dots":3.35,"target":"left","response":"left","rt":360,"correct":true,"confidence":4},{"trial_n":114,"n_dots":3.35,"target":"right","response":"left","rt":555.89999999851,"correct":false,"confidence":4},{"trial_n":115,"n_dots":3.45,"target":"left","response":"left","rt":289.09999999404,"correct":true,"confidence":5},{"trial_n":116,"n_dots":3.45,"target":"left","response":"left","rt":146.09999999404,"correct":true,"confidence":5},{"trial_n":117,"n_dots":3.35,"target":"left","response":"left","rt":108.5,"correct":true,"confidence":5},{"trial_n":118,"n_dots":3.35,"target":"right","response":"left","rt":30.40000000596,"correct":false,"confidence":4},{"trial_n":119,"n_dots":3.45,"target":"left","response":"left","rt":478,"correct":true,"confidence":5},{"trial_n":120,"n_dots":3.45,"target":"right","response":"left","rt":406.5,"correct":false,"confidence":4}]