[{"trial_n":1,"min":25,"max":230,"target":"present","response":"present","rt":6771.799999997,"correct":true,"confidence":-1},{"trial_n":2,"min":25,"max":230,"target":"present","response":"present","rt":5246.299999997,"correct":true,"confidence":-1},{"trial_n":3,"min":41,"max":214,"target":"absent","response":"present","rt":715.60000000149,"correct":false,"confidence":-1},{"trial_n":4,"min":25,"max":230,"target":"absent","response":"present","rt":773.79999999702,"correct":false,"confidence":-1},{"trial_n":5,"min":9,"max":246,"target":"present","response":"present","rt":647.79999999702,"correct":true,"confidence":-1},{"trial_n":6,"min":9,"max":246,"target":"absent","response":"absent","rt":708,"correct":true,"confidence":-1},{"trial_n":7,"min":25,"max":230,"target":"present","response":"present","rt":701.10000000149,"correct":true,"confidence":-1},{"trial_n":8,"min":25,"max":230,"target":"present","response":"present","rt":802.10000000149,"correct":true,"confidence":-1},{"trial_n":9,"min":41,"max":214,"target":"absent","response":"absent","rt":722.10000000149,"correct":true,"confidence":-1},{"trial_n":10,"min":41,"max":214,"target":"absent","response":"absent","rt":898.69999999553,"correct":true,"confidence":-1},{"trial_n":11,"min":49,"max":206,"target":"present","response":"absent","rt":717.89999999851,"correct":false,"confidence":-1},{"trial_n":12,"min":41,"max":214,"target":"absent","response":"absent","rt":1467.200000003,"correct":true,"confidence":-1},{"trial_n":13,"min":41,"max":214,"target":"absent","response":"present","rt":1197.6999999955,"correct":false,"confidence":-1},{"trial_n":14,"min":33,"max":222,"target":"present","response":"present","rt":1174.400000006,"correct":true,"confidence":-1},{"trial_n":15,"min":33,"max":222,"target":"present","response":"present","rt":882.89999999851,"correct":true,"confidence":-1},{"trial_n":16,"min":41,"max":214,"target":"present","response":"present","rt":659,"correct":true,"confidence":-1},{"trial_n":17,"min":41,"max":214,"target":"absent","response":"absent","rt":761.59999999404,"correct":true,"confidence":-1},{"trial_n":18,"min":49,"max":206,"target":"absent","response":"absent","rt":827.09999999404,"correct":true,"confidence":-1},{"trial_n":19,"min":49,"max":206,"target":"present","response":"present","rt":719.40000000596,"correct":true,"confidence":-1},{"trial_n":20,"min":57,"max":198,"target":"absent","response":"absent","rt":715,"correct":true,"confidence":-1},{"trial_n":21,"min":57,"max":198,"target":"present","response":"present","rt":1434.099999994,"correct":true,"confidence":4},{"trial_n":22,"min":61,"max":194,"target":"present","response":"present","rt":807.29999999702,"correct":true,"confidence":5},{"trial_n":23,"min":61,"max":194,"target":"absent","response":"absent","rt":1744.1999999955,"correct":true,"confidence":5},{"trial_n":24,"min":65,"max":190,"target":"absent","response":"absent","rt":1935.8000000045,"correct":true,"confidence":3},{"trial_n":25,"min":65,"max":190,"target":"absent","response":"absent","rt":932.90000000596,"correct":true,"confidence":5},{"trial_n":26,"min":69,"max":186,"target":"absent","response":"absent","rt":1616.599999994,"correct":true,"confidence":5},{"trial_n":27,"min":69,"max":186,"target":"absent","response":"absent","rt":763.09999999404,"correct":true,"confidence":4},{"trial_n":28,"min":73,"max":182,"target":"present","response":"present","rt":1543.1000000015,"correct":true,"confidence":4},{"trial_n":29,"min":73,"max":182,"target":"present","response":"present","rt":1091.700000003,"correct":true,"confidence":3},{"trial_n":30,"min":77,"max":178,"target":"absent","response":"absent","rt":1549,"correct":true,"confidence":3},{"trial_n":31,"min":77,"max":178,"target":"present","response":"absent","rt":1634.8999999985,"correct":false,"confidence":4},{"trial_n":32,"min":75,"max":180,"target":"absent","response":"absent","rt":842.39999999851,"correct":true,"confidence":5},{"trial_n":33,"min":75,"max":180,"target":"present","response":"present","rt":846.5,"correct":true,"confidence":4},{"trial_n":34,"min":77,"max":178,"target":"absent","response":"absent","rt":979.5,"correct":true,"confidence":4},{"trial_n":35,"min":77,"max":178,"target":"present","response":"absent","rt":867.89999999851,"correct":false,"confidence":4},{"trial_n":36,"min":75,"max":180,"target":"present","response":"absent","rt":3491.799999997,"correct":false,"confidence":1},{"trial_n":37,"min":73,"max":182,"target":"absent","response":"absent","rt":1000.299999997,"correct":true,"confidence":3},{"trial_n":38,"min":73,"max":182,"target":"present","response":"present","rt":1428.5,"correct":true,"confidence":4},{"trial_n":39,"min":75,"max":180,"target":"present","response":"present","rt":687.10000000149,"correct":true,"confidence":2},{"trial_n":40,"min":75,"max":180,"target":"absent","response":"absent","rt":776.20000000298,"correct":true,"confidence":4},{"trial_n":41,"min":76,"max":179,"target":"absent","response":"absent","rt":2976.1000000015,"correct":true,"confidence":4},{"trial_n":42,"min":76,"max":179,"target":"present","response":"present","rt":31538.700000003,"correct":true,"confidence":1},{"trial_n":43,"min":77,"max":178,"target":"present","response":"present","rt":564.89999999851,"correct":true,"confidence":3},{"trial_n":44,"min":77,"max":178,"target":"absent","response":"absent","rt":886.69999999553,"correct":true,"confidence":4},{"trial_n":45,"min":78,"max":177,"target":"absent","response":"absent","rt":2591.799999997,"correct":true,"confidence":4},{"trial_n":46,"min":78,"max":177,"target":"present","response":"absent","rt":1059.799999997,"correct":false,"confidence":4},{"trial_n":47,"min":77,"max":178,"target":"present","response":"present","rt":4908.8999999985,"correct":true,"confidence":1},{"trial_n":48,"min":77,"max":178,"target":"present","response":"present","rt":951.89999999851,"correct":true,"confidence":3},{"trial_n":49,"min":78,"max":177,"target":"absent","response":"absent","rt":1967.1000000015,"correct":true,"confidence":4},{"trial_n":50,"min":78,"max":177,"target":"absent","response":"absent","rt":856.20000000298,"correct":true,"confidence":4},{"trial_n":51,"min":79,"max":176,"target":"present","response":"absent","rt":1297.1000000015,"correct":false,"confidence":5},{"trial_n":52,"min":78,"max":177,"target":"absent","response":"absent","rt":832.10000000149,"correct":true,"confidence":4},{"trial_n":53,"min":78,"max":177,"target":"present","response":"present","rt":1147.8999999985,"correct":true,"confidence":3},{"trial_n":54,"min":79,"max":176,"target":"present","response":"present","rt":861,"correct":true,"confidence":3},{"trial_n":55,"min":79,"max":176,"target":"present","response":"present","rt":652.30000000447,"correct":true,"confidence":3},{"trial_n":56,"min":80,"max":175,"target":"present","response":"present","rt":759,"correct":true,"confidence":3},{"trial_n":57,"min":80,"max":175,"target":"present","response":"present","rt":1535.5,"correct":true,"confidence":4},{"trial_n":58,"min":81,"max":174,"target":"absent","response":"absent","rt":625.10000000149,"correct":true,"confidence":4},{"trial_n":59,"min":81,"max":174,"target":"absent","response":"absent","rt":1013.1999999955,"correct":true,"confidence":4},{"trial_n":60,"min":82,"max":173,"target":"absent","response":"absent","rt":725.69999999553,"correct":true,"confidence":4},{"trial_n":61,"min":82,"max":173,"target":"absent","response":"absent","rt":1024.299999997,"correct":true,"confidence":4},{"trial_n":62,"min":83,"max":172,"target":"present","response":"present","rt":1109.8999999985,"correct":true,"confidence":3},{"trial_n":63,"min":83,"max":172,"target":"present","response":"absent","rt":967.20000000298,"correct":false,"confidence":4},{"trial_n":64,"min":82,"max":173,"target":"absent","response":"absent","rt":742.89999999851,"correct":true,"confidence":4},{"trial_n":65,"min":82,"max":173,"target":"absent","response":"absent","rt":812.09999999404,"correct":true,"confidence":4},{"trial_n":66,"min":83,"max":172,"target":"present","response":"present","rt":1004.1000000015,"correct":true,"confidence":3},{"trial_n":67,"min":83,"max":172,"target":"present","response":"present","rt":728.10000000149,"correct":true,"confidence":3},{"trial_n":68,"min":84,"max":171,"target":"absent","response":"present","rt":808,"correct":false,"confidence":3},{"trial_n":69,"min":83,"max":172,"target":"present","response":"present","rt":936.10000000149,"correct":true,"confidence":4},{"trial_n":70,"min":83,"max":172,"target":"absent","response":"absent","rt":2032.3000000045,"correct":true,"confidence":4},{"trial_n":71,"min":41,"max":214,"target":"present","response":"present","rt":12204.799999997,"correct":true,"confidence":-1},{"trial_n":72,"min":41,"max":214,"target":"present","response":"present","rt":1016.8999999985,"correct":true,"confidence":-1},{"trial_n":73,"min":57,"max":198,"target":"absent","response":"absent","rt":328.30000000447,"correct":true,"confidence":-1},{"trial_n":74,"min":57,"max":198,"target":"absent","response":"absent","rt":375.89999999851,"correct":true,"confidence":-1},{"trial_n":75,"min":73,"max":182,"target":"present","response":"present","rt":70.10000000149,"correct":true,"confidence":-1},{"trial_n":76,"min":73,"max":182,"target":"present","response":"present","rt":784.5,"correct":true,"confidence":-1},{"trial_n":77,"min":89,"max":166,"target":"absent","response":"absent","rt":2655.1999999955,"correct":true,"confidence":-1},{"trial_n":78,"min":89,"max":166,"target":"absent","response":"absent","rt":499.5,"correct":true,"confidence":-1},{"trial_n":79,"min":105,"max":150,"target":"absent","response":"present","rt":222.39999999851,"correct":false,"confidence":-1},{"trial_n":80,"min":89,"max":166,"target":"present","response":"absent","rt":739.79999999702,"correct":false,"confidence":-1},{"trial_n":81,"min":81,"max":174,"target":"absent","response":"present","rt":756.10000000149,"correct":false,"confidence":-1},{"trial_n":82,"min":73,"max":182,"target":"absent","response":"absent","rt":1531.900000006,"correct":true,"confidence":-1},{"trial_n":83,"min":73,"max":182,"target":"present","response":"present","rt":211.79999999702,"correct":true,"confidence":-1},{"trial_n":84,"min":81,"max":174,"target":"absent","response":"absent","rt":482.19999999553,"correct":true,"confidence":-1},{"trial_n":85,"min":81,"max":174,"target":"absent","response":"absent","rt":4220.6999999955,"correct":true,"confidence":-1},{"trial_n":86,"min":89,"max":166,"target":"absent","response":"absent","rt":786.69999999553,"correct":true,"confidence":-1},{"trial_n":87,"min":89,"max":166,"target":"absent","response":"absent","rt":1875.1999999955,"correct":true,"confidence":-1},{"trial_n":88,"min":97,"max":158,"target":"present","response":"absent","rt":796.5,"correct":false,"confidence":-1},{"trial_n":89,"min":89,"max":166,"target":"present","response":"present","rt":185.10000000149,"correct":true,"confidence":-1},{"trial_n":90,"min":89,"max":166,"target":"absent","response":"present","rt":488.80000000447,"correct":false,"confidence":-1},{"trial_n":91,"min":85,"max":170,"target":"absent","response":"absent","rt":499.30000000447,"correct":true,"confidence":1},{"trial_n":92,"min":85,"max":170,"target":"present","response":"absent","rt":693.5,"correct":false,"confidence":1},{"trial_n":93,"min":81,"max":174,"target":"present","response":"present","rt":387.90000000596,"correct":true,"confidence":1},{"trial_n":94,"min":81,"max":174,"target":"present","response":"present","rt":256.40000000596,"correct":true,"confidence":1},{"trial_n":95,"min":85,"max":170,"target":"present","response":"present","rt":366.20000000298,"correct":true,"confidence":1},{"trial_n":96,"min":85,"max":170,"target":"absent","response":"absent","rt":97.10000000149,"correct":true,"confidence":1},{"trial_n":97,"min":89,"max":166,"target":"present","response":"absent","rt":472.90000000596,"correct":false,"confidence":1},{"trial_n":98,"min":85,"max":170,"target":"present","response":"present","rt":333.5,"correct":true,"confidence":1},{"trial_n":99,"min":85,"max":170,"target":"present","response":"present","rt":254.39999999851,"correct":true,"confidence":1},{"trial_n":100,"min":89,"max":166,"target":"present","response":"absent","rt":822.89999999851,"correct":false,"confidence":1},{"trial_n":101,"min":87,"max":168,"target":"absent","response":"present","rt":562.10000000149,"correct":false,"confidence":1},{"trial_n":102,"min":85,"max":170,"target":"present","response":"present","rt":654.59999999404,"correct":true,"confidence":1},{"trial_n":103,"min":85,"max":170,"target":"absent","response":"present","rt":691.80000000447,"correct":false,"confidence":1},{"trial_n":104,"min":83,"max":172,"target":"present","response":"absent","rt":330,"correct":false,"confidence":1},{"trial_n":105,"min":81,"max":174,"target":"absent","response":"absent","rt":345.30000000447,"correct":true,"confidence":1},{"trial_n":106,"min":81,"max":174,"target":"present","response":"present","rt":1295.900000006,"correct":true,"confidence":1},{"trial_n":107,"min":83,"max":172,"target":"present","response":"present","rt":815,"correct":true,"confidence":1},{"trial_n":108,"min":83,"max":172,"target":"absent","response":"absent","rt":152.80000000447,"correct":true,"confidence":1},{"trial_n":109,"min":85,"max":170,"target":"absent","response":"absent","rt":230.30000000447,"correct":true,"confidence":1},{"trial_n":110,"min":85,"max":170,"target":"present","response":"absent","rt":401.10000000149,"correct":false,"confidence":1},{"trial_n":111,"min":84,"max":171,"target":"absent","response":"present","rt":440.80000000447,"correct":false,"confidence":1},{"trial_n":112,"min":83,"max":172,"target":"absent","response":"absent","rt":312.30000000447,"correct":true,"confidence":1},{"trial_n":113,"min":83,"max":172,"target":"present","response":"present","rt":187.10000000149,"correct":true,"confidence":1},{"trial_n":114,"min":84,"max":171,"target":"absent","response":"absent","rt":511.20000000298,"correct":true,"confidence":1},{"trial_n":115,"min":84,"max":171,"target":"absent","response":"absent","rt":431.89999999851,"correct":true,"confidence":1},{"trial_n":116,"min":85,"max":170,"target":"present","response":"present","rt":149.10000000149,"correct":true,"confidence":1},{"trial_n":117,"min":85,"max":170,"target":"present","response":"present","rt":218.39999999851,"correct":true,"confidence":1},{"trial_n":118,"min":86,"max":169,"target":"absent","response":"present","rt":189.89999999851,"correct":false,"confidence":1},{"trial_n":119,"min":85,"max":170,"target":"absent","response":"present","rt":232.5,"correct":false,"confidence":1},{"trial_n":120,"min":84,"max":171,"target":"present","response":"present","rt":110.39999999851,"correct":true,"confidence":1},{"trial_n":121,"min":84,"max":171,"target":"present","response":"present","rt":1203.799999997,"correct":true,"confidence":1},{"trial_n":122,"min":85,"max":170,"target":"present","response":"present","rt":5,"correct":true,"confidence":1},{"trial_n":123,"min":85,"max":170,"target":"present","response":"present","rt":584.79999999702,"correct":true,"confidence":1},{"trial_n":124,"min":86,"max":169,"target":"absent","response":"absent","rt":234.89999999851,"correct":true,"confidence":1},{"trial_n":125,"min":86,"max":169,"target":"absent","response":"absent","rt":307.89999999851,"correct":true,"confidence":1},{"trial_n":126,"min":87,"max":168,"target":"present","response":"present","rt":348.5,"correct":true,"confidence":1},{"trial_n":127,"min":87,"max":168,"target":"absent","response":"absent","rt":483.5,"correct":true,"confidence":1},{"trial_n":128,"min":88,"max":167,"target":"present","response":"present","rt":179.10000000149,"correct":true,"confidence":1},{"trial_n":129,"min":88,"max":167,"target":"absent","response":"absent","rt":265.20000000298,"correct":true,"confidence":1},{"trial_n":130,"min":89,"max":166,"target":"absent","response":"absent","rt":307.60000000149,"correct":true,"confidence":1},{"trial_n":131,"min":89,"max":166,"target":"present","response":"present","rt":59.30000000447,"correct":true,"confidence":1},{"trial_n":132,"min":90,"max":165,"target":"present","response":"present","rt":244.60000000149,"correct":true,"confidence":1},{"trial_n":133,"min":90,"max":165,"target":"absent","response":"absent","rt":631.39999999851,"correct":true,"confidence":1},{"trial_n":134,"min":91,"max":164,"target":"absent","response":"present","rt":227.5,"correct":false,"confidence":1},{"trial_n":135,"min":90,"max":165,"target":"present","response":"present","rt":163,"correct":true,"confidence":1},{"trial_n":136,"min":90,"max":165,"target":"absent","response":"absent","rt":519.69999999553,"correct":true,"confidence":1},{"trial_n":137,"min":91,"max":164,"target":"absent","response":"present","rt":326.29999999702,"correct":false,"confidence":1},{"trial_n":138,"min":90,"max":165,"target":"present","response":"absent","rt":625.70000000298,"correct":false,"confidence":1},{"trial_n":139,"min":89,"max":166,"target":"present","response":"present","rt":135.79999999702,"correct":true,"confidence":1},{"trial_n":140,"min":89,"max":166,"target":"present","response":"present","rt":221.79999999702,"correct":true,"confidence":1}]