[{"trial_n":1,"span":8,"encoder":"26306539","distractor":"26306519","target":"present","response":"present","rt":"8398.799999997","correct":true,"confidence":-1},{"trial_n":2,"span":8,"encoder":"43897071","distractor":"47897071","target":"present","response":"present","rt":"1618.8999999985","correct":true,"confidence":-1},{"trial_n":3,"span":10,"encoder":"3206146474","distractor":"6206146474","target":"absent","response":"present","rt":"1120.700000003","correct":false,"confidence":-1},{"trial_n":4,"span":8,"encoder":"87619458","distractor":"87519458","target":"absent","response":"present","rt":"2611.799999997","correct":false,"confidence":-1},{"trial_n":5,"span":6,"encoder":"298287","distractor":"278287","target":"present","response":"present","rt":"2244.5","correct":true,"confidence":-1},{"trial_n":6,"span":6,"encoder":"239512","distractor":"239502","target":"present","response":"present","rt":"1737.6000000015","correct":true,"confidence":-1},{"trial_n":7,"span":8,"encoder":"98022720","distractor":"98022725","target":"absent","response":"absent","rt":"1779","correct":true,"confidence":-1},{"trial_n":8,"span":8,"encoder":"91478269","distractor":"91477269","target":"present","response":"present","rt":"2867","correct":true,"confidence":-1},{"trial_n":9,"span":10,"encoder":"3636780899","distractor":"9636780899","target":"present","response":"present","rt":"6544.6000000015","correct":true,"confidence":-1},{"trial_n":10,"span":10,"encoder":"9135615901","distractor":"9135615301","target":"absent","response":"absent","rt":"9481.8000000045","correct":true,"confidence":-1},{"trial_n":11,"span":12,"encoder":"575169371180","distractor":"575169271180","target":"present","response":"absent","rt":"1500.700000003","correct":false,"confidence":-1},{"trial_n":12,"span":11,"encoder":"07690814939","distractor":"07690814439","target":"absent","response":"absent","rt":"2927.200000003","correct":true,"confidence":-1},{"trial_n":13,"span":11,"encoder":"27412547132","distractor":"07412547132","target":"absent","response":"present","rt":"1687.200000003","correct":false,"confidence":-1},{"trial_n":14,"span":10,"encoder":"3436425203","distractor":"3437425203","target":"present","response":"absent","rt":"6750.200000003","correct":false,"confidence":-1},{"trial_n":15,"span":9,"encoder":"747004066","distractor":"737004066","target":"present","response":"present","rt":"4816.3999999985","correct":true,"confidence":-1},{"trial_n":16,"span":9,"encoder":"249102439","distractor":"849102439","target":"present","response":"present","rt":"8372.6000000015","correct":true,"confidence":-1},{"trial_n":17,"span":10,"encoder":"1874874279","distractor":"1874674279","target":"absent","response":"absent","rt":"5563.8999999985","correct":true,"confidence":-1},{"trial_n":18,"span":10,"encoder":"7175969778","distractor":"7175969478","target":"present","response":"absent","rt":"11153.400000006","correct":false,"confidence":-1},{"trial_n":19,"span":9,"encoder":"414444766","distractor":"464444766","target":"present","response":"present","rt":"5763.5","correct":true,"confidence":-1},{"trial_n":20,"span":9,"encoder":"470090730","distractor":"470090710","target":"present","response":"present","rt":"8903.299999997","correct":true,"confidence":-1},{"trial_n":21,"span":10,"encoder":"4109701255","distractor":"4109701755","target":"present","response":"present","rt":"7912.599999994","correct":true,"confidence":5},{"trial_n":22,"span":10,"encoder":"4656691823","distractor":"4655691823","target":"present","response":"present","rt":"4590.200000003","correct":true,"confidence":1},{"trial_n":23,"span":11,"encoder":"30294295322","distractor":"31294295322","target":"absent","response":"present","rt":"2965.3000000045","correct":false,"confidence":1},{"trial_n":24,"span":10,"encoder":"1059098596","distractor":"1559098596","target":"absent","response":"absent","rt":"5957","correct":true,"confidence":1},{"trial_n":25,"span":10,"encoder":"5246085367","distractor":"5246085361","target":"absent","response":"absent","rt":"4354.3999999985","correct":true,"confidence":1},{"trial_n":26,"span":11,"encoder":"30590899182","distractor":"30590869182","target":"present","response":"present","rt":"3034.8999999985","correct":true,"confidence":1},{"trial_n":27,"span":11,"encoder":"89628138433","distractor":"89628138333","target":"present","response":"present","rt":"9487.8999999985","correct":true,"confidence":1},{"trial_n":28,"span":12,"encoder":"826332896654","distractor":"826332896154","target":"present","response":"present","rt":"9505.5","correct":true,"confidence":1},{"trial_n":29,"span":12,"encoder":"849377332485","distractor":"829377332485","target":"present","response":"present","rt":"15682.299999997","correct":true,"confidence":1},{"trial_n":30,"span":13,"encoder":"3129652044763","distractor":"6129652044763","target":"absent","response":"absent","rt":"7403","correct":true,"confidence":1},{"trial_n":31,"span":13,"encoder":"6825285004539","distractor":"6825285004559","target":"absent","response":"absent","rt":"4178.099999994","correct":true,"confidence":1},{"trial_n":32,"span":14,"encoder":"03106903457160","distractor":"03206903457160","target":"absent","response":"absent","rt":"4774.5","correct":true,"confidence":1},{"trial_n":33,"span":14,"encoder":"53398315179000","distractor":"53398315169000","target":"absent","response":"present","rt":"9929.799999997","correct":false,"confidence":1},{"trial_n":34,"span":13,"encoder":"5077607967729","distractor":"5077607367729","target":"absent","response":"present","rt":"13334.800000004","correct":false,"confidence":1},{"trial_n":35,"span":12,"encoder":"528940944158","distractor":"558940944158","target":"present","response":"present","rt":"4168.6000000015","correct":true,"confidence":1},{"trial_n":36,"span":12,"encoder":"154957821692","distractor":"154958821692","target":"absent","response":"present","rt":"4507.200000003","correct":false,"confidence":1},{"trial_n":37,"span":11,"encoder":"55542901749","distractor":"55542901741","target":"present","response":"present","rt":"6753.799999997","correct":true,"confidence":3},{"trial_n":38,"span":11,"encoder":"10610237158","distractor":"10610937158","target":"present","response":"present","rt":"4457.799999997","correct":true,"confidence":4},{"trial_n":39,"span":12,"encoder":"612032355765","distractor":"612038355765","target":"absent","response":"absent","rt":"8654","correct":true,"confidence":3},{"trial_n":40,"span":12,"encoder":"473649044929","distractor":"473640044929","target":"present","response":"present","rt":"3293.5","correct":true,"confidence":3},{"trial_n":41,"span":13,"encoder":"7153383441504","distractor":"7163383441504","target":"present","response":"present","rt":"6070.5","correct":true,"confidence":3},{"trial_n":42,"span":13,"encoder":"5859810200646","distractor":"5959810200646","target":"absent","response":"absent","rt":"6287.5","correct":true,"confidence":1},{"trial_n":43,"span":14,"encoder":"22170898887966","distractor":"22670898887966","target":"present","response":"present","rt":"7782","correct":true,"confidence":3},{"trial_n":44,"span":14,"encoder":"96771057885848","distractor":"96771057885868","target":"absent","response":"present","rt":"12005.299999997","correct":false,"confidence":1},{"trial_n":45,"span":13,"encoder":"3722843794985","distractor":"3722743794985","target":"present","response":"present","rt":"3088.3999999985","correct":true,"confidence":1},{"trial_n":46,"span":13,"encoder":"2151946536428","distractor":"2155946536428","target":"present","response":"present","rt":"12351.399999999","correct":true,"confidence":3},{"trial_n":47,"span":14,"encoder":"18045492207251","distractor":"18045491207251","target":"absent","response":"absent","rt":"8586.8999999985","correct":true,"confidence":1},{"trial_n":48,"span":14,"encoder":"63497087682156","distractor":"60497087682156","target":"absent","response":"absent","rt":"6770.299999997","correct":true,"confidence":1},{"trial_n":49,"span":15,"encoder":"900012174079146","distractor":"900012174059146","target":"absent","response":"absent","rt":"9207.3999999985","correct":true,"confidence":1},{"trial_n":50,"span":15,"encoder":"919981157550225","distractor":"913981157550225","target":"absent","response":"present","rt":"4704.8999999985","correct":false,"confidence":1},{"trial_n":51,"span":14,"encoder":"77936201039529","distractor":"77936205039529","target":"absent","response":"present","rt":"1872.599999994","correct":false,"confidence":1},{"trial_n":52,"span":13,"encoder":"1008431462678","distractor":"1018431462678","target":"present","response":"present","rt":"1624.1000000015","correct":true,"confidence":1},{"trial_n":53,"span":13,"encoder":"2997350914523","distractor":"2997350914423","target":"present","response":"absent","rt":"1104","correct":false,"confidence":1},{"trial_n":54,"span":12,"encoder":"001582732885","distractor":"601582732885","target":"present","response":"present","rt":"1713.1000000015","correct":true,"confidence":1},{"trial_n":55,"span":12,"encoder":"744230763840","distractor":"744230663840","target":"present","response":"absent","rt":"3887.3000000045","correct":false,"confidence":1},{"trial_n":56,"span":11,"encoder":"30862827198","distractor":"30862828198","target":"absent","response":"present","rt":"1218","correct":false,"confidence":3},{"trial_n":57,"span":10,"encoder":"8778142643","distractor":"3778142643","target":"absent","response":"present","rt":"1544.6000000015","correct":false,"confidence":2},{"trial_n":58,"span":9,"encoder":"026159011","distractor":"056159011","target":"present","response":"absent","rt":"1878.1000000015","correct":false,"confidence":1},{"trial_n":59,"span":8,"encoder":"54838847","distractor":"54838747","target":"present","response":"present","rt":"2780.1000000015","correct":true,"confidence":1},{"trial_n":60,"span":8,"encoder":"49380794","distractor":"19380794","target":"present","response":"present","rt":"3436.1000000015","correct":true,"confidence":3},{"trial_n":61,"span":9,"encoder":"057306412","distractor":"047306412","target":"absent","response":"absent","rt":"2600.700000003","correct":true,"confidence":1},{"trial_n":62,"span":9,"encoder":"446454079","distractor":"446454979","target":"present","response":"present","rt":"1673.5","correct":true,"confidence":4},{"trial_n":63,"span":10,"encoder":"5372157111","distractor":"5342157111","target":"absent","response":"present","rt":"1101.8999999985","correct":false,"confidence":3},{"trial_n":64,"span":9,"encoder":"032671114","distractor":"032671119","target":"absent","response":"present","rt":"2750.3999999985","correct":false,"confidence":2},{"trial_n":65,"span":8,"encoder":"83628724","distractor":"83628124","target":"absent","response":"present","rt":"2064.099999994","correct":false,"confidence":1},{"trial_n":66,"span":7,"encoder":"5787892","distractor":"5787592","target":"absent","response":"present","rt":"2974.799999997","correct":false,"confidence":3},{"trial_n":67,"span":6,"encoder":"648029","distractor":"148029","target":"absent","response":"absent","rt":"2039.6999999955","correct":true,"confidence":4},{"trial_n":68,"span":6,"encoder":"274760","distractor":"274767","target":"absent","response":"present","rt":"1249.8999999985","correct":false,"confidence":3},{"trial_n":69,"span":5,"encoder":"80999","distractor":"40999","target":"present","response":"present","rt":"2078.8999999985","correct":true,"confidence":5},{"trial_n":70,"span":5,"encoder":"57456","distractor":"57156","target":"absent","response":"absent","rt":"2017","correct":true,"confidence":5},{"trial_n":71,"span":8,"encoder":"94274272","distractor":"94274278","target":"present","response":"present","rt":"1333.3000000045","correct":true,"confidence":-1},{"trial_n":72,"span":8,"encoder":"38801964","distractor":"08801964","target":"present","response":"present","rt":"3062.3999999985","correct":true,"confidence":-1},{"trial_n":73,"span":9,"encoder":"804411894","distractor":"804411594","target":"absent","response":"absent","rt":"2021.3000000045","correct":true,"confidence":-1},{"trial_n":74,"span":9,"encoder":"479863526","distractor":"479863126","target":"absent","response":"absent","rt":"1544.3000000045","correct":true,"confidence":-1},{"trial_n":75,"span":10,"encoder":"8108608860","distractor":"9108608860","target":"present","response":"absent","rt":"1207.8999999985","correct":false,"confidence":-1},{"trial_n":76,"span":9,"encoder":"207979027","distractor":"207179027","target":"present","response":"present","rt":"2184.700000003","correct":true,"confidence":-1},{"trial_n":77,"span":9,"encoder":"628376858","distractor":"628376828","target":"absent","response":"absent","rt":"4173","correct":true,"confidence":-1},{"trial_n":78,"span":10,"encoder":"6435154360","distractor":"6415154360","target":"absent","response":"present","rt":"2981.200000003","correct":false,"confidence":-1},{"trial_n":79,"span":9,"encoder":"093520631","distractor":"083520631","target":"absent","response":"absent","rt":"2333.3000000045","correct":true,"confidence":-1},{"trial_n":80,"span":9,"encoder":"367857092","distractor":"367857090","target":"present","response":"present","rt":"655","correct":true,"confidence":-1},{"trial_n":81,"span":10,"encoder":"2578715537","distractor":"2578715538","target":"present","response":"absent","rt":"928","correct":false,"confidence":-1},{"trial_n":82,"span":9,"encoder":"616303332","distractor":"016303332","target":"absent","response":"present","rt":"2333.1000000015","correct":false,"confidence":-1},{"trial_n":83,"span":8,"encoder":"25786440","distractor":"26786440","target":"present","response":"absent","rt":"964.29999999702","correct":false,"confidence":-1},{"trial_n":84,"span":7,"encoder":"3289699","distractor":"3289799","target":"present","response":"present","rt":"1864.799999997","correct":true,"confidence":-1},{"trial_n":85,"span":7,"encoder":"0551144","distractor":"0751144","target":"absent","response":"present","rt":"2736","correct":false,"confidence":-1},{"trial_n":86,"span":6,"encoder":"217319","distractor":"117319","target":"present","response":"absent","rt":"1388.1999999955","correct":false,"confidence":-1},{"trial_n":87,"span":5,"encoder":"94941","distractor":"84941","target":"present","response":"present","rt":"2352.5","correct":true,"confidence":-1},{"trial_n":88,"span":5,"encoder":"45973","distractor":"45923","target":"present","response":"absent","rt":"913.89999999851","correct":false,"confidence":-1},{"trial_n":89,"span":4,"encoder":"1945","distractor":"1946","target":"absent","response":"present","rt":"828.79999999702","correct":false,"confidence":-1},{"trial_n":90,"span":3,"encoder":"657","distractor":"557","target":"absent","response":"absent","rt":"1019.799999997","correct":true,"confidence":-1},{"trial_n":91,"span":3,"encoder":"660","distractor":"665","target":"present","response":"present","rt":"1317.1000000015","correct":true,"confidence":4},{"trial_n":92,"span":4,"encoder":"5626","distractor":"5426","target":"present","response":"present","rt":"1564.6000000015","correct":true,"confidence":5},{"trial_n":93,"span":4,"encoder":"1243","distractor":"1943","target":"absent","response":"absent","rt":"1079.299999997","correct":true,"confidence":5},{"trial_n":94,"span":5,"encoder":"99839","distractor":"99838","target":"absent","response":"absent","rt":"1432.5","correct":true,"confidence":5},{"trial_n":95,"span":5,"encoder":"08574","distractor":"08577","target":"absent","response":"absent","rt":"1933","correct":true,"confidence":5},{"trial_n":96,"span":6,"encoder":"129300","distractor":"129301","target":"present","response":"present","rt":"1079.1000000015","correct":true,"confidence":5},{"trial_n":97,"span":6,"encoder":"972364","distractor":"932364","target":"absent","response":"absent","rt":"1248.1999999955","correct":true,"confidence":5},{"trial_n":98,"span":7,"encoder":"0794754","distractor":"0795754","target":"present","response":"present","rt":"4005.200000003","correct":true,"confidence":4},{"trial_n":99,"span":7,"encoder":"5167074","distractor":"5167094","target":"absent","response":"absent","rt":"1742.599999994","correct":true,"confidence":5},{"trial_n":100,"span":8,"encoder":"67463015","distractor":"67563015","target":"absent","response":"absent","rt":"1702.5","correct":true,"confidence":3},{"trial_n":101,"span":8,"encoder":"24439300","distractor":"24439303","target":"present","response":"present","rt":"1950.1000000015","correct":true,"confidence":3},{"trial_n":102,"span":9,"encoder":"432764340","distractor":"434764340","target":"absent","response":"present","rt":"4593.5","correct":false,"confidence":1},{"trial_n":103,"span":8,"encoder":"20668838","distractor":"20668868","target":"present","response":"present","rt":"1976.3000000045","correct":true,"confidence":5},{"trial_n":104,"span":8,"encoder":"11788818","distractor":"91788818","target":"present","response":"present","rt":"3079.1000000015","correct":true,"confidence":1},{"trial_n":105,"span":9,"encoder":"200062407","distractor":"200362407","target":"absent","response":"absent","rt":"1463.3000000045","correct":true,"confidence":5},{"trial_n":106,"span":9,"encoder":"669016913","distractor":"669013913","target":"absent","response":"absent","rt":"671.5","correct":true,"confidence":1},{"trial_n":107,"span":10,"encoder":"9695754958","distractor":"9495754958","target":"present","response":"present","rt":"675.89999999851","correct":true,"confidence":1},{"trial_n":108,"span":10,"encoder":"7953203184","distractor":"7953203684","target":"present","response":"present","rt":"37736.600000001","correct":true,"confidence":1},{"trial_n":109,"span":11,"encoder":"56793463829","distractor":"56793463849","target":"present","response":"present","rt":"4442.299999997","correct":true,"confidence":4},{"trial_n":110,"span":11,"encoder":"18294112763","distractor":"18294152763","target":"absent","response":"absent","rt":"3199.5","correct":true,"confidence":1},{"trial_n":111,"span":12,"encoder":"595320127513","distractor":"595323127513","target":"absent","response":"absent","rt":"8938.099999994","correct":true,"confidence":1},{"trial_n":112,"span":12,"encoder":"754165400673","distractor":"154165400673","target":"present","response":"absent","rt":"2831","correct":false,"confidence":1},{"trial_n":113,"span":11,"encoder":"28083200739","distractor":"22083200739","target":"absent","response":"absent","rt":"5901","correct":true,"confidence":1},{"trial_n":114,"span":11,"encoder":"05756667123","distractor":"05756367123","target":"present","response":"present","rt":"2183","correct":true,"confidence":1},{"trial_n":115,"span":12,"encoder":"522925798225","distractor":"522975798225","target":"absent","response":"absent","rt":"1497.8000000045","correct":true,"confidence":1},{"trial_n":116,"span":12,"encoder":"242683535545","distractor":"242684535545","target":"present","response":"absent","rt":"948.90000000596","correct":false,"confidence":1},{"trial_n":117,"span":11,"encoder":"90763801746","distractor":"90763501746","target":"absent","response":"present","rt":"722.29999999702","correct":false,"confidence":1},{"trial_n":118,"span":10,"encoder":"3693972298","distractor":"3693972258","target":"present","response":"absent","rt":"1680.8999999985","correct":false,"confidence":1},{"trial_n":119,"span":9,"encoder":"708798131","distractor":"707798131","target":"present","response":"absent","rt":"900.70000000298","correct":false,"confidence":1},{"trial_n":120,"span":8,"encoder":"55548756","distractor":"55548706","target":"absent","response":"absent","rt":"2832.6999999955","correct":true,"confidence":1},{"trial_n":121,"span":8,"encoder":"29248261","distractor":"29247261","target":"absent","response":"present","rt":"2322.3000000045","correct":false,"confidence":1},{"trial_n":122,"span":7,"encoder":"0223797","distractor":"0223097","target":"absent","response":"absent","rt":"1745.8999999985","correct":true,"confidence":1},{"trial_n":123,"span":7,"encoder":"5890299","distractor":"5891299","target":"present","response":"present","rt":"1688.8999999985","correct":true,"confidence":1},{"trial_n":124,"span":8,"encoder":"80247046","distractor":"80247246","target":"present","response":"absent","rt":"695.10000000149","correct":false,"confidence":1},{"trial_n":125,"span":7,"encoder":"8878985","distractor":"8878987","target":"absent","response":"absent","rt":"898.70000000298","correct":true,"confidence":1},{"trial_n":126,"span":7,"encoder":"9389485","distractor":"9309485","target":"absent","response":"present","rt":"932.30000000447","correct":false,"confidence":2},{"trial_n":127,"span":6,"encoder":"564488","distractor":"565488","target":"present","response":"absent","rt":"2059.6000000015","correct":false,"confidence":3},{"trial_n":128,"span":5,"encoder":"12237","distractor":"32237","target":"absent","response":"present","rt":"1234.3999999985","correct":false,"confidence":3},{"trial_n":129,"span":4,"encoder":"7483","distractor":"7683","target":"present","response":"present","rt":"1280","correct":true,"confidence":5},{"trial_n":130,"span":4,"encoder":"3323","distractor":"3329","target":"present","response":"present","rt":"758.10000000149","correct":true,"confidence":5},{"trial_n":131,"span":5,"encoder":"15566","distractor":"15562","target":"present","response":"present","rt":"776.5","correct":true,"confidence":5},{"trial_n":132,"span":5,"encoder":"93257","distractor":"53257","target":"absent","response":"absent","rt":"4604.6999999955","correct":true,"confidence":4},{"trial_n":133,"span":6,"encoder":"880306","distractor":"880606","target":"absent","response":"absent","rt":"2610","correct":true,"confidence":5},{"trial_n":134,"span":6,"encoder":"969678","distractor":"969668","target":"present","response":"present","rt":"1916","correct":true,"confidence":5},{"trial_n":135,"span":7,"encoder":"2364661","distractor":"2384661","target":"absent","response":"absent","rt":"2944","correct":true,"confidence":5},{"trial_n":136,"span":7,"encoder":"8465918","distractor":"8464918","target":"present","response":"absent","rt":"1360.3000000045","correct":false,"confidence":1},{"trial_n":137,"span":6,"encoder":"585357","distractor":"985357","target":"absent","response":"present","rt":"1259.599999994","correct":false,"confidence":1},{"trial_n":138,"span":5,"encoder":"53818","distractor":"54818","target":"present","response":"absent","rt":"3342.5","correct":false,"confidence":3},{"trial_n":139,"span":4,"encoder":"8068","distractor":"8048","target":"absent","response":"present","rt":"1835.599999994","correct":false,"confidence":1},{"trial_n":140,"span":3,"encoder":"427","distractor":"428","target":"present","response":"present","rt":"1284.3999999985","correct":true,"confidence":5}]