[{"trial_n":1,"min":25,"max":230,"target":"present","response":"absent","rt":5926.1999999997,"correct":false,"confidence":-1},{"trial_n":2,"min":25,"max":230,"target":"present","response":"present","rt":1388.2999999998,"correct":true,"confidence":-1},{"trial_n":3,"min":25,"max":230,"target":"absent","response":"absent","rt":979.60000000009,"correct":true,"confidence":-1},{"trial_n":4,"min":41,"max":214,"target":"absent","response":"present","rt":97.899999999907,"correct":false,"confidence":-1},{"trial_n":5,"min":25,"max":230,"target":"present","response":"present","rt":22,"correct":true,"confidence":-1},{"trial_n":6,"min":25,"max":230,"target":"present","response":"present","rt":77.399999999907,"correct":true,"confidence":-1},{"trial_n":7,"min":41,"max":214,"target":"present","response":"present","rt":54.199999999721,"correct":true,"confidence":-1},{"trial_n":8,"min":41,"max":214,"target":"absent","response":"present","rt":90,"correct":false,"confidence":-1},{"trial_n":9,"min":25,"max":230,"target":"absent","response":"present","rt":61.599999999627,"correct":false,"confidence":-1},{"trial_n":10,"min":9,"max":246,"target":"present","response":"present","rt":111.10000000009,"correct":true,"confidence":-1},{"trial_n":11,"min":9,"max":246,"target":"absent","response":"present","rt":124.29999999981,"correct":false,"confidence":-1},{"trial_n":12,"min":1,"max":254,"target":"present","response":"absent","rt":21.100000000093,"correct":false,"confidence":-1},{"trial_n":13,"min":0,"max":255,"target":"absent","response":"absent","rt":89.599999999627,"correct":true,"confidence":-1},{"trial_n":14,"min":0,"max":255,"target":"present","response":"absent","rt":58.199999999721,"correct":false,"confidence":-1},{"trial_n":15,"min":0,"max":255,"target":"present","response":"absent","rt":112.5,"correct":false,"confidence":-1},{"trial_n":16,"min":0,"max":255,"target":"present","response":"present","rt":61.199999999721,"correct":true,"confidence":-1},{"trial_n":17,"min":0,"max":255,"target":"present","response":"absent","rt":21.5,"correct":false,"confidence":-1},{"trial_n":18,"min":0,"max":255,"target":"absent","response":"absent","rt":104.59999999963,"correct":true,"confidence":-1},{"trial_n":19,"min":0,"max":255,"target":"present","response":"present","rt":8.3999999999069,"correct":true,"confidence":-1},{"trial_n":20,"min":8,"max":247,"target":"present","response":"absent","rt":52.699999999721,"correct":false,"confidence":-1},{"trial_n":21,"min":4,"max":251,"target":"present","response":"absent","rt":464.60000000009,"correct":false,"confidence":1},{"trial_n":22,"min":0,"max":255,"target":"present","response":"present","rt":227.39999999991,"correct":true,"confidence":1},{"trial_n":23,"min":0,"max":255,"target":"absent","response":"absent","rt":19.100000000093,"correct":true,"confidence":1},{"trial_n":24,"min":4,"max":251,"target":"absent","response":"absent","rt":17.199999999721,"correct":true,"confidence":1},{"trial_n":25,"min":4,"max":251,"target":"absent","response":"absent","rt":30.100000000093,"correct":true,"confidence":1},{"trial_n":26,"min":8,"max":247,"target":"present","response":"absent","rt":59,"correct":false,"confidence":1},{"trial_n":27,"min":4,"max":251,"target":"absent","response":"absent","rt":160.70000000019,"correct":true,"confidence":1},{"trial_n":28,"min":4,"max":251,"target":"absent","response":"absent","rt":172.60000000009,"correct":true,"confidence":1},{"trial_n":29,"min":8,"max":247,"target":"absent","response":"absent","rt":190.79999999981,"correct":true,"confidence":1},{"trial_n":30,"min":8,"max":247,"target":"absent","response":"absent","rt":189.30000000028,"correct":true,"confidence":1},{"trial_n":31,"min":10,"max":245,"target":"absent","response":"absent","rt":93.399999999907,"correct":true,"confidence":1},{"trial_n":32,"min":10,"max":245,"target":"present","response":"absent","rt":91.399999999907,"correct":false,"confidence":1},{"trial_n":33,"min":8,"max":247,"target":"absent","response":"absent","rt":36.399999999907,"correct":true,"confidence":1},{"trial_n":34,"min":8,"max":247,"target":"absent","response":"absent","rt":55.299999999814,"correct":true,"confidence":1},{"trial_n":35,"min":10,"max":245,"target":"absent","response":"absent","rt":6.7999999998137,"correct":true,"confidence":1},{"trial_n":36,"min":10,"max":245,"target":"absent","response":"absent","rt":32,"correct":true,"confidence":1},{"trial_n":37,"min":12,"max":243,"target":"present","response":"absent","rt":19.600000000093,"correct":false,"confidence":1},{"trial_n":38,"min":10,"max":245,"target":"absent","response":"absent","rt":29.400000000373,"correct":true,"confidence":1},{"trial_n":39,"min":10,"max":245,"target":"present","response":"absent","rt":32.300000000279,"correct":false,"confidence":1},{"trial_n":40,"min":8,"max":247,"target":"absent","response":"absent","rt":198,"correct":true,"confidence":1},{"trial_n":41,"min":8,"max":247,"target":"absent","response":"present","rt":4.3999999999069,"correct":false,"confidence":1},{"trial_n":42,"min":7,"max":248,"target":"present","response":"absent","rt":215.40000000037,"correct":false,"confidence":1},{"trial_n":43,"min":6,"max":249,"target":"present","response":"absent","rt":12.799999999814,"correct":false,"confidence":1},{"trial_n":44,"min":5,"max":250,"target":"absent","response":"absent","rt":6.3999999999069,"correct":true,"confidence":1},{"trial_n":45,"min":5,"max":250,"target":"absent","response":"absent","rt":18.899999999907,"correct":true,"confidence":1},{"trial_n":46,"min":6,"max":249,"target":"present","response":"absent","rt":12.699999999721,"correct":false,"confidence":1},{"trial_n":47,"min":5,"max":250,"target":"absent","response":"absent","rt":73.399999999907,"correct":true,"confidence":1},{"trial_n":48,"min":5,"max":250,"target":"present","response":"absent","rt":28.700000000186,"correct":false,"confidence":1},{"trial_n":49,"min":4,"max":251,"target":"present","response":"absent","rt":6.7999999998137,"correct":false,"confidence":1},{"trial_n":50,"min":3,"max":252,"target":"present","response":"absent","rt":7.2000000001863,"correct":false,"confidence":1},{"trial_n":51,"min":2,"max":253,"target":"absent","response":"absent","rt":90.700000000186,"correct":true,"confidence":1},{"trial_n":52,"min":2,"max":253,"target":"absent","response":"absent","rt":25.399999999441,"correct":true,"confidence":1},{"trial_n":53,"min":3,"max":252,"target":"absent","response":"absent","rt":47.299999999814,"correct":true,"confidence":1},{"trial_n":54,"min":3,"max":252,"target":"absent","response":"absent","rt":66.899999999441,"correct":true,"confidence":1},{"trial_n":55,"min":4,"max":251,"target":"present","response":"absent","rt":53.799999999814,"correct":false,"confidence":1},{"trial_n":56,"min":3,"max":252,"target":"present","response":"absent","rt":147.5,"correct":false,"confidence":1},{"trial_n":57,"min":2,"max":253,"target":"present","response":"present","rt":653.89999999944,"correct":true,"confidence":1},{"trial_n":58,"min":2,"max":253,"target":"present","response":"present","rt":3.5,"correct":true,"confidence":1},{"trial_n":59,"min":3,"max":252,"target":"absent","response":"present","rt":9.0999999996275,"correct":false,"confidence":1},{"trial_n":60,"min":2,"max":253,"target":"present","response":"absent","rt":19.600000000559,"correct":false,"confidence":1},{"trial_n":61,"min":1,"max":254,"target":"absent","response":"absent","rt":53.100000000559,"correct":true,"confidence":1},{"trial_n":62,"min":1,"max":254,"target":"absent","response":"absent","rt":2.4000000003725,"correct":true,"confidence":1},{"trial_n":63,"min":2,"max":253,"target":"present","response":"absent","rt":17.600000000559,"correct":false,"confidence":1},{"trial_n":64,"min":1,"max":254,"target":"present","response":"absent","rt":-0.59999999962747,"correct":false,"confidence":1},{"trial_n":65,"min":0,"max":255,"target":"present","response":"absent","rt":158.30000000075,"correct":false,"confidence":1},{"trial_n":66,"min":0,"max":255,"target":"present","response":"absent","rt":152.29999999981,"correct":false,"confidence":1},{"trial_n":67,"min":0,"max":255,"target":"absent","response":"absent","rt":1615.2000000002,"correct":true,"confidence":1},{"trial_n":68,"min":0,"max":255,"target":"absent","response":"present","rt":3166.4000000004,"correct":false,"confidence":1},{"trial_n":69,"min":0,"max":255,"target":"present","response":"absent","rt":448.09999999963,"correct":false,"confidence":1},{"trial_n":70,"min":0,"max":255,"target":"present","response":"present","rt":211.09999999963,"correct":true,"confidence":1},{"trial_n":71,"min":41,"max":214,"target":"present","response":"absent","rt":1761.2000000002,"correct":false,"confidence":-1},{"trial_n":72,"min":41,"max":214,"target":"present","response":"present","rt":40.799999999814,"correct":true,"confidence":-1},{"trial_n":73,"min":41,"max":214,"target":"absent","response":"present","rt":1.2000000001863,"correct":false,"confidence":-1},{"trial_n":74,"min":25,"max":230,"target":"absent","response":"present","rt":6.3999999994412,"correct":false,"confidence":-1},{"trial_n":75,"min":9,"max":246,"target":"present","response":"absent","rt":140.70000000019,"correct":false,"confidence":-1},{"trial_n":76,"min":0,"max":255,"target":"present","response":"absent","rt":40.899999999441,"correct":false,"confidence":-1},{"trial_n":77,"min":0,"max":255,"target":"absent","response":"absent","rt":50.5,"correct":true,"confidence":-1},{"trial_n":78,"min":0,"max":255,"target":"absent","response":"absent","rt":137.70000000019,"correct":true,"confidence":-1},{"trial_n":79,"min":16,"max":239,"target":"absent","response":"absent","rt":147.90000000037,"correct":true,"confidence":-1},{"trial_n":80,"min":16,"max":239,"target":"absent","response":"absent","rt":172.40000000037,"correct":true,"confidence":-1},{"trial_n":81,"min":24,"max":231,"target":"present","response":"absent","rt":83,"correct":false,"confidence":-1},{"trial_n":82,"min":16,"max":239,"target":"absent","response":"absent","rt":70.099999999627,"correct":true,"confidence":-1},{"trial_n":83,"min":16,"max":239,"target":"absent","response":"absent","rt":111.89999999944,"correct":true,"confidence":-1},{"trial_n":84,"min":24,"max":231,"target":"absent","response":"absent","rt":895.70000000019,"correct":true,"confidence":-1},{"trial_n":85,"min":24,"max":231,"target":"absent","response":"present","rt":32.700000000186,"correct":false,"confidence":-1},{"trial_n":86,"min":16,"max":239,"target":"present","response":"present","rt":75.600000000559,"correct":true,"confidence":-1},{"trial_n":87,"min":16,"max":239,"target":"absent","response":"absent","rt":233.5,"correct":true,"confidence":-1},{"trial_n":88,"min":24,"max":231,"target":"absent","response":"present","rt":134.5,"correct":false,"confidence":-1},{"trial_n":89,"min":16,"max":239,"target":"absent","response":"absent","rt":183.29999999981,"correct":true,"confidence":-1},{"trial_n":90,"min":16,"max":239,"target":"present","response":"absent","rt":126.90000000037,"correct":false,"confidence":-1},{"trial_n":91,"min":12,"max":243,"target":"present","response":"absent","rt":221.09999999963,"correct":false,"confidence":1},{"trial_n":92,"min":8,"max":247,"target":"absent","response":"absent","rt":71.799999999814,"correct":true,"confidence":1},{"trial_n":93,"min":8,"max":247,"target":"absent","response":"absent","rt":230.5,"correct":true,"confidence":1},{"trial_n":94,"min":12,"max":243,"target":"absent","response":"absent","rt":34.300000000745,"correct":true,"confidence":1},{"trial_n":95,"min":12,"max":243,"target":"present","response":"absent","rt":247.20000000019,"correct":false,"confidence":1},{"trial_n":96,"min":8,"max":247,"target":"present","response":"absent","rt":188.39999999944,"correct":false,"confidence":1},{"trial_n":97,"min":4,"max":251,"target":"absent","response":"absent","rt":226.09999999963,"correct":true,"confidence":1},{"trial_n":98,"min":4,"max":251,"target":"absent","response":"absent","rt":17.799999999814,"correct":true,"confidence":1},{"trial_n":99,"min":8,"max":247,"target":"absent","response":"absent","rt":196.39999999944,"correct":true,"confidence":1},{"trial_n":100,"min":8,"max":247,"target":"present","response":"absent","rt":10.5,"correct":false,"confidence":1},{"trial_n":101,"min":6,"max":249,"target":"absent","response":"absent","rt":146.79999999981,"correct":true,"confidence":1},{"trial_n":102,"min":6,"max":249,"target":"present","response":"absent","rt":236.90000000037,"correct":false,"confidence":1},{"trial_n":103,"min":4,"max":251,"target":"present","response":"absent","rt":25.099999999627,"correct":false,"confidence":1},{"trial_n":104,"min":2,"max":253,"target":"present","response":"absent","rt":18,"correct":false,"confidence":1},{"trial_n":105,"min":0,"max":255,"target":"present","response":"absent","rt":62.800000000745,"correct":false,"confidence":1},{"trial_n":106,"min":0,"max":255,"target":"present","response":"absent","rt":276.79999999981,"correct":false,"confidence":1},{"trial_n":107,"min":0,"max":255,"target":"present","response":"present","rt":18.599999999627,"correct":true,"confidence":2},{"trial_n":108,"min":0,"max":255,"target":"present","response":"absent","rt":27.700000000186,"correct":false,"confidence":1},{"trial_n":109,"min":0,"max":255,"target":"absent","response":"absent","rt":266.59999999963,"correct":true,"confidence":1},{"trial_n":110,"min":0,"max":255,"target":"absent","response":"absent","rt":7.7000000001863,"correct":true,"confidence":1},{"trial_n":111,"min":1,"max":254,"target":"absent","response":"absent","rt":263.19999999925,"correct":true,"confidence":1},{"trial_n":112,"min":1,"max":254,"target":"present","response":"absent","rt":300.09999999963,"correct":false,"confidence":1},{"trial_n":113,"min":0,"max":255,"target":"absent","response":"present","rt":34.599999999627,"correct":false,"confidence":2},{"trial_n":114,"min":0,"max":255,"target":"present","response":"absent","rt":43.300000000745,"correct":false,"confidence":1},{"trial_n":115,"min":0,"max":255,"target":"present","response":"absent","rt":91.400000000373,"correct":false,"confidence":1},{"trial_n":116,"min":0,"max":255,"target":"present","response":"absent","rt":49.799999999814,"correct":false,"confidence":1},{"trial_n":117,"min":0,"max":255,"target":"present","response":"absent","rt":85.399999999441,"correct":false,"confidence":1},{"trial_n":118,"min":0,"max":255,"target":"absent","response":"absent","rt":70.900000000373,"correct":true,"confidence":1},{"trial_n":119,"min":0,"max":255,"target":"present","response":"absent","rt":104.20000000019,"correct":false,"confidence":1},{"trial_n":120,"min":0,"max":255,"target":"absent","response":"absent","rt":43.200000000186,"correct":true,"confidence":1},{"trial_n":121,"min":0,"max":255,"target":"present","response":"absent","rt":142.30000000075,"correct":false,"confidence":1},{"trial_n":122,"min":0,"max":255,"target":"present","response":"absent","rt":234.90000000037,"correct":false,"confidence":1},{"trial_n":123,"min":0,"max":255,"target":"present","response":"absent","rt":217.10000000056,"correct":false,"confidence":1},{"trial_n":124,"min":0,"max":255,"target":"absent","response":"absent","rt":-0.59999999962747,"correct":true,"confidence":1},{"trial_n":125,"min":0,"max":255,"target":"present","response":"absent","rt":8.5,"correct":false,"confidence":1},{"trial_n":126,"min":0,"max":255,"target":"absent","response":"present","rt":21.5,"correct":false,"confidence":2},{"trial_n":127,"min":0,"max":255,"target":"present","response":"present","rt":-1.2999999998137,"correct":true,"confidence":2},{"trial_n":128,"min":0,"max":255,"target":"present","response":"present","rt":285.70000000019,"correct":true,"confidence":2},{"trial_n":129,"min":1,"max":254,"target":"absent","response":"absent","rt":20.5,"correct":true,"confidence":1},{"trial_n":130,"min":1,"max":254,"target":"present","response":"present","rt":47,"correct":true,"confidence":2},{"trial_n":131,"min":2,"max":253,"target":"present","response":"absent","rt":29.5,"correct":false,"confidence":1},{"trial_n":132,"min":1,"max":254,"target":"absent","response":"absent","rt":271.90000000037,"correct":true,"confidence":1},{"trial_n":133,"min":1,"max":254,"target":"present","response":"absent","rt":269.39999999944,"correct":false,"confidence":2},{"trial_n":134,"min":0,"max":255,"target":"present","response":"absent","rt":219.20000000019,"correct":false,"confidence":1},{"trial_n":135,"min":0,"max":255,"target":"absent","response":"absent","rt":9.5,"correct":true,"confidence":1},{"trial_n":136,"min":0,"max":255,"target":"present","response":"absent","rt":185.79999999981,"correct":false,"confidence":1},{"trial_n":137,"min":0,"max":255,"target":"present","response":"absent","rt":20.900000000373,"correct":false,"confidence":2},{"trial_n":138,"min":0,"max":255,"target":"absent","response":"absent","rt":64.299999999814,"correct":true,"confidence":2},{"trial_n":139,"min":0,"max":255,"target":"absent","response":"absent","rt":127.80000000075,"correct":true,"confidence":1},{"trial_n":140,"min":1,"max":254,"target":"absent","response":"absent","rt":164.60000000056,"correct":true,"confidence":1}]