[{"trial_n":1,"n_dots":4.25,"target":"left","response":"left","rt":4643.8000000007,"correct":true,"confidence":-1},{"trial_n":2,"n_dots":4.25,"target":"left","response":"left","rt":967.09999999963,"correct":true,"confidence":-1},{"trial_n":3,"n_dots":3.85,"target":"left","response":"right","rt":3693.3000000007,"correct":false,"confidence":-1},{"trial_n":4,"n_dots":4.25,"target":"left","response":"right","rt":961.59999999963,"correct":false,"confidence":-1},{"trial_n":5,"n_dots":4.65,"target":"left","response":"right","rt":707.59999999963,"correct":false,"confidence":-1},{"trial_n":6,"n_dots":5.05,"target":"right","response":"right","rt":515.09999999963,"correct":true,"confidence":-1},{"trial_n":7,"n_dots":5.05,"target":"right","response":"right","rt":538.69999999925,"correct":true,"confidence":-1},{"trial_n":8,"n_dots":4.85,"target":"left","response":"left","rt":644.5,"correct":true,"confidence":-1},{"trial_n":9,"n_dots":4.85,"target":"left","response":"left","rt":635.79999999888,"correct":true,"confidence":-1},{"trial_n":10,"n_dots":4.65,"target":"left","response":"left","rt":621.80000000075,"correct":true,"confidence":-1},{"trial_n":11,"n_dots":4.65,"target":"left","response":"left","rt":669.30000000075,"correct":true,"confidence":-1},{"trial_n":12,"n_dots":4.45,"target":"right","response":"right","rt":675.69999999925,"correct":true,"confidence":-1},{"trial_n":13,"n_dots":4.45,"target":"left","response":"left","rt":756.30000000075,"correct":true,"confidence":-1},{"trial_n":14,"n_dots":4.35,"target":"left","response":"left","rt":826.70000000112,"correct":true,"confidence":-1},{"trial_n":15,"n_dots":4.35,"target":"left","response":"left","rt":614.5,"correct":true,"confidence":-1},{"trial_n":16,"n_dots":4.25,"target":"left","response":"left","rt":739.80000000075,"correct":true,"confidence":-1},{"trial_n":17,"n_dots":4.25,"target":"right","response":"right","rt":630.09999999963,"correct":true,"confidence":-1},{"trial_n":18,"n_dots":4.15,"target":"left","response":"right","rt":803.30000000075,"correct":false,"confidence":-1},{"trial_n":19,"n_dots":4.25,"target":"right","response":"right","rt":480.90000000037,"correct":true,"confidence":-1},{"trial_n":20,"n_dots":4.25,"target":"right","response":"right","rt":555.70000000112,"correct":true,"confidence":-1},{"trial_n":21,"n_dots":4.15,"target":"right","response":"right","rt":287.19999999925,"correct":true,"confidence":3},{"trial_n":22,"n_dots":4.15,"target":"left","response":"left","rt":927.20000000112,"correct":true,"confidence":2},{"trial_n":23,"n_dots":4.05,"target":"right","response":"right","rt":786.59999999963,"correct":true,"confidence":3},{"trial_n":24,"n_dots":4.05,"target":"right","response":"right","rt":825.90000000037,"correct":true,"confidence":3},{"trial_n":25,"n_dots":3.95,"target":"left","response":"left","rt":850.69999999925,"correct":true,"confidence":2},{"trial_n":26,"n_dots":3.95,"target":"left","response":"left","rt":672.09999999963,"correct":true,"confidence":2},{"trial_n":27,"n_dots":3.85,"target":"right","response":"right","rt":979.40000000037,"correct":true,"confidence":1},{"trial_n":28,"n_dots":3.85,"target":"right","response":"left","rt":911.59999999963,"correct":false,"confidence":1},{"trial_n":29,"n_dots":3.95,"target":"left","response":"left","rt":829,"correct":true,"confidence":2},{"trial_n":30,"n_dots":3.95,"target":"right","response":"right","rt":825.89999999851,"correct":true,"confidence":2},{"trial_n":31,"n_dots":3.85,"target":"right","response":"right","rt":733.90000000037,"correct":true,"confidence":2},{"trial_n":32,"n_dots":3.85,"target":"right","response":"right","rt":519.40000000037,"correct":true,"confidence":3},{"trial_n":33,"n_dots":3.75,"target":"left","response":"left","rt":795.30000000075,"correct":true,"confidence":2},{"trial_n":34,"n_dots":3.75,"target":"right","response":"left","rt":835.69999999925,"correct":false,"confidence":2},{"trial_n":35,"n_dots":3.85,"target":"right","response":"right","rt":534.5,"correct":true,"confidence":2},{"trial_n":36,"n_dots":3.85,"target":"right","response":"right","rt":881,"correct":true,"confidence":2},{"trial_n":37,"n_dots":3.75,"target":"left","response":"right","rt":864.69999999925,"correct":false,"confidence":2},{"trial_n":38,"n_dots":3.85,"target":"left","response":"left","rt":502.69999999925,"correct":true,"confidence":3},{"trial_n":39,"n_dots":3.85,"target":"left","response":"left","rt":638.69999999925,"correct":true,"confidence":3},{"trial_n":40,"n_dots":3.75,"target":"right","response":"right","rt":1186,"correct":true,"confidence":3},{"trial_n":41,"n_dots":3.75,"target":"right","response":"right","rt":485.80000000075,"correct":true,"confidence":3},{"trial_n":42,"n_dots":3.65,"target":"left","response":"right","rt":835.09999999963,"correct":false,"confidence":3},{"trial_n":43,"n_dots":3.75,"target":"left","response":"left","rt":616,"correct":true,"confidence":3},{"trial_n":44,"n_dots":3.75,"target":"left","response":"right","rt":923.5,"correct":false,"confidence":1},{"trial_n":45,"n_dots":3.85,"target":"right","response":"right","rt":638.39999999851,"correct":true,"confidence":3},{"trial_n":46,"n_dots":3.85,"target":"right","response":"right","rt":711.09999999963,"correct":true,"confidence":1},{"trial_n":47,"n_dots":3.75,"target":"right","response":"right","rt":661.5,"correct":true,"confidence":3},{"trial_n":48,"n_dots":3.75,"target":"right","response":"right","rt":739.19999999925,"correct":true,"confidence":1},{"trial_n":49,"n_dots":3.65,"target":"left","response":"left","rt":524.60000000149,"correct":true,"confidence":3},{"trial_n":50,"n_dots":3.65,"target":"right","response":"right","rt":625.09999999963,"correct":true,"confidence":3},{"trial_n":51,"n_dots":3.55,"target":"right","response":"right","rt":591.09999999963,"correct":true,"confidence":3},{"trial_n":52,"n_dots":3.55,"target":"left","response":"left","rt":587.69999999925,"correct":true,"confidence":2},{"trial_n":53,"n_dots":3.45,"target":"right","response":"right","rt":526.40000000037,"correct":true,"confidence":4},{"trial_n":54,"n_dots":3.45,"target":"left","response":"left","rt":968.09999999963,"correct":true,"confidence":1},{"trial_n":55,"n_dots":3.35,"target":"left","response":"right","rt":733.39999999851,"correct":false,"confidence":4},{"trial_n":56,"n_dots":3.45,"target":"left","response":"left","rt":806,"correct":true,"confidence":2},{"trial_n":57,"n_dots":3.45,"target":"left","response":"left","rt":1272.3000000007,"correct":true,"confidence":1},{"trial_n":58,"n_dots":3.35,"target":"left","response":"left","rt":902.90000000037,"correct":true,"confidence":2},{"trial_n":59,"n_dots":3.35,"target":"left","response":"left","rt":779.09999999963,"correct":true,"confidence":1},{"trial_n":60,"n_dots":3.25,"target":"left","response":"right","rt":795.79999999888,"correct":false,"confidence":3},{"trial_n":61,"n_dots":3.35,"target":"left","response":"left","rt":684.40000000037,"correct":true,"confidence":3},{"trial_n":62,"n_dots":3.35,"target":"right","response":"right","rt":490.59999999963,"correct":true,"confidence":4},{"trial_n":63,"n_dots":3.25,"target":"right","response":"right","rt":826.09999999963,"correct":true,"confidence":3},{"trial_n":64,"n_dots":3.25,"target":"left","response":"left","rt":760.40000000037,"correct":true,"confidence":2},{"trial_n":65,"n_dots":3.15,"target":"right","response":"right","rt":711.29999999888,"correct":true,"confidence":4},{"trial_n":66,"n_dots":3.15,"target":"left","response":"left","rt":961,"correct":true,"confidence":3},{"trial_n":67,"n_dots":3.05,"target":"right","response":"right","rt":554.80000000075,"correct":true,"confidence":4},{"trial_n":68,"n_dots":3.05,"target":"right","response":"right","rt":664,"correct":true,"confidence":4},{"trial_n":69,"n_dots":2.95,"target":"right","response":"right","rt":644.90000000037,"correct":true,"confidence":4},{"trial_n":70,"n_dots":2.95,"target":"right","response":"right","rt":746.5,"correct":true,"confidence":4},{"trial_n":71,"n_dots":2.85,"target":"right","response":"right","rt":982.20000000112,"correct":true,"confidence":4},{"trial_n":72,"n_dots":2.85,"target":"left","response":"left","rt":865.80000000075,"correct":true,"confidence":4},{"trial_n":73,"n_dots":2.75,"target":"left","response":"left","rt":1179.9000000004,"correct":true,"confidence":2},{"trial_n":74,"n_dots":2.75,"target":"left","response":"right","rt":725.79999999888,"correct":false,"confidence":3},{"trial_n":75,"n_dots":2.85,"target":"right","response":"right","rt":683.20000000112,"correct":true,"confidence":3},{"trial_n":76,"n_dots":2.85,"target":"right","response":"right","rt":526.80000000075,"correct":true,"confidence":4},{"trial_n":77,"n_dots":2.75,"target":"right","response":"right","rt":630.09999999963,"correct":true,"confidence":4},{"trial_n":78,"n_dots":2.75,"target":"right","response":"right","rt":807.30000000075,"correct":true,"confidence":4},{"trial_n":79,"n_dots":2.65,"target":"right","response":"right","rt":707.30000000075,"correct":true,"confidence":4},{"trial_n":80,"n_dots":2.65,"target":"right","response":"right","rt":867,"correct":true,"confidence":4},{"trial_n":81,"n_dots":2.55,"target":"left","response":"left","rt":990.29999999888,"correct":true,"confidence":2},{"trial_n":82,"n_dots":2.55,"target":"left","response":"right","rt":557.29999999888,"correct":false,"confidence":4},{"trial_n":83,"n_dots":2.65,"target":"right","response":"left","rt":888.90000000037,"correct":false,"confidence":3},{"trial_n":84,"n_dots":2.75,"target":"right","response":"right","rt":572.40000000037,"correct":true,"confidence":4},{"trial_n":85,"n_dots":2.75,"target":"left","response":"left","rt":1225.9000000004,"correct":true,"confidence":1},{"trial_n":86,"n_dots":2.65,"target":"left","response":"left","rt":1003.5999999996,"correct":true,"confidence":4},{"trial_n":87,"n_dots":2.65,"target":"right","response":"right","rt":559.90000000037,"correct":true,"confidence":4},{"trial_n":88,"n_dots":2.55,"target":"right","response":"right","rt":854.70000000112,"correct":true,"confidence":3},{"trial_n":89,"n_dots":2.55,"target":"left","response":"left","rt":970.29999999888,"correct":true,"confidence":1},{"trial_n":90,"n_dots":2.45,"target":"right","response":"right","rt":717.09999999963,"correct":true,"confidence":4},{"trial_n":91,"n_dots":2.45,"target":"right","response":"right","rt":1345.8000000007,"correct":true,"confidence":1},{"trial_n":92,"n_dots":2.35,"target":"right","response":"left","rt":830.20000000112,"correct":false,"confidence":3},{"trial_n":93,"n_dots":2.45,"target":"left","response":"right","rt":595,"correct":false,"confidence":4},{"trial_n":94,"n_dots":2.55,"target":"right","response":"left","rt":833.60000000149,"correct":false,"confidence":3},{"trial_n":95,"n_dots":2.65,"target":"right","response":"right","rt":939.09999999963,"correct":true,"confidence":1},{"trial_n":96,"n_dots":2.65,"target":"right","response":"right","rt":840.30000000075,"correct":true,"confidence":4},{"trial_n":97,"n_dots":2.55,"target":"left","response":"left","rt":544.40000000037,"correct":true,"confidence":4},{"trial_n":98,"n_dots":2.55,"target":"left","response":"left","rt":587.79999999888,"correct":true,"confidence":4},{"trial_n":99,"n_dots":2.45,"target":"right","response":"left","rt":1292.4000000004,"correct":false,"confidence":1},{"trial_n":100,"n_dots":2.55,"target":"right","response":"left","rt":1443.9000000004,"correct":false,"confidence":1},{"trial_n":101,"n_dots":2.65,"target":"right","response":"right","rt":1035.0999999996,"correct":true,"confidence":1},{"trial_n":102,"n_dots":2.65,"target":"right","response":"right","rt":1193.8999999985,"correct":true,"confidence":4},{"trial_n":103,"n_dots":2.55,"target":"left","response":"right","rt":1496.8999999985,"correct":false,"confidence":1},{"trial_n":104,"n_dots":2.65,"target":"right","response":"left","rt":1218.4000000004,"correct":false,"confidence":1},{"trial_n":105,"n_dots":2.75,"target":"left","response":"right","rt":923.09999999963,"correct":false,"confidence":4},{"trial_n":106,"n_dots":2.85,"target":"left","response":"right","rt":1257.5999999996,"correct":false,"confidence":1},{"trial_n":107,"n_dots":2.95,"target":"left","response":"left","rt":1348.5999999996,"correct":true,"confidence":2},{"trial_n":108,"n_dots":2.95,"target":"right","response":"right","rt":2032.5999999996,"correct":true,"confidence":3},{"trial_n":109,"n_dots":2.85,"target":"left","response":"left","rt":2053.8000000007,"correct":true,"confidence":1},{"trial_n":110,"n_dots":2.85,"target":"right","response":"right","rt":511.69999999925,"correct":true,"confidence":4},{"trial_n":111,"n_dots":2.75,"target":"left","response":"left","rt":1003.8000000007,"correct":true,"confidence":3},{"trial_n":112,"n_dots":2.75,"target":"right","response":"right","rt":518.30000000075,"correct":true,"confidence":3},{"trial_n":113,"n_dots":2.65,"target":"left","response":"left","rt":1155,"correct":true,"confidence":3},{"trial_n":114,"n_dots":2.65,"target":"left","response":"right","rt":638.09999999963,"correct":false,"confidence":4},{"trial_n":115,"n_dots":2.75,"target":"right","response":"right","rt":529.09999999963,"correct":true,"confidence":4},{"trial_n":116,"n_dots":2.75,"target":"left","response":"left","rt":1358.8000000007,"correct":true,"confidence":3},{"trial_n":117,"n_dots":2.65,"target":"right","response":"right","rt":711.80000000075,"correct":true,"confidence":4},{"trial_n":118,"n_dots":2.65,"target":"left","response":"left","rt":819.69999999925,"correct":true,"confidence":3},{"trial_n":119,"n_dots":2.55,"target":"left","response":"left","rt":2318.4000000004,"correct":true,"confidence":1},{"trial_n":120,"n_dots":2.55,"target":"left","response":"right","rt":686.59999999963,"correct":false,"confidence":3}]