[{"trial_n":1,"span":8,"encoder":"07225290","distractor":"07255290","target":"present","response":"present","rt":"8377","correct":true,"confidence":-1},{"trial_n":2,"span":8,"encoder":"18534467","distractor":"18734467","target":"present","response":"present","rt":"5070.5","correct":true,"confidence":-1},{"trial_n":3,"span":10,"encoder":"0504436807","distractor":"0504436803","target":"absent","response":"absent","rt":"2636.0999999996","correct":true,"confidence":-1},{"trial_n":4,"span":10,"encoder":"8228896384","distractor":"8228896284","target":"absent","response":"present","rt":"5943.7999999989","correct":false,"confidence":-1},{"trial_n":5,"span":8,"encoder":"29868819","distractor":"29838819","target":"present","response":"present","rt":"2681.0999999996","correct":true,"confidence":-1},{"trial_n":6,"span":8,"encoder":"42462616","distractor":"62462616","target":"absent","response":"present","rt":"3861.3999999985","correct":false,"confidence":-1},{"trial_n":7,"span":6,"encoder":"768096","distractor":"768296","target":"present","response":"present","rt":"1848","correct":true,"confidence":-1},{"trial_n":8,"span":6,"encoder":"828153","distractor":"828453","target":"absent","response":"absent","rt":"2294","correct":true,"confidence":-1},{"trial_n":9,"span":8,"encoder":"30464963","distractor":"30474963","target":"present","response":"present","rt":"2041.7999999989","correct":true,"confidence":-1},{"trial_n":10,"span":8,"encoder":"79738115","distractor":"79739115","target":"present","response":"present","rt":"2959.5999999996","correct":true,"confidence":-1},{"trial_n":11,"span":10,"encoder":"7326832560","distractor":"7322832560","target":"present","response":"present","rt":"3428.9000000004","correct":true,"confidence":-1},{"trial_n":12,"span":10,"encoder":"7307126753","distractor":"7307126953","target":"absent","response":"present","rt":"3190.0999999996","correct":false,"confidence":-1},{"trial_n":13,"span":9,"encoder":"881832339","distractor":"801832339","target":"absent","response":"present","rt":"2160.8000000007","correct":false,"confidence":-1},{"trial_n":14,"span":8,"encoder":"63150507","distractor":"63180507","target":"present","response":"present","rt":"2990.8000000007","correct":true,"confidence":-1},{"trial_n":15,"span":8,"encoder":"05355154","distractor":"05335154","target":"absent","response":"present","rt":"2438.2999999989","correct":false,"confidence":-1},{"trial_n":16,"span":7,"encoder":"0087292","distractor":"0087295","target":"present","response":"present","rt":"1768.5999999996","correct":true,"confidence":-1},{"trial_n":17,"span":7,"encoder":"1367691","distractor":"1367291","target":"present","response":"present","rt":"2676.6000000015","correct":true,"confidence":-1},{"trial_n":18,"span":8,"encoder":"74579740","distractor":"64579740","target":"absent","response":"present","rt":"2081.9000000004","correct":false,"confidence":-1},{"trial_n":19,"span":7,"encoder":"3550133","distractor":"1550133","target":"present","response":"present","rt":"2259.8000000007","correct":true,"confidence":-1},{"trial_n":20,"span":7,"encoder":"3333632","distractor":"3333634","target":"absent","response":"absent","rt":"3506.5","correct":true,"confidence":-1},{"trial_n":21,"span":8,"encoder":"49971659","distractor":"49971652","target":"absent","response":"present","rt":"1726.5999999996","correct":false,"confidence":4},{"trial_n":22,"span":7,"encoder":"4912030","distractor":"4912040","target":"present","response":"present","rt":"4179.7000000011","correct":true,"confidence":4},{"trial_n":23,"span":7,"encoder":"3395205","distractor":"3395209","target":"present","response":"present","rt":"3115.1999999993","correct":true,"confidence":4},{"trial_n":24,"span":8,"encoder":"68317779","distractor":"68017779","target":"absent","response":"absent","rt":"4245.2000000011","correct":true,"confidence":3},{"trial_n":25,"span":8,"encoder":"76942113","distractor":"76943113","target":"present","response":"present","rt":"4959.7999999989","correct":true,"confidence":3},{"trial_n":26,"span":9,"encoder":"339006659","distractor":"339009659","target":"present","response":"present","rt":"11003.700000001","correct":true,"confidence":3},{"trial_n":27,"span":9,"encoder":"658716331","distractor":"678716331","target":"absent","response":"present","rt":"4294.8000000007","correct":false,"confidence":2},{"trial_n":28,"span":8,"encoder":"56364677","distractor":"56364377","target":"absent","response":"present","rt":"3404.4000000004","correct":false,"confidence":4},{"trial_n":29,"span":7,"encoder":"5371957","distractor":"5371457","target":"absent","response":"absent","rt":"3082.8000000007","correct":true,"confidence":4},{"trial_n":30,"span":7,"encoder":"4873938","distractor":"4874938","target":"absent","response":"present","rt":"2875.1999999993","correct":false,"confidence":3},{"trial_n":31,"span":6,"encoder":"598175","distractor":"598145","target":"absent","response":"absent","rt":"3257.3000000007","correct":true,"confidence":3},{"trial_n":32,"span":6,"encoder":"196333","distractor":"196335","target":"present","response":"present","rt":"2177.8000000007","correct":true,"confidence":4},{"trial_n":33,"span":7,"encoder":"3652368","distractor":"3752368","target":"present","response":"present","rt":"3059.8000000007","correct":true,"confidence":4},{"trial_n":34,"span":7,"encoder":"8509451","distractor":"8503451","target":"absent","response":"present","rt":"2939","correct":false,"confidence":4},{"trial_n":35,"span":6,"encoder":"799171","distractor":"799101","target":"absent","response":"present","rt":"1933.0999999996","correct":false,"confidence":4},{"trial_n":36,"span":5,"encoder":"84129","distractor":"84189","target":"absent","response":"absent","rt":"2223.9000000004","correct":true,"confidence":4},{"trial_n":37,"span":5,"encoder":"76502","distractor":"76592","target":"present","response":"present","rt":"2418.5","correct":true,"confidence":4},{"trial_n":38,"span":6,"encoder":"043022","distractor":"043062","target":"present","response":"present","rt":"2264.2999999989","correct":true,"confidence":4},{"trial_n":39,"span":6,"encoder":"806264","distractor":"886264","target":"absent","response":"absent","rt":"5238.6999999993","correct":true,"confidence":2},{"trial_n":40,"span":7,"encoder":"9767788","distractor":"9764788","target":"absent","response":"present","rt":"2774.4000000004","correct":false,"confidence":3},{"trial_n":41,"span":6,"encoder":"252713","distractor":"052713","target":"present","response":"present","rt":"2053.5","correct":true,"confidence":4},{"trial_n":42,"span":6,"encoder":"491440","distractor":"191440","target":"absent","response":"present","rt":"6306.3000000007","correct":false,"confidence":1},{"trial_n":43,"span":5,"encoder":"60086","distractor":"60076","target":"present","response":"present","rt":"1799.6999999993","correct":true,"confidence":5},{"trial_n":44,"span":5,"encoder":"85414","distractor":"85419","target":"absent","response":"absent","rt":"4310.5999999996","correct":true,"confidence":3},{"trial_n":45,"span":6,"encoder":"289648","distractor":"289640","target":"absent","response":"absent","rt":"2942.2000000011","correct":true,"confidence":3},{"trial_n":46,"span":6,"encoder":"678197","distractor":"678297","target":"absent","response":"absent","rt":"2796.5999999996","correct":true,"confidence":3},{"trial_n":47,"span":7,"encoder":"8809723","distractor":"8009723","target":"absent","response":"present","rt":"3109.3000000007","correct":false,"confidence":2},{"trial_n":48,"span":6,"encoder":"657693","distractor":"647693","target":"present","response":"present","rt":"3018.3000000007","correct":true,"confidence":3},{"trial_n":49,"span":6,"encoder":"862183","distractor":"562183","target":"absent","response":"absent","rt":"3305.1999999993","correct":true,"confidence":3},{"trial_n":50,"span":7,"encoder":"5488436","distractor":"5488486","target":"present","response":"present","rt":"2876.7000000011","correct":true,"confidence":3},{"trial_n":51,"span":7,"encoder":"3285092","distractor":"3285032","target":"present","response":"present","rt":"2687.8000000007","correct":true,"confidence":2},{"trial_n":52,"span":8,"encoder":"38222600","distractor":"38292600","target":"absent","response":"absent","rt":"3313.5999999996","correct":true,"confidence":2},{"trial_n":53,"span":8,"encoder":"19148776","distractor":"19138776","target":"absent","response":"absent","rt":"2755.0999999996","correct":true,"confidence":2},{"trial_n":54,"span":9,"encoder":"394277342","distractor":"374277342","target":"present","response":"present","rt":"1974.5","correct":true,"confidence":2},{"trial_n":55,"span":9,"encoder":"168365991","distractor":"368365991","target":"present","response":"present","rt":"2852.3000000007","correct":true,"confidence":3},{"trial_n":56,"span":10,"encoder":"2015808314","distractor":"2815808314","target":"absent","response":"present","rt":"3654.9000000004","correct":false,"confidence":2},{"trial_n":57,"span":9,"encoder":"061891639","distractor":"061891634","target":"absent","response":"present","rt":"1955.8000000007","correct":false,"confidence":1},{"trial_n":58,"span":8,"encoder":"82149830","distractor":"82149850","target":"present","response":"present","rt":"1436.2999999989","correct":true,"confidence":1},{"trial_n":59,"span":8,"encoder":"11911342","distractor":"11917342","target":"present","response":"present","rt":"1799.9000000004","correct":true,"confidence":2},{"trial_n":60,"span":9,"encoder":"795897044","distractor":"995897044","target":"absent","response":"present","rt":"1982.6999999993","correct":false,"confidence":3},{"trial_n":61,"span":8,"encoder":"90335138","distractor":"40335138","target":"absent","response":"present","rt":"1943.2000000011","correct":false,"confidence":3},{"trial_n":62,"span":7,"encoder":"8597708","distractor":"8597908","target":"absent","response":"absent","rt":"3341.2000000011","correct":true,"confidence":2},{"trial_n":63,"span":7,"encoder":"4529523","distractor":"4529583","target":"present","response":"present","rt":"1378.7999999989","correct":true,"confidence":3},{"trial_n":64,"span":8,"encoder":"02033225","distractor":"04033225","target":"present","response":"present","rt":"1689.8000000007","correct":true,"confidence":3},{"trial_n":65,"span":8,"encoder":"07993884","distractor":"07993894","target":"present","response":"present","rt":"1684.8999999985","correct":true,"confidence":3},{"trial_n":66,"span":9,"encoder":"461088484","distractor":"361088484","target":"present","response":"present","rt":"1643.5999999996","correct":true,"confidence":3},{"trial_n":67,"span":9,"encoder":"385219958","distractor":"385319958","target":"present","response":"present","rt":"1747.5999999996","correct":true,"confidence":3},{"trial_n":68,"span":10,"encoder":"4645711085","distractor":"4675711085","target":"present","response":"present","rt":"1467.3000000007","correct":true,"confidence":3},{"trial_n":69,"span":10,"encoder":"2925268557","distractor":"2925268157","target":"present","response":"present","rt":"2474.5","correct":true,"confidence":3},{"trial_n":70,"span":11,"encoder":"76648403638","distractor":"76648403688","target":"present","response":"present","rt":"2362.4000000004","correct":true,"confidence":3},{"trial_n":71,"span":8,"encoder":"96995013","distractor":"93995013","target":"present","response":"present","rt":"4263.7000000011","correct":true,"confidence":-1},{"trial_n":72,"span":8,"encoder":"24604649","distractor":"24604849","target":"present","response":"present","rt":"5626.7999999989","correct":true,"confidence":-1},{"trial_n":73,"span":9,"encoder":"062362023","distractor":"862362023","target":"absent","response":"absent","rt":"3565","correct":true,"confidence":-1},{"trial_n":74,"span":9,"encoder":"509563719","distractor":"507563719","target":"absent","response":"absent","rt":"5110.4000000004","correct":true,"confidence":-1},{"trial_n":75,"span":10,"encoder":"5469397042","distractor":"5461397042","target":"present","response":"present","rt":"4792.0999999996","correct":true,"confidence":-1},{"trial_n":76,"span":10,"encoder":"1657313627","distractor":"1657313927","target":"absent","response":"absent","rt":"4075.9000000004","correct":true,"confidence":-1},{"trial_n":77,"span":11,"encoder":"01547296131","distractor":"01517296131","target":"absent","response":"present","rt":"3105.7000000011","correct":false,"confidence":-1},{"trial_n":78,"span":10,"encoder":"3312645456","distractor":"3312645256","target":"absent","response":"absent","rt":"3895.1999999993","correct":true,"confidence":-1},{"trial_n":79,"span":10,"encoder":"9558915872","distractor":"9557915872","target":"absent","response":"absent","rt":"6406.2999999989","correct":true,"confidence":-1},{"trial_n":80,"span":11,"encoder":"24255034581","distractor":"24255034551","target":"absent","response":"absent","rt":"3259.8999999985","correct":true,"confidence":-1},{"trial_n":81,"span":11,"encoder":"60897698345","distractor":"60597698345","target":"absent","response":"absent","rt":"4614.7000000011","correct":true,"confidence":-1},{"trial_n":82,"span":12,"encoder":"562820481157","distractor":"562840481157","target":"present","response":"present","rt":"3995.4000000004","correct":true,"confidence":-1},{"trial_n":83,"span":12,"encoder":"448181145622","distractor":"448181148622","target":"absent","response":"present","rt":"4222.8000000007","correct":false,"confidence":-1},{"trial_n":84,"span":11,"encoder":"16239974973","distractor":"16259974973","target":"present","response":"present","rt":"6408.1999999993","correct":true,"confidence":-1},{"trial_n":85,"span":11,"encoder":"56077236719","distractor":"16077236719","target":"present","response":"present","rt":"5713.5999999996","correct":true,"confidence":-1},{"trial_n":86,"span":12,"encoder":"752565374906","distractor":"752564374906","target":"present","response":"present","rt":"8953.7000000011","correct":true,"confidence":-1},{"trial_n":87,"span":12,"encoder":"078798257339","distractor":"072798257339","target":"present","response":"absent","rt":"3455.3000000007","correct":false,"confidence":-1},{"trial_n":88,"span":11,"encoder":"32426234326","distractor":"72426234326","target":"present","response":"present","rt":"5318.5999999996","correct":true,"confidence":-1},{"trial_n":89,"span":11,"encoder":"10930264778","distractor":"10970264778","target":"present","response":"absent","rt":"4926.9000000004","correct":false,"confidence":-1},{"trial_n":90,"span":10,"encoder":"9152746028","distractor":"9152746025","target":"present","response":"present","rt":"4458.1999999993","correct":true,"confidence":-1},{"trial_n":91,"span":10,"encoder":"1386834863","distractor":"1386834803","target":"present","response":"present","rt":"2671.0999999996","correct":true,"confidence":4},{"trial_n":92,"span":11,"encoder":"67084999445","distractor":"67284999445","target":"present","response":"absent","rt":"6427.4000000004","correct":false,"confidence":3},{"trial_n":93,"span":10,"encoder":"0431764813","distractor":"0421764813","target":"absent","response":"absent","rt":"4215.5","correct":true,"confidence":4},{"trial_n":94,"span":10,"encoder":"5075671344","distractor":"5075671346","target":"present","response":"present","rt":"3622.7000000011","correct":true,"confidence":3},{"trial_n":95,"span":11,"encoder":"46959706116","distractor":"46959796116","target":"present","response":"present","rt":"8070.7999999989","correct":true,"confidence":3},{"trial_n":96,"span":11,"encoder":"70765737890","distractor":"70765739890","target":"present","response":"absent","rt":"8906.7999999989","correct":false,"confidence":2},{"trial_n":97,"span":10,"encoder":"8645593871","distractor":"8645593471","target":"present","response":"present","rt":"6701.9000000004","correct":true,"confidence":2},{"trial_n":98,"span":10,"encoder":"3842043040","distractor":"3942043040","target":"present","response":"present","rt":"4148","correct":true,"confidence":3},{"trial_n":99,"span":11,"encoder":"25781532553","distractor":"35781532553","target":"absent","response":"absent","rt":"6166.5999999996","correct":true,"confidence":2},{"trial_n":100,"span":11,"encoder":"69147150831","distractor":"69147150838","target":"absent","response":"absent","rt":"2813.1999999993","correct":true,"confidence":4},{"trial_n":101,"span":12,"encoder":"192377365885","distractor":"192577365885","target":"present","response":"absent","rt":"8637.3000000007","correct":false,"confidence":2},{"trial_n":102,"span":11,"encoder":"91463250391","distractor":"90463250391","target":"absent","response":"absent","rt":"4563.6999999993","correct":true,"confidence":3},{"trial_n":103,"span":11,"encoder":"50850061654","distractor":"50150061654","target":"present","response":"absent","rt":"7445.5999999996","correct":false,"confidence":3},{"trial_n":104,"span":10,"encoder":"4824479298","distractor":"4824479293","target":"present","response":"present","rt":"2794.9000000004","correct":true,"confidence":4},{"trial_n":105,"span":10,"encoder":"9815835099","distractor":"9815835299","target":"absent","response":"absent","rt":"5651.7999999989","correct":true,"confidence":3},{"trial_n":106,"span":11,"encoder":"72188324371","distractor":"72188394371","target":"absent","response":"absent","rt":"3712","correct":true,"confidence":4},{"trial_n":107,"span":11,"encoder":"98869750352","distractor":"98861750352","target":"present","response":"present","rt":"5752.7000000011","correct":true,"confidence":3},{"trial_n":108,"span":12,"encoder":"024920344118","distractor":"024920344128","target":"present","response":"present","rt":"2321.3999999985","correct":true,"confidence":4},{"trial_n":109,"span":12,"encoder":"573385874180","distractor":"573395874180","target":"present","response":"present","rt":"6657.2000000011","correct":true,"confidence":2},{"trial_n":110,"span":13,"encoder":"0043517193137","distractor":"0043519193137","target":"absent","response":"absent","rt":"7289.0999999996","correct":true,"confidence":3},{"trial_n":111,"span":13,"encoder":"5182203639262","distractor":"0182203639262","target":"absent","response":"absent","rt":"5061.8000000007","correct":true,"confidence":3},{"trial_n":112,"span":14,"encoder":"36105562688287","distractor":"36105362688287","target":"present","response":"present","rt":"8165.6999999993","correct":true,"confidence":3},{"trial_n":113,"span":14,"encoder":"34357652179656","distractor":"34357652179556","target":"present","response":"absent","rt":"6740.5999999996","correct":false,"confidence":2},{"trial_n":114,"span":13,"encoder":"6664912299801","distractor":"6669912299801","target":"present","response":"present","rt":"8262.0999999996","correct":true,"confidence":3},{"trial_n":115,"span":13,"encoder":"2170065763160","distractor":"2170075763160","target":"absent","response":"absent","rt":"5784.0999999996","correct":true,"confidence":3},{"trial_n":116,"span":14,"encoder":"08019135002638","distractor":"08019132002638","target":"absent","response":"present","rt":"3172.7000000011","correct":false,"confidence":2},{"trial_n":117,"span":13,"encoder":"4818903079453","distractor":"4818903039453","target":"absent","response":"absent","rt":"2049.5999999996","correct":true,"confidence":3},{"trial_n":118,"span":13,"encoder":"9804662353815","distractor":"9804462353815","target":"absent","response":"absent","rt":"5744.7999999989","correct":true,"confidence":2},{"trial_n":119,"span":14,"encoder":"66548112891064","distractor":"66548112897064","target":"present","response":"present","rt":"2488.5","correct":true,"confidence":3},{"trial_n":120,"span":14,"encoder":"96908789494843","distractor":"96908780494843","target":"present","response":"absent","rt":"1823.3000000007","correct":false,"confidence":2},{"trial_n":121,"span":13,"encoder":"2706183044814","distractor":"2700183044814","target":"absent","response":"present","rt":"3687.0999999996","correct":false,"confidence":3},{"trial_n":122,"span":12,"encoder":"122799767931","distractor":"122799767731","target":"absent","response":"absent","rt":"2869.2000000011","correct":true,"confidence":4},{"trial_n":123,"span":12,"encoder":"557850432600","distractor":"557650432600","target":"absent","response":"absent","rt":"6439.1999999993","correct":true,"confidence":3},{"trial_n":124,"span":13,"encoder":"1288329900449","distractor":"1268329900449","target":"absent","response":"absent","rt":"4010.8000000007","correct":true,"confidence":3},{"trial_n":125,"span":13,"encoder":"8732712361941","distractor":"8732712391941","target":"absent","response":"absent","rt":"3152.1999999993","correct":true,"confidence":2},{"trial_n":126,"span":14,"encoder":"65519271795341","distractor":"65519271795741","target":"present","response":"absent","rt":"2289.4000000004","correct":false,"confidence":2},{"trial_n":127,"span":13,"encoder":"8331218090617","distractor":"3331218090617","target":"absent","response":"absent","rt":"6275.2000000011","correct":true,"confidence":2},{"trial_n":128,"span":13,"encoder":"7464452910570","distractor":"7464454910570","target":"absent","response":"absent","rt":"4440.7999999989","correct":true,"confidence":3},{"trial_n":129,"span":14,"encoder":"90765433650447","distractor":"60765433650447","target":"absent","response":"present","rt":"18497","correct":false,"confidence":2},{"trial_n":130,"span":13,"encoder":"7679371899201","distractor":"1679371899201","target":"present","response":"present","rt":"4544.5","correct":true,"confidence":3},{"trial_n":131,"span":13,"encoder":"4486452309631","distractor":"4486452809631","target":"present","response":"present","rt":"1695.0999999996","correct":true,"confidence":2},{"trial_n":132,"span":14,"encoder":"12832387483320","distractor":"10832387483320","target":"present","response":"present","rt":"4001.8000000007","correct":true,"confidence":3},{"trial_n":133,"span":14,"encoder":"11980433143095","distractor":"11980483143095","target":"absent","response":"present","rt":"1844.5","correct":false,"confidence":3},{"trial_n":134,"span":13,"encoder":"7894854332877","distractor":"7874854332877","target":"present","response":"present","rt":"3459.3999999985","correct":true,"confidence":2},{"trial_n":135,"span":13,"encoder":"5497552036335","distractor":"5497562036335","target":"absent","response":"absent","rt":"4894.3999999985","correct":true,"confidence":3},{"trial_n":136,"span":14,"encoder":"03126875467541","distractor":"03186875467541","target":"absent","response":"absent","rt":"1747.7000000011","correct":true,"confidence":2},{"trial_n":137,"span":14,"encoder":"39307620496426","distractor":"39307628496426","target":"present","response":"present","rt":"1679.5","correct":true,"confidence":3},{"trial_n":138,"span":15,"encoder":"705951676414016","distractor":"705951676414006","target":"absent","response":"absent","rt":"1782.9000000004","correct":true,"confidence":3},{"trial_n":139,"span":15,"encoder":"254798923811946","distractor":"254798923810946","target":"present","response":"absent","rt":"1911.7999999989","correct":false,"confidence":3},{"trial_n":140,"span":14,"encoder":"87964841037462","distractor":"87964841037442","target":"absent","response":"present","rt":"1161.7999999989","correct":false,"confidence":1}]