[{"trial_n":1,"n_dots":4.25,"target":"right","response":"right","rt":20257.1,"correct":true,"confidence":-1},{"trial_n":2,"n_dots":4.25,"target":"left","response":"left","rt":2242,"correct":true,"confidence":-1},{"trial_n":3,"n_dots":3.85,"target":"right","response":"right","rt":621.19999999972,"correct":true,"confidence":-1},{"trial_n":4,"n_dots":3.85,"target":"left","response":"left","rt":347,"correct":true,"confidence":-1},{"trial_n":5,"n_dots":3.45,"target":"left","response":"left","rt":461.39999999991,"correct":true,"confidence":-1},{"trial_n":6,"n_dots":3.45,"target":"right","response":"left","rt":530.29999999981,"correct":false,"confidence":-1},{"trial_n":7,"n_dots":3.85,"target":"left","response":"left","rt":416.60000000009,"correct":true,"confidence":-1},{"trial_n":8,"n_dots":3.85,"target":"right","response":"right","rt":594.39999999991,"correct":true,"confidence":-1},{"trial_n":9,"n_dots":3.65,"target":"left","response":"left","rt":405.60000000009,"correct":true,"confidence":-1},{"trial_n":10,"n_dots":3.65,"target":"left","response":"left","rt":340.70000000019,"correct":true,"confidence":-1},{"trial_n":11,"n_dots":3.45,"target":"right","response":"right","rt":298.89999999991,"correct":true,"confidence":-1},{"trial_n":12,"n_dots":3.45,"target":"right","response":"right","rt":63.699999999721,"correct":true,"confidence":-1},{"trial_n":13,"n_dots":3.35,"target":"left","response":"left","rt":25.899999999907,"correct":true,"confidence":-1},{"trial_n":14,"n_dots":3.35,"target":"left","response":"left","rt":669.29999999981,"correct":true,"confidence":-1},{"trial_n":15,"n_dots":3.25,"target":"right","response":"right","rt":326.39999999991,"correct":true,"confidence":-1},{"trial_n":16,"n_dots":3.25,"target":"left","response":"left","rt":156.29999999981,"correct":true,"confidence":-1},{"trial_n":17,"n_dots":3.15,"target":"left","response":"left","rt":25.399999999907,"correct":true,"confidence":-1},{"trial_n":18,"n_dots":3.15,"target":"left","response":"left","rt":154.30000000028,"correct":true,"confidence":-1},{"trial_n":19,"n_dots":3.05,"target":"right","response":"right","rt":77.700000000186,"correct":true,"confidence":-1},{"trial_n":20,"n_dots":3.05,"target":"left","response":"left","rt":192,"correct":true,"confidence":-1},{"trial_n":21,"n_dots":2.95,"target":"left","response":"left","rt":523.39999999991,"correct":true,"confidence":4},{"trial_n":22,"n_dots":2.95,"target":"right","response":"right","rt":1262.7999999998,"correct":true,"confidence":4},{"trial_n":23,"n_dots":2.85,"target":"right","response":"right","rt":945.89999999991,"correct":true,"confidence":4},{"trial_n":24,"n_dots":2.85,"target":"left","response":"right","rt":1222.3999999999,"correct":false,"confidence":4},{"trial_n":25,"n_dots":2.95,"target":"right","response":"right","rt":1226.7999999998,"correct":true,"confidence":4},{"trial_n":26,"n_dots":2.95,"target":"right","response":"left","rt":456.69999999972,"correct":false,"confidence":4},{"trial_n":27,"n_dots":3.05,"target":"right","response":"right","rt":826.20000000019,"correct":true,"confidence":4},{"trial_n":28,"n_dots":3.05,"target":"left","response":"left","rt":782.60000000009,"correct":true,"confidence":4},{"trial_n":29,"n_dots":2.95,"target":"left","response":"left","rt":1152.0999999996,"correct":true,"confidence":3},{"trial_n":30,"n_dots":2.95,"target":"right","response":"right","rt":956.70000000019,"correct":true,"confidence":3},{"trial_n":31,"n_dots":2.85,"target":"left","response":"left","rt":84.5,"correct":true,"confidence":4},{"trial_n":32,"n_dots":2.85,"target":"left","response":"left","rt":649.60000000009,"correct":true,"confidence":4},{"trial_n":33,"n_dots":2.75,"target":"left","response":"right","rt":1824.8999999999,"correct":false,"confidence":3},{"trial_n":34,"n_dots":2.85,"target":"right","response":"right","rt":1054.8999999999,"correct":true,"confidence":3},{"trial_n":35,"n_dots":2.85,"target":"left","response":"left","rt":812.69999999972,"correct":true,"confidence":2},{"trial_n":36,"n_dots":2.75,"target":"left","response":"left","rt":107.20000000019,"correct":true,"confidence":2},{"trial_n":37,"n_dots":2.75,"target":"right","response":"left","rt":279.5,"correct":false,"confidence":3},{"trial_n":38,"n_dots":2.85,"target":"left","response":"left","rt":846.80000000028,"correct":true,"confidence":2},{"trial_n":39,"n_dots":2.85,"target":"right","response":"right","rt":782.5,"correct":true,"confidence":3},{"trial_n":40,"n_dots":2.75,"target":"left","response":"left","rt":818.5,"correct":true,"confidence":4},{"trial_n":41,"n_dots":2.75,"target":"right","response":"right","rt":1193.5999999996,"correct":true,"confidence":4},{"trial_n":42,"n_dots":2.65,"target":"left","response":"right","rt":737.09999999963,"correct":false,"confidence":3},{"trial_n":43,"n_dots":2.75,"target":"right","response":"left","rt":712.89999999991,"correct":false,"confidence":2},{"trial_n":44,"n_dots":2.85,"target":"left","response":"left","rt":174.10000000009,"correct":true,"confidence":3},{"trial_n":45,"n_dots":2.85,"target":"left","response":"left","rt":745,"correct":true,"confidence":2},{"trial_n":46,"n_dots":2.75,"target":"right","response":"right","rt":1285.1000000001,"correct":true,"confidence":3},{"trial_n":47,"n_dots":2.75,"target":"left","response":"left","rt":284.19999999972,"correct":true,"confidence":4},{"trial_n":48,"n_dots":2.65,"target":"left","response":"left","rt":327.39999999991,"correct":true,"confidence":4},{"trial_n":49,"n_dots":2.65,"target":"right","response":"right","rt":1715.6999999997,"correct":true,"confidence":3},{"trial_n":50,"n_dots":2.55,"target":"left","response":"left","rt":319.20000000019,"correct":true,"confidence":3},{"trial_n":51,"n_dots":2.55,"target":"left","response":"left","rt":1098.2999999998,"correct":true,"confidence":1},{"trial_n":52,"n_dots":2.45,"target":"right","response":"left","rt":594.5,"correct":false,"confidence":3},{"trial_n":53,"n_dots":2.55,"target":"right","response":"left","rt":548.19999999972,"correct":false,"confidence":3},{"trial_n":54,"n_dots":2.65,"target":"left","response":"left","rt":637.79999999981,"correct":true,"confidence":2},{"trial_n":55,"n_dots":2.65,"target":"right","response":"right","rt":982.10000000009,"correct":true,"confidence":3},{"trial_n":56,"n_dots":2.55,"target":"right","response":"left","rt":272.5,"correct":false,"confidence":3},{"trial_n":57,"n_dots":2.65,"target":"right","response":"left","rt":291.5,"correct":false,"confidence":3},{"trial_n":58,"n_dots":2.75,"target":"left","response":"right","rt":1046.6999999997,"correct":false,"confidence":1},{"trial_n":59,"n_dots":2.85,"target":"left","response":"right","rt":872.10000000009,"correct":false,"confidence":1},{"trial_n":60,"n_dots":2.95,"target":"right","response":"right","rt":926.89999999991,"correct":true,"confidence":1},{"trial_n":61,"n_dots":2.95,"target":"right","response":"left","rt":1529.3999999999,"correct":false,"confidence":2},{"trial_n":62,"n_dots":3.05,"target":"left","response":"left","rt":632.5,"correct":true,"confidence":3},{"trial_n":63,"n_dots":3.05,"target":"right","response":"right","rt":1552.7000000002,"correct":true,"confidence":1},{"trial_n":64,"n_dots":2.95,"target":"left","response":"left","rt":730.80000000028,"correct":true,"confidence":4},{"trial_n":65,"n_dots":2.95,"target":"left","response":"left","rt":489.89999999991,"correct":true,"confidence":2},{"trial_n":66,"n_dots":2.85,"target":"right","response":"left","rt":454.39999999991,"correct":false,"confidence":4},{"trial_n":67,"n_dots":2.95,"target":"right","response":"left","rt":803.10000000009,"correct":false,"confidence":1},{"trial_n":68,"n_dots":3.05,"target":"right","response":"right","rt":748.5,"correct":true,"confidence":3},{"trial_n":69,"n_dots":3.05,"target":"right","response":"left","rt":125.60000000009,"correct":false,"confidence":5},{"trial_n":70,"n_dots":3.15,"target":"left","response":"left","rt":362.69999999972,"correct":true,"confidence":5},{"trial_n":71,"n_dots":3.15,"target":"right","response":"right","rt":3378.5999999996,"correct":true,"confidence":1},{"trial_n":72,"n_dots":3.05,"target":"right","response":"right","rt":1074.5,"correct":true,"confidence":3},{"trial_n":73,"n_dots":3.05,"target":"right","response":"left","rt":1951.2999999998,"correct":false,"confidence":2},{"trial_n":74,"n_dots":3.15,"target":"right","response":"right","rt":1195.5999999996,"correct":true,"confidence":3},{"trial_n":75,"n_dots":3.15,"target":"right","response":"right","rt":3100.3999999999,"correct":true,"confidence":3},{"trial_n":76,"n_dots":3.05,"target":"left","response":"left","rt":1013.5,"correct":true,"confidence":4},{"trial_n":77,"n_dots":3.05,"target":"left","response":"left","rt":501.5,"correct":true,"confidence":3},{"trial_n":78,"n_dots":2.95,"target":"left","response":"left","rt":762,"correct":true,"confidence":2},{"trial_n":79,"n_dots":2.95,"target":"right","response":"right","rt":1599.2000000002,"correct":true,"confidence":3},{"trial_n":80,"n_dots":2.85,"target":"right","response":"left","rt":16201.6,"correct":false,"confidence":1},{"trial_n":81,"n_dots":2.95,"target":"right","response":"right","rt":2484.7999999998,"correct":true,"confidence":3},{"trial_n":82,"n_dots":2.95,"target":"left","response":"left","rt":811.70000000019,"correct":true,"confidence":3},{"trial_n":83,"n_dots":2.85,"target":"left","response":"right","rt":1706.0999999996,"correct":false,"confidence":1},{"trial_n":84,"n_dots":2.95,"target":"right","response":"right","rt":1076.6000000001,"correct":true,"confidence":3},{"trial_n":85,"n_dots":2.95,"target":"left","response":"left","rt":725.19999999972,"correct":true,"confidence":5},{"trial_n":86,"n_dots":2.85,"target":"left","response":"right","rt":1117.1000000001,"correct":false,"confidence":4},{"trial_n":87,"n_dots":2.95,"target":"left","response":"left","rt":2847.0999999996,"correct":true,"confidence":4},{"trial_n":88,"n_dots":2.95,"target":"right","response":"right","rt":700.89999999991,"correct":true,"confidence":3},{"trial_n":89,"n_dots":2.85,"target":"right","response":"left","rt":1156.3999999999,"correct":false,"confidence":3},{"trial_n":90,"n_dots":2.95,"target":"right","response":"left","rt":878.89999999991,"correct":false,"confidence":3},{"trial_n":91,"n_dots":3.05,"target":"left","response":"left","rt":799.39999999991,"correct":true,"confidence":3},{"trial_n":92,"n_dots":3.05,"target":"left","response":"left","rt":866.79999999981,"correct":true,"confidence":3},{"trial_n":93,"n_dots":2.95,"target":"right","response":"right","rt":778.29999999981,"correct":true,"confidence":4},{"trial_n":94,"n_dots":2.95,"target":"left","response":"left","rt":1316.6000000001,"correct":true,"confidence":1},{"trial_n":95,"n_dots":2.85,"target":"right","response":"right","rt":958.89999999991,"correct":true,"confidence":2},{"trial_n":96,"n_dots":2.85,"target":"left","response":"right","rt":61652.3,"correct":false,"confidence":1},{"trial_n":97,"n_dots":2.95,"target":"right","response":"right","rt":1102.6999999997,"correct":true,"confidence":3},{"trial_n":98,"n_dots":2.95,"target":"right","response":"right","rt":9015.3999999999,"correct":true,"confidence":1},{"trial_n":99,"n_dots":2.85,"target":"right","response":"right","rt":2266.1000000001,"correct":true,"confidence":2},{"trial_n":100,"n_dots":2.85,"target":"right","response":"left","rt":923.79999999981,"correct":false,"confidence":3},{"trial_n":101,"n_dots":2.95,"target":"right","response":"left","rt":2343.7999999998,"correct":false,"confidence":3},{"trial_n":102,"n_dots":3.05,"target":"left","response":"left","rt":721.79999999981,"correct":true,"confidence":3},{"trial_n":103,"n_dots":3.05,"target":"right","response":"left","rt":1175.7000000002,"correct":false,"confidence":2},{"trial_n":104,"n_dots":3.15,"target":"right","response":"right","rt":1459.8999999999,"correct":true,"confidence":1},{"trial_n":105,"n_dots":3.15,"target":"left","response":"left","rt":8958.0999999996,"correct":true,"confidence":4},{"trial_n":106,"n_dots":3.05,"target":"right","response":"left","rt":3155.7000000002,"correct":false,"confidence":3},{"trial_n":107,"n_dots":3.15,"target":"right","response":"right","rt":2386.3999999999,"correct":true,"confidence":1},{"trial_n":108,"n_dots":3.15,"target":"left","response":"left","rt":965,"correct":true,"confidence":4},{"trial_n":109,"n_dots":3.05,"target":"left","response":"left","rt":1308.8999999999,"correct":true,"confidence":1},{"trial_n":110,"n_dots":3.05,"target":"left","response":"left","rt":879.5,"correct":true,"confidence":3},{"trial_n":111,"n_dots":2.95,"target":"left","response":"left","rt":462,"correct":true,"confidence":3},{"trial_n":112,"n_dots":2.95,"target":"right","response":"right","rt":1537.5,"correct":true,"confidence":3},{"trial_n":113,"n_dots":2.85,"target":"right","response":"right","rt":930.20000000019,"correct":true,"confidence":3},{"trial_n":114,"n_dots":2.85,"target":"left","response":"left","rt":567.69999999972,"correct":true,"confidence":3},{"trial_n":115,"n_dots":2.75,"target":"left","response":"left","rt":413.5,"correct":true,"confidence":3},{"trial_n":116,"n_dots":2.75,"target":"right","response":"left","rt":443.70000000019,"correct":false,"confidence":1},{"trial_n":117,"n_dots":2.85,"target":"right","response":"right","rt":682.19999999972,"correct":true,"confidence":3},{"trial_n":118,"n_dots":2.85,"target":"left","response":"left","rt":584.10000000009,"correct":true,"confidence":3},{"trial_n":119,"n_dots":2.75,"target":"left","response":"left","rt":422.10000000009,"correct":true,"confidence":3},{"trial_n":120,"n_dots":2.75,"target":"left","response":"left","rt":1031.8999999999,"correct":true,"confidence":3}]