[{"trial_n":1,"span":8,"encoder":"83026236","distractor":"83026736","target":"present","response":"present","rt":"6263.6999998093","correct":true,"confidence":-1},{"trial_n":2,"span":8,"encoder":"10913727","distractor":"10813727","target":"present","response":"present","rt":"3857.7999999523","correct":true,"confidence":-1},{"trial_n":3,"span":10,"encoder":"5705401474","distractor":"5795401474","target":"absent","response":"present","rt":"1719.1000001431","correct":false,"confidence":-1},{"trial_n":4,"span":8,"encoder":"99004391","distractor":"99004395","target":"absent","response":"absent","rt":"1823.7000000477","correct":true,"confidence":-1},{"trial_n":5,"span":8,"encoder":"19906331","distractor":"19906330","target":"present","response":"present","rt":"1268.0999999046","correct":true,"confidence":-1},{"trial_n":6,"span":10,"encoder":"2652600460","distractor":"1652600460","target":"present","response":"present","rt":"1152.7999999523","correct":true,"confidence":-1},{"trial_n":7,"span":10,"encoder":"8028297266","distractor":"8228297266","target":"present","response":"present","rt":"1761.6000001431","correct":true,"confidence":-1},{"trial_n":8,"span":12,"encoder":"812663978018","distractor":"812663978014","target":"absent","response":"absent","rt":"1432.2999999523","correct":true,"confidence":-1},{"trial_n":9,"span":12,"encoder":"679059065003","distractor":"879059065003","target":"present","response":"present","rt":"1648.7000000477","correct":true,"confidence":-1},{"trial_n":10,"span":14,"encoder":"94442394726125","distractor":"94442394728125","target":"present","response":"present","rt":"2574.1999998093","correct":true,"confidence":-1},{"trial_n":11,"span":14,"encoder":"01184391882093","distractor":"01184399882093","target":"absent","response":"present","rt":"1322","correct":false,"confidence":-1},{"trial_n":12,"span":13,"encoder":"0225975326050","distractor":"0235975326050","target":"present","response":"present","rt":"1617.2999999523","correct":true,"confidence":-1},{"trial_n":13,"span":13,"encoder":"0413450665461","distractor":"0473450665461","target":"absent","response":"present","rt":"1395.1999998093","correct":false,"confidence":-1},{"trial_n":14,"span":12,"encoder":"948498922117","distractor":"948498929117","target":"absent","response":"present","rt":"1235.2999999523","correct":false,"confidence":-1},{"trial_n":15,"span":11,"encoder":"37814974223","distractor":"37817974223","target":"present","response":"present","rt":"856.89999985695","correct":true,"confidence":-1},{"trial_n":16,"span":11,"encoder":"92502967176","distractor":"92502987176","target":"absent","response":"present","rt":"1717.0999999046","correct":false,"confidence":-1},{"trial_n":17,"span":10,"encoder":"4451979037","distractor":"4451979032","target":"present","response":"present","rt":"979.69999980927","correct":true,"confidence":-1},{"trial_n":18,"span":10,"encoder":"8681160485","distractor":"8611160485","target":"absent","response":"present","rt":"1023","correct":false,"confidence":-1},{"trial_n":19,"span":9,"encoder":"764660382","distractor":"764460382","target":"present","response":"absent","rt":"2615","correct":false,"confidence":-1},{"trial_n":20,"span":8,"encoder":"79623681","distractor":"79626681","target":"absent","response":"present","rt":"1506.6999998093","correct":false,"confidence":-1},{"trial_n":21,"span":7,"encoder":"9216978","distractor":"9219978","target":"present","response":"present","rt":"1101.5","correct":true,"confidence":2},{"trial_n":22,"span":7,"encoder":"3575586","distractor":"3575536","target":"present","response":"present","rt":"1728.1999998093","correct":true,"confidence":2},{"trial_n":23,"span":8,"encoder":"72068626","distractor":"72065626","target":"present","response":"present","rt":"5021.0999999046","correct":true,"confidence":1},{"trial_n":24,"span":8,"encoder":"41492846","distractor":"45492846","target":"absent","response":"present","rt":"3984.1999998093","correct":false,"confidence":2},{"trial_n":25,"span":7,"encoder":"8005531","distractor":"8005581","target":"absent","response":"absent","rt":"2020.3999998569","correct":true,"confidence":3},{"trial_n":26,"span":7,"encoder":"0867154","distractor":"0867159","target":"present","response":"absent","rt":"2567.2999999523","correct":false,"confidence":2},{"trial_n":27,"span":6,"encoder":"409349","distractor":"209349","target":"absent","response":"present","rt":"1392.7000000477","correct":false,"confidence":3},{"trial_n":28,"span":5,"encoder":"89051","distractor":"81051","target":"present","response":"present","rt":"1654.2999999523","correct":true,"confidence":5},{"trial_n":29,"span":5,"encoder":"46588","distractor":"06588","target":"present","response":"present","rt":"3205.0999999046","correct":true,"confidence":3},{"trial_n":30,"span":6,"encoder":"074224","distractor":"074024","target":"present","response":"absent","rt":"1392.4000000954","correct":false,"confidence":2},{"trial_n":31,"span":5,"encoder":"67327","distractor":"07327","target":"absent","response":"absent","rt":"1268.1999998093","correct":true,"confidence":4},{"trial_n":32,"span":5,"encoder":"11710","distractor":"31710","target":"absent","response":"absent","rt":"3416.7999999523","correct":true,"confidence":3},{"trial_n":33,"span":6,"encoder":"821006","distractor":"821206","target":"absent","response":"present","rt":"5534.1999998093","correct":false,"confidence":1},{"trial_n":34,"span":5,"encoder":"42847","distractor":"41847","target":"present","response":"present","rt":"1362.6000001431","correct":true,"confidence":5},{"trial_n":35,"span":5,"encoder":"64538","distractor":"60538","target":"present","response":"present","rt":"1470.1999998093","correct":true,"confidence":5},{"trial_n":36,"span":6,"encoder":"916443","distractor":"911443","target":"present","response":"present","rt":"1336.2999999523","correct":true,"confidence":4},{"trial_n":37,"span":6,"encoder":"581592","distractor":"581552","target":"absent","response":"absent","rt":"1538","correct":true,"confidence":2},{"trial_n":38,"span":7,"encoder":"8557380","distractor":"8557350","target":"absent","response":"present","rt":"2533.9000000954","correct":false,"confidence":2},{"trial_n":39,"span":6,"encoder":"223739","distractor":"223749","target":"absent","response":"present","rt":"2508.4000000954","correct":false,"confidence":3},{"trial_n":40,"span":5,"encoder":"37506","distractor":"37501","target":"absent","response":"absent","rt":"1356.4000000954","correct":true,"confidence":5},{"trial_n":41,"span":5,"encoder":"95192","distractor":"75192","target":"absent","response":"absent","rt":"1653.1999998093","correct":true,"confidence":2},{"trial_n":42,"span":6,"encoder":"718377","distractor":"718367","target":"absent","response":"absent","rt":"1172.9000000954","correct":true,"confidence":5},{"trial_n":43,"span":6,"encoder":"587391","distractor":"587361","target":"absent","response":"absent","rt":"1740.8999998569","correct":true,"confidence":5},{"trial_n":44,"span":7,"encoder":"4701866","distractor":"4701806","target":"absent","response":"absent","rt":"1209.7999999523","correct":true,"confidence":5},{"trial_n":45,"span":7,"encoder":"9794511","distractor":"9394511","target":"present","response":"present","rt":"2199.6999998093","correct":true,"confidence":4},{"trial_n":46,"span":8,"encoder":"46654263","distractor":"44654263","target":"absent","response":"present","rt":"2072.7999999523","correct":false,"confidence":3},{"trial_n":47,"span":7,"encoder":"9406561","distractor":"9406551","target":"absent","response":"present","rt":"1989.6000001431","correct":false,"confidence":2},{"trial_n":48,"span":6,"encoder":"896057","distractor":"806057","target":"absent","response":"present","rt":"1655.5999999046","correct":false,"confidence":3},{"trial_n":49,"span":5,"encoder":"10284","distractor":"80284","target":"absent","response":"absent","rt":"1391.7999999523","correct":true,"confidence":4},{"trial_n":50,"span":5,"encoder":"68474","distractor":"58474","target":"present","response":"present","rt":"2490.7999999523","correct":true,"confidence":4},{"trial_n":51,"span":6,"encoder":"647372","distractor":"644372","target":"present","response":"present","rt":"2237.0999999046","correct":true,"confidence":3},{"trial_n":52,"span":6,"encoder":"688969","distractor":"188969","target":"present","response":"present","rt":"1818.2000000477","correct":true,"confidence":4},{"trial_n":53,"span":7,"encoder":"6075323","distractor":"6025323","target":"absent","response":"present","rt":"2036.1000001431","correct":false,"confidence":3},{"trial_n":54,"span":6,"encoder":"739669","distractor":"759669","target":"present","response":"present","rt":"1402.2999999523","correct":true,"confidence":5},{"trial_n":55,"span":6,"encoder":"342054","distractor":"346054","target":"present","response":"present","rt":"1565.5999999046","correct":true,"confidence":4},{"trial_n":56,"span":7,"encoder":"9274679","distractor":"9274699","target":"absent","response":"absent","rt":"1707.6000001431","correct":true,"confidence":4},{"trial_n":57,"span":7,"encoder":"1591588","distractor":"1596588","target":"absent","response":"absent","rt":"3296.2000000477","correct":true,"confidence":3},{"trial_n":58,"span":8,"encoder":"83147239","distractor":"83147039","target":"absent","response":"absent","rt":"2725.6999998093","correct":true,"confidence":1},{"trial_n":59,"span":8,"encoder":"44713962","distractor":"44013962","target":"present","response":"present","rt":"3002.3999998569","correct":true,"confidence":5},{"trial_n":60,"span":9,"encoder":"775621483","distractor":"775921483","target":"present","response":"absent","rt":"3335.1999998093","correct":false,"confidence":3},{"trial_n":61,"span":8,"encoder":"07699565","distractor":"77699565","target":"present","response":"present","rt":"2385.1999998093","correct":true,"confidence":3},{"trial_n":62,"span":8,"encoder":"17822673","distractor":"17821673","target":"present","response":"present","rt":"2451.9000000954","correct":true,"confidence":4},{"trial_n":63,"span":9,"encoder":"759971546","distractor":"759971646","target":"present","response":"absent","rt":"2739.1000001431","correct":false,"confidence":2},{"trial_n":64,"span":8,"encoder":"91297068","distractor":"91297968","target":"present","response":"present","rt":"1972.5","correct":true,"confidence":3},{"trial_n":65,"span":8,"encoder":"10907783","distractor":"10307783","target":"present","response":"present","rt":"1598","correct":true,"confidence":3},{"trial_n":66,"span":9,"encoder":"707117420","distractor":"707317420","target":"absent","response":"present","rt":"3633.6999998093","correct":false,"confidence":3},{"trial_n":67,"span":8,"encoder":"52916130","distractor":"52916530","target":"present","response":"present","rt":"1277.6999998093","correct":true,"confidence":4},{"trial_n":68,"span":8,"encoder":"69220363","distractor":"69220333","target":"present","response":"present","rt":"1180.1999998093","correct":true,"confidence":3},{"trial_n":69,"span":9,"encoder":"182653261","distractor":"182653267","target":"absent","response":"absent","rt":"1386.6999998093","correct":true,"confidence":5},{"trial_n":70,"span":9,"encoder":"899115918","distractor":"899175918","target":"absent","response":"absent","rt":"2103.6999998093","correct":true,"confidence":4},{"trial_n":71,"span":8,"encoder":"75129231","distractor":"75129631","target":"present","response":"present","rt":"2080.1000001431","correct":true,"confidence":-1},{"trial_n":72,"span":8,"encoder":"50831804","distractor":"50841804","target":"present","response":"present","rt":"3562","correct":true,"confidence":-1},{"trial_n":73,"span":9,"encoder":"541856058","distractor":"549856058","target":"absent","response":"absent","rt":"522.90000009537","correct":true,"confidence":-1},{"trial_n":74,"span":9,"encoder":"039161211","distractor":"039161611","target":"absent","response":"present","rt":"4707.3999998569","correct":false,"confidence":-1},{"trial_n":75,"span":8,"encoder":"74644910","distractor":"54644910","target":"present","response":"absent","rt":"610.70000004768","correct":false,"confidence":-1},{"trial_n":76,"span":7,"encoder":"0587894","distractor":"0587394","target":"absent","response":"present","rt":"427.29999995232","correct":false,"confidence":-1},{"trial_n":77,"span":6,"encoder":"662011","distractor":"662013","target":"present","response":"present","rt":"348.90000009537","correct":true,"confidence":-1},{"trial_n":78,"span":6,"encoder":"599539","distractor":"299539","target":"absent","response":"absent","rt":"1383.6999998093","correct":true,"confidence":-1},{"trial_n":79,"span":7,"encoder":"4610195","distractor":"8610195","target":"absent","response":"present","rt":"322","correct":false,"confidence":-1},{"trial_n":80,"span":6,"encoder":"600097","distractor":"602097","target":"present","response":"absent","rt":"414.09999990463","correct":false,"confidence":-1},{"trial_n":81,"span":5,"encoder":"41654","distractor":"11654","target":"present","response":"absent","rt":"417.10000014305","correct":false,"confidence":-1},{"trial_n":82,"span":4,"encoder":"4781","distractor":"4782","target":"absent","response":"present","rt":"398","correct":false,"confidence":-1},{"trial_n":83,"span":3,"encoder":"404","distractor":"424","target":"present","response":"absent","rt":"387.70000004768","correct":false,"confidence":-1},{"trial_n":84,"span":2,"encoder":"58","distractor":"48","target":"absent","response":"absent","rt":"64.600000143051","correct":true,"confidence":-1},{"trial_n":85,"span":2,"encoder":"23","distractor":"63","target":"absent","response":"absent","rt":"15.600000143051","correct":true,"confidence":-1},{"trial_n":86,"span":3,"encoder":"886","distractor":"286","target":"absent","response":"absent","rt":"2598.5999999046","correct":true,"confidence":-1},{"trial_n":87,"span":3,"encoder":"420","distractor":"720","target":"absent","response":"absent","rt":"464.5","correct":true,"confidence":-1},{"trial_n":88,"span":4,"encoder":"6042","distractor":"6022","target":"absent","response":"absent","rt":"1195.2999999523","correct":true,"confidence":-1},{"trial_n":89,"span":4,"encoder":"4980","distractor":"8980","target":"absent","response":"absent","rt":"1718.6999998093","correct":true,"confidence":-1},{"trial_n":90,"span":5,"encoder":"77559","distractor":"77459","target":"absent","response":"absent","rt":"2533.3999998569","correct":true,"confidence":-1},{"trial_n":91,"span":5,"encoder":"21312","distractor":"24312","target":"absent","response":"absent","rt":"3269","correct":true,"confidence":1},{"trial_n":92,"span":6,"encoder":"253939","distractor":"253949","target":"present","response":"present","rt":"2274.7000000477","correct":true,"confidence":5},{"trial_n":93,"span":6,"encoder":"718744","distractor":"418744","target":"absent","response":"absent","rt":"4613.7999999523","correct":true,"confidence":3},{"trial_n":94,"span":7,"encoder":"8377228","distractor":"2377228","target":"absent","response":"present","rt":"4390.5","correct":false,"confidence":1},{"trial_n":95,"span":6,"encoder":"960724","distractor":"960924","target":"absent","response":"absent","rt":"750.90000009537","correct":true,"confidence":1},{"trial_n":96,"span":6,"encoder":"999732","distractor":"994732","target":"present","response":"present","rt":"354","correct":true,"confidence":1},{"trial_n":97,"span":7,"encoder":"7524949","distractor":"7124949","target":"present","response":"absent","rt":"419","correct":false,"confidence":1},{"trial_n":98,"span":6,"encoder":"772183","distractor":"772103","target":"absent","response":"present","rt":"345.90000009537","correct":false,"confidence":1},{"trial_n":99,"span":5,"encoder":"42936","distractor":"02936","target":"present","response":"present","rt":"367.90000009537","correct":true,"confidence":1},{"trial_n":100,"span":5,"encoder":"22704","distractor":"27704","target":"absent","response":"absent","rt":"446.29999995232","correct":true,"confidence":1},{"trial_n":101,"span":6,"encoder":"620959","distractor":"620159","target":"present","response":"present","rt":"1679.2999999523","correct":true,"confidence":2},{"trial_n":102,"span":6,"encoder":"070427","distractor":"070424","target":"present","response":"absent","rt":"2594.5","correct":false,"confidence":2},{"trial_n":103,"span":5,"encoder":"63163","distractor":"63173","target":"present","response":"present","rt":"1999.5999999046","correct":true,"confidence":3},{"trial_n":104,"span":5,"encoder":"31648","distractor":"35648","target":"present","response":"absent","rt":"441.79999995232","correct":false,"confidence":1},{"trial_n":105,"span":4,"encoder":"4393","distractor":"4391","target":"present","response":"present","rt":"315.09999990463","correct":true,"confidence":1},{"trial_n":106,"span":4,"encoder":"8174","distractor":"8184","target":"absent","response":"absent","rt":"699.79999995232","correct":true,"confidence":1},{"trial_n":107,"span":5,"encoder":"17736","distractor":"16736","target":"present","response":"absent","rt":"2312.8999998569","correct":false,"confidence":1},{"trial_n":108,"span":4,"encoder":"1684","distractor":"1686","target":"present","response":"absent","rt":"515.09999990463","correct":false,"confidence":1},{"trial_n":109,"span":3,"encoder":"155","distractor":"135","target":"absent","response":"present","rt":"398.90000009537","correct":false,"confidence":1},{"trial_n":110,"span":2,"encoder":"65","distractor":"85","target":"present","response":"absent","rt":"10227.600000143","correct":false,"confidence":1},{"trial_n":111,"span":2,"encoder":"64","distractor":"69","target":"absent","response":"absent","rt":"4737.5","correct":true,"confidence":3},{"trial_n":112,"span":2,"encoder":"43","distractor":"53","target":"present","response":"present","rt":"2573.5","correct":true,"confidence":2},{"trial_n":113,"span":3,"encoder":"042","distractor":"052","target":"present","response":"present","rt":"3063.1999998093","correct":true,"confidence":4},{"trial_n":114,"span":3,"encoder":"593","distractor":"599","target":"absent","response":"absent","rt":"2285.1000001431","correct":true,"confidence":3},{"trial_n":115,"span":4,"encoder":"6451","distractor":"6452","target":"absent","response":"absent","rt":"2091.5","correct":true,"confidence":4},{"trial_n":116,"span":4,"encoder":"1037","distractor":"2037","target":"present","response":"present","rt":"1105","correct":true,"confidence":3},{"trial_n":117,"span":5,"encoder":"10211","distractor":"10711","target":"present","response":"present","rt":"1410.7000000477","correct":true,"confidence":4},{"trial_n":118,"span":5,"encoder":"09109","distractor":"09105","target":"absent","response":"absent","rt":"1817.2000000477","correct":true,"confidence":5},{"trial_n":119,"span":6,"encoder":"127180","distractor":"126180","target":"present","response":"present","rt":"2156.7000000477","correct":true,"confidence":5},{"trial_n":120,"span":6,"encoder":"245179","distractor":"245175","target":"absent","response":"absent","rt":"3049.5999999046","correct":true,"confidence":5},{"trial_n":121,"span":7,"encoder":"0393603","distractor":"0323603","target":"absent","response":"absent","rt":"3179.9000000954","correct":true,"confidence":1},{"trial_n":122,"span":7,"encoder":"4679798","distractor":"4679791","target":"absent","response":"absent","rt":"1406.8999998569","correct":true,"confidence":4},{"trial_n":123,"span":8,"encoder":"00932715","distractor":"00932711","target":"present","response":"present","rt":"1260.8999998569","correct":true,"confidence":3},{"trial_n":124,"span":8,"encoder":"40441778","distractor":"40441748","target":"absent","response":"absent","rt":"3941.5999999046","correct":true,"confidence":3},{"trial_n":125,"span":9,"encoder":"870775699","distractor":"070775699","target":"present","response":"absent","rt":"5191","correct":false,"confidence":1},{"trial_n":126,"span":8,"encoder":"80298130","distractor":"80298135","target":"present","response":"present","rt":"4034.6999998093","correct":true,"confidence":3},{"trial_n":127,"span":8,"encoder":"50286336","distractor":"55286336","target":"present","response":"absent","rt":"1598","correct":false,"confidence":3},{"trial_n":128,"span":7,"encoder":"1349908","distractor":"1349508","target":"present","response":"present","rt":"4895","correct":true,"confidence":2},{"trial_n":129,"span":7,"encoder":"2030714","distractor":"2030814","target":"absent","response":"absent","rt":"2269.7999999523","correct":true,"confidence":3},{"trial_n":130,"span":8,"encoder":"46373241","distractor":"46383241","target":"absent","response":"absent","rt":"3192.2999999523","correct":true,"confidence":3},{"trial_n":131,"span":8,"encoder":"06178741","distractor":"06178731","target":"present","response":"present","rt":"1867.6000001431","correct":true,"confidence":4},{"trial_n":132,"span":9,"encoder":"799573833","distractor":"799373833","target":"present","response":"absent","rt":"4325.0999999046","correct":false,"confidence":2},{"trial_n":133,"span":8,"encoder":"30763779","distractor":"30769779","target":"absent","response":"absent","rt":"2681.8999998569","correct":true,"confidence":3},{"trial_n":134,"span":8,"encoder":"55967965","distractor":"55967565","target":"absent","response":"absent","rt":"4453.2999999523","correct":true,"confidence":2},{"trial_n":135,"span":9,"encoder":"176489254","distractor":"176089254","target":"present","response":"present","rt":"4061.6000001431","correct":true,"confidence":3},{"trial_n":136,"span":9,"encoder":"222522567","distractor":"222522517","target":"absent","response":"absent","rt":"932.20000004768","correct":true,"confidence":4},{"trial_n":137,"span":10,"encoder":"8607348333","distractor":"8601348333","target":"present","response":"present","rt":"5270.6999998093","correct":true,"confidence":3},{"trial_n":138,"span":10,"encoder":"7360253211","distractor":"7360213211","target":"present","response":"absent","rt":"3674","correct":false,"confidence":3},{"trial_n":139,"span":9,"encoder":"004808115","distractor":"004208115","target":"present","response":"present","rt":"2568.4000000954","correct":true,"confidence":2},{"trial_n":140,"span":9,"encoder":"259574296","distractor":"259574291","target":"present","response":"present","rt":"2046.5","correct":true,"confidence":5}]