[{"trial_n":1,"min":25,"max":230,"target":"present","response":"present","rt":2406.1999998093,"correct":true,"confidence":-1},{"trial_n":2,"min":25,"max":230,"target":"present","response":"present","rt":1861.6000003815,"correct":true,"confidence":-1},{"trial_n":3,"min":41,"max":214,"target":"absent","response":"present","rt":759.09999990463,"correct":false,"confidence":-1},{"trial_n":4,"min":25,"max":230,"target":"absent","response":"present","rt":729.5,"correct":false,"confidence":-1},{"trial_n":5,"min":9,"max":246,"target":"present","response":"present","rt":434.40000009537,"correct":true,"confidence":-1},{"trial_n":6,"min":9,"max":246,"target":"present","response":"absent","rt":815.69999980927,"correct":false,"confidence":-1},{"trial_n":7,"min":0,"max":255,"target":"present","response":"absent","rt":590.59999990463,"correct":false,"confidence":-1},{"trial_n":8,"min":0,"max":255,"target":"absent","response":"present","rt":735.40000009537,"correct":false,"confidence":-1},{"trial_n":9,"min":0,"max":255,"target":"absent","response":"absent","rt":417.90000009537,"correct":true,"confidence":-1},{"trial_n":10,"min":0,"max":255,"target":"present","response":"present","rt":579,"correct":true,"confidence":-1},{"trial_n":11,"min":8,"max":247,"target":"absent","response":"present","rt":579.90000009537,"correct":false,"confidence":-1},{"trial_n":12,"min":0,"max":255,"target":"absent","response":"absent","rt":422.09999990463,"correct":true,"confidence":-1},{"trial_n":13,"min":0,"max":255,"target":"present","response":"present","rt":606.19999980927,"correct":true,"confidence":-1},{"trial_n":14,"min":8,"max":247,"target":"present","response":"absent","rt":462.2000002861,"correct":false,"confidence":-1},{"trial_n":15,"min":0,"max":255,"target":"present","response":"present","rt":381.5,"correct":true,"confidence":-1},{"trial_n":16,"min":0,"max":255,"target":"absent","response":"present","rt":378.5,"correct":false,"confidence":-1},{"trial_n":17,"min":0,"max":255,"target":"present","response":"present","rt":664.5,"correct":true,"confidence":-1},{"trial_n":18,"min":0,"max":255,"target":"present","response":"absent","rt":1957.5999999046,"correct":false,"confidence":-1},{"trial_n":19,"min":0,"max":255,"target":"present","response":"present","rt":575.69999980927,"correct":true,"confidence":-1},{"trial_n":20,"min":0,"max":255,"target":"absent","response":"present","rt":1525.7000002861,"correct":false,"confidence":-1},{"trial_n":21,"min":0,"max":255,"target":"present","response":"present","rt":2235.0999999046,"correct":true,"confidence":4},{"trial_n":22,"min":0,"max":255,"target":"present","response":"present","rt":1713,"correct":true,"confidence":4},{"trial_n":23,"min":4,"max":251,"target":"present","response":"present","rt":1172.2999997139,"correct":true,"confidence":4},{"trial_n":24,"min":4,"max":251,"target":"absent","response":"absent","rt":972.2000002861,"correct":true,"confidence":5},{"trial_n":25,"min":8,"max":247,"target":"absent","response":"absent","rt":886.40000009537,"correct":true,"confidence":5},{"trial_n":26,"min":8,"max":247,"target":"absent","response":"absent","rt":904.19999980927,"correct":true,"confidence":5},{"trial_n":27,"min":12,"max":243,"target":"present","response":"present","rt":893.19999980927,"correct":true,"confidence":4},{"trial_n":28,"min":12,"max":243,"target":"present","response":"present","rt":925.7000002861,"correct":true,"confidence":4},{"trial_n":29,"min":16,"max":239,"target":"absent","response":"absent","rt":1234,"correct":true,"confidence":5},{"trial_n":30,"min":16,"max":239,"target":"present","response":"present","rt":864.59999990463,"correct":true,"confidence":4},{"trial_n":31,"min":18,"max":237,"target":"present","response":"present","rt":1127.5999999046,"correct":true,"confidence":4},{"trial_n":32,"min":18,"max":237,"target":"present","response":"present","rt":842,"correct":true,"confidence":4},{"trial_n":33,"min":20,"max":235,"target":"present","response":"present","rt":841.40000009537,"correct":true,"confidence":4},{"trial_n":34,"min":20,"max":235,"target":"absent","response":"present","rt":820.5,"correct":false,"confidence":4},{"trial_n":35,"min":18,"max":237,"target":"present","response":"present","rt":1468,"correct":true,"confidence":4},{"trial_n":36,"min":18,"max":237,"target":"present","response":"present","rt":2493.8000001907,"correct":true,"confidence":4},{"trial_n":37,"min":20,"max":235,"target":"absent","response":"present","rt":755.09999990463,"correct":false,"confidence":4},{"trial_n":38,"min":18,"max":237,"target":"present","response":"present","rt":1447.3000001907,"correct":true,"confidence":4},{"trial_n":39,"min":18,"max":237,"target":"absent","response":"present","rt":736.69999980927,"correct":false,"confidence":4},{"trial_n":40,"min":16,"max":239,"target":"absent","response":"absent","rt":1780.5,"correct":true,"confidence":4},{"trial_n":41,"min":16,"max":239,"target":"absent","response":"absent","rt":1236.8000001907,"correct":true,"confidence":4},{"trial_n":42,"min":17,"max":238,"target":"absent","response":"absent","rt":1258.3000001907,"correct":true,"confidence":4},{"trial_n":43,"min":17,"max":238,"target":"present","response":"present","rt":1325.0999999046,"correct":true,"confidence":4},{"trial_n":44,"min":18,"max":237,"target":"absent","response":"absent","rt":862,"correct":true,"confidence":4},{"trial_n":45,"min":18,"max":237,"target":"present","response":"present","rt":724.80000019073,"correct":true,"confidence":4},{"trial_n":46,"min":19,"max":236,"target":"absent","response":"absent","rt":853,"correct":true,"confidence":4},{"trial_n":47,"min":19,"max":236,"target":"absent","response":"absent","rt":2221,"correct":true,"confidence":4},{"trial_n":48,"min":20,"max":235,"target":"absent","response":"absent","rt":979.40000009537,"correct":true,"confidence":4},{"trial_n":49,"min":20,"max":235,"target":"absent","response":"absent","rt":1394.9000000954,"correct":true,"confidence":4},{"trial_n":50,"min":21,"max":234,"target":"absent","response":"absent","rt":666.30000019073,"correct":true,"confidence":4},{"trial_n":51,"min":21,"max":234,"target":"absent","response":"absent","rt":834.59999990463,"correct":true,"confidence":4},{"trial_n":52,"min":22,"max":233,"target":"absent","response":"absent","rt":771.5,"correct":true,"confidence":4},{"trial_n":53,"min":22,"max":233,"target":"absent","response":"absent","rt":708,"correct":true,"confidence":4},{"trial_n":54,"min":23,"max":232,"target":"present","response":"present","rt":917,"correct":true,"confidence":4},{"trial_n":55,"min":23,"max":232,"target":"absent","response":"absent","rt":700.60000038147,"correct":true,"confidence":4},{"trial_n":56,"min":24,"max":231,"target":"present","response":"present","rt":810.5,"correct":true,"confidence":4},{"trial_n":57,"min":24,"max":231,"target":"present","response":"present","rt":1251.1999998093,"correct":true,"confidence":4},{"trial_n":58,"min":25,"max":230,"target":"absent","response":"absent","rt":674.5,"correct":true,"confidence":4},{"trial_n":59,"min":25,"max":230,"target":"present","response":"present","rt":934.5,"correct":true,"confidence":4},{"trial_n":60,"min":26,"max":229,"target":"absent","response":"present","rt":675.7000002861,"correct":false,"confidence":4},{"trial_n":61,"min":25,"max":230,"target":"present","response":"present","rt":677.40000009537,"correct":true,"confidence":4},{"trial_n":62,"min":25,"max":230,"target":"present","response":"present","rt":754.2000002861,"correct":true,"confidence":4},{"trial_n":63,"min":26,"max":229,"target":"absent","response":"absent","rt":722.19999980927,"correct":true,"confidence":4},{"trial_n":64,"min":26,"max":229,"target":"absent","response":"present","rt":2762.3000001907,"correct":false,"confidence":4},{"trial_n":65,"min":25,"max":230,"target":"present","response":"present","rt":734.2999997139,"correct":true,"confidence":4},{"trial_n":66,"min":25,"max":230,"target":"present","response":"present","rt":768.7999997139,"correct":true,"confidence":4},{"trial_n":67,"min":26,"max":229,"target":"absent","response":"absent","rt":787.59999990463,"correct":true,"confidence":4},{"trial_n":68,"min":26,"max":229,"target":"present","response":"absent","rt":19741.400000095,"correct":false,"confidence":4},{"trial_n":69,"min":25,"max":230,"target":"present","response":"absent","rt":912.59999990463,"correct":false,"confidence":4},{"trial_n":70,"min":24,"max":231,"target":"absent","response":"absent","rt":1139.2000002861,"correct":true,"confidence":4},{"trial_n":71,"min":41,"max":214,"target":"present","response":"present","rt":1791.4000000954,"correct":true,"confidence":-1},{"trial_n":72,"min":41,"max":214,"target":"present","response":"present","rt":688.40000009537,"correct":true,"confidence":-1},{"trial_n":73,"min":57,"max":198,"target":"absent","response":"absent","rt":795.30000019073,"correct":true,"confidence":-1},{"trial_n":74,"min":57,"max":198,"target":"absent","response":"absent","rt":709,"correct":true,"confidence":-1},{"trial_n":75,"min":73,"max":182,"target":"present","response":"absent","rt":1740.6999998093,"correct":false,"confidence":-1},{"trial_n":76,"min":57,"max":198,"target":"absent","response":"absent","rt":1169.4000000954,"correct":true,"confidence":-1},{"trial_n":77,"min":57,"max":198,"target":"absent","response":"absent","rt":941.30000019073,"correct":true,"confidence":-1},{"trial_n":78,"min":73,"max":182,"target":"absent","response":"absent","rt":620.59999990463,"correct":true,"confidence":-1},{"trial_n":79,"min":73,"max":182,"target":"present","response":"absent","rt":1398,"correct":false,"confidence":-1},{"trial_n":80,"min":57,"max":198,"target":"absent","response":"absent","rt":723,"correct":true,"confidence":-1},{"trial_n":81,"min":57,"max":198,"target":"absent","response":"absent","rt":1464.4000000954,"correct":true,"confidence":-1},{"trial_n":82,"min":65,"max":190,"target":"absent","response":"absent","rt":546.7000002861,"correct":true,"confidence":-1},{"trial_n":83,"min":65,"max":190,"target":"present","response":"present","rt":921.2000002861,"correct":true,"confidence":-1},{"trial_n":84,"min":73,"max":182,"target":"present","response":"present","rt":1418.8000001907,"correct":true,"confidence":-1},{"trial_n":85,"min":73,"max":182,"target":"absent","response":"absent","rt":843.09999990463,"correct":true,"confidence":-1},{"trial_n":86,"min":81,"max":174,"target":"absent","response":"absent","rt":1458.0999999046,"correct":true,"confidence":-1},{"trial_n":87,"min":81,"max":174,"target":"present","response":"present","rt":717.7999997139,"correct":true,"confidence":-1},{"trial_n":88,"min":89,"max":166,"target":"present","response":"present","rt":888.5,"correct":true,"confidence":-1},{"trial_n":89,"min":89,"max":166,"target":"absent","response":"absent","rt":828.30000019073,"correct":true,"confidence":-1},{"trial_n":90,"min":97,"max":158,"target":"present","response":"absent","rt":1206.3000001907,"correct":false,"confidence":-1},{"trial_n":91,"min":93,"max":162,"target":"present","response":"present","rt":910.10000038147,"correct":true,"confidence":4},{"trial_n":92,"min":93,"max":162,"target":"absent","response":"present","rt":867.19999980927,"correct":false,"confidence":4},{"trial_n":93,"min":89,"max":166,"target":"present","response":"present","rt":1309.0999999046,"correct":true,"confidence":3},{"trial_n":94,"min":89,"max":166,"target":"present","response":"absent","rt":981.2000002861,"correct":false,"confidence":3},{"trial_n":95,"min":85,"max":170,"target":"present","response":"absent","rt":833.10000038147,"correct":false,"confidence":1},{"trial_n":96,"min":81,"max":174,"target":"present","response":"absent","rt":1537.6000003815,"correct":false,"confidence":3},{"trial_n":97,"min":77,"max":178,"target":"absent","response":"absent","rt":828.5,"correct":true,"confidence":4},{"trial_n":98,"min":77,"max":178,"target":"present","response":"present","rt":1114.6000003815,"correct":true,"confidence":1},{"trial_n":99,"min":81,"max":174,"target":"present","response":"absent","rt":973.40000009537,"correct":false,"confidence":1},{"trial_n":100,"min":77,"max":178,"target":"present","response":"present","rt":725.09999990463,"correct":true,"confidence":1},{"trial_n":101,"min":77,"max":178,"target":"absent","response":"absent","rt":1046.7000002861,"correct":true,"confidence":1},{"trial_n":102,"min":79,"max":176,"target":"present","response":"absent","rt":750.09999990463,"correct":false,"confidence":1},{"trial_n":103,"min":77,"max":178,"target":"absent","response":"absent","rt":914.69999980927,"correct":true,"confidence":3},{"trial_n":104,"min":77,"max":178,"target":"absent","response":"absent","rt":746,"correct":true,"confidence":3},{"trial_n":105,"min":79,"max":176,"target":"present","response":"absent","rt":1084,"correct":false,"confidence":4},{"trial_n":106,"min":77,"max":178,"target":"present","response":"present","rt":771.19999980927,"correct":true,"confidence":4},{"trial_n":107,"min":77,"max":178,"target":"absent","response":"absent","rt":772,"correct":true,"confidence":4},{"trial_n":108,"min":79,"max":176,"target":"absent","response":"absent","rt":774.7999997139,"correct":true,"confidence":4},{"trial_n":109,"min":79,"max":176,"target":"absent","response":"absent","rt":1348.1999998093,"correct":true,"confidence":3},{"trial_n":110,"min":81,"max":174,"target":"present","response":"absent","rt":781.89999961853,"correct":false,"confidence":4},{"trial_n":111,"min":80,"max":175,"target":"present","response":"present","rt":823.80000019073,"correct":true,"confidence":1},{"trial_n":112,"min":80,"max":175,"target":"absent","response":"absent","rt":723.30000019073,"correct":true,"confidence":1},{"trial_n":113,"min":81,"max":174,"target":"present","response":"present","rt":671.40000009537,"correct":true,"confidence":1},{"trial_n":114,"min":81,"max":174,"target":"absent","response":"absent","rt":740.80000019073,"correct":true,"confidence":1},{"trial_n":115,"min":82,"max":173,"target":"present","response":"present","rt":1325.5999999046,"correct":true,"confidence":1},{"trial_n":116,"min":82,"max":173,"target":"absent","response":"absent","rt":1101.4000000954,"correct":true,"confidence":1},{"trial_n":117,"min":83,"max":172,"target":"present","response":"present","rt":973.90000009537,"correct":true,"confidence":1},{"trial_n":118,"min":83,"max":172,"target":"present","response":"present","rt":867,"correct":true,"confidence":1},{"trial_n":119,"min":84,"max":171,"target":"absent","response":"present","rt":805.59999990463,"correct":false,"confidence":1},{"trial_n":120,"min":83,"max":172,"target":"absent","response":"present","rt":765.69999980927,"correct":false,"confidence":1},{"trial_n":121,"min":82,"max":173,"target":"absent","response":"present","rt":939.90000009537,"correct":false,"confidence":1},{"trial_n":122,"min":81,"max":174,"target":"present","response":"present","rt":638.5,"correct":true,"confidence":1},{"trial_n":123,"min":81,"max":174,"target":"present","response":"present","rt":765.10000038147,"correct":true,"confidence":1},{"trial_n":124,"min":82,"max":173,"target":"absent","response":"present","rt":1020.0999999046,"correct":false,"confidence":1},{"trial_n":125,"min":81,"max":174,"target":"present","response":"present","rt":820.5,"correct":true,"confidence":1},{"trial_n":126,"min":81,"max":174,"target":"absent","response":"absent","rt":1253.3000001907,"correct":true,"confidence":1},{"trial_n":127,"min":82,"max":173,"target":"absent","response":"absent","rt":1148.2999997139,"correct":true,"confidence":1},{"trial_n":128,"min":82,"max":173,"target":"absent","response":"absent","rt":720,"correct":true,"confidence":1},{"trial_n":129,"min":83,"max":172,"target":"absent","response":"absent","rt":1026.2999997139,"correct":true,"confidence":1},{"trial_n":130,"min":83,"max":172,"target":"absent","response":"absent","rt":914,"correct":true,"confidence":1},{"trial_n":131,"min":84,"max":171,"target":"present","response":"present","rt":1010.5,"correct":true,"confidence":1},{"trial_n":132,"min":84,"max":171,"target":"present","response":"present","rt":598.40000009537,"correct":true,"confidence":1},{"trial_n":133,"min":85,"max":170,"target":"present","response":"present","rt":697.19999980927,"correct":true,"confidence":1},{"trial_n":134,"min":85,"max":170,"target":"absent","response":"absent","rt":797,"correct":true,"confidence":1},{"trial_n":135,"min":86,"max":169,"target":"absent","response":"absent","rt":969.59999990463,"correct":true,"confidence":1},{"trial_n":136,"min":86,"max":169,"target":"present","response":"absent","rt":3815.2000002861,"correct":false,"confidence":4},{"trial_n":137,"min":85,"max":170,"target":"present","response":"present","rt":1181.2000002861,"correct":true,"confidence":1},{"trial_n":138,"min":85,"max":170,"target":"present","response":"present","rt":739.69999980927,"correct":true,"confidence":3},{"trial_n":139,"min":86,"max":169,"target":"absent","response":"absent","rt":1142.3000001907,"correct":true,"confidence":1},{"trial_n":140,"min":86,"max":169,"target":"present","response":"present","rt":607.80000019073,"correct":true,"confidence":1}]