[{"trial_n":1,"n_dots":4.25,"target":"left","response":"left","rt":4090,"correct":true,"confidence":-1},{"trial_n":2,"n_dots":4.25,"target":"left","response":"right","rt":6106,"correct":false,"confidence":-1},{"trial_n":3,"n_dots":4.65,"target":"left","response":"left","rt":549,"correct":true,"confidence":-1},{"trial_n":4,"n_dots":4.65,"target":"left","response":"left","rt":317,"correct":true,"confidence":-1},{"trial_n":5,"n_dots":4.25,"target":"left","response":"left","rt":596,"correct":true,"confidence":-1},{"trial_n":6,"n_dots":4.25,"target":"left","response":"right","rt":833,"correct":false,"confidence":-1},{"trial_n":7,"n_dots":4.65,"target":"left","response":"left","rt":708.99999999999,"correct":true,"confidence":-1},{"trial_n":8,"n_dots":4.65,"target":"left","response":"left","rt":538,"correct":true,"confidence":-1},{"trial_n":9,"n_dots":4.45,"target":"left","response":"left","rt":347,"correct":true,"confidence":-1},{"trial_n":10,"n_dots":4.45,"target":"right","response":"right","rt":785,"correct":true,"confidence":-1},{"trial_n":11,"n_dots":4.25,"target":"left","response":"right","rt":498,"correct":false,"confidence":-1},{"trial_n":12,"n_dots":4.45,"target":"left","response":"left","rt":578,"correct":true,"confidence":-1},{"trial_n":13,"n_dots":4.45,"target":"left","response":"left","rt":427,"correct":true,"confidence":-1},{"trial_n":14,"n_dots":4.35,"target":"left","response":"left","rt":587,"correct":true,"confidence":-1},{"trial_n":15,"n_dots":4.35,"target":"right","response":"right","rt":315,"correct":true,"confidence":-1},{"trial_n":16,"n_dots":4.25,"target":"right","response":"right","rt":779,"correct":true,"confidence":-1},{"trial_n":17,"n_dots":4.25,"target":"right","response":"right","rt":668,"correct":true,"confidence":-1},{"trial_n":18,"n_dots":4.15,"target":"right","response":"right","rt":115,"correct":true,"confidence":-1},{"trial_n":19,"n_dots":4.15,"target":"right","response":"right","rt":866.99999999999,"correct":true,"confidence":-1},{"trial_n":20,"n_dots":4.05,"target":"right","response":"right","rt":628.00000000001,"correct":true,"confidence":-1},{"trial_n":21,"n_dots":4.05,"target":"right","response":"right","rt":786,"correct":true,"confidence":3},{"trial_n":22,"n_dots":3.95,"target":"right","response":"left","rt":981.00000000001,"correct":false,"confidence":1},{"trial_n":23,"n_dots":4.05,"target":"right","response":"right","rt":67,"correct":true,"confidence":4},{"trial_n":24,"n_dots":4.05,"target":"left","response":"left","rt":645,"correct":true,"confidence":3},{"trial_n":25,"n_dots":3.95,"target":"left","response":"left","rt":333,"correct":true,"confidence":5},{"trial_n":26,"n_dots":3.95,"target":"right","response":"right","rt":355.00000000001,"correct":true,"confidence":5},{"trial_n":27,"n_dots":3.85,"target":"right","response":"right","rt":144,"correct":true,"confidence":4},{"trial_n":28,"n_dots":3.85,"target":"left","response":"left","rt":460,"correct":true,"confidence":3},{"trial_n":29,"n_dots":3.75,"target":"left","response":"right","rt":375,"correct":false,"confidence":3},{"trial_n":30,"n_dots":3.85,"target":"left","response":"left","rt":486,"correct":true,"confidence":4},{"trial_n":31,"n_dots":3.85,"target":"right","response":"right","rt":372,"correct":true,"confidence":4},{"trial_n":32,"n_dots":3.75,"target":"right","response":"left","rt":266.99999999999,"correct":false,"confidence":3},{"trial_n":33,"n_dots":3.85,"target":"right","response":"right","rt":1175,"correct":true,"confidence":1},{"trial_n":34,"n_dots":3.85,"target":"left","response":"left","rt":339,"correct":true,"confidence":4},{"trial_n":35,"n_dots":3.75,"target":"left","response":"left","rt":251,"correct":true,"confidence":4},{"trial_n":36,"n_dots":3.75,"target":"right","response":"right","rt":78,"correct":true,"confidence":4},{"trial_n":37,"n_dots":3.65,"target":"left","response":"left","rt":143,"correct":true,"confidence":4},{"trial_n":38,"n_dots":3.65,"target":"right","response":"right","rt":286,"correct":true,"confidence":4},{"trial_n":39,"n_dots":3.55,"target":"left","response":"left","rt":153.00000000003,"correct":true,"confidence":4},{"trial_n":40,"n_dots":3.55,"target":"right","response":"right","rt":292.00000000003,"correct":true,"confidence":5},{"trial_n":41,"n_dots":3.45,"target":"right","response":"right","rt":146.99999999997,"correct":true,"confidence":5},{"trial_n":42,"n_dots":3.45,"target":"left","response":"right","rt":446.99999999997,"correct":false,"confidence":3},{"trial_n":43,"n_dots":3.55,"target":"left","response":"right","rt":56,"correct":false,"confidence":4},{"trial_n":44,"n_dots":3.65,"target":"left","response":"left","rt":748,"correct":true,"confidence":4},{"trial_n":45,"n_dots":3.65,"target":"right","response":"right","rt":365,"correct":true,"confidence":5},{"trial_n":46,"n_dots":3.55,"target":"left","response":"right","rt":461,"correct":false,"confidence":3},{"trial_n":47,"n_dots":3.65,"target":"right","response":"right","rt":428,"correct":true,"confidence":4},{"trial_n":48,"n_dots":3.65,"target":"right","response":"right","rt":246.00000000003,"correct":true,"confidence":5},{"trial_n":49,"n_dots":3.55,"target":"left","response":"left","rt":289,"correct":true,"confidence":3},{"trial_n":50,"n_dots":3.55,"target":"right","response":"right","rt":608,"correct":true,"confidence":4},{"trial_n":51,"n_dots":3.45,"target":"right","response":"right","rt":606,"correct":true,"confidence":5},{"trial_n":52,"n_dots":3.45,"target":"right","response":"right","rt":1302,"correct":true,"confidence":1},{"trial_n":53,"n_dots":3.35,"target":"left","response":"left","rt":302,"correct":true,"confidence":4},{"trial_n":54,"n_dots":3.35,"target":"left","response":"left","rt":179,"correct":true,"confidence":4},{"trial_n":55,"n_dots":3.25,"target":"right","response":"right","rt":642,"correct":true,"confidence":5},{"trial_n":56,"n_dots":3.25,"target":"left","response":"left","rt":183,"correct":true,"confidence":5},{"trial_n":57,"n_dots":3.15,"target":"right","response":"right","rt":183.99999999997,"correct":true,"confidence":5},{"trial_n":58,"n_dots":3.15,"target":"left","response":"left","rt":203,"correct":true,"confidence":5},{"trial_n":59,"n_dots":3.05,"target":"right","response":"left","rt":385.99999999997,"correct":false,"confidence":4},{"trial_n":60,"n_dots":3.15,"target":"right","response":"right","rt":178.99999999997,"correct":true,"confidence":5},{"trial_n":61,"n_dots":3.15,"target":"left","response":"left","rt":70,"correct":true,"confidence":5},{"trial_n":62,"n_dots":3.05,"target":"right","response":"right","rt":73.000000000058,"correct":true,"confidence":5},{"trial_n":63,"n_dots":3.05,"target":"left","response":"left","rt":116,"correct":true,"confidence":5},{"trial_n":64,"n_dots":2.95,"target":"left","response":"right","rt":639,"correct":false,"confidence":1},{"trial_n":65,"n_dots":3.05,"target":"right","response":"left","rt":91.999999999942,"correct":false,"confidence":1},{"trial_n":66,"n_dots":3.15,"target":"right","response":"right","rt":313,"correct":true,"confidence":4},{"trial_n":67,"n_dots":3.15,"target":"left","response":"left","rt":249,"correct":true,"confidence":4},{"trial_n":68,"n_dots":3.05,"target":"left","response":"left","rt":403,"correct":true,"confidence":4},{"trial_n":69,"n_dots":3.05,"target":"left","response":"right","rt":114.99999999994,"correct":false,"confidence":4},{"trial_n":70,"n_dots":3.15,"target":"left","response":"left","rt":507,"correct":true,"confidence":5},{"trial_n":71,"n_dots":3.15,"target":"left","response":"left","rt":211,"correct":true,"confidence":4},{"trial_n":72,"n_dots":3.05,"target":"left","response":"right","rt":353,"correct":false,"confidence":4},{"trial_n":73,"n_dots":3.15,"target":"left","response":"left","rt":191.99999999994,"correct":true,"confidence":5},{"trial_n":74,"n_dots":3.15,"target":"left","response":"right","rt":116,"correct":false,"confidence":5},{"trial_n":75,"n_dots":3.25,"target":"left","response":"left","rt":4614,"correct":true,"confidence":1},{"trial_n":76,"n_dots":3.25,"target":"right","response":"right","rt":131,"correct":true,"confidence":5},{"trial_n":77,"n_dots":3.15,"target":"right","response":"right","rt":101,"correct":true,"confidence":5},{"trial_n":78,"n_dots":3.15,"target":"left","response":"left","rt":154,"correct":true,"confidence":4},{"trial_n":79,"n_dots":3.05,"target":"right","response":"right","rt":691,"correct":true,"confidence":4},{"trial_n":80,"n_dots":3.05,"target":"right","response":"right","rt":777,"correct":true,"confidence":5},{"trial_n":81,"n_dots":2.95,"target":"left","response":"right","rt":500.99999999988,"correct":false,"confidence":4},{"trial_n":82,"n_dots":3.05,"target":"left","response":"left","rt":846,"correct":true,"confidence":4},{"trial_n":83,"n_dots":3.05,"target":"right","response":"right","rt":497,"correct":true,"confidence":4},{"trial_n":84,"n_dots":2.95,"target":"right","response":"right","rt":191,"correct":true,"confidence":4},{"trial_n":85,"n_dots":2.95,"target":"left","response":"left","rt":187,"correct":true,"confidence":4},{"trial_n":86,"n_dots":2.85,"target":"left","response":"left","rt":306,"correct":true,"confidence":4},{"trial_n":87,"n_dots":2.85,"target":"left","response":"left","rt":668,"correct":true,"confidence":4},{"trial_n":88,"n_dots":2.75,"target":"left","response":"left","rt":146,"correct":true,"confidence":4},{"trial_n":89,"n_dots":2.75,"target":"right","response":"right","rt":570.99999999988,"correct":true,"confidence":4},{"trial_n":90,"n_dots":2.65,"target":"right","response":"right","rt":1298,"correct":true,"confidence":4},{"trial_n":91,"n_dots":2.65,"target":"right","response":"right","rt":289,"correct":true,"confidence":4},{"trial_n":92,"n_dots":2.55,"target":"right","response":"right","rt":507,"correct":true,"confidence":4},{"trial_n":93,"n_dots":2.55,"target":"right","response":"right","rt":538,"correct":true,"confidence":4},{"trial_n":94,"n_dots":2.45,"target":"left","response":"left","rt":466.99999999988,"correct":true,"confidence":3},{"trial_n":95,"n_dots":2.45,"target":"left","response":"right","rt":563.99999999988,"correct":false,"confidence":4},{"trial_n":96,"n_dots":2.55,"target":"right","response":"left","rt":385,"correct":false,"confidence":3},{"trial_n":97,"n_dots":2.65,"target":"right","response":"right","rt":1527,"correct":true,"confidence":5},{"trial_n":98,"n_dots":2.65,"target":"left","response":"right","rt":229,"correct":false,"confidence":4},{"trial_n":99,"n_dots":2.75,"target":"left","response":"left","rt":513,"correct":true,"confidence":1},{"trial_n":100,"n_dots":2.75,"target":"right","response":"right","rt":192.99999999988,"correct":true,"confidence":4},{"trial_n":101,"n_dots":2.65,"target":"right","response":"left","rt":3449,"correct":false,"confidence":2},{"trial_n":102,"n_dots":2.75,"target":"right","response":"right","rt":300,"correct":true,"confidence":4},{"trial_n":103,"n_dots":2.75,"target":"right","response":"right","rt":147,"correct":true,"confidence":5},{"trial_n":104,"n_dots":2.65,"target":"right","response":"right","rt":124,"correct":true,"confidence":4},{"trial_n":105,"n_dots":2.65,"target":"right","response":"right","rt":477,"correct":true,"confidence":4},{"trial_n":106,"n_dots":2.55,"target":"right","response":"left","rt":810,"correct":false,"confidence":4},{"trial_n":107,"n_dots":2.65,"target":"right","response":"right","rt":1257,"correct":true,"confidence":4},{"trial_n":108,"n_dots":2.65,"target":"left","response":"left","rt":270,"correct":true,"confidence":4},{"trial_n":109,"n_dots":2.55,"target":"left","response":"right","rt":758.99999999988,"correct":false,"confidence":4},{"trial_n":110,"n_dots":2.65,"target":"right","response":"left","rt":510,"correct":false,"confidence":5},{"trial_n":111,"n_dots":2.75,"target":"right","response":"right","rt":182.00000000012,"correct":true,"confidence":4},{"trial_n":112,"n_dots":2.75,"target":"left","response":"left","rt":215.99999999988,"correct":true,"confidence":4},{"trial_n":113,"n_dots":2.65,"target":"right","response":"right","rt":133.00000000012,"correct":true,"confidence":4},{"trial_n":114,"n_dots":2.65,"target":"right","response":"right","rt":400,"correct":true,"confidence":5},{"trial_n":115,"n_dots":2.55,"target":"left","response":"left","rt":612,"correct":true,"confidence":5},{"trial_n":116,"n_dots":2.55,"target":"left","response":"left","rt":446,"correct":true,"confidence":5},{"trial_n":117,"n_dots":2.45,"target":"left","response":"left","rt":199.00000000012,"correct":true,"confidence":4},{"trial_n":118,"n_dots":2.45,"target":"right","response":"right","rt":2568,"correct":true,"confidence":4},{"trial_n":119,"n_dots":2.35,"target":"right","response":"right","rt":387.99999999988,"correct":true,"confidence":4},{"trial_n":120,"n_dots":2.35,"target":"right","response":"right","rt":128.00000000012,"correct":true,"confidence":3}]