[{"trial_n":1,"n_dots":4.25,"target":"right","response":"left","rt":3317.7999997139,"correct":false,"confidence":-1},{"trial_n":2,"n_dots":4.25,"target":"right","response":"right","rt":916.90000009537,"correct":true,"confidence":-1},{"trial_n":3,"n_dots":4.25,"target":"left","response":"left","rt":250.19999980927,"correct":true,"confidence":-1},{"trial_n":4,"n_dots":3.85,"target":"right","response":"left","rt":5367.0999999046,"correct":false,"confidence":-1},{"trial_n":5,"n_dots":4.25,"target":"right","response":"left","rt":1268.9000000954,"correct":false,"confidence":-1},{"trial_n":6,"n_dots":4.65,"target":"left","response":"left","rt":133.7999997139,"correct":true,"confidence":-1},{"trial_n":7,"n_dots":4.65,"target":"right","response":"right","rt":2951.5,"correct":true,"confidence":-1},{"trial_n":8,"n_dots":4.45,"target":"left","response":"right","rt":1044.0999999046,"correct":false,"confidence":-1},{"trial_n":9,"n_dots":4.65,"target":"left","response":"left","rt":110.09999990463,"correct":true,"confidence":-1},{"trial_n":10,"n_dots":4.65,"target":"left","response":"left","rt":1586.2000002861,"correct":true,"confidence":-1},{"trial_n":11,"n_dots":4.45,"target":"right","response":"right","rt":443.59999990463,"correct":true,"confidence":-1},{"trial_n":12,"n_dots":4.45,"target":"left","response":"left","rt":209.40000009537,"correct":true,"confidence":-1},{"trial_n":13,"n_dots":4.35,"target":"right","response":"right","rt":155.69999980927,"correct":true,"confidence":-1},{"trial_n":14,"n_dots":4.35,"target":"right","response":"right","rt":624.30000019073,"correct":true,"confidence":-1},{"trial_n":15,"n_dots":4.25,"target":"right","response":"right","rt":167.5,"correct":true,"confidence":-1},{"trial_n":16,"n_dots":4.25,"target":"right","response":"right","rt":429.30000019073,"correct":true,"confidence":-1},{"trial_n":17,"n_dots":4.15,"target":"left","response":"left","rt":355,"correct":true,"confidence":-1},{"trial_n":18,"n_dots":4.15,"target":"left","response":"left","rt":96.300000190735,"correct":true,"confidence":-1},{"trial_n":19,"n_dots":4.05,"target":"left","response":"left","rt":153.19999980927,"correct":true,"confidence":-1},{"trial_n":20,"n_dots":4.05,"target":"left","response":"left","rt":85,"correct":true,"confidence":-1},{"trial_n":21,"n_dots":3.95,"target":"left","response":"left","rt":216.09999990463,"correct":true,"confidence":4},{"trial_n":22,"n_dots":3.95,"target":"right","response":"right","rt":176.69999980927,"correct":true,"confidence":4},{"trial_n":23,"n_dots":3.85,"target":"left","response":"left","rt":284.69999980927,"correct":true,"confidence":4},{"trial_n":24,"n_dots":3.85,"target":"left","response":"left","rt":535.5,"correct":true,"confidence":4},{"trial_n":25,"n_dots":3.75,"target":"right","response":"left","rt":543.5,"correct":false,"confidence":4},{"trial_n":26,"n_dots":3.85,"target":"right","response":"left","rt":76.699999809265,"correct":false,"confidence":4},{"trial_n":27,"n_dots":3.95,"target":"left","response":"left","rt":35,"correct":true,"confidence":4},{"trial_n":28,"n_dots":3.95,"target":"left","response":"left","rt":364.7000002861,"correct":true,"confidence":4},{"trial_n":29,"n_dots":3.85,"target":"right","response":"left","rt":285.09999990463,"correct":false,"confidence":4},{"trial_n":30,"n_dots":3.95,"target":"left","response":"left","rt":108.59999990463,"correct":true,"confidence":4},{"trial_n":31,"n_dots":3.95,"target":"left","response":"left","rt":105.30000019073,"correct":true,"confidence":4},{"trial_n":32,"n_dots":3.85,"target":"right","response":"left","rt":302.80000019073,"correct":false,"confidence":4},{"trial_n":33,"n_dots":3.95,"target":"right","response":"right","rt":857,"correct":true,"confidence":4},{"trial_n":34,"n_dots":3.95,"target":"left","response":"left","rt":455.7000002861,"correct":true,"confidence":4},{"trial_n":35,"n_dots":3.85,"target":"right","response":"right","rt":268.69999980927,"correct":true,"confidence":4},{"trial_n":36,"n_dots":3.85,"target":"left","response":"left","rt":362.2000002861,"correct":true,"confidence":4},{"trial_n":37,"n_dots":3.75,"target":"right","response":"left","rt":390.40000009537,"correct":false,"confidence":4},{"trial_n":38,"n_dots":3.85,"target":"left","response":"right","rt":469.09999990463,"correct":false,"confidence":4},{"trial_n":39,"n_dots":3.95,"target":"left","response":"left","rt":295.19999980927,"correct":true,"confidence":4},{"trial_n":40,"n_dots":3.95,"target":"right","response":"right","rt":137,"correct":true,"confidence":4},{"trial_n":41,"n_dots":3.85,"target":"left","response":"left","rt":959.7999997139,"correct":true,"confidence":4},{"trial_n":42,"n_dots":3.85,"target":"right","response":"right","rt":404.09999990463,"correct":true,"confidence":4},{"trial_n":43,"n_dots":3.75,"target":"right","response":"right","rt":218,"correct":true,"confidence":4},{"trial_n":44,"n_dots":3.75,"target":"right","response":"left","rt":315.69999980927,"correct":false,"confidence":4},{"trial_n":45,"n_dots":3.85,"target":"right","response":"left","rt":303.09999990463,"correct":false,"confidence":4},{"trial_n":46,"n_dots":3.95,"target":"right","response":"right","rt":226,"correct":true,"confidence":4},{"trial_n":47,"n_dots":3.95,"target":"right","response":"right","rt":228.2999997139,"correct":true,"confidence":4},{"trial_n":48,"n_dots":3.85,"target":"right","response":"right","rt":151.89999961853,"correct":true,"confidence":4},{"trial_n":49,"n_dots":3.85,"target":"left","response":"left","rt":436.7000002861,"correct":true,"confidence":4},{"trial_n":50,"n_dots":3.75,"target":"left","response":"left","rt":90.900000095367,"correct":true,"confidence":4},{"trial_n":51,"n_dots":3.75,"target":"right","response":"left","rt":1010.7000002861,"correct":false,"confidence":4},{"trial_n":52,"n_dots":3.85,"target":"right","response":"right","rt":53.60000038147,"correct":true,"confidence":4},{"trial_n":53,"n_dots":3.85,"target":"right","response":"right","rt":169.40000009537,"correct":true,"confidence":4},{"trial_n":54,"n_dots":3.75,"target":"left","response":"left","rt":992.2999997139,"correct":true,"confidence":4},{"trial_n":55,"n_dots":3.75,"target":"left","response":"left","rt":705.40000009537,"correct":true,"confidence":4},{"trial_n":56,"n_dots":3.65,"target":"left","response":"left","rt":387.69999980927,"correct":true,"confidence":4},{"trial_n":57,"n_dots":3.65,"target":"right","response":"right","rt":282.90000009537,"correct":true,"confidence":4},{"trial_n":58,"n_dots":3.55,"target":"left","response":"left","rt":540.7000002861,"correct":true,"confidence":4},{"trial_n":59,"n_dots":3.55,"target":"left","response":"left","rt":373.59999990463,"correct":true,"confidence":4},{"trial_n":60,"n_dots":3.45,"target":"right","response":"left","rt":1196.6999998093,"correct":false,"confidence":4},{"trial_n":61,"n_dots":3.55,"target":"right","response":"left","rt":245.89999961853,"correct":false,"confidence":4},{"trial_n":62,"n_dots":3.65,"target":"left","response":"left","rt":7056.3000001907,"correct":true,"confidence":4},{"trial_n":63,"n_dots":3.65,"target":"right","response":"right","rt":162.40000009537,"correct":true,"confidence":4},{"trial_n":64,"n_dots":3.55,"target":"left","response":"left","rt":953.90000009537,"correct":true,"confidence":4},{"trial_n":65,"n_dots":3.55,"target":"right","response":"left","rt":512.2000002861,"correct":false,"confidence":4},{"trial_n":66,"n_dots":3.65,"target":"left","response":"left","rt":275,"correct":true,"confidence":4},{"trial_n":67,"n_dots":3.65,"target":"right","response":"right","rt":240.19999980927,"correct":true,"confidence":4},{"trial_n":68,"n_dots":3.55,"target":"right","response":"right","rt":508.30000019073,"correct":true,"confidence":4},{"trial_n":69,"n_dots":3.55,"target":"left","response":"left","rt":419.19999980927,"correct":true,"confidence":4},{"trial_n":70,"n_dots":3.45,"target":"left","response":"right","rt":645.2000002861,"correct":false,"confidence":4},{"trial_n":71,"n_dots":3.55,"target":"left","response":"left","rt":465.40000009537,"correct":true,"confidence":4},{"trial_n":72,"n_dots":3.55,"target":"left","response":"left","rt":316.90000009537,"correct":true,"confidence":4},{"trial_n":73,"n_dots":3.45,"target":"left","response":"left","rt":339.40000009537,"correct":true,"confidence":4},{"trial_n":74,"n_dots":3.45,"target":"right","response":"right","rt":297.69999980927,"correct":true,"confidence":4},{"trial_n":75,"n_dots":3.35,"target":"right","response":"right","rt":282.2999997139,"correct":true,"confidence":4},{"trial_n":76,"n_dots":3.35,"target":"left","response":"right","rt":458.19999980927,"correct":false,"confidence":4},{"trial_n":77,"n_dots":3.45,"target":"left","response":"right","rt":708.5,"correct":false,"confidence":4},{"trial_n":78,"n_dots":3.55,"target":"left","response":"left","rt":567.30000019073,"correct":true,"confidence":4},{"trial_n":79,"n_dots":3.55,"target":"right","response":"right","rt":485.5,"correct":true,"confidence":4},{"trial_n":80,"n_dots":3.45,"target":"left","response":"left","rt":452,"correct":true,"confidence":4},{"trial_n":81,"n_dots":3.45,"target":"right","response":"left","rt":246.80000019073,"correct":false,"confidence":4},{"trial_n":82,"n_dots":3.55,"target":"left","response":"right","rt":595,"correct":false,"confidence":4},{"trial_n":83,"n_dots":3.65,"target":"left","response":"left","rt":498.90000009537,"correct":true,"confidence":4},{"trial_n":84,"n_dots":3.65,"target":"right","response":"right","rt":214.59999990463,"correct":true,"confidence":4},{"trial_n":85,"n_dots":3.55,"target":"right","response":"right","rt":1002.5,"correct":true,"confidence":4},{"trial_n":86,"n_dots":3.55,"target":"right","response":"right","rt":117.19999980927,"correct":true,"confidence":4},{"trial_n":87,"n_dots":3.45,"target":"right","response":"right","rt":40.099999904633,"correct":true,"confidence":4},{"trial_n":88,"n_dots":3.45,"target":"right","response":"right","rt":213,"correct":true,"confidence":4},{"trial_n":89,"n_dots":3.35,"target":"right","response":"right","rt":51.39999961853,"correct":true,"confidence":1},{"trial_n":90,"n_dots":3.35,"target":"left","response":"right","rt":35.800000190735,"correct":false,"confidence":1},{"trial_n":91,"n_dots":3.45,"target":"right","response":"right","rt":111.09999990463,"correct":true,"confidence":4},{"trial_n":92,"n_dots":3.45,"target":"left","response":"right","rt":11.599999904633,"correct":false,"confidence":4},{"trial_n":93,"n_dots":3.55,"target":"left","response":"left","rt":443.60000038147,"correct":true,"confidence":4},{"trial_n":94,"n_dots":3.55,"target":"right","response":"right","rt":239.39999961853,"correct":true,"confidence":4},{"trial_n":95,"n_dots":3.45,"target":"left","response":"left","rt":305.7000002861,"correct":true,"confidence":4},{"trial_n":96,"n_dots":3.45,"target":"right","response":"left","rt":881.90000009537,"correct":false,"confidence":4},{"trial_n":97,"n_dots":3.55,"target":"right","response":"right","rt":290.40000009537,"correct":true,"confidence":4},{"trial_n":98,"n_dots":3.55,"target":"left","response":"right","rt":96.799999713898,"correct":false,"confidence":4},{"trial_n":99,"n_dots":3.65,"target":"left","response":"left","rt":427.7000002861,"correct":true,"confidence":4},{"trial_n":100,"n_dots":3.65,"target":"left","response":"left","rt":343.19999980927,"correct":true,"confidence":4},{"trial_n":101,"n_dots":3.55,"target":"left","response":"left","rt":311.40000009537,"correct":true,"confidence":4},{"trial_n":102,"n_dots":3.55,"target":"left","response":"right","rt":123.30000019073,"correct":false,"confidence":4},{"trial_n":103,"n_dots":3.65,"target":"left","response":"right","rt":570.80000019073,"correct":false,"confidence":4},{"trial_n":104,"n_dots":3.75,"target":"right","response":"right","rt":180.7999997139,"correct":true,"confidence":4},{"trial_n":105,"n_dots":3.75,"target":"right","response":"right","rt":1312.2999997139,"correct":true,"confidence":4},{"trial_n":106,"n_dots":3.65,"target":"right","response":"right","rt":905.89999961853,"correct":true,"confidence":4},{"trial_n":107,"n_dots":3.65,"target":"left","response":"left","rt":256.60000038147,"correct":true,"confidence":4},{"trial_n":108,"n_dots":3.55,"target":"left","response":"right","rt":932.19999980927,"correct":false,"confidence":4},{"trial_n":109,"n_dots":3.65,"target":"right","response":"right","rt":913.40000009537,"correct":true,"confidence":4},{"trial_n":110,"n_dots":3.65,"target":"left","response":"right","rt":892.89999961853,"correct":false,"confidence":4},{"trial_n":111,"n_dots":3.75,"target":"right","response":"right","rt":283.19999980927,"correct":true,"confidence":4},{"trial_n":112,"n_dots":3.75,"target":"right","response":"right","rt":153.19999980927,"correct":true,"confidence":4},{"trial_n":113,"n_dots":3.65,"target":"right","response":"right","rt":5.5999999046326,"correct":true,"confidence":4},{"trial_n":114,"n_dots":3.65,"target":"right","response":"right","rt":7.2000002861023,"correct":true,"confidence":4},{"trial_n":115,"n_dots":3.55,"target":"left","response":"right","rt":785.30000019073,"correct":false,"confidence":4},{"trial_n":116,"n_dots":3.65,"target":"right","response":"right","rt":883,"correct":true,"confidence":4},{"trial_n":117,"n_dots":3.65,"target":"right","response":"right","rt":1687.9000000954,"correct":true,"confidence":4},{"trial_n":118,"n_dots":3.55,"target":"left","response":"right","rt":87,"correct":false,"confidence":4},{"trial_n":119,"n_dots":3.65,"target":"left","response":"right","rt":889.5,"correct":false,"confidence":4},{"trial_n":120,"n_dots":3.75,"target":"left","response":"right","rt":163.2999997139,"correct":false,"confidence":4}]