[{"trial_n":1,"span":8,"encoder":"27195773","distractor":"27495773","target":"present","response":"absent","rt":"2530.6999998093","correct":false,"confidence":-1},{"trial_n":2,"span":6,"encoder":"165454","distractor":"765454","target":"present","response":"present","rt":"2564.5999999046","correct":true,"confidence":-1},{"trial_n":3,"span":6,"encoder":"142700","distractor":"112700","target":"absent","response":"present","rt":"2553.9000000954","correct":false,"confidence":-1},{"trial_n":4,"span":4,"encoder":"5461","distractor":"5361","target":"absent","response":"absent","rt":"1540.8000001907","correct":true,"confidence":-1},{"trial_n":5,"span":4,"encoder":"8554","distractor":"8854","target":"present","response":"present","rt":"1316.5","correct":true,"confidence":-1},{"trial_n":6,"span":6,"encoder":"409596","distractor":"409576","target":"present","response":"present","rt":"1122.1999998093","correct":true,"confidence":-1},{"trial_n":7,"span":6,"encoder":"828447","distractor":"828441","target":"absent","response":"absent","rt":"1706.7000002861","correct":true,"confidence":-1},{"trial_n":8,"span":8,"encoder":"39750810","distractor":"39450810","target":"absent","response":"present","rt":"1116.2999997139","correct":false,"confidence":-1},{"trial_n":9,"span":6,"encoder":"339318","distractor":"359318","target":"present","response":"present","rt":"838.40000009537","correct":true,"confidence":-1},{"trial_n":10,"span":6,"encoder":"418226","distractor":"418216","target":"present","response":"present","rt":"695.7999997139","correct":true,"confidence":-1},{"trial_n":11,"span":8,"encoder":"43778690","distractor":"43778790","target":"present","response":"present","rt":"1088.7000002861","correct":true,"confidence":-1},{"trial_n":12,"span":8,"encoder":"91468709","distractor":"91468706","target":"present","response":"present","rt":"1674.0999999046","correct":true,"confidence":-1},{"trial_n":13,"span":9,"encoder":"530469626","distractor":"537469626","target":"absent","response":"present","rt":"758.09999990463","correct":false,"confidence":-1},{"trial_n":14,"span":8,"encoder":"15403088","distractor":"15403008","target":"absent","response":"present","rt":"762.19999980927","correct":false,"confidence":-1},{"trial_n":15,"span":7,"encoder":"9404545","distractor":"9404945","target":"absent","response":"present","rt":"982.59999990463","correct":false,"confidence":-1},{"trial_n":16,"span":6,"encoder":"413061","distractor":"413091","target":"present","response":"present","rt":"859.59999990463","correct":true,"confidence":-1},{"trial_n":17,"span":6,"encoder":"339099","distractor":"339093","target":"absent","response":"present","rt":"626.60000038147","correct":false,"confidence":-1},{"trial_n":18,"span":5,"encoder":"93113","distractor":"93143","target":"absent","response":"present","rt":"734.2000002861","correct":false,"confidence":-1},{"trial_n":19,"span":4,"encoder":"8255","distractor":"8251","target":"present","response":"present","rt":"643.80000019073","correct":true,"confidence":-1},{"trial_n":20,"span":4,"encoder":"8292","distractor":"6292","target":"present","response":"present","rt":"572.40000009537","correct":true,"confidence":-1},{"trial_n":21,"span":5,"encoder":"15383","distractor":"85383","target":"absent","response":"absent","rt":"1400.0999999046","correct":true,"confidence":4},{"trial_n":22,"span":5,"encoder":"04339","distractor":"04331","target":"present","response":"present","rt":"1084.5999999046","correct":true,"confidence":5},{"trial_n":23,"span":6,"encoder":"375689","distractor":"375989","target":"absent","response":"absent","rt":"2048.7000002861","correct":true,"confidence":4},{"trial_n":24,"span":6,"encoder":"023369","distractor":"083369","target":"present","response":"present","rt":"1276.7999997139","correct":true,"confidence":5},{"trial_n":25,"span":7,"encoder":"7473474","distractor":"7673474","target":"present","response":"present","rt":"1077.5","correct":true,"confidence":4},{"trial_n":26,"span":7,"encoder":"0561335","distractor":"0561385","target":"absent","response":"present","rt":"1807.8000001907","correct":false,"confidence":3},{"trial_n":27,"span":6,"encoder":"905410","distractor":"405410","target":"present","response":"present","rt":"1068.0999999046","correct":true,"confidence":4},{"trial_n":28,"span":6,"encoder":"709154","distractor":"769154","target":"absent","response":"absent","rt":"1241.8000001907","correct":true,"confidence":5},{"trial_n":29,"span":7,"encoder":"6264338","distractor":"6264335","target":"absent","response":"absent","rt":"1957.1999998093","correct":true,"confidence":4},{"trial_n":30,"span":7,"encoder":"3192551","distractor":"3192556","target":"absent","response":"absent","rt":"1939","correct":true,"confidence":4},{"trial_n":31,"span":8,"encoder":"08474335","distractor":"08474935","target":"present","response":"present","rt":"2577.5999999046","correct":true,"confidence":4},{"trial_n":32,"span":8,"encoder":"63451161","distractor":"63451151","target":"absent","response":"present","rt":"2505.5","correct":false,"confidence":2},{"trial_n":33,"span":7,"encoder":"8359455","distractor":"6359455","target":"present","response":"present","rt":"1624.8000001907","correct":true,"confidence":3},{"trial_n":34,"span":7,"encoder":"4382216","distractor":"4882216","target":"absent","response":"present","rt":"1345.6000003815","correct":false,"confidence":4},{"trial_n":35,"span":6,"encoder":"958491","distractor":"951491","target":"absent","response":"absent","rt":"2216.9000000954","correct":true,"confidence":3},{"trial_n":36,"span":6,"encoder":"105949","distractor":"105941","target":"present","response":"present","rt":"1094","correct":true,"confidence":4},{"trial_n":37,"span":7,"encoder":"9074051","distractor":"9074751","target":"present","response":"present","rt":"1079.9000000954","correct":true,"confidence":5},{"trial_n":38,"span":7,"encoder":"5490961","distractor":"5470961","target":"absent","response":"present","rt":"1385.6999998093","correct":false,"confidence":4},{"trial_n":39,"span":6,"encoder":"015788","distractor":"115788","target":"present","response":"present","rt":"1023","correct":true,"confidence":4},{"trial_n":40,"span":6,"encoder":"608667","distractor":"658667","target":"absent","response":"absent","rt":"1932.5","correct":true,"confidence":4},{"trial_n":41,"span":7,"encoder":"9232464","distractor":"9132464","target":"present","response":"present","rt":"1178.6000003815","correct":true,"confidence":5},{"trial_n":42,"span":7,"encoder":"3429895","distractor":"3429898","target":"present","response":"present","rt":"1214.7999997139","correct":true,"confidence":4},{"trial_n":43,"span":8,"encoder":"69731439","distractor":"69761439","target":"present","response":"present","rt":"986.90000009537","correct":true,"confidence":4},{"trial_n":44,"span":8,"encoder":"91312756","distractor":"91312656","target":"absent","response":"present","rt":"1066.9000000954","correct":false,"confidence":5},{"trial_n":45,"span":7,"encoder":"2048968","distractor":"2048978","target":"present","response":"present","rt":"1246.2000002861","correct":true,"confidence":3},{"trial_n":46,"span":7,"encoder":"2288501","distractor":"6288501","target":"absent","response":"present","rt":"1376.0999999046","correct":false,"confidence":4},{"trial_n":47,"span":6,"encoder":"906704","distractor":"906784","target":"absent","response":"present","rt":"1112.4000000954","correct":false,"confidence":4},{"trial_n":48,"span":5,"encoder":"65535","distractor":"65735","target":"present","response":"present","rt":"1235.6000003815","correct":true,"confidence":4},{"trial_n":49,"span":5,"encoder":"85466","distractor":"35466","target":"absent","response":"present","rt":"1389.6999998093","correct":false,"confidence":4},{"trial_n":50,"span":4,"encoder":"3773","distractor":"4773","target":"present","response":"present","rt":"1175","correct":true,"confidence":4},{"trial_n":51,"span":4,"encoder":"0124","distractor":"0524","target":"absent","response":"absent","rt":"1774.2000002861","correct":true,"confidence":4},{"trial_n":52,"span":5,"encoder":"88274","distractor":"83274","target":"absent","response":"absent","rt":"5481.5","correct":true,"confidence":3},{"trial_n":53,"span":5,"encoder":"59663","distractor":"69663","target":"absent","response":"present","rt":"2834.0999999046","correct":false,"confidence":2},{"trial_n":54,"span":4,"encoder":"8142","distractor":"0142","target":"present","response":"present","rt":"1191.2999997139","correct":true,"confidence":4},{"trial_n":55,"span":4,"encoder":"4564","distractor":"7564","target":"present","response":"present","rt":"6355.5","correct":true,"confidence":2},{"trial_n":56,"span":5,"encoder":"68184","distractor":"68984","target":"present","response":"present","rt":"903.30000019073","correct":true,"confidence":4},{"trial_n":57,"span":5,"encoder":"14229","distractor":"54229","target":"absent","response":"absent","rt":"1465","correct":true,"confidence":4},{"trial_n":58,"span":6,"encoder":"402989","distractor":"302989","target":"present","response":"present","rt":"1679.5","correct":true,"confidence":4},{"trial_n":59,"span":6,"encoder":"713946","distractor":"715946","target":"absent","response":"present","rt":"1531.9000000954","correct":false,"confidence":4},{"trial_n":60,"span":5,"encoder":"60619","distractor":"60679","target":"present","response":"present","rt":"1027.8000001907","correct":true,"confidence":5},{"trial_n":61,"span":5,"encoder":"53089","distractor":"53084","target":"present","response":"present","rt":"900.19999980927","correct":true,"confidence":5},{"trial_n":62,"span":6,"encoder":"425092","distractor":"425032","target":"absent","response":"absent","rt":"1663.3999996185","correct":true,"confidence":3},{"trial_n":63,"span":6,"encoder":"612986","distractor":"212986","target":"present","response":"present","rt":"1113.4000000954","correct":true,"confidence":4},{"trial_n":64,"span":7,"encoder":"8098165","distractor":"8091165","target":"absent","response":"absent","rt":"2137.5","correct":true,"confidence":2},{"trial_n":65,"span":7,"encoder":"6446831","distractor":"6416831","target":"absent","response":"present","rt":"1299.4000000954","correct":false,"confidence":4},{"trial_n":66,"span":6,"encoder":"842519","distractor":"849519","target":"present","response":"present","rt":"950.40000009537","correct":true,"confidence":4},{"trial_n":67,"span":6,"encoder":"012833","distractor":"612833","target":"absent","response":"present","rt":"1400.7999997139","correct":false,"confidence":4},{"trial_n":68,"span":5,"encoder":"20940","distractor":"20040","target":"present","response":"present","rt":"1132","correct":true,"confidence":4},{"trial_n":69,"span":5,"encoder":"39833","distractor":"39836","target":"present","response":"present","rt":"1263.2000002861","correct":true,"confidence":4},{"trial_n":70,"span":6,"encoder":"626443","distractor":"626843","target":"absent","response":"present","rt":"1485.8000001907","correct":false,"confidence":4},{"trial_n":71,"span":8,"encoder":"59356128","distractor":"59353128","target":"present","response":"absent","rt":"2811.4000000954","correct":false,"confidence":-1},{"trial_n":72,"span":7,"encoder":"7136709","distractor":"7136708","target":"present","response":"present","rt":"2231.9000000954","correct":true,"confidence":-1},{"trial_n":73,"span":7,"encoder":"9891056","distractor":"9891656","target":"absent","response":"absent","rt":"2329.0999999046","correct":true,"confidence":-1},{"trial_n":74,"span":8,"encoder":"77003637","distractor":"70003637","target":"absent","response":"absent","rt":"2418.7999997139","correct":true,"confidence":-1},{"trial_n":75,"span":8,"encoder":"07537296","distractor":"07537216","target":"present","response":"present","rt":"3013.6999998093","correct":true,"confidence":-1},{"trial_n":76,"span":9,"encoder":"254773212","distractor":"254713212","target":"absent","response":"absent","rt":"1660.5","correct":true,"confidence":-1},{"trial_n":77,"span":9,"encoder":"541545715","distractor":"541547715","target":"present","response":"present","rt":"1897.5999999046","correct":true,"confidence":-1},{"trial_n":78,"span":10,"encoder":"7180897850","distractor":"7180897851","target":"absent","response":"absent","rt":"1200","correct":true,"confidence":-1},{"trial_n":79,"span":10,"encoder":"6056226775","distractor":"6059226775","target":"present","response":"present","rt":"3695","correct":true,"confidence":-1},{"trial_n":80,"span":11,"encoder":"52859903038","distractor":"57859903038","target":"absent","response":"present","rt":"1154.4000000954","correct":false,"confidence":-1},{"trial_n":81,"span":10,"encoder":"8467514472","distractor":"8467514412","target":"present","response":"present","rt":"3854.9000000954","correct":true,"confidence":-1},{"trial_n":82,"span":10,"encoder":"1707934600","distractor":"1707934604","target":"absent","response":"present","rt":"1447.9000000954","correct":false,"confidence":-1},{"trial_n":83,"span":9,"encoder":"639600670","distractor":"639605670","target":"present","response":"absent","rt":"1237.6999998093","correct":false,"confidence":-1},{"trial_n":84,"span":8,"encoder":"90699120","distractor":"90099120","target":"present","response":"present","rt":"1519.5","correct":true,"confidence":-1},{"trial_n":85,"span":8,"encoder":"00354963","distractor":"00374963","target":"present","response":"present","rt":"1162.4000000954","correct":true,"confidence":-1},{"trial_n":86,"span":9,"encoder":"105534548","distractor":"405534548","target":"absent","response":"absent","rt":"1796.0999999046","correct":true,"confidence":-1},{"trial_n":87,"span":9,"encoder":"007426827","distractor":"077426827","target":"present","response":"absent","rt":"1105.3000001907","correct":false,"confidence":-1},{"trial_n":88,"span":8,"encoder":"90826977","distractor":"10826977","target":"present","response":"present","rt":"1787.6000003815","correct":true,"confidence":-1},{"trial_n":89,"span":8,"encoder":"00754513","distractor":"40754513","target":"present","response":"absent","rt":"2257.9000000954","correct":false,"confidence":-1},{"trial_n":90,"span":7,"encoder":"8968853","distractor":"8968253","target":"present","response":"present","rt":"1046.8000001907","correct":true,"confidence":-1},{"trial_n":91,"span":7,"encoder":"7766002","distractor":"7266002","target":"present","response":"absent","rt":"2484.0999999046","correct":false,"confidence":3},{"trial_n":92,"span":6,"encoder":"363257","distractor":"563257","target":"absent","response":"absent","rt":"1233.6999998093","correct":true,"confidence":5},{"trial_n":93,"span":6,"encoder":"720204","distractor":"728204","target":"absent","response":"absent","rt":"1332.0999999046","correct":true,"confidence":5},{"trial_n":94,"span":7,"encoder":"1616135","distractor":"1617135","target":"absent","response":"absent","rt":"1416.0999999046","correct":true,"confidence":4},{"trial_n":95,"span":7,"encoder":"9047941","distractor":"8047941","target":"present","response":"present","rt":"1716.4000000954","correct":true,"confidence":4},{"trial_n":96,"span":8,"encoder":"40927088","distractor":"40947088","target":"present","response":"absent","rt":"1149.5","correct":false,"confidence":4},{"trial_n":97,"span":7,"encoder":"3234098","distractor":"0234098","target":"absent","response":"present","rt":"1615.2999997139","correct":false,"confidence":4},{"trial_n":98,"span":6,"encoder":"415432","distractor":"415402","target":"absent","response":"absent","rt":"1253.7999997139","correct":true,"confidence":4},{"trial_n":99,"span":6,"encoder":"418971","distractor":"418571","target":"present","response":"present","rt":"2509","correct":true,"confidence":4},{"trial_n":100,"span":7,"encoder":"0343855","distractor":"0443855","target":"absent","response":"absent","rt":"1354","correct":true,"confidence":3},{"trial_n":101,"span":7,"encoder":"3543129","distractor":"8543129","target":"absent","response":"absent","rt":"1261","correct":true,"confidence":5},{"trial_n":102,"span":8,"encoder":"69694350","distractor":"64694350","target":"present","response":"present","rt":"1489.0999999046","correct":true,"confidence":4},{"trial_n":103,"span":8,"encoder":"15672732","distractor":"15672730","target":"absent","response":"absent","rt":"2613.6999998093","correct":true,"confidence":4},{"trial_n":104,"span":9,"encoder":"538674455","distractor":"538677455","target":"absent","response":"absent","rt":"2567.2000002861","correct":true,"confidence":4},{"trial_n":105,"span":9,"encoder":"019210759","distractor":"019250759","target":"absent","response":"absent","rt":"2679.1999998093","correct":true,"confidence":4},{"trial_n":106,"span":10,"encoder":"0242291204","distractor":"0242291207","target":"present","response":"present","rt":"3064.4000000954","correct":true,"confidence":3},{"trial_n":107,"span":10,"encoder":"4523979101","distractor":"4923979101","target":"present","response":"absent","rt":"2268.1999998093","correct":false,"confidence":3},{"trial_n":108,"span":9,"encoder":"432651818","distractor":"432651819","target":"absent","response":"present","rt":"2489","correct":false,"confidence":3},{"trial_n":109,"span":8,"encoder":"69577727","distractor":"69527727","target":"absent","response":"absent","rt":"3288.4000000954","correct":true,"confidence":3},{"trial_n":110,"span":8,"encoder":"72193113","distractor":"12193113","target":"present","response":"present","rt":"2422.6999998093","correct":true,"confidence":4},{"trial_n":111,"span":9,"encoder":"283062127","distractor":"283022127","target":"absent","response":"absent","rt":"5812.4000000954","correct":true,"confidence":5},{"trial_n":112,"span":9,"encoder":"285651505","distractor":"285651515","target":"present","response":"present","rt":"2018.5999999046","correct":true,"confidence":4},{"trial_n":113,"span":10,"encoder":"3439773152","distractor":"3439373152","target":"present","response":"present","rt":"2422.0999999046","correct":true,"confidence":4},{"trial_n":114,"span":10,"encoder":"7201684446","distractor":"7201684447","target":"absent","response":"present","rt":"3618.5","correct":false,"confidence":3},{"trial_n":115,"span":9,"encoder":"057975823","distractor":"057975223","target":"present","response":"present","rt":"2375","correct":true,"confidence":4},{"trial_n":116,"span":9,"encoder":"743536356","distractor":"713536356","target":"absent","response":"absent","rt":"3322.6999998093","correct":true,"confidence":4},{"trial_n":117,"span":10,"encoder":"4937866034","distractor":"4937266034","target":"present","response":"absent","rt":"2725.1999998093","correct":false,"confidence":4},{"trial_n":118,"span":9,"encoder":"943710052","distractor":"943710952","target":"absent","response":"absent","rt":"3119.6999998093","correct":true,"confidence":4},{"trial_n":119,"span":9,"encoder":"094917490","distractor":"094917460","target":"present","response":"present","rt":"2825.9000000954","correct":true,"confidence":5},{"trial_n":120,"span":10,"encoder":"6323708467","distractor":"6373708467","target":"present","response":"absent","rt":"2571","correct":false,"confidence":4},{"trial_n":121,"span":9,"encoder":"710146093","distractor":"710146023","target":"present","response":"absent","rt":"2630.6000003815","correct":false,"confidence":4},{"trial_n":122,"span":8,"encoder":"68706556","distractor":"68706756","target":"present","response":"absent","rt":"1771.5999999046","correct":false,"confidence":4},{"trial_n":123,"span":7,"encoder":"4989458","distractor":"4989488","target":"absent","response":"absent","rt":"2649.5","correct":true,"confidence":4},{"trial_n":124,"span":7,"encoder":"8579860","distractor":"8779860","target":"present","response":"present","rt":"2611.6999998093","correct":true,"confidence":5},{"trial_n":125,"span":8,"encoder":"03655638","distractor":"03655438","target":"absent","response":"absent","rt":"1358.4000000954","correct":true,"confidence":5},{"trial_n":126,"span":8,"encoder":"30444717","distractor":"30544717","target":"absent","response":"present","rt":"2345.1000003815","correct":false,"confidence":4},{"trial_n":127,"span":7,"encoder":"7406935","distractor":"7006935","target":"absent","response":"absent","rt":"1644.2000002861","correct":true,"confidence":4},{"trial_n":128,"span":7,"encoder":"1076503","distractor":"1076504","target":"present","response":"present","rt":"2575.8000001907","correct":true,"confidence":4},{"trial_n":129,"span":8,"encoder":"68019517","distractor":"28019517","target":"absent","response":"absent","rt":"2039.4000000954","correct":true,"confidence":4},{"trial_n":130,"span":8,"encoder":"47735054","distractor":"47735954","target":"absent","response":"absent","rt":"2312.3000001907","correct":true,"confidence":5},{"trial_n":131,"span":9,"encoder":"523753250","distractor":"523753850","target":"present","response":"present","rt":"5022.5999999046","correct":true,"confidence":4},{"trial_n":132,"span":9,"encoder":"575900200","distractor":"575900400","target":"absent","response":"absent","rt":"2382.8999996185","correct":true,"confidence":4},{"trial_n":133,"span":10,"encoder":"4555365849","distractor":"4555365848","target":"absent","response":"absent","rt":"1719.3999996185","correct":true,"confidence":5},{"trial_n":134,"span":10,"encoder":"0264961080","distractor":"0864961080","target":"present","response":"absent","rt":"1732.7999997139","correct":false,"confidence":4},{"trial_n":135,"span":9,"encoder":"125947036","distractor":"125977036","target":"absent","response":"absent","rt":"1720.7999997139","correct":true,"confidence":4},{"trial_n":136,"span":9,"encoder":"013310952","distractor":"015310952","target":"absent","response":"present","rt":"2768.0999999046","correct":false,"confidence":4},{"trial_n":137,"span":8,"encoder":"55505909","distractor":"35505909","target":"present","response":"present","rt":"2684.9000000954","correct":true,"confidence":4},{"trial_n":138,"span":8,"encoder":"77699886","distractor":"77699836","target":"absent","response":"absent","rt":"2312.9000000954","correct":true,"confidence":4},{"trial_n":139,"span":9,"encoder":"556731116","distractor":"516731116","target":"present","response":"present","rt":"2111.6999998093","correct":true,"confidence":4},{"trial_n":140,"span":9,"encoder":"719226835","distractor":"719226895","target":"present","response":"absent","rt":"2147","correct":false,"confidence":3}]