[{"trial_n":1,"min":25,"max":230,"target":"present","response":"present","rt":8571.8999998569,"correct":true,"confidence":-1},{"trial_n":2,"min":25,"max":230,"target":"present","response":"present","rt":1076.8999998569,"correct":true,"confidence":-1},{"trial_n":3,"min":41,"max":214,"target":"absent","response":"absent","rt":1136.5999999046,"correct":true,"confidence":-1},{"trial_n":4,"min":41,"max":214,"target":"absent","response":"absent","rt":974.29999995232,"correct":true,"confidence":-1},{"trial_n":5,"min":57,"max":198,"target":"present","response":"present","rt":826.59999990463,"correct":true,"confidence":-1},{"trial_n":6,"min":57,"max":198,"target":"present","response":"present","rt":813.10000014305,"correct":true,"confidence":-1},{"trial_n":7,"min":73,"max":182,"target":"present","response":"absent","rt":1000.0999999046,"correct":false,"confidence":-1},{"trial_n":8,"min":57,"max":198,"target":"absent","response":"present","rt":1118.8999998569,"correct":false,"confidence":-1},{"trial_n":9,"min":41,"max":214,"target":"present","response":"present","rt":599.29999995232,"correct":true,"confidence":-1},{"trial_n":10,"min":41,"max":214,"target":"absent","response":"absent","rt":685.5,"correct":true,"confidence":-1},{"trial_n":11,"min":49,"max":206,"target":"present","response":"present","rt":496.19999980927,"correct":true,"confidence":-1},{"trial_n":12,"min":49,"max":206,"target":"absent","response":"absent","rt":519.09999990463,"correct":true,"confidence":-1},{"trial_n":13,"min":57,"max":198,"target":"present","response":"present","rt":694.60000014305,"correct":true,"confidence":-1},{"trial_n":14,"min":57,"max":198,"target":"present","response":"present","rt":657.10000014305,"correct":true,"confidence":-1},{"trial_n":15,"min":65,"max":190,"target":"absent","response":"absent","rt":850.5,"correct":true,"confidence":-1},{"trial_n":16,"min":65,"max":190,"target":"present","response":"present","rt":574.10000014305,"correct":true,"confidence":-1},{"trial_n":17,"min":73,"max":182,"target":"present","response":"present","rt":517.20000004768,"correct":true,"confidence":-1},{"trial_n":18,"min":73,"max":182,"target":"absent","response":"absent","rt":616.40000009537,"correct":true,"confidence":-1},{"trial_n":19,"min":81,"max":174,"target":"present","response":"absent","rt":593.5,"correct":false,"confidence":-1},{"trial_n":20,"min":73,"max":182,"target":"present","response":"present","rt":583.89999985695,"correct":true,"confidence":-1},{"trial_n":21,"min":73,"max":182,"target":"absent","response":"absent","rt":1031.5,"correct":true,"confidence":3},{"trial_n":22,"min":77,"max":178,"target":"present","response":"absent","rt":1074.0999999046,"correct":false,"confidence":3},{"trial_n":23,"min":73,"max":182,"target":"present","response":"present","rt":913,"correct":true,"confidence":4},{"trial_n":24,"min":73,"max":182,"target":"present","response":"present","rt":736.5,"correct":true,"confidence":4},{"trial_n":25,"min":77,"max":178,"target":"absent","response":"absent","rt":1181.5,"correct":true,"confidence":3},{"trial_n":26,"min":77,"max":178,"target":"absent","response":"absent","rt":711.5,"correct":true,"confidence":3},{"trial_n":27,"min":81,"max":174,"target":"absent","response":"absent","rt":873.79999995232,"correct":true,"confidence":3},{"trial_n":28,"min":81,"max":174,"target":"absent","response":"absent","rt":1036.5,"correct":true,"confidence":3},{"trial_n":29,"min":85,"max":170,"target":"present","response":"present","rt":2996.7000000477,"correct":true,"confidence":2},{"trial_n":30,"min":85,"max":170,"target":"absent","response":"present","rt":1447.7999999523,"correct":false,"confidence":2},{"trial_n":31,"min":83,"max":172,"target":"absent","response":"absent","rt":798.20000004768,"correct":true,"confidence":3},{"trial_n":32,"min":83,"max":172,"target":"present","response":"present","rt":654.79999995232,"correct":true,"confidence":4},{"trial_n":33,"min":85,"max":170,"target":"present","response":"present","rt":801.79999995232,"correct":true,"confidence":3},{"trial_n":34,"min":85,"max":170,"target":"absent","response":"absent","rt":1049.4000000954,"correct":true,"confidence":3},{"trial_n":35,"min":87,"max":168,"target":"present","response":"present","rt":1136.1000001431,"correct":true,"confidence":4},{"trial_n":36,"min":87,"max":168,"target":"absent","response":"absent","rt":1720.5,"correct":true,"confidence":3},{"trial_n":37,"min":89,"max":166,"target":"absent","response":"present","rt":1217.7999999523,"correct":false,"confidence":3},{"trial_n":38,"min":87,"max":168,"target":"present","response":"present","rt":750.5,"correct":true,"confidence":3},{"trial_n":39,"min":87,"max":168,"target":"present","response":"present","rt":626.40000009537,"correct":true,"confidence":3},{"trial_n":40,"min":89,"max":166,"target":"absent","response":"absent","rt":732.90000009537,"correct":true,"confidence":4},{"trial_n":41,"min":89,"max":166,"target":"present","response":"absent","rt":1593.1999998093,"correct":false,"confidence":2},{"trial_n":42,"min":88,"max":167,"target":"present","response":"present","rt":950.30000019073,"correct":true,"confidence":3},{"trial_n":43,"min":88,"max":167,"target":"present","response":"present","rt":1069.8999998569,"correct":true,"confidence":3},{"trial_n":44,"min":89,"max":166,"target":"present","response":"present","rt":705.29999995232,"correct":true,"confidence":3},{"trial_n":45,"min":89,"max":166,"target":"absent","response":"absent","rt":1037.2999999523,"correct":true,"confidence":3},{"trial_n":46,"min":90,"max":165,"target":"absent","response":"absent","rt":753.79999995232,"correct":true,"confidence":3},{"trial_n":47,"min":90,"max":165,"target":"present","response":"absent","rt":808.40000009537,"correct":false,"confidence":3},{"trial_n":48,"min":89,"max":166,"target":"absent","response":"absent","rt":759.79999995232,"correct":true,"confidence":3},{"trial_n":49,"min":89,"max":166,"target":"absent","response":"absent","rt":574.29999995232,"correct":true,"confidence":2},{"trial_n":50,"min":90,"max":165,"target":"absent","response":"absent","rt":1386.4000000954,"correct":true,"confidence":2},{"trial_n":51,"min":90,"max":165,"target":"absent","response":"absent","rt":1782.9000000954,"correct":true,"confidence":1},{"trial_n":52,"min":91,"max":164,"target":"present","response":"absent","rt":1217.5999999046,"correct":false,"confidence":2},{"trial_n":53,"min":90,"max":165,"target":"absent","response":"absent","rt":561.60000014305,"correct":true,"confidence":3},{"trial_n":54,"min":90,"max":165,"target":"present","response":"present","rt":1014.8999998569,"correct":true,"confidence":3},{"trial_n":55,"min":91,"max":164,"target":"present","response":"absent","rt":723.60000014305,"correct":false,"confidence":3},{"trial_n":56,"min":90,"max":165,"target":"absent","response":"present","rt":1266.3999998569,"correct":false,"confidence":3},{"trial_n":57,"min":89,"max":166,"target":"present","response":"present","rt":1232.7000000477,"correct":true,"confidence":2},{"trial_n":58,"min":89,"max":166,"target":"present","response":"present","rt":689.60000014305,"correct":true,"confidence":2},{"trial_n":59,"min":90,"max":165,"target":"absent","response":"present","rt":1410.6999998093,"correct":false,"confidence":3},{"trial_n":60,"min":89,"max":166,"target":"absent","response":"absent","rt":969.70000004768,"correct":true,"confidence":1},{"trial_n":61,"min":89,"max":166,"target":"absent","response":"absent","rt":764.29999995232,"correct":true,"confidence":3},{"trial_n":62,"min":90,"max":165,"target":"absent","response":"present","rt":1156.6000001431,"correct":false,"confidence":2},{"trial_n":63,"min":89,"max":166,"target":"present","response":"present","rt":2799.6999998093,"correct":true,"confidence":3},{"trial_n":64,"min":89,"max":166,"target":"present","response":"present","rt":915.79999995232,"correct":true,"confidence":3},{"trial_n":65,"min":90,"max":165,"target":"absent","response":"present","rt":784.70000004768,"correct":false,"confidence":3},{"trial_n":66,"min":89,"max":166,"target":"absent","response":"present","rt":671.29999995232,"correct":false,"confidence":3},{"trial_n":67,"min":88,"max":167,"target":"present","response":"present","rt":782.70000004768,"correct":true,"confidence":4},{"trial_n":68,"min":88,"max":167,"target":"absent","response":"absent","rt":957.09999990463,"correct":true,"confidence":3},{"trial_n":69,"min":89,"max":166,"target":"present","response":"absent","rt":777.5,"correct":false,"confidence":3},{"trial_n":70,"min":88,"max":167,"target":"absent","response":"present","rt":1164.2999999523,"correct":false,"confidence":2},{"trial_n":71,"min":41,"max":214,"target":"present","response":"present","rt":9027.2999999523,"correct":true,"confidence":-1},{"trial_n":72,"min":41,"max":214,"target":"present","response":"present","rt":1324.1000001431,"correct":true,"confidence":-1},{"trial_n":73,"min":57,"max":198,"target":"absent","response":"absent","rt":750.20000004768,"correct":true,"confidence":-1},{"trial_n":74,"min":57,"max":198,"target":"absent","response":"absent","rt":655.59999990463,"correct":true,"confidence":-1},{"trial_n":75,"min":73,"max":182,"target":"present","response":"absent","rt":340.39999985695,"correct":false,"confidence":-1},{"trial_n":76,"min":57,"max":198,"target":"absent","response":"absent","rt":577.40000009537,"correct":true,"confidence":-1},{"trial_n":77,"min":57,"max":198,"target":"present","response":"present","rt":285.89999985695,"correct":true,"confidence":-1},{"trial_n":78,"min":73,"max":182,"target":"absent","response":"absent","rt":924.20000004768,"correct":true,"confidence":-1},{"trial_n":79,"min":73,"max":182,"target":"present","response":"present","rt":804.10000014305,"correct":true,"confidence":-1},{"trial_n":80,"min":89,"max":166,"target":"present","response":"present","rt":548.70000004768,"correct":true,"confidence":-1},{"trial_n":81,"min":89,"max":166,"target":"present","response":"absent","rt":201.59999990463,"correct":false,"confidence":-1},{"trial_n":82,"min":81,"max":174,"target":"absent","response":"absent","rt":1250.4000000954,"correct":true,"confidence":-1},{"trial_n":83,"min":81,"max":174,"target":"absent","response":"absent","rt":809.39999985695,"correct":true,"confidence":-1},{"trial_n":84,"min":89,"max":166,"target":"present","response":"present","rt":369.19999980927,"correct":true,"confidence":-1},{"trial_n":85,"min":89,"max":166,"target":"absent","response":"absent","rt":898.5,"correct":true,"confidence":-1},{"trial_n":86,"min":97,"max":158,"target":"present","response":"present","rt":900.5,"correct":true,"confidence":-1},{"trial_n":87,"min":97,"max":158,"target":"present","response":"present","rt":259.39999985695,"correct":true,"confidence":-1},{"trial_n":88,"min":105,"max":150,"target":"present","response":"absent","rt":955.60000014305,"correct":false,"confidence":-1},{"trial_n":89,"min":97,"max":158,"target":"absent","response":"present","rt":1099.3999998569,"correct":false,"confidence":-1},{"trial_n":90,"min":89,"max":166,"target":"absent","response":"absent","rt":741.39999985695,"correct":true,"confidence":-1},{"trial_n":91,"min":89,"max":166,"target":"absent","response":"present","rt":594.09999990463,"correct":false,"confidence":2},{"trial_n":92,"min":85,"max":170,"target":"absent","response":"present","rt":2012.5999999046,"correct":false,"confidence":1},{"trial_n":93,"min":81,"max":174,"target":"absent","response":"absent","rt":1710.5,"correct":true,"confidence":2},{"trial_n":94,"min":81,"max":174,"target":"absent","response":"absent","rt":1297.7999999523,"correct":true,"confidence":2},{"trial_n":95,"min":85,"max":170,"target":"absent","response":"absent","rt":1584.2999999523,"correct":true,"confidence":2},{"trial_n":96,"min":85,"max":170,"target":"present","response":"present","rt":633.29999995232,"correct":true,"confidence":2},{"trial_n":97,"min":89,"max":166,"target":"present","response":"absent","rt":1196.5,"correct":false,"confidence":2},{"trial_n":98,"min":85,"max":170,"target":"absent","response":"present","rt":1090.0999999046,"correct":false,"confidence":2},{"trial_n":99,"min":81,"max":174,"target":"present","response":"present","rt":419.5,"correct":true,"confidence":2},{"trial_n":100,"min":81,"max":174,"target":"present","response":"present","rt":349.10000014305,"correct":true,"confidence":3},{"trial_n":101,"min":83,"max":172,"target":"absent","response":"present","rt":708.10000014305,"correct":false,"confidence":1},{"trial_n":102,"min":81,"max":174,"target":"present","response":"present","rt":655.89999985695,"correct":true,"confidence":2},{"trial_n":103,"min":81,"max":174,"target":"absent","response":"present","rt":795.09999990463,"correct":false,"confidence":2},{"trial_n":104,"min":79,"max":176,"target":"absent","response":"absent","rt":723.40000009537,"correct":true,"confidence":2},{"trial_n":105,"min":79,"max":176,"target":"absent","response":"absent","rt":1359.2999999523,"correct":true,"confidence":2},{"trial_n":106,"min":81,"max":174,"target":"present","response":"present","rt":847.79999995232,"correct":true,"confidence":2},{"trial_n":107,"min":81,"max":174,"target":"present","response":"present","rt":396.69999980927,"correct":true,"confidence":2},{"trial_n":108,"min":83,"max":172,"target":"absent","response":"absent","rt":920.39999985695,"correct":true,"confidence":3},{"trial_n":109,"min":83,"max":172,"target":"present","response":"present","rt":332.29999995232,"correct":true,"confidence":2},{"trial_n":110,"min":85,"max":170,"target":"present","response":"absent","rt":1109.2000000477,"correct":false,"confidence":2},{"trial_n":111,"min":84,"max":171,"target":"present","response":"present","rt":505,"correct":true,"confidence":2},{"trial_n":112,"min":84,"max":171,"target":"absent","response":"present","rt":637.79999995232,"correct":false,"confidence":2},{"trial_n":113,"min":83,"max":172,"target":"present","response":"present","rt":516.29999995232,"correct":true,"confidence":3},{"trial_n":114,"min":83,"max":172,"target":"absent","response":"absent","rt":974.39999985695,"correct":true,"confidence":2},{"trial_n":115,"min":84,"max":171,"target":"present","response":"present","rt":246.29999995232,"correct":true,"confidence":2},{"trial_n":116,"min":84,"max":171,"target":"present","response":"present","rt":297,"correct":true,"confidence":4},{"trial_n":117,"min":85,"max":170,"target":"present","response":"present","rt":450.5,"correct":true,"confidence":3},{"trial_n":118,"min":85,"max":170,"target":"absent","response":"present","rt":642.59999990463,"correct":false,"confidence":1},{"trial_n":119,"min":84,"max":171,"target":"present","response":"present","rt":398.59999990463,"correct":true,"confidence":3},{"trial_n":120,"min":84,"max":171,"target":"present","response":"present","rt":542.19999980927,"correct":true,"confidence":4},{"trial_n":121,"min":85,"max":170,"target":"absent","response":"present","rt":205.29999995232,"correct":false,"confidence":2},{"trial_n":122,"min":84,"max":171,"target":"present","response":"present","rt":634.89999985695,"correct":true,"confidence":2},{"trial_n":123,"min":84,"max":171,"target":"absent","response":"absent","rt":724.20000004768,"correct":true,"confidence":2},{"trial_n":124,"min":85,"max":170,"target":"absent","response":"absent","rt":1724.3999998569,"correct":true,"confidence":2},{"trial_n":125,"min":85,"max":170,"target":"present","response":"present","rt":1650,"correct":true,"confidence":3},{"trial_n":126,"min":86,"max":169,"target":"present","response":"present","rt":334.40000009537,"correct":true,"confidence":3},{"trial_n":127,"min":86,"max":169,"target":"absent","response":"absent","rt":1686.5,"correct":true,"confidence":3},{"trial_n":128,"min":87,"max":168,"target":"present","response":"present","rt":486,"correct":true,"confidence":2},{"trial_n":129,"min":87,"max":168,"target":"absent","response":"absent","rt":1204.2000000477,"correct":true,"confidence":2},{"trial_n":130,"min":88,"max":167,"target":"absent","response":"absent","rt":574.39999985695,"correct":true,"confidence":2},{"trial_n":131,"min":88,"max":167,"target":"absent","response":"present","rt":645.89999985695,"correct":false,"confidence":2},{"trial_n":132,"min":87,"max":168,"target":"present","response":"present","rt":70.700000047684,"correct":true,"confidence":2},{"trial_n":133,"min":87,"max":168,"target":"absent","response":"absent","rt":1226.5,"correct":true,"confidence":2},{"trial_n":134,"min":88,"max":167,"target":"present","response":"present","rt":448.09999990463,"correct":true,"confidence":2},{"trial_n":135,"min":88,"max":167,"target":"present","response":"present","rt":1659.3999998569,"correct":true,"confidence":2},{"trial_n":136,"min":89,"max":166,"target":"present","response":"present","rt":812.69999980927,"correct":true,"confidence":2},{"trial_n":137,"min":89,"max":166,"target":"absent","response":"absent","rt":1177.5,"correct":true,"confidence":1},{"trial_n":138,"min":90,"max":165,"target":"absent","response":"absent","rt":827.20000004768,"correct":true,"confidence":1},{"trial_n":139,"min":90,"max":165,"target":"absent","response":"present","rt":899.5,"correct":false,"confidence":1},{"trial_n":140,"min":89,"max":166,"target":"present","response":"present","rt":756,"correct":true,"confidence":2}]