[{"trial_n":1,"n_dots":4.25,"target":"right","response":"left","rt":3820.5,"correct":false,"confidence":-1},{"trial_n":2,"n_dots":4.25,"target":"left","response":"left","rt":820.20000004768,"correct":true,"confidence":-1},{"trial_n":3,"n_dots":4.25,"target":"left","response":"left","rt":568.29999995232,"correct":true,"confidence":-1},{"trial_n":4,"n_dots":3.85,"target":"right","response":"right","rt":782,"correct":true,"confidence":-1},{"trial_n":5,"n_dots":3.85,"target":"right","response":"right","rt":633.40000009537,"correct":true,"confidence":-1},{"trial_n":6,"n_dots":3.45,"target":"right","response":"left","rt":753.90000009537,"correct":false,"confidence":-1},{"trial_n":7,"n_dots":3.85,"target":"left","response":"left","rt":321.79999995232,"correct":true,"confidence":-1},{"trial_n":8,"n_dots":3.85,"target":"right","response":"right","rt":957.40000009537,"correct":true,"confidence":-1},{"trial_n":9,"n_dots":3.65,"target":"left","response":"right","rt":841.39999985695,"correct":false,"confidence":-1},{"trial_n":10,"n_dots":3.85,"target":"left","response":"left","rt":314.29999995232,"correct":true,"confidence":-1},{"trial_n":11,"n_dots":3.85,"target":"left","response":"left","rt":47.399999856949,"correct":true,"confidence":-1},{"trial_n":12,"n_dots":3.65,"target":"right","response":"left","rt":55.799999952316,"correct":false,"confidence":-1},{"trial_n":13,"n_dots":3.75,"target":"left","response":"right","rt":848.20000004768,"correct":false,"confidence":-1},{"trial_n":14,"n_dots":3.85,"target":"right","response":"right","rt":833.5,"correct":true,"confidence":-1},{"trial_n":15,"n_dots":3.85,"target":"right","response":"right","rt":230.89999985695,"correct":true,"confidence":-1},{"trial_n":16,"n_dots":3.75,"target":"right","response":"right","rt":228.59999990463,"correct":true,"confidence":-1},{"trial_n":17,"n_dots":3.75,"target":"left","response":"left","rt":101.29999995232,"correct":true,"confidence":-1},{"trial_n":18,"n_dots":3.65,"target":"left","response":"left","rt":384.90000009537,"correct":true,"confidence":-1},{"trial_n":19,"n_dots":3.65,"target":"left","response":"left","rt":1278.0999999046,"correct":true,"confidence":-1},{"trial_n":20,"n_dots":3.55,"target":"right","response":"right","rt":433.60000014305,"correct":true,"confidence":-1},{"trial_n":21,"n_dots":3.55,"target":"left","response":"left","rt":812,"correct":true,"confidence":3},{"trial_n":22,"n_dots":3.45,"target":"right","response":"left","rt":531.5,"correct":false,"confidence":3},{"trial_n":23,"n_dots":3.55,"target":"right","response":"left","rt":804.59999990463,"correct":false,"confidence":2},{"trial_n":24,"n_dots":3.65,"target":"right","response":"left","rt":574.40000009537,"correct":false,"confidence":2},{"trial_n":25,"n_dots":3.75,"target":"right","response":"left","rt":881.90000009537,"correct":false,"confidence":1},{"trial_n":26,"n_dots":3.85,"target":"right","response":"left","rt":374.5,"correct":false,"confidence":1},{"trial_n":27,"n_dots":3.95,"target":"right","response":"right","rt":1203.2999999523,"correct":true,"confidence":1},{"trial_n":28,"n_dots":3.95,"target":"left","response":"left","rt":103.40000009537,"correct":true,"confidence":1},{"trial_n":29,"n_dots":3.85,"target":"left","response":"left","rt":60.199999809265,"correct":true,"confidence":1},{"trial_n":30,"n_dots":3.85,"target":"left","response":"left","rt":902.29999995232,"correct":true,"confidence":1},{"trial_n":31,"n_dots":3.75,"target":"left","response":"left","rt":526.89999985695,"correct":true,"confidence":1},{"trial_n":32,"n_dots":3.75,"target":"right","response":"right","rt":707.79999995232,"correct":true,"confidence":1},{"trial_n":33,"n_dots":3.65,"target":"left","response":"left","rt":573.59999990463,"correct":true,"confidence":1},{"trial_n":34,"n_dots":3.65,"target":"right","response":"left","rt":711.70000004768,"correct":false,"confidence":1},{"trial_n":35,"n_dots":3.75,"target":"left","response":"left","rt":217.5,"correct":true,"confidence":1},{"trial_n":36,"n_dots":3.75,"target":"left","response":"left","rt":220.59999990463,"correct":true,"confidence":1},{"trial_n":37,"n_dots":3.65,"target":"left","response":"left","rt":590.90000009537,"correct":true,"confidence":1},{"trial_n":38,"n_dots":3.65,"target":"left","response":"left","rt":6.2000000476837,"correct":true,"confidence":1},{"trial_n":39,"n_dots":3.55,"target":"left","response":"left","rt":162.5,"correct":true,"confidence":1},{"trial_n":40,"n_dots":3.55,"target":"right","response":"left","rt":130.69999980927,"correct":false,"confidence":1},{"trial_n":41,"n_dots":3.65,"target":"right","response":"right","rt":642.09999990463,"correct":true,"confidence":1},{"trial_n":42,"n_dots":3.65,"target":"left","response":"left","rt":32.799999952316,"correct":true,"confidence":1},{"trial_n":43,"n_dots":3.55,"target":"left","response":"left","rt":36.5,"correct":true,"confidence":1},{"trial_n":44,"n_dots":3.55,"target":"right","response":"right","rt":909.90000009537,"correct":true,"confidence":1},{"trial_n":45,"n_dots":3.45,"target":"right","response":"right","rt":425.29999995232,"correct":true,"confidence":1},{"trial_n":46,"n_dots":3.45,"target":"left","response":"left","rt":102.40000009537,"correct":true,"confidence":1},{"trial_n":47,"n_dots":3.35,"target":"right","response":"left","rt":46.700000047684,"correct":false,"confidence":1},{"trial_n":48,"n_dots":3.45,"target":"right","response":"right","rt":30.299999952316,"correct":true,"confidence":1},{"trial_n":49,"n_dots":3.45,"target":"right","response":"right","rt":-1.0999999046326,"correct":true,"confidence":1},{"trial_n":50,"n_dots":3.35,"target":"left","response":"left","rt":840.90000009537,"correct":true,"confidence":1},{"trial_n":51,"n_dots":3.35,"target":"left","response":"right","rt":1228.5,"correct":false,"confidence":1},{"trial_n":52,"n_dots":3.45,"target":"right","response":"right","rt":1656.2999999523,"correct":true,"confidence":1},{"trial_n":53,"n_dots":3.45,"target":"right","response":"right","rt":154.39999985695,"correct":true,"confidence":1},{"trial_n":54,"n_dots":3.35,"target":"left","response":"left","rt":279.40000009537,"correct":true,"confidence":1},{"trial_n":55,"n_dots":3.35,"target":"right","response":"right","rt":726.5,"correct":true,"confidence":1},{"trial_n":56,"n_dots":3.25,"target":"left","response":"left","rt":456.5,"correct":true,"confidence":1},{"trial_n":57,"n_dots":3.25,"target":"right","response":"right","rt":85.799999952316,"correct":true,"confidence":1},{"trial_n":58,"n_dots":3.15,"target":"right","response":"right","rt":496.60000014305,"correct":true,"confidence":1},{"trial_n":59,"n_dots":3.15,"target":"right","response":"right","rt":1260.3999998569,"correct":true,"confidence":1},{"trial_n":60,"n_dots":3.05,"target":"left","response":"left","rt":346.29999995232,"correct":true,"confidence":1},{"trial_n":61,"n_dots":3.05,"target":"left","response":"left","rt":604.39999985695,"correct":true,"confidence":1},{"trial_n":62,"n_dots":2.95,"target":"right","response":"right","rt":711,"correct":true,"confidence":1},{"trial_n":63,"n_dots":2.95,"target":"left","response":"left","rt":308.29999995232,"correct":true,"confidence":1},{"trial_n":64,"n_dots":2.85,"target":"right","response":"right","rt":374.19999980927,"correct":true,"confidence":1},{"trial_n":65,"n_dots":2.85,"target":"right","response":"left","rt":367.69999980927,"correct":false,"confidence":1},{"trial_n":66,"n_dots":2.95,"target":"left","response":"right","rt":764.5,"correct":false,"confidence":1},{"trial_n":67,"n_dots":3.05,"target":"left","response":"left","rt":474.60000014305,"correct":true,"confidence":1},{"trial_n":68,"n_dots":3.05,"target":"left","response":"left","rt":345.39999985695,"correct":true,"confidence":1},{"trial_n":69,"n_dots":2.95,"target":"left","response":"right","rt":504.20000004768,"correct":false,"confidence":1},{"trial_n":70,"n_dots":3.05,"target":"left","response":"left","rt":245.59999990463,"correct":true,"confidence":1},{"trial_n":71,"n_dots":3.05,"target":"right","response":"right","rt":135.39999985695,"correct":true,"confidence":1},{"trial_n":72,"n_dots":2.95,"target":"left","response":"left","rt":292.5,"correct":true,"confidence":1},{"trial_n":73,"n_dots":2.95,"target":"right","response":"left","rt":401.09999990463,"correct":false,"confidence":1},{"trial_n":74,"n_dots":3.05,"target":"right","response":"right","rt":66.400000095367,"correct":true,"confidence":1},{"trial_n":75,"n_dots":3.05,"target":"left","response":"left","rt":343,"correct":true,"confidence":1},{"trial_n":76,"n_dots":2.95,"target":"right","response":"left","rt":248.90000009537,"correct":false,"confidence":1},{"trial_n":77,"n_dots":3.05,"target":"right","response":"right","rt":59.5,"correct":true,"confidence":1},{"trial_n":78,"n_dots":3.05,"target":"left","response":"left","rt":58.799999952316,"correct":true,"confidence":1},{"trial_n":79,"n_dots":2.95,"target":"left","response":"right","rt":233.19999980927,"correct":false,"confidence":1},{"trial_n":80,"n_dots":3.05,"target":"right","response":"left","rt":1102.3999998569,"correct":false,"confidence":1},{"trial_n":81,"n_dots":3.15,"target":"left","response":"left","rt":456.40000009537,"correct":true,"confidence":1},{"trial_n":82,"n_dots":3.15,"target":"left","response":"left","rt":240.20000004768,"correct":true,"confidence":1},{"trial_n":83,"n_dots":3.05,"target":"left","response":"left","rt":194.59999990463,"correct":true,"confidence":1},{"trial_n":84,"n_dots":3.05,"target":"right","response":"left","rt":388.5,"correct":false,"confidence":1},{"trial_n":85,"n_dots":3.15,"target":"left","response":"left","rt":302.90000009537,"correct":true,"confidence":1},{"trial_n":86,"n_dots":3.15,"target":"right","response":"right","rt":174.29999995232,"correct":true,"confidence":1},{"trial_n":87,"n_dots":3.05,"target":"right","response":"right","rt":277.40000009537,"correct":true,"confidence":1},{"trial_n":88,"n_dots":3.05,"target":"right","response":"right","rt":763.79999995232,"correct":true,"confidence":1},{"trial_n":89,"n_dots":2.95,"target":"left","response":"right","rt":424.70000004768,"correct":false,"confidence":1},{"trial_n":90,"n_dots":3.05,"target":"right","response":"right","rt":43.600000143051,"correct":true,"confidence":1},{"trial_n":91,"n_dots":3.05,"target":"right","response":"left","rt":491.20000004768,"correct":false,"confidence":1},{"trial_n":92,"n_dots":3.15,"target":"right","response":"right","rt":235.59999990463,"correct":true,"confidence":1},{"trial_n":93,"n_dots":3.15,"target":"right","response":"right","rt":150.90000009537,"correct":true,"confidence":1},{"trial_n":94,"n_dots":3.05,"target":"right","response":"right","rt":103.70000004768,"correct":true,"confidence":1},{"trial_n":95,"n_dots":3.05,"target":"left","response":"left","rt":534.79999995232,"correct":true,"confidence":1},{"trial_n":96,"n_dots":2.95,"target":"left","response":"right","rt":128.59999990463,"correct":false,"confidence":1},{"trial_n":97,"n_dots":3.05,"target":"left","response":"left","rt":101.19999980927,"correct":true,"confidence":1},{"trial_n":98,"n_dots":3.05,"target":"left","response":"left","rt":-2.8999998569489,"correct":true,"confidence":1},{"trial_n":99,"n_dots":2.95,"target":"left","response":"left","rt":190.39999985695,"correct":true,"confidence":1},{"trial_n":100,"n_dots":2.95,"target":"right","response":"right","rt":195.20000004768,"correct":true,"confidence":1},{"trial_n":101,"n_dots":2.85,"target":"left","response":"left","rt":343.29999995232,"correct":true,"confidence":1},{"trial_n":102,"n_dots":2.85,"target":"right","response":"right","rt":63.299999952316,"correct":true,"confidence":1},{"trial_n":103,"n_dots":2.75,"target":"left","response":"left","rt":14,"correct":true,"confidence":1},{"trial_n":104,"n_dots":2.75,"target":"left","response":"left","rt":241.29999995232,"correct":true,"confidence":1},{"trial_n":105,"n_dots":2.65,"target":"right","response":"right","rt":200.10000014305,"correct":true,"confidence":1},{"trial_n":106,"n_dots":2.65,"target":"right","response":"left","rt":96.099999904633,"correct":false,"confidence":1},{"trial_n":107,"n_dots":2.75,"target":"right","response":"right","rt":178.39999985695,"correct":true,"confidence":1},{"trial_n":108,"n_dots":2.75,"target":"left","response":"left","rt":-3.2000000476837,"correct":true,"confidence":1},{"trial_n":109,"n_dots":2.65,"target":"right","response":"right","rt":111.09999990463,"correct":true,"confidence":1},{"trial_n":110,"n_dots":2.65,"target":"right","response":"left","rt":19.699999809265,"correct":false,"confidence":1},{"trial_n":111,"n_dots":2.75,"target":"left","response":"left","rt":426.39999985695,"correct":true,"confidence":1},{"trial_n":112,"n_dots":2.75,"target":"left","response":"left","rt":426.69999980927,"correct":true,"confidence":1},{"trial_n":113,"n_dots":2.65,"target":"left","response":"right","rt":252.29999995232,"correct":false,"confidence":1},{"trial_n":114,"n_dots":2.75,"target":"right","response":"right","rt":636.29999995232,"correct":true,"confidence":1},{"trial_n":115,"n_dots":2.75,"target":"right","response":"right","rt":446.09999990463,"correct":true,"confidence":1},{"trial_n":116,"n_dots":2.65,"target":"left","response":"right","rt":751.19999980927,"correct":false,"confidence":1},{"trial_n":117,"n_dots":2.75,"target":"right","response":"left","rt":2503.3999998569,"correct":false,"confidence":1},{"trial_n":118,"n_dots":2.85,"target":"right","response":"right","rt":184.29999995232,"correct":true,"confidence":1},{"trial_n":119,"n_dots":2.85,"target":"left","response":"left","rt":17.5,"correct":true,"confidence":1},{"trial_n":120,"n_dots":2.75,"target":"left","response":"right","rt":520.29999995232,"correct":false,"confidence":1}]