[{"trial_n":1,"min":25,"max":230,"target":"present","response":"absent","rt":6359,"correct":false,"confidence":-1},{"trial_n":2,"min":25,"max":230,"target":"present","response":"absent","rt":4247,"correct":false,"confidence":-1},{"trial_n":3,"min":9,"max":246,"target":"absent","response":"present","rt":3142,"correct":false,"confidence":-1},{"trial_n":4,"min":0,"max":255,"target":"absent","response":"absent","rt":1158,"correct":true,"confidence":-1},{"trial_n":5,"min":0,"max":255,"target":"present","response":"present","rt":1044,"correct":true,"confidence":-1},{"trial_n":6,"min":16,"max":239,"target":"absent","response":"absent","rt":1077,"correct":true,"confidence":-1},{"trial_n":7,"min":16,"max":239,"target":"present","response":"present","rt":926,"correct":true,"confidence":-1},{"trial_n":8,"min":32,"max":223,"target":"absent","response":"absent","rt":712,"correct":true,"confidence":-1},{"trial_n":9,"min":32,"max":223,"target":"absent","response":"absent","rt":911,"correct":true,"confidence":-1},{"trial_n":10,"min":48,"max":207,"target":"absent","response":"absent","rt":584,"correct":true,"confidence":-1},{"trial_n":11,"min":48,"max":207,"target":"present","response":"present","rt":710,"correct":true,"confidence":-1},{"trial_n":12,"min":56,"max":199,"target":"absent","response":"absent","rt":535,"correct":true,"confidence":-1},{"trial_n":13,"min":56,"max":199,"target":"present","response":"present","rt":621,"correct":true,"confidence":-1},{"trial_n":14,"min":64,"max":191,"target":"absent","response":"absent","rt":679,"correct":true,"confidence":-1},{"trial_n":15,"min":64,"max":191,"target":"present","response":"present","rt":627,"correct":true,"confidence":-1},{"trial_n":16,"min":72,"max":183,"target":"present","response":"present","rt":846,"correct":true,"confidence":-1},{"trial_n":17,"min":72,"max":183,"target":"absent","response":"absent","rt":719.99999999999,"correct":true,"confidence":-1},{"trial_n":18,"min":80,"max":175,"target":"absent","response":"absent","rt":552.99999999999,"correct":true,"confidence":-1},{"trial_n":19,"min":80,"max":175,"target":"present","response":"absent","rt":680,"correct":false,"confidence":-1},{"trial_n":20,"min":72,"max":183,"target":"present","response":"present","rt":775,"correct":true,"confidence":-1},{"trial_n":21,"min":72,"max":183,"target":"present","response":"present","rt":2726,"correct":true,"confidence":5},{"trial_n":22,"min":76,"max":179,"target":"present","response":"present","rt":955,"correct":true,"confidence":4},{"trial_n":23,"min":76,"max":179,"target":"present","response":"absent","rt":1181,"correct":false,"confidence":1},{"trial_n":24,"min":72,"max":183,"target":"absent","response":"absent","rt":957,"correct":true,"confidence":4},{"trial_n":25,"min":72,"max":183,"target":"absent","response":"absent","rt":987.99999999999,"correct":true,"confidence":4},{"trial_n":26,"min":76,"max":179,"target":"absent","response":"present","rt":1189,"correct":false,"confidence":3},{"trial_n":27,"min":72,"max":183,"target":"present","response":"present","rt":1430,"correct":true,"confidence":4},{"trial_n":28,"min":72,"max":183,"target":"present","response":"present","rt":3504,"correct":true,"confidence":4},{"trial_n":29,"min":76,"max":179,"target":"absent","response":"absent","rt":942.99999999999,"correct":true,"confidence":4},{"trial_n":30,"min":76,"max":179,"target":"present","response":"present","rt":1189,"correct":true,"confidence":5},{"trial_n":31,"min":78,"max":177,"target":"absent","response":"present","rt":1057,"correct":false,"confidence":3},{"trial_n":32,"min":76,"max":179,"target":"present","response":"absent","rt":914.00000000006,"correct":false,"confidence":3},{"trial_n":33,"min":74,"max":181,"target":"present","response":"present","rt":988.00000000006,"correct":true,"confidence":4},{"trial_n":34,"min":74,"max":181,"target":"present","response":"present","rt":1106,"correct":true,"confidence":3},{"trial_n":35,"min":76,"max":179,"target":"present","response":"absent","rt":964,"correct":false,"confidence":4},{"trial_n":36,"min":74,"max":181,"target":"absent","response":"absent","rt":1053,"correct":true,"confidence":5},{"trial_n":37,"min":74,"max":181,"target":"present","response":"present","rt":926,"correct":true,"confidence":4},{"trial_n":38,"min":76,"max":179,"target":"absent","response":"absent","rt":877,"correct":true,"confidence":4},{"trial_n":39,"min":76,"max":179,"target":"absent","response":"absent","rt":772.99999999994,"correct":true,"confidence":4},{"trial_n":40,"min":78,"max":177,"target":"absent","response":"absent","rt":813,"correct":true,"confidence":4},{"trial_n":41,"min":78,"max":177,"target":"present","response":"present","rt":876,"correct":true,"confidence":4},{"trial_n":42,"min":79,"max":176,"target":"absent","response":"absent","rt":822,"correct":true,"confidence":4},{"trial_n":43,"min":79,"max":176,"target":"present","response":"absent","rt":991,"correct":false,"confidence":4},{"trial_n":44,"min":78,"max":177,"target":"absent","response":"absent","rt":853.99999999994,"correct":true,"confidence":4},{"trial_n":45,"min":78,"max":177,"target":"present","response":"absent","rt":840,"correct":false,"confidence":4},{"trial_n":46,"min":77,"max":178,"target":"absent","response":"absent","rt":1167,"correct":true,"confidence":4},{"trial_n":47,"min":77,"max":178,"target":"absent","response":"absent","rt":879,"correct":true,"confidence":4},{"trial_n":48,"min":78,"max":177,"target":"present","response":"present","rt":1580.9999999999,"correct":true,"confidence":4},{"trial_n":49,"min":78,"max":177,"target":"present","response":"present","rt":1007,"correct":true,"confidence":5},{"trial_n":50,"min":79,"max":176,"target":"absent","response":"absent","rt":1068.9999999999,"correct":true,"confidence":4},{"trial_n":51,"min":79,"max":176,"target":"absent","response":"present","rt":1220.9999999999,"correct":false,"confidence":3},{"trial_n":52,"min":78,"max":177,"target":"absent","response":"absent","rt":990,"correct":true,"confidence":4},{"trial_n":53,"min":78,"max":177,"target":"present","response":"present","rt":839.99999999994,"correct":true,"confidence":4},{"trial_n":54,"min":79,"max":176,"target":"absent","response":"absent","rt":711,"correct":true,"confidence":4},{"trial_n":55,"min":79,"max":176,"target":"present","response":"present","rt":1167.0000000001,"correct":true,"confidence":4},{"trial_n":56,"min":80,"max":175,"target":"present","response":"present","rt":1646.0000000001,"correct":true,"confidence":5},{"trial_n":57,"min":80,"max":175,"target":"absent","response":"absent","rt":776.00000000006,"correct":true,"confidence":5},{"trial_n":58,"min":81,"max":174,"target":"present","response":"present","rt":993,"correct":true,"confidence":5},{"trial_n":59,"min":81,"max":174,"target":"absent","response":"absent","rt":776,"correct":true,"confidence":4},{"trial_n":60,"min":82,"max":173,"target":"absent","response":"absent","rt":776.00000000006,"correct":true,"confidence":4},{"trial_n":61,"min":82,"max":173,"target":"absent","response":"absent","rt":823.99999999994,"correct":true,"confidence":4},{"trial_n":62,"min":83,"max":172,"target":"present","response":"absent","rt":904,"correct":false,"confidence":4},{"trial_n":63,"min":82,"max":173,"target":"absent","response":"absent","rt":895.00000000006,"correct":true,"confidence":5},{"trial_n":64,"min":82,"max":173,"target":"present","response":"present","rt":1558,"correct":true,"confidence":5},{"trial_n":65,"min":83,"max":172,"target":"absent","response":"absent","rt":648.00000000006,"correct":true,"confidence":5},{"trial_n":66,"min":83,"max":172,"target":"present","response":"present","rt":842,"correct":true,"confidence":5},{"trial_n":67,"min":84,"max":171,"target":"present","response":"present","rt":1094,"correct":true,"confidence":4},{"trial_n":68,"min":84,"max":171,"target":"present","response":"present","rt":1048.9999999999,"correct":true,"confidence":5},{"trial_n":69,"min":85,"max":170,"target":"absent","response":"present","rt":856,"correct":false,"confidence":5},{"trial_n":70,"min":84,"max":171,"target":"present","response":"present","rt":793,"correct":true,"confidence":5},{"trial_n":71,"min":41,"max":214,"target":"present","response":"absent","rt":4982.0000000001,"correct":false,"confidence":-1},{"trial_n":72,"min":41,"max":214,"target":"present","response":"present","rt":1448.0000000001,"correct":true,"confidence":-1},{"trial_n":73,"min":41,"max":214,"target":"absent","response":"present","rt":1145.0000000001,"correct":false,"confidence":-1},{"trial_n":74,"min":25,"max":230,"target":"absent","response":"absent","rt":1297,"correct":true,"confidence":-1},{"trial_n":75,"min":25,"max":230,"target":"present","response":"present","rt":826.00000000006,"correct":true,"confidence":-1},{"trial_n":76,"min":41,"max":214,"target":"absent","response":"present","rt":798,"correct":false,"confidence":-1},{"trial_n":77,"min":25,"max":230,"target":"absent","response":"absent","rt":860,"correct":true,"confidence":-1},{"trial_n":78,"min":25,"max":230,"target":"present","response":"present","rt":780.99999999994,"correct":true,"confidence":-1},{"trial_n":79,"min":41,"max":214,"target":"absent","response":"absent","rt":1154,"correct":true,"confidence":-1},{"trial_n":80,"min":41,"max":214,"target":"present","response":"present","rt":715.99999999994,"correct":true,"confidence":-1},{"trial_n":81,"min":49,"max":206,"target":"present","response":"present","rt":564,"correct":true,"confidence":-1},{"trial_n":82,"min":49,"max":206,"target":"present","response":"present","rt":538.99999999994,"correct":true,"confidence":-1},{"trial_n":83,"min":57,"max":198,"target":"present","response":"present","rt":524,"correct":true,"confidence":-1},{"trial_n":84,"min":57,"max":198,"target":"present","response":"present","rt":1090,"correct":true,"confidence":-1},{"trial_n":85,"min":65,"max":190,"target":"absent","response":"absent","rt":667,"correct":true,"confidence":-1},{"trial_n":86,"min":65,"max":190,"target":"present","response":"present","rt":636,"correct":true,"confidence":-1},{"trial_n":87,"min":73,"max":182,"target":"absent","response":"absent","rt":1027.0000000001,"correct":true,"confidence":-1},{"trial_n":88,"min":73,"max":182,"target":"absent","response":"absent","rt":1029,"correct":true,"confidence":-1},{"trial_n":89,"min":81,"max":174,"target":"absent","response":"absent","rt":749,"correct":true,"confidence":-1},{"trial_n":90,"min":81,"max":174,"target":"absent","response":"absent","rt":570.99999999988,"correct":true,"confidence":-1},{"trial_n":91,"min":85,"max":170,"target":"absent","response":"absent","rt":902,"correct":true,"confidence":3},{"trial_n":92,"min":85,"max":170,"target":"present","response":"present","rt":1075,"correct":true,"confidence":3},{"trial_n":93,"min":89,"max":166,"target":"absent","response":"absent","rt":789.00000000012,"correct":true,"confidence":1},{"trial_n":94,"min":89,"max":166,"target":"absent","response":"present","rt":770.99999999988,"correct":false,"confidence":1},{"trial_n":95,"min":85,"max":170,"target":"present","response":"absent","rt":1059,"correct":false,"confidence":4},{"trial_n":96,"min":81,"max":174,"target":"present","response":"absent","rt":922,"correct":false,"confidence":4},{"trial_n":97,"min":77,"max":178,"target":"absent","response":"absent","rt":1242,"correct":true,"confidence":3},{"trial_n":98,"min":77,"max":178,"target":"absent","response":"absent","rt":891,"correct":true,"confidence":5},{"trial_n":99,"min":81,"max":174,"target":"present","response":"present","rt":867,"correct":true,"confidence":5},{"trial_n":100,"min":81,"max":174,"target":"present","response":"present","rt":772,"correct":true,"confidence":5},{"trial_n":101,"min":83,"max":172,"target":"present","response":"absent","rt":1020,"correct":false,"confidence":4},{"trial_n":102,"min":81,"max":174,"target":"present","response":"present","rt":802,"correct":true,"confidence":4},{"trial_n":103,"min":81,"max":174,"target":"present","response":"absent","rt":1072,"correct":false,"confidence":4},{"trial_n":104,"min":79,"max":176,"target":"present","response":"absent","rt":826,"correct":false,"confidence":3},{"trial_n":105,"min":77,"max":178,"target":"absent","response":"absent","rt":1081,"correct":true,"confidence":1},{"trial_n":106,"min":77,"max":178,"target":"absent","response":"present","rt":1008,"correct":false,"confidence":1},{"trial_n":107,"min":75,"max":180,"target":"absent","response":"absent","rt":1042.0000000001,"correct":true,"confidence":4},{"trial_n":108,"min":75,"max":180,"target":"present","response":"present","rt":1106,"correct":true,"confidence":3},{"trial_n":109,"min":77,"max":178,"target":"absent","response":"absent","rt":1364.0000000001,"correct":true,"confidence":1},{"trial_n":110,"min":77,"max":178,"target":"present","response":"present","rt":1027.0000000001,"correct":true,"confidence":3},{"trial_n":111,"min":78,"max":177,"target":"absent","response":"absent","rt":889,"correct":true,"confidence":3},{"trial_n":112,"min":78,"max":177,"target":"absent","response":"present","rt":820,"correct":false,"confidence":3},{"trial_n":113,"min":77,"max":178,"target":"present","response":"absent","rt":1221,"correct":false,"confidence":4},{"trial_n":114,"min":76,"max":179,"target":"present","response":"present","rt":1259,"correct":true,"confidence":3},{"trial_n":115,"min":76,"max":179,"target":"present","response":"present","rt":805.00000000012,"correct":true,"confidence":4},{"trial_n":116,"min":77,"max":178,"target":"present","response":"present","rt":1140,"correct":true,"confidence":4},{"trial_n":117,"min":77,"max":178,"target":"present","response":"present","rt":1109,"correct":true,"confidence":4},{"trial_n":118,"min":78,"max":177,"target":"absent","response":"absent","rt":885,"correct":true,"confidence":4},{"trial_n":119,"min":78,"max":177,"target":"absent","response":"present","rt":2616,"correct":false,"confidence":1},{"trial_n":120,"min":77,"max":178,"target":"present","response":"absent","rt":798,"correct":false,"confidence":4},{"trial_n":121,"min":76,"max":179,"target":"present","response":"present","rt":918,"correct":true,"confidence":3},{"trial_n":122,"min":76,"max":179,"target":"present","response":"absent","rt":965,"correct":false,"confidence":3},{"trial_n":123,"min":75,"max":180,"target":"absent","response":"absent","rt":953,"correct":true,"confidence":4},{"trial_n":124,"min":75,"max":180,"target":"absent","response":"present","rt":781,"correct":false,"confidence":4},{"trial_n":125,"min":74,"max":181,"target":"present","response":"present","rt":1119,"correct":true,"confidence":3},{"trial_n":126,"min":74,"max":181,"target":"absent","response":"absent","rt":1143,"correct":true,"confidence":3},{"trial_n":127,"min":75,"max":180,"target":"present","response":"absent","rt":1344.9999999999,"correct":false,"confidence":4},{"trial_n":128,"min":74,"max":181,"target":"absent","response":"absent","rt":906,"correct":true,"confidence":4},{"trial_n":129,"min":74,"max":181,"target":"absent","response":"absent","rt":958,"correct":true,"confidence":4},{"trial_n":130,"min":75,"max":180,"target":"present","response":"present","rt":663,"correct":true,"confidence":4},{"trial_n":131,"min":75,"max":180,"target":"absent","response":"absent","rt":871.99999999988,"correct":true,"confidence":1},{"trial_n":132,"min":76,"max":179,"target":"absent","response":"present","rt":912,"correct":false,"confidence":1},{"trial_n":133,"min":75,"max":180,"target":"absent","response":"absent","rt":871,"correct":true,"confidence":1},{"trial_n":134,"min":75,"max":180,"target":"present","response":"present","rt":1007,"correct":true,"confidence":3},{"trial_n":135,"min":76,"max":179,"target":"absent","response":"absent","rt":872,"correct":true,"confidence":4},{"trial_n":136,"min":76,"max":179,"target":"present","response":"present","rt":879,"correct":true,"confidence":4},{"trial_n":137,"min":77,"max":178,"target":"absent","response":"absent","rt":978,"correct":true,"confidence":4},{"trial_n":138,"min":77,"max":178,"target":"absent","response":"absent","rt":981,"correct":true,"confidence":4},{"trial_n":139,"min":78,"max":177,"target":"present","response":"absent","rt":911,"correct":false,"confidence":3},{"trial_n":140,"min":77,"max":178,"target":"present","response":"absent","rt":4983.9999999999,"correct":false,"confidence":3}]