[{"trial_n":1,"n_dots":4.25,"target":"left","response":"left","rt":2005.0999999642,"correct":true,"confidence":-1},{"trial_n":2,"n_dots":4.25,"target":"right","response":"left","rt":1942.0999999642,"correct":false,"confidence":-1},{"trial_n":3,"n_dots":4.65,"target":"left","response":"left","rt":969.60000002384,"correct":true,"confidence":-1},{"trial_n":4,"n_dots":4.65,"target":"right","response":"left","rt":974.89999997616,"correct":false,"confidence":-1},{"trial_n":5,"n_dots":5.05,"target":"left","response":"left","rt":1018.2000000477,"correct":true,"confidence":-1},{"trial_n":6,"n_dots":5.05,"target":"left","response":"right","rt":360.19999998808,"correct":false,"confidence":-1},{"trial_n":7,"n_dots":5.45,"target":"left","response":"right","rt":841,"correct":false,"confidence":-1},{"trial_n":8,"n_dots":5.65,"target":"right","response":"right","rt":580.69999998808,"correct":true,"confidence":-1},{"trial_n":9,"n_dots":5.65,"target":"left","response":"left","rt":880.80000001192,"correct":true,"confidence":-1},{"trial_n":10,"n_dots":5.45,"target":"left","response":"left","rt":932.59999996424,"correct":true,"confidence":-1},{"trial_n":11,"n_dots":5.45,"target":"left","response":"right","rt":1394.0999999642,"correct":false,"confidence":-1},{"trial_n":12,"n_dots":5.65,"target":"left","response":"right","rt":1677.8000000119,"correct":false,"confidence":-1},{"trial_n":13,"n_dots":5.743,"target":"left","response":"right","rt":1710,"correct":false,"confidence":-1},{"trial_n":14,"n_dots":5.743,"target":"right","response":"right","rt":1110.0999999642,"correct":true,"confidence":-1},{"trial_n":15,"n_dots":5.743,"target":"left","response":"left","rt":2249.6000000238,"correct":true,"confidence":-1},{"trial_n":16,"n_dots":5.643,"target":"left","response":"left","rt":2208.0999999642,"correct":true,"confidence":-1},{"trial_n":17,"n_dots":5.643,"target":"right","response":"right","rt":1314.7999999523,"correct":true,"confidence":-1},{"trial_n":18,"n_dots":5.543,"target":"right","response":"right","rt":897.79999995232,"correct":true,"confidence":-1},{"trial_n":19,"n_dots":5.543,"target":"right","response":"right","rt":774.69999998808,"correct":true,"confidence":-1},{"trial_n":20,"n_dots":5.443,"target":"right","response":"right","rt":499.09999996424,"correct":true,"confidence":-1},{"trial_n":21,"n_dots":5.443,"target":"left","response":"left","rt":402.10000002384,"correct":true,"confidence":4},{"trial_n":22,"n_dots":5.343,"target":"right","response":"right","rt":434,"correct":true,"confidence":4},{"trial_n":23,"n_dots":5.343,"target":"left","response":"left","rt":535.39999997616,"correct":true,"confidence":4},{"trial_n":24,"n_dots":5.243,"target":"right","response":"right","rt":445,"correct":true,"confidence":4},{"trial_n":25,"n_dots":5.243,"target":"right","response":"right","rt":468.80000001192,"correct":true,"confidence":4},{"trial_n":26,"n_dots":5.143,"target":"left","response":"left","rt":619.30000001192,"correct":true,"confidence":3},{"trial_n":27,"n_dots":5.143,"target":"left","response":"left","rt":496.60000002384,"correct":true,"confidence":4},{"trial_n":28,"n_dots":5.043,"target":"left","response":"left","rt":136,"correct":true,"confidence":4},{"trial_n":29,"n_dots":5.043,"target":"right","response":"left","rt":3666.3999999762,"correct":false,"confidence":3},{"trial_n":30,"n_dots":5.143,"target":"left","response":"left","rt":486.89999997616,"correct":true,"confidence":4},{"trial_n":31,"n_dots":5.143,"target":"left","response":"left","rt":722.19999998808,"correct":true,"confidence":3},{"trial_n":32,"n_dots":5.043,"target":"right","response":"right","rt":275.5,"correct":true,"confidence":4},{"trial_n":33,"n_dots":5.043,"target":"right","response":"right","rt":358.40000003576,"correct":true,"confidence":3},{"trial_n":34,"n_dots":4.943,"target":"right","response":"right","rt":401.39999997616,"correct":true,"confidence":4},{"trial_n":35,"n_dots":4.943,"target":"right","response":"right","rt":464.39999997616,"correct":true,"confidence":4},{"trial_n":36,"n_dots":4.843,"target":"right","response":"right","rt":448.5,"correct":true,"confidence":4},{"trial_n":37,"n_dots":4.843,"target":"right","response":"right","rt":246.10000002384,"correct":true,"confidence":3},{"trial_n":38,"n_dots":4.743,"target":"left","response":"left","rt":527.59999996424,"correct":true,"confidence":3},{"trial_n":39,"n_dots":4.743,"target":"left","response":"left","rt":500,"correct":true,"confidence":4},{"trial_n":40,"n_dots":4.643,"target":"left","response":"left","rt":223.69999998808,"correct":true,"confidence":3},{"trial_n":41,"n_dots":4.643,"target":"right","response":"right","rt":72.699999988079,"correct":true,"confidence":3},{"trial_n":42,"n_dots":4.543,"target":"right","response":"right","rt":586.90000003576,"correct":true,"confidence":4},{"trial_n":43,"n_dots":4.543,"target":"right","response":"right","rt":478.80000001192,"correct":true,"confidence":4},{"trial_n":44,"n_dots":4.443,"target":"left","response":"left","rt":450,"correct":true,"confidence":2},{"trial_n":45,"n_dots":4.443,"target":"right","response":"right","rt":586.69999998808,"correct":true,"confidence":4},{"trial_n":46,"n_dots":4.343,"target":"right","response":"right","rt":662.09999996424,"correct":true,"confidence":2},{"trial_n":47,"n_dots":4.343,"target":"right","response":"right","rt":645.69999998808,"correct":true,"confidence":3},{"trial_n":48,"n_dots":4.243,"target":"left","response":"left","rt":770.79999995232,"correct":true,"confidence":3},{"trial_n":49,"n_dots":4.243,"target":"left","response":"left","rt":515.19999998808,"correct":true,"confidence":3},{"trial_n":50,"n_dots":4.143,"target":"left","response":"left","rt":435.59999996424,"correct":true,"confidence":3},{"trial_n":51,"n_dots":4.143,"target":"right","response":"right","rt":439.09999996424,"correct":true,"confidence":5},{"trial_n":52,"n_dots":4.043,"target":"left","response":"left","rt":633.89999997616,"correct":true,"confidence":3},{"trial_n":53,"n_dots":4.043,"target":"left","response":"left","rt":1006.6999999881,"correct":true,"confidence":3},{"trial_n":54,"n_dots":3.943,"target":"left","response":"left","rt":332.30000001192,"correct":true,"confidence":5},{"trial_n":55,"n_dots":3.943,"target":"left","response":"left","rt":421,"correct":true,"confidence":3},{"trial_n":56,"n_dots":3.843,"target":"left","response":"left","rt":633.29999995232,"correct":true,"confidence":1},{"trial_n":57,"n_dots":3.843,"target":"left","response":"left","rt":445.69999998808,"correct":true,"confidence":3},{"trial_n":58,"n_dots":3.743,"target":"right","response":"right","rt":702.89999997616,"correct":true,"confidence":3},{"trial_n":59,"n_dots":3.743,"target":"right","response":"right","rt":653.59999996424,"correct":true,"confidence":3},{"trial_n":60,"n_dots":3.643,"target":"left","response":"right","rt":660.70000004768,"correct":false,"confidence":3},{"trial_n":61,"n_dots":3.743,"target":"right","response":"right","rt":496.19999998808,"correct":true,"confidence":3},{"trial_n":62,"n_dots":3.743,"target":"left","response":"left","rt":298.10000002384,"correct":true,"confidence":4},{"trial_n":63,"n_dots":3.643,"target":"left","response":"left","rt":254.59999996424,"correct":true,"confidence":4},{"trial_n":64,"n_dots":3.643,"target":"left","response":"left","rt":721.39999997616,"correct":true,"confidence":3},{"trial_n":65,"n_dots":3.543,"target":"right","response":"right","rt":431.80000001192,"correct":true,"confidence":4},{"trial_n":66,"n_dots":3.543,"target":"right","response":"right","rt":1150.8000000119,"correct":true,"confidence":3},{"trial_n":67,"n_dots":3.443,"target":"left","response":"right","rt":675.30000001192,"correct":false,"confidence":3},{"trial_n":68,"n_dots":3.543,"target":"left","response":"left","rt":770.5,"correct":true,"confidence":4},{"trial_n":69,"n_dots":3.543,"target":"right","response":"right","rt":908.5,"correct":true,"confidence":3},{"trial_n":70,"n_dots":3.443,"target":"right","response":"left","rt":1048.5,"correct":false,"confidence":3},{"trial_n":71,"n_dots":3.543,"target":"right","response":"right","rt":637.10000002384,"correct":true,"confidence":3},{"trial_n":72,"n_dots":3.543,"target":"left","response":"right","rt":595.69999998808,"correct":false,"confidence":3},{"trial_n":73,"n_dots":3.643,"target":"right","response":"right","rt":417.69999998808,"correct":true,"confidence":4},{"trial_n":74,"n_dots":3.643,"target":"right","response":"left","rt":530.89999997616,"correct":false,"confidence":1},{"trial_n":75,"n_dots":3.743,"target":"left","response":"left","rt":405.29999995232,"correct":true,"confidence":3},{"trial_n":76,"n_dots":3.743,"target":"right","response":"right","rt":807,"correct":true,"confidence":3},{"trial_n":77,"n_dots":3.643,"target":"right","response":"right","rt":591.59999996424,"correct":true,"confidence":3},{"trial_n":78,"n_dots":3.643,"target":"right","response":"right","rt":1737.1999999881,"correct":true,"confidence":3},{"trial_n":79,"n_dots":3.543,"target":"right","response":"right","rt":455.40000003576,"correct":true,"confidence":3},{"trial_n":80,"n_dots":3.543,"target":"right","response":"right","rt":624.69999998808,"correct":true,"confidence":3},{"trial_n":81,"n_dots":3.443,"target":"left","response":"right","rt":582.69999998808,"correct":false,"confidence":4},{"trial_n":82,"n_dots":3.543,"target":"right","response":"right","rt":571.19999998808,"correct":true,"confidence":3},{"trial_n":83,"n_dots":3.543,"target":"right","response":"right","rt":1291,"correct":true,"confidence":3},{"trial_n":84,"n_dots":3.443,"target":"left","response":"right","rt":1213,"correct":false,"confidence":3},{"trial_n":85,"n_dots":3.543,"target":"left","response":"left","rt":598.40000003576,"correct":true,"confidence":3},{"trial_n":86,"n_dots":3.543,"target":"left","response":"left","rt":399.30000001192,"correct":true,"confidence":3},{"trial_n":87,"n_dots":3.443,"target":"left","response":"left","rt":620.20000004768,"correct":true,"confidence":3},{"trial_n":88,"n_dots":3.443,"target":"left","response":"left","rt":604,"correct":true,"confidence":3},{"trial_n":89,"n_dots":3.343,"target":"right","response":"right","rt":537.20000004768,"correct":true,"confidence":3},{"trial_n":90,"n_dots":3.343,"target":"right","response":"right","rt":622.19999998808,"correct":true,"confidence":3},{"trial_n":91,"n_dots":3.243,"target":"right","response":"right","rt":572.19999998808,"correct":true,"confidence":3},{"trial_n":92,"n_dots":3.243,"target":"right","response":"left","rt":577.69999998808,"correct":false,"confidence":3},{"trial_n":93,"n_dots":3.343,"target":"left","response":"right","rt":1606.6000000238,"correct":false,"confidence":4},{"trial_n":94,"n_dots":3.443,"target":"left","response":"left","rt":1409.8000000119,"correct":true,"confidence":3},{"trial_n":95,"n_dots":3.443,"target":"left","response":"left","rt":467.59999996424,"correct":true,"confidence":4},{"trial_n":96,"n_dots":3.343,"target":"right","response":"right","rt":425.39999997616,"correct":true,"confidence":4},{"trial_n":97,"n_dots":3.343,"target":"left","response":"left","rt":551.80000001192,"correct":true,"confidence":4},{"trial_n":98,"n_dots":3.243,"target":"left","response":"left","rt":337.39999997616,"correct":true,"confidence":3},{"trial_n":99,"n_dots":3.243,"target":"right","response":"right","rt":654,"correct":true,"confidence":3},{"trial_n":100,"n_dots":3.143,"target":"left","response":"left","rt":512,"correct":true,"confidence":4},{"trial_n":101,"n_dots":3.143,"target":"right","response":"right","rt":239.39999997616,"correct":true,"confidence":1},{"trial_n":102,"n_dots":3.043,"target":"right","response":"left","rt":648.20000004768,"correct":false,"confidence":3},{"trial_n":103,"n_dots":3.143,"target":"right","response":"right","rt":563.5,"correct":true,"confidence":3},{"trial_n":104,"n_dots":3.143,"target":"right","response":"left","rt":486.80000001192,"correct":false,"confidence":3},{"trial_n":105,"n_dots":3.243,"target":"right","response":"right","rt":388.30000001192,"correct":true,"confidence":4},{"trial_n":106,"n_dots":3.243,"target":"left","response":"left","rt":703,"correct":true,"confidence":4},{"trial_n":107,"n_dots":3.143,"target":"left","response":"right","rt":449.60000002384,"correct":false,"confidence":4},{"trial_n":108,"n_dots":3.243,"target":"left","response":"left","rt":388.09999996424,"correct":true,"confidence":4},{"trial_n":109,"n_dots":3.243,"target":"right","response":"right","rt":999.89999997616,"correct":true,"confidence":3},{"trial_n":110,"n_dots":3.143,"target":"right","response":"right","rt":526.60000002384,"correct":true,"confidence":4},{"trial_n":111,"n_dots":3.143,"target":"right","response":"right","rt":607.5,"correct":true,"confidence":3},{"trial_n":112,"n_dots":3.043,"target":"right","response":"left","rt":561.5,"correct":false,"confidence":3},{"trial_n":113,"n_dots":3.143,"target":"left","response":"right","rt":476.10000002384,"correct":false,"confidence":5},{"trial_n":114,"n_dots":3.243,"target":"left","response":"right","rt":523.69999998808,"correct":false,"confidence":4},{"trial_n":115,"n_dots":3.343,"target":"left","response":"right","rt":375.70000004768,"correct":false,"confidence":3},{"trial_n":116,"n_dots":3.443,"target":"left","response":"right","rt":495.40000003576,"correct":false,"confidence":4},{"trial_n":117,"n_dots":3.543,"target":"right","response":"right","rt":689.30000001192,"correct":true,"confidence":3},{"trial_n":118,"n_dots":3.543,"target":"right","response":"right","rt":446,"correct":true,"confidence":4},{"trial_n":119,"n_dots":3.443,"target":"left","response":"right","rt":561.10000002384,"correct":false,"confidence":3},{"trial_n":120,"n_dots":3.543,"target":"right","response":"right","rt":473.10000002384,"correct":true,"confidence":3}]