[{"trial_n":1,"span":8,"encoder":"88119591","distractor":"88219591","target":"present","response":"present","rt":"2710.7000000477","correct":true,"confidence":-1},{"trial_n":2,"span":8,"encoder":"61645780","distractor":"66645780","target":"present","response":"present","rt":"2820.5999999046","correct":true,"confidence":-1},{"trial_n":3,"span":10,"encoder":"3719794016","distractor":"3219794016","target":"absent","response":"absent","rt":"2333.2000000477","correct":true,"confidence":-1},{"trial_n":4,"span":10,"encoder":"7169047074","distractor":"7169047874","target":"absent","response":"absent","rt":"3647.1000001431","correct":true,"confidence":-1},{"trial_n":5,"span":12,"encoder":"393012046235","distractor":"383012046235","target":"present","response":"present","rt":"3998.1000001431","correct":true,"confidence":-1},{"trial_n":6,"span":12,"encoder":"112602081079","distractor":"112602051079","target":"present","response":"present","rt":"3577.5","correct":true,"confidence":-1},{"trial_n":7,"span":14,"encoder":"22073462868841","distractor":"28073462868841","target":"present","response":"present","rt":"1947.2000000477","correct":true,"confidence":-1},{"trial_n":8,"span":14,"encoder":"89247689291615","distractor":"89247689291617","target":"absent","response":"absent","rt":"2397.5","correct":true,"confidence":-1},{"trial_n":9,"span":16,"encoder":"8632443653767162","distractor":"9632443653767162","target":"absent","response":"present","rt":"4619.9000000954","correct":false,"confidence":-1},{"trial_n":10,"span":14,"encoder":"32636897121414","distractor":"32636897821414","target":"present","response":"present","rt":"2758.3999998569","correct":true,"confidence":-1},{"trial_n":11,"span":14,"encoder":"26050700214372","distractor":"26050700114372","target":"absent","response":"present","rt":"1562.5999999046","correct":false,"confidence":-1},{"trial_n":12,"span":13,"encoder":"8871451251941","distractor":"8871451251041","target":"absent","response":"present","rt":"1647.7000000477","correct":false,"confidence":-1},{"trial_n":13,"span":12,"encoder":"511810679778","distractor":"511810679478","target":"absent","response":"absent","rt":"2003.5","correct":true,"confidence":-1},{"trial_n":14,"span":12,"encoder":"963823048520","distractor":"963873048520","target":"absent","response":"present","rt":"3285.7000000477","correct":false,"confidence":-1},{"trial_n":15,"span":11,"encoder":"20547483715","distractor":"20447483715","target":"present","response":"present","rt":"3663.8999998569","correct":true,"confidence":-1},{"trial_n":16,"span":11,"encoder":"70119041693","distractor":"70116041693","target":"present","response":"present","rt":"3314.5","correct":true,"confidence":-1},{"trial_n":17,"span":12,"encoder":"421618059504","distractor":"423618059504","target":"absent","response":"absent","rt":"2123","correct":true,"confidence":-1},{"trial_n":18,"span":12,"encoder":"251069865025","distractor":"251069865027","target":"absent","response":"absent","rt":"1316.7000000477","correct":true,"confidence":-1},{"trial_n":19,"span":13,"encoder":"3990979525597","distractor":"3990979523597","target":"present","response":"absent","rt":"2133.7999999523","correct":false,"confidence":-1},{"trial_n":20,"span":12,"encoder":"161414764160","distractor":"161414564160","target":"absent","response":"present","rt":"860.5","correct":false,"confidence":-1},{"trial_n":21,"span":11,"encoder":"27275113434","distractor":"27274113434","target":"present","response":"present","rt":"1501.2999999523","correct":true,"confidence":5},{"trial_n":22,"span":11,"encoder":"36958897170","distractor":"36953897170","target":"absent","response":"present","rt":"5486.7999999523","correct":false,"confidence":4},{"trial_n":23,"span":10,"encoder":"1653640069","distractor":"1653940069","target":"present","response":"present","rt":"3287.2000000477","correct":true,"confidence":5},{"trial_n":24,"span":10,"encoder":"0026156355","distractor":"0036156355","target":"present","response":"present","rt":"3741.9000000954","correct":true,"confidence":5},{"trial_n":25,"span":11,"encoder":"92480892857","distractor":"92484892857","target":"present","response":"absent","rt":"4502.4000000954","correct":false,"confidence":5},{"trial_n":26,"span":10,"encoder":"9623447468","distractor":"9625447468","target":"absent","response":"absent","rt":"4557.2999999523","correct":true,"confidence":5},{"trial_n":27,"span":10,"encoder":"8864050828","distractor":"8864053828","target":"absent","response":"absent","rt":"5404.5999999046","correct":true,"confidence":4},{"trial_n":28,"span":11,"encoder":"72266628667","distractor":"72266626667","target":"absent","response":"absent","rt":"3574.2999999523","correct":true,"confidence":5},{"trial_n":29,"span":11,"encoder":"30816093834","distractor":"30836093834","target":"present","response":"present","rt":"7865.0999999046","correct":true,"confidence":5},{"trial_n":30,"span":12,"encoder":"815503298636","distractor":"815503295636","target":"absent","response":"present","rt":"2090","correct":false,"confidence":3},{"trial_n":31,"span":11,"encoder":"02407399652","distractor":"02707399652","target":"present","response":"present","rt":"4690","correct":true,"confidence":3},{"trial_n":32,"span":11,"encoder":"01878261360","distractor":"01808261360","target":"absent","response":"absent","rt":"4248","correct":true,"confidence":5},{"trial_n":33,"span":12,"encoder":"263125500225","distractor":"263125500525","target":"present","response":"present","rt":"2540.8999998569","correct":true,"confidence":5},{"trial_n":34,"span":12,"encoder":"236337620843","distractor":"236337620743","target":"present","response":"present","rt":"7012.1999998093","correct":true,"confidence":3},{"trial_n":35,"span":13,"encoder":"8442803535679","distractor":"8442703535679","target":"present","response":"present","rt":"3671","correct":true,"confidence":5},{"trial_n":36,"span":13,"encoder":"5062999527949","distractor":"5062999537949","target":"present","response":"present","rt":"5020","correct":true,"confidence":4},{"trial_n":37,"span":14,"encoder":"37450228186924","distractor":"37450224186924","target":"present","response":"present","rt":"2245","correct":true,"confidence":2},{"trial_n":38,"span":14,"encoder":"02918343778637","distractor":"02918343798637","target":"absent","response":"absent","rt":"6229.9000000954","correct":true,"confidence":3},{"trial_n":39,"span":15,"encoder":"915199306252858","distractor":"965199306252858","target":"absent","response":"absent","rt":"4815.2999999523","correct":true,"confidence":2},{"trial_n":40,"span":15,"encoder":"067776337343968","distractor":"067776337343961","target":"absent","response":"present","rt":"3726.7000000477","correct":false,"confidence":4},{"trial_n":41,"span":14,"encoder":"32988451394781","distractor":"32981451394781","target":"present","response":"absent","rt":"4340.5","correct":false,"confidence":1},{"trial_n":42,"span":13,"encoder":"9209304445689","distractor":"9289304445689","target":"present","response":"absent","rt":"15696.199999809","correct":false,"confidence":3},{"trial_n":43,"span":12,"encoder":"465346841827","distractor":"455346841827","target":"present","response":"absent","rt":"14083.299999952","correct":false,"confidence":3},{"trial_n":44,"span":11,"encoder":"94572574399","distractor":"94572578399","target":"present","response":"absent","rt":"8176.8000001907","correct":false,"confidence":5},{"trial_n":45,"span":10,"encoder":"1372637501","distractor":"1872637501","target":"absent","response":"present","rt":"7178.8000001907","correct":false,"confidence":5},{"trial_n":46,"span":9,"encoder":"339936317","distractor":"339236317","target":"absent","response":"absent","rt":"3222.6000001431","correct":true,"confidence":5},{"trial_n":47,"span":9,"encoder":"464409001","distractor":"464499001","target":"present","response":"absent","rt":"15575.800000191","correct":false,"confidence":3},{"trial_n":48,"span":8,"encoder":"04232028","distractor":"04232328","target":"present","response":"present","rt":"2764.6000001431","correct":true,"confidence":5},{"trial_n":49,"span":8,"encoder":"86330455","distractor":"86930455","target":"absent","response":"absent","rt":"3966.1000001431","correct":true,"confidence":5},{"trial_n":50,"span":9,"encoder":"481543130","distractor":"431543130","target":"present","response":"present","rt":"2809.7999999523","correct":true,"confidence":5},{"trial_n":51,"span":9,"encoder":"193555655","distractor":"198555655","target":"absent","response":"absent","rt":"2630.2999999523","correct":true,"confidence":5},{"trial_n":52,"span":10,"encoder":"9611043736","distractor":"9611045736","target":"present","response":"absent","rt":"4268.5999999046","correct":false,"confidence":3},{"trial_n":53,"span":9,"encoder":"144077968","distractor":"144377968","target":"present","response":"present","rt":"2912.4000000954","correct":true,"confidence":5},{"trial_n":54,"span":9,"encoder":"812369448","distractor":"812369440","target":"present","response":"present","rt":"3714.0999999046","correct":true,"confidence":5},{"trial_n":55,"span":10,"encoder":"3382257680","distractor":"3382256680","target":"present","response":"present","rt":"2270.6000001431","correct":true,"confidence":5},{"trial_n":56,"span":10,"encoder":"8396372256","distractor":"8396772256","target":"absent","response":"absent","rt":"5135.2999999523","correct":true,"confidence":2},{"trial_n":57,"span":11,"encoder":"43814954036","distractor":"48814954036","target":"present","response":"present","rt":"4059.7999999523","correct":true,"confidence":5},{"trial_n":58,"span":11,"encoder":"56679387686","distractor":"56679387616","target":"present","response":"present","rt":"3968.4000000954","correct":true,"confidence":5},{"trial_n":59,"span":12,"encoder":"251705444005","distractor":"251702444005","target":"absent","response":"present","rt":"4244.9000000954","correct":false,"confidence":4},{"trial_n":60,"span":11,"encoder":"04302470602","distractor":"04382470602","target":"absent","response":"absent","rt":"2971","correct":true,"confidence":5},{"trial_n":61,"span":11,"encoder":"83055788891","distractor":"83055782891","target":"absent","response":"absent","rt":"7463.5","correct":true,"confidence":5},{"trial_n":62,"span":12,"encoder":"877615179570","distractor":"877614179570","target":"present","response":"present","rt":"3023","correct":true,"confidence":5},{"trial_n":63,"span":12,"encoder":"453795158131","distractor":"553795158131","target":"absent","response":"present","rt":"3476.2999999523","correct":false,"confidence":3},{"trial_n":64,"span":11,"encoder":"85432600678","distractor":"85432600668","target":"absent","response":"present","rt":"3738.5999999046","correct":false,"confidence":3},{"trial_n":65,"span":10,"encoder":"6685180973","distractor":"6685184973","target":"absent","response":"present","rt":"4114.4000000954","correct":false,"confidence":4},{"trial_n":66,"span":9,"encoder":"060858932","distractor":"070858932","target":"present","response":"present","rt":"4209.7999999523","correct":true,"confidence":4},{"trial_n":67,"span":9,"encoder":"143113422","distractor":"143113402","target":"absent","response":"absent","rt":"2542.2999999523","correct":true,"confidence":5},{"trial_n":68,"span":10,"encoder":"4870182857","distractor":"4870182855","target":"absent","response":"present","rt":"2790.1000001431","correct":false,"confidence":4},{"trial_n":69,"span":9,"encoder":"827458673","distractor":"327458673","target":"present","response":"absent","rt":"4379.2999999523","correct":false,"confidence":5},{"trial_n":70,"span":8,"encoder":"93346069","distractor":"96346069","target":"absent","response":"present","rt":"3299.4000000954","correct":false,"confidence":1},{"trial_n":71,"span":8,"encoder":"82033418","distractor":"82233418","target":"present","response":"present","rt":"5149.0999999046","correct":true,"confidence":-1},{"trial_n":72,"span":8,"encoder":"62838299","distractor":"69838299","target":"present","response":"present","rt":"7283.7000000477","correct":true,"confidence":-1},{"trial_n":73,"span":9,"encoder":"307747572","distractor":"307747575","target":"absent","response":"absent","rt":"3737","correct":true,"confidence":-1},{"trial_n":74,"span":9,"encoder":"046706460","distractor":"041706460","target":"absent","response":"absent","rt":"4447.5","correct":true,"confidence":-1},{"trial_n":75,"span":10,"encoder":"7103659351","distractor":"7003659351","target":"present","response":"present","rt":"7735.0999999046","correct":true,"confidence":-1},{"trial_n":76,"span":10,"encoder":"8383664634","distractor":"8383664638","target":"present","response":"present","rt":"2664.2999999523","correct":true,"confidence":-1},{"trial_n":77,"span":11,"encoder":"44310285383","distractor":"44110285383","target":"present","response":"present","rt":"4268.2000000477","correct":true,"confidence":-1},{"trial_n":78,"span":11,"encoder":"50590766779","distractor":"50690766779","target":"present","response":"present","rt":"2548.5","correct":true,"confidence":-1},{"trial_n":79,"span":12,"encoder":"146422493879","distractor":"146422498879","target":"absent","response":"present","rt":"3681.0999999046","correct":false,"confidence":-1},{"trial_n":80,"span":11,"encoder":"90146760917","distractor":"90146660917","target":"present","response":"present","rt":"2552.5","correct":true,"confidence":-1},{"trial_n":81,"span":11,"encoder":"44101541287","distractor":"44101541257","target":"present","response":"present","rt":"2294.5","correct":true,"confidence":-1},{"trial_n":82,"span":12,"encoder":"611286596401","distractor":"611286596491","target":"present","response":"present","rt":"2169.2000000477","correct":true,"confidence":-1},{"trial_n":83,"span":12,"encoder":"560031841338","distractor":"560031841738","target":"present","response":"present","rt":"2360.8999998569","correct":true,"confidence":-1},{"trial_n":84,"span":13,"encoder":"7311084291440","distractor":"7351084291440","target":"present","response":"present","rt":"523.39999985695","correct":true,"confidence":-1},{"trial_n":85,"span":13,"encoder":"1383477529381","distractor":"1583477529381","target":"present","response":"absent","rt":"2073.6000001431","correct":false,"confidence":-1},{"trial_n":86,"span":12,"encoder":"114914076174","distractor":"114912076174","target":"present","response":"present","rt":"1463.7000000477","correct":true,"confidence":-1},{"trial_n":87,"span":12,"encoder":"906921306282","distractor":"906921306202","target":"absent","response":"absent","rt":"3193","correct":true,"confidence":-1},{"trial_n":88,"span":13,"encoder":"5377795419083","distractor":"5377795419283","target":"absent","response":"present","rt":"6535.2000000477","correct":false,"confidence":-1},{"trial_n":89,"span":12,"encoder":"028177579036","distractor":"028107579036","target":"absent","response":"absent","rt":"5133.1999998093","correct":true,"confidence":-1},{"trial_n":90,"span":12,"encoder":"916044228690","distractor":"916044228490","target":"absent","response":"present","rt":"5270.5999999046","correct":false,"confidence":-1},{"trial_n":91,"span":11,"encoder":"31699775114","distractor":"31699775113","target":"absent","response":"absent","rt":"2248.1000001431","correct":true,"confidence":5},{"trial_n":92,"span":11,"encoder":"39756878202","distractor":"39756878204","target":"absent","response":"absent","rt":"2189","correct":true,"confidence":5},{"trial_n":93,"span":12,"encoder":"074691441839","distractor":"074691441809","target":"present","response":"present","rt":"1711.2000000477","correct":true,"confidence":5},{"trial_n":94,"span":12,"encoder":"782224308350","distractor":"702224308350","target":"absent","response":"absent","rt":"4179.7999999523","correct":true,"confidence":5},{"trial_n":95,"span":13,"encoder":"5678852505227","distractor":"5678858505227","target":"absent","response":"absent","rt":"6706","correct":true,"confidence":5},{"trial_n":96,"span":13,"encoder":"5292208734570","distractor":"5292208734577","target":"present","response":"present","rt":"2665.7999999523","correct":true,"confidence":2},{"trial_n":97,"span":14,"encoder":"56967869280954","distractor":"56967869280754","target":"present","response":"absent","rt":"7298.4000000954","correct":false,"confidence":3},{"trial_n":98,"span":13,"encoder":"3585997177121","distractor":"3585997177521","target":"absent","response":"absent","rt":"2796.3999998569","correct":true,"confidence":5},{"trial_n":99,"span":13,"encoder":"6026941122298","distractor":"6026941162298","target":"present","response":"absent","rt":"5536.4000000954","correct":false,"confidence":5},{"trial_n":100,"span":12,"encoder":"708876016995","distractor":"708876016795","target":"present","response":"present","rt":"3569","correct":true,"confidence":5},{"trial_n":101,"span":12,"encoder":"995101904130","distractor":"995101914130","target":"present","response":"absent","rt":"5973.7000000477","correct":false,"confidence":5},{"trial_n":102,"span":11,"encoder":"05608017431","distractor":"05608017481","target":"present","response":"present","rt":"2077.5","correct":true,"confidence":5},{"trial_n":103,"span":11,"encoder":"03307024921","distractor":"03307024920","target":"absent","response":"present","rt":"1964.8000001907","correct":false,"confidence":3},{"trial_n":104,"span":10,"encoder":"3387198911","distractor":"3387198411","target":"absent","response":"absent","rt":"2460.8999998569","correct":true,"confidence":5},{"trial_n":105,"span":10,"encoder":"2430517551","distractor":"2470517551","target":"present","response":"present","rt":"4703.3999998569","correct":true,"confidence":5},{"trial_n":106,"span":11,"encoder":"39449913184","distractor":"39149913184","target":"absent","response":"present","rt":"6273.7999999523","correct":false,"confidence":1},{"trial_n":107,"span":10,"encoder":"4422679626","distractor":"4422619626","target":"present","response":"present","rt":"3078.5","correct":true,"confidence":5},{"trial_n":108,"span":10,"encoder":"8391922573","distractor":"8391922577","target":"present","response":"present","rt":"2166.2999999523","correct":true,"confidence":5},{"trial_n":109,"span":11,"encoder":"27010598955","distractor":"27010598655","target":"absent","response":"absent","rt":"8956.3999998569","correct":true,"confidence":5},{"trial_n":110,"span":11,"encoder":"01792932255","distractor":"01792632255","target":"absent","response":"absent","rt":"4114.6000001431","correct":true,"confidence":5},{"trial_n":111,"span":12,"encoder":"405751230243","distractor":"405751250243","target":"absent","response":"present","rt":"6406","correct":false,"confidence":3},{"trial_n":112,"span":11,"encoder":"79035972399","distractor":"76035972399","target":"present","response":"present","rt":"5461.4000000954","correct":true,"confidence":5},{"trial_n":113,"span":11,"encoder":"35093634784","distractor":"35793634784","target":"present","response":"present","rt":"1810.2000000477","correct":true,"confidence":1},{"trial_n":114,"span":12,"encoder":"074601927362","distractor":"024601927362","target":"present","response":"present","rt":"2071.3000001907","correct":true,"confidence":5},{"trial_n":115,"span":12,"encoder":"028539923229","distractor":"038539923229","target":"absent","response":"absent","rt":"1527","correct":true,"confidence":5},{"trial_n":116,"span":13,"encoder":"5844899992487","distractor":"5844899998487","target":"present","response":"present","rt":"8846.8000001907","correct":true,"confidence":5},{"trial_n":117,"span":13,"encoder":"3152638736690","distractor":"3152638836690","target":"absent","response":"absent","rt":"3119.7999999523","correct":true,"confidence":5},{"trial_n":118,"span":14,"encoder":"58743442451534","distractor":"58743442451530","target":"absent","response":"present","rt":"6930.2000000477","correct":false,"confidence":5},{"trial_n":119,"span":13,"encoder":"1119712529251","distractor":"6119712529251","target":"absent","response":"absent","rt":"5449.7999999523","correct":true,"confidence":5},{"trial_n":120,"span":13,"encoder":"5256563765584","distractor":"5257563765584","target":"present","response":"present","rt":"8735.9000000954","correct":true,"confidence":5},{"trial_n":121,"span":14,"encoder":"46967362880220","distractor":"46967362889220","target":"absent","response":"present","rt":"3056.4000000954","correct":false,"confidence":5},{"trial_n":122,"span":13,"encoder":"0438780205301","distractor":"0438780215301","target":"absent","response":"absent","rt":"2936.5","correct":true,"confidence":5},{"trial_n":123,"span":13,"encoder":"7058454794788","distractor":"7058454774788","target":"present","response":"present","rt":"8114.3999998569","correct":true,"confidence":2},{"trial_n":124,"span":14,"encoder":"51308957099001","distractor":"52308957099001","target":"absent","response":"absent","rt":"2208.4000000954","correct":true,"confidence":5},{"trial_n":125,"span":14,"encoder":"74165296082664","distractor":"74115296082664","target":"present","response":"present","rt":"2873.2000000477","correct":true,"confidence":5},{"trial_n":126,"span":15,"encoder":"421160088350248","distractor":"421160088354248","target":"absent","response":"present","rt":"7356.1000001431","correct":false,"confidence":5},{"trial_n":127,"span":14,"encoder":"25628305904863","distractor":"29628305904863","target":"absent","response":"present","rt":"6041.2999999523","correct":false,"confidence":1},{"trial_n":128,"span":13,"encoder":"7469190745175","distractor":"7469190742175","target":"absent","response":"absent","rt":"8009.7999999523","correct":true,"confidence":5},{"trial_n":129,"span":13,"encoder":"1043622986203","distractor":"1043620986203","target":"absent","response":"absent","rt":"4593.2000000477","correct":true,"confidence":5},{"trial_n":130,"span":14,"encoder":"04563010762125","distractor":"04563010762625","target":"absent","response":"absent","rt":"5536.2999999523","correct":true,"confidence":5},{"trial_n":131,"span":14,"encoder":"27052916336588","distractor":"27052916336388","target":"absent","response":"present","rt":"4844.5999999046","correct":false,"confidence":2},{"trial_n":132,"span":13,"encoder":"6989521937757","distractor":"6389521937757","target":"present","response":"present","rt":"9011.2000000477","correct":true,"confidence":5},{"trial_n":133,"span":13,"encoder":"7052416201343","distractor":"7052416101343","target":"present","response":"absent","rt":"10591.199999809","correct":false,"confidence":2},{"trial_n":134,"span":12,"encoder":"518733821902","distractor":"418733821902","target":"present","response":"present","rt":"2966","correct":true,"confidence":5},{"trial_n":135,"span":12,"encoder":"873280402776","distractor":"873280302776","target":"present","response":"present","rt":"3244.9000000954","correct":true,"confidence":5},{"trial_n":136,"span":13,"encoder":"5176881958599","distractor":"5116881958599","target":"absent","response":"absent","rt":"2659.5","correct":true,"confidence":5},{"trial_n":137,"span":13,"encoder":"3041210166009","distractor":"3041210116009","target":"present","response":"present","rt":"4855.7000000477","correct":true,"confidence":1},{"trial_n":138,"span":14,"encoder":"71817924603881","distractor":"21817924603881","target":"absent","response":"absent","rt":"4105.3999998569","correct":true,"confidence":5},{"trial_n":139,"span":14,"encoder":"75951425216453","distractor":"75941425216453","target":"absent","response":"present","rt":"7983","correct":false,"confidence":5},{"trial_n":140,"span":13,"encoder":"3451581746633","distractor":"3451581746635","target":"present","response":"present","rt":"4001.7000000477","correct":true,"confidence":5}]