[{"trial_n":1,"span":8,"encoder":"92700634","distractor":"92700630","target":"present","response":"present","rt":"4274","correct":true,"confidence":-1},{"trial_n":2,"span":8,"encoder":"34492086","distractor":"34482086","target":"present","response":"present","rt":"3953.5","correct":true,"confidence":-1},{"trial_n":3,"span":10,"encoder":"7252603719","distractor":"7254603719","target":"absent","response":"absent","rt":"4723.1000000238","correct":true,"confidence":-1},{"trial_n":4,"span":10,"encoder":"0649176800","distractor":"0649276800","target":"absent","response":"absent","rt":"3779.3999999762","correct":true,"confidence":-1},{"trial_n":5,"span":12,"encoder":"032968207063","distractor":"032968207093","target":"present","response":"present","rt":"6235.2000000477","correct":true,"confidence":-1},{"trial_n":6,"span":12,"encoder":"154019695545","distractor":"154019695445","target":"absent","response":"absent","rt":"8092.3000000119","correct":true,"confidence":-1},{"trial_n":7,"span":14,"encoder":"85000663012819","distractor":"85000683012819","target":"present","response":"present","rt":"6161.4000000358","correct":true,"confidence":-1},{"trial_n":8,"span":14,"encoder":"95841761656067","distractor":"95841761656064","target":"present","response":"present","rt":"9000.8999999762","correct":true,"confidence":-1},{"trial_n":9,"span":16,"encoder":"5334131278461566","distractor":"7334131278461566","target":"absent","response":"absent","rt":"8046.3000000119","correct":true,"confidence":-1},{"trial_n":10,"span":16,"encoder":"2889876209374213","distractor":"2889876208374213","target":"absent","response":"present","rt":"6857.6000000238","correct":false,"confidence":-1},{"trial_n":11,"span":14,"encoder":"92993378883515","distractor":"94993378883515","target":"absent","response":"present","rt":"3053.8000000119","correct":false,"confidence":-1},{"trial_n":12,"span":13,"encoder":"1495505389687","distractor":"1495500389687","target":"present","response":"present","rt":"6765.8000000119","correct":true,"confidence":-1},{"trial_n":13,"span":13,"encoder":"5748207983325","distractor":"5648207983325","target":"absent","response":"present","rt":"1684.4000000358","correct":false,"confidence":-1},{"trial_n":14,"span":12,"encoder":"794761475691","distractor":"794761477691","target":"absent","response":"absent","rt":"6099.1000000238","correct":true,"confidence":-1},{"trial_n":15,"span":12,"encoder":"896561469431","distractor":"896561469432","target":"absent","response":"absent","rt":"1897.5999999642","correct":true,"confidence":-1},{"trial_n":16,"span":13,"encoder":"8344931605189","distractor":"8344901605189","target":"absent","response":"present","rt":"4524.5","correct":false,"confidence":-1},{"trial_n":17,"span":12,"encoder":"334171150182","distractor":"334111150182","target":"present","response":"present","rt":"2612.8999999762","correct":true,"confidence":-1},{"trial_n":18,"span":12,"encoder":"914602168355","distractor":"914602188355","target":"present","response":"present","rt":"82426.300000012","correct":true,"confidence":-1},{"trial_n":19,"span":13,"encoder":"7848227029569","distractor":"7848227029549","target":"absent","response":"absent","rt":"3967","correct":true,"confidence":-1},{"trial_n":20,"span":13,"encoder":"3325385232114","distractor":"3315385232114","target":"absent","response":"present","rt":"3065.2000000477","correct":false,"confidence":-1},{"trial_n":21,"span":12,"encoder":"522298971803","distractor":"522298271803","target":"present","response":"absent","rt":"7447.8000000119","correct":false,"confidence":4},{"trial_n":22,"span":11,"encoder":"33962997226","distractor":"73962997226","target":"present","response":"present","rt":"6471.4000000358","correct":true,"confidence":4},{"trial_n":23,"span":11,"encoder":"66761444316","distractor":"66761464316","target":"absent","response":"absent","rt":"5765.6999999881","correct":true,"confidence":5},{"trial_n":24,"span":12,"encoder":"346687239814","distractor":"346887239814","target":"absent","response":"present","rt":"5895","correct":false,"confidence":2},{"trial_n":25,"span":11,"encoder":"66699664685","distractor":"66699664686","target":"present","response":"present","rt":"8060.7000000477","correct":true,"confidence":4},{"trial_n":26,"span":11,"encoder":"37025628440","distractor":"32025628440","target":"present","response":"present","rt":"6488.8999999762","correct":true,"confidence":4},{"trial_n":27,"span":12,"encoder":"736457122957","distractor":"706457122957","target":"absent","response":"absent","rt":"8603.5","correct":true,"confidence":2},{"trial_n":28,"span":12,"encoder":"241770930893","distractor":"441770930893","target":"present","response":"present","rt":"4456.5999999642","correct":true,"confidence":3},{"trial_n":29,"span":13,"encoder":"1315326447615","distractor":"1315326447645","target":"absent","response":"absent","rt":"7078.7999999523","correct":true,"confidence":3},{"trial_n":30,"span":13,"encoder":"3597746052652","distractor":"9597746052652","target":"absent","response":"absent","rt":"8358","correct":true,"confidence":2},{"trial_n":31,"span":14,"encoder":"35562435831572","distractor":"35562455831572","target":"absent","response":"present","rt":"5703.3000000119","correct":false,"confidence":3},{"trial_n":32,"span":13,"encoder":"4558340345081","distractor":"4558340845081","target":"absent","response":"absent","rt":"5974.6999999881","correct":true,"confidence":4},{"trial_n":33,"span":13,"encoder":"9002134827032","distractor":"9002134827034","target":"present","response":"present","rt":"5966.8000000119","correct":true,"confidence":3},{"trial_n":34,"span":14,"encoder":"61996068151173","distractor":"61990068151173","target":"absent","response":"absent","rt":"4424.8000000119","correct":true,"confidence":2},{"trial_n":35,"span":14,"encoder":"23786924364753","distractor":"23786921364753","target":"present","response":"absent","rt":"5091.5999999642","correct":false,"confidence":1},{"trial_n":36,"span":13,"encoder":"2369946776269","distractor":"2369946676269","target":"present","response":"present","rt":"8545.8000000119","correct":true,"confidence":3},{"trial_n":37,"span":13,"encoder":"5176530957391","distractor":"5176530257391","target":"present","response":"absent","rt":"7800","correct":false,"confidence":4},{"trial_n":38,"span":12,"encoder":"431665945120","distractor":"431665945140","target":"present","response":"present","rt":"6008.6000000238","correct":true,"confidence":4},{"trial_n":39,"span":12,"encoder":"663176745244","distractor":"664176745244","target":"present","response":"absent","rt":"7444.3000000119","correct":false,"confidence":3},{"trial_n":40,"span":11,"encoder":"43128861713","distractor":"43128851713","target":"absent","response":"absent","rt":"6990.0999999642","correct":true,"confidence":2},{"trial_n":41,"span":11,"encoder":"86607299435","distractor":"86607299445","target":"absent","response":"absent","rt":"5470.2000000477","correct":true,"confidence":3},{"trial_n":42,"span":12,"encoder":"484185095153","distractor":"484185095155","target":"absent","response":"absent","rt":"6118.1000000238","correct":true,"confidence":5},{"trial_n":43,"span":12,"encoder":"265308528143","distractor":"265308528145","target":"present","response":"present","rt":"5567.8000000119","correct":true,"confidence":3},{"trial_n":44,"span":13,"encoder":"2447340275301","distractor":"2447340215301","target":"present","response":"present","rt":"6542.5","correct":true,"confidence":3},{"trial_n":45,"span":13,"encoder":"7891218763666","distractor":"7891218763266","target":"present","response":"present","rt":"7078.8000000119","correct":true,"confidence":3},{"trial_n":46,"span":14,"encoder":"41524930750894","distractor":"41524938750894","target":"present","response":"present","rt":"6980.9000000358","correct":true,"confidence":2},{"trial_n":47,"span":14,"encoder":"15280627296446","distractor":"15580627296446","target":"present","response":"present","rt":"7454.1999999881","correct":true,"confidence":3},{"trial_n":48,"span":15,"encoder":"236934861702872","distractor":"236934761702872","target":"present","response":"absent","rt":"8697.6999999881","correct":false,"confidence":2},{"trial_n":49,"span":14,"encoder":"61597390404672","distractor":"61697390404672","target":"present","response":"absent","rt":"3804.5","correct":false,"confidence":2},{"trial_n":50,"span":13,"encoder":"4711944725936","distractor":"4711844725936","target":"absent","response":"present","rt":"5216.6000000238","correct":false,"confidence":2},{"trial_n":51,"span":12,"encoder":"530439941440","distractor":"530439941445","target":"present","response":"present","rt":"1757.1999999881","correct":true,"confidence":2},{"trial_n":52,"span":12,"encoder":"194287821968","distractor":"194787821968","target":"present","response":"present","rt":"5557.3999999762","correct":true,"confidence":3},{"trial_n":53,"span":13,"encoder":"8244085551616","distractor":"8844085551616","target":"present","response":"present","rt":"2645.8000000119","correct":true,"confidence":2},{"trial_n":54,"span":13,"encoder":"5874342874309","distractor":"5874341874309","target":"absent","response":"absent","rt":"2792","correct":true,"confidence":3},{"trial_n":55,"span":14,"encoder":"84778072966708","distractor":"84778072967708","target":"absent","response":"present","rt":"3279.5999999642","correct":false,"confidence":3},{"trial_n":56,"span":13,"encoder":"3120354310383","distractor":"3120354315383","target":"present","response":"present","rt":"6836.1999999881","correct":true,"confidence":3},{"trial_n":57,"span":13,"encoder":"3214518304556","distractor":"3214518104556","target":"absent","response":"present","rt":"6716.6999999881","correct":false,"confidence":4},{"trial_n":58,"span":12,"encoder":"142592746503","distractor":"142593746503","target":"present","response":"absent","rt":"2162.4000000358","correct":false,"confidence":1},{"trial_n":59,"span":11,"encoder":"55416022274","distractor":"25416022274","target":"present","response":"present","rt":"4110.3999999762","correct":true,"confidence":4},{"trial_n":60,"span":11,"encoder":"65538965930","distractor":"63538965930","target":"present","response":"present","rt":"3285","correct":true,"confidence":3},{"trial_n":61,"span":12,"encoder":"701077820214","distractor":"701037820214","target":"absent","response":"absent","rt":"5839.0999999642","correct":true,"confidence":4},{"trial_n":62,"span":12,"encoder":"394319981087","distractor":"394319981084","target":"absent","response":"absent","rt":"1620.3999999762","correct":true,"confidence":5},{"trial_n":63,"span":13,"encoder":"8894020576582","distractor":"8894020575582","target":"absent","response":"absent","rt":"8652.6999999881","correct":true,"confidence":4},{"trial_n":64,"span":13,"encoder":"6756064872247","distractor":"6756064872244","target":"absent","response":"absent","rt":"2484.2999999523","correct":true,"confidence":5},{"trial_n":65,"span":14,"encoder":"52451511073899","distractor":"57451511073899","target":"absent","response":"present","rt":"4064.8000000119","correct":false,"confidence":2},{"trial_n":66,"span":13,"encoder":"9907491861081","distractor":"9907491861281","target":"absent","response":"absent","rt":"2401.5","correct":true,"confidence":4},{"trial_n":67,"span":13,"encoder":"4573032763935","distractor":"4573052763935","target":"absent","response":"present","rt":"3388.8000000119","correct":false,"confidence":3},{"trial_n":68,"span":12,"encoder":"995998476299","distractor":"995998486299","target":"present","response":"present","rt":"1962.4000000358","correct":true,"confidence":4},{"trial_n":69,"span":12,"encoder":"731658638694","distractor":"701658638694","target":"present","response":"present","rt":"2738.2000000477","correct":true,"confidence":3},{"trial_n":70,"span":13,"encoder":"3839025639343","distractor":"3739025639343","target":"present","response":"absent","rt":"4183.1000000238","correct":false,"confidence":5},{"trial_n":71,"span":8,"encoder":"41046336","distractor":"41146336","target":"present","response":"present","rt":"7490.1999999881","correct":true,"confidence":-1},{"trial_n":72,"span":8,"encoder":"26813642","distractor":"26813645","target":"present","response":"present","rt":"3924.1999999881","correct":true,"confidence":-1},{"trial_n":73,"span":9,"encoder":"237469965","distractor":"237469968","target":"absent","response":"absent","rt":"8328.8999999762","correct":true,"confidence":-1},{"trial_n":74,"span":9,"encoder":"873264801","distractor":"873261801","target":"absent","response":"absent","rt":"2537.5","correct":true,"confidence":-1},{"trial_n":75,"span":10,"encoder":"2808700286","distractor":"6808700286","target":"present","response":"present","rt":"5859.4000000358","correct":true,"confidence":-1},{"trial_n":76,"span":10,"encoder":"8393862848","distractor":"8313862848","target":"present","response":"absent","rt":"15827.599999964","correct":false,"confidence":-1},{"trial_n":77,"span":9,"encoder":"184152742","distractor":"184172742","target":"absent","response":"present","rt":"425130.5","correct":false,"confidence":-1},{"trial_n":78,"span":8,"encoder":"68224202","distractor":"61224202","target":"absent","response":"absent","rt":"2570.8999999762","correct":true,"confidence":-1},{"trial_n":79,"span":8,"encoder":"67180061","distractor":"67184061","target":"absent","response":"absent","rt":"4204.4000000358","correct":true,"confidence":-1},{"trial_n":80,"span":9,"encoder":"448587860","distractor":"428587860","target":"absent","response":"absent","rt":"4102.1000000238","correct":true,"confidence":-1},{"trial_n":81,"span":9,"encoder":"192069990","distractor":"192062990","target":"absent","response":"present","rt":"2299.8000000119","correct":false,"confidence":-1},{"trial_n":82,"span":8,"encoder":"14218417","distractor":"54218417","target":"present","response":"present","rt":"3347","correct":true,"confidence":-1},{"trial_n":83,"span":8,"encoder":"90468330","distractor":"92468330","target":"absent","response":"absent","rt":"4201.6999999881","correct":true,"confidence":-1},{"trial_n":84,"span":9,"encoder":"483812472","distractor":"483812471","target":"present","response":"present","rt":"2233.3000000119","correct":true,"confidence":-1},{"trial_n":85,"span":9,"encoder":"873657647","distractor":"873651647","target":"absent","response":"absent","rt":"2547.8000000119","correct":true,"confidence":-1},{"trial_n":86,"span":10,"encoder":"9539673147","distractor":"9539673177","target":"absent","response":"absent","rt":"1750.5","correct":true,"confidence":-1},{"trial_n":87,"span":10,"encoder":"2339382210","distractor":"2339384210","target":"present","response":"absent","rt":"3195.1000000238","correct":false,"confidence":-1},{"trial_n":88,"span":9,"encoder":"867011591","distractor":"865011591","target":"absent","response":"absent","rt":"4059.8000000119","correct":true,"confidence":-1},{"trial_n":89,"span":9,"encoder":"369448039","distractor":"389448039","target":"present","response":"absent","rt":"4415.7999999523","correct":false,"confidence":-1},{"trial_n":90,"span":8,"encoder":"75741355","distractor":"75721355","target":"present","response":"present","rt":"3891.6999999881","correct":true,"confidence":-1},{"trial_n":91,"span":8,"encoder":"92647991","distractor":"92645991","target":"present","response":"present","rt":"8886.8000000119","correct":true,"confidence":5},{"trial_n":92,"span":9,"encoder":"680697335","distractor":"680697535","target":"absent","response":"absent","rt":"15168.199999988","correct":true,"confidence":3},{"trial_n":93,"span":9,"encoder":"401442923","distractor":"401242923","target":"absent","response":"present","rt":"4812.1999999881","correct":false,"confidence":4},{"trial_n":94,"span":8,"encoder":"01270826","distractor":"01270726","target":"absent","response":"absent","rt":"3757.3999999762","correct":true,"confidence":5},{"trial_n":95,"span":8,"encoder":"16387370","distractor":"16389370","target":"present","response":"present","rt":"6751.9000000358","correct":true,"confidence":4},{"trial_n":96,"span":9,"encoder":"458459002","distractor":"458456002","target":"absent","response":"absent","rt":"4550.3999999762","correct":true,"confidence":3},{"trial_n":97,"span":9,"encoder":"820629233","distractor":"820229233","target":"absent","response":"absent","rt":"5783.1000000238","correct":true,"confidence":5},{"trial_n":98,"span":10,"encoder":"6646463637","distractor":"6646463677","target":"present","response":"present","rt":"5703.1000000238","correct":true,"confidence":5},{"trial_n":99,"span":10,"encoder":"9372308491","distractor":"9372300491","target":"absent","response":"absent","rt":"5246","correct":true,"confidence":2},{"trial_n":100,"span":11,"encoder":"87805669394","distractor":"87805668394","target":"present","response":"absent","rt":"2980","correct":false,"confidence":3},{"trial_n":101,"span":10,"encoder":"8515721552","distractor":"8515721952","target":"absent","response":"absent","rt":"4197.8000000119","correct":true,"confidence":4},{"trial_n":102,"span":10,"encoder":"4671491443","distractor":"4671490443","target":"present","response":"present","rt":"6492.3000000119","correct":true,"confidence":3},{"trial_n":103,"span":11,"encoder":"20779525841","distractor":"20779525846","target":"present","response":"present","rt":"1482.8999999762","correct":true,"confidence":5},{"trial_n":104,"span":11,"encoder":"03604122425","distractor":"03644122425","target":"present","response":"present","rt":"8696.3000000119","correct":true,"confidence":3},{"trial_n":105,"span":12,"encoder":"334375000653","distractor":"334375020653","target":"absent","response":"absent","rt":"2050.3000000119","correct":true,"confidence":5},{"trial_n":106,"span":12,"encoder":"464052054804","distractor":"464092054804","target":"absent","response":"absent","rt":"4139","correct":true,"confidence":5},{"trial_n":107,"span":13,"encoder":"6885957759701","distractor":"6885957759706","target":"present","response":"present","rt":"1139","correct":true,"confidence":5},{"trial_n":108,"span":13,"encoder":"7191249902003","distractor":"7191249902303","target":"present","response":"present","rt":"1725.8999999762","correct":true,"confidence":5},{"trial_n":109,"span":14,"encoder":"20863405864049","distractor":"20863405866049","target":"present","response":"present","rt":"3042.8999999762","correct":true,"confidence":3},{"trial_n":110,"span":14,"encoder":"77816740287971","distractor":"07816740287971","target":"present","response":"present","rt":"7889.6999999881","correct":true,"confidence":2},{"trial_n":111,"span":15,"encoder":"909453948945909","distractor":"902453948945909","target":"absent","response":"absent","rt":"6399.5","correct":true,"confidence":2},{"trial_n":112,"span":15,"encoder":"513326336896399","distractor":"513326736896399","target":"present","response":"present","rt":"48490.5","correct":true,"confidence":3},{"trial_n":113,"span":16,"encoder":"9181560815160185","distractor":"9181560815160485","target":"present","response":"present","rt":"18086.800000012","correct":true,"confidence":3},{"trial_n":114,"span":16,"encoder":"9616270001675842","distractor":"9616270005675842","target":"present","response":"absent","rt":"6565.6000000238","correct":false,"confidence":1},{"trial_n":115,"span":15,"encoder":"377013345556432","distractor":"377013348556432","target":"present","response":"absent","rt":"4038.1000000238","correct":false,"confidence":3},{"trial_n":116,"span":14,"encoder":"00626536349224","distractor":"02626536349224","target":"absent","response":"absent","rt":"10838.100000024","correct":true,"confidence":2},{"trial_n":117,"span":14,"encoder":"07726433445675","distractor":"07726433495675","target":"present","response":"present","rt":"5222.5","correct":true,"confidence":1},{"trial_n":118,"span":15,"encoder":"146476497284051","distractor":"176476497284051","target":"absent","response":"present","rt":"24923.300000012","correct":false,"confidence":2},{"trial_n":119,"span":14,"encoder":"22825918571750","distractor":"22825918571780","target":"absent","response":"absent","rt":"15255.200000048","correct":true,"confidence":1},{"trial_n":120,"span":14,"encoder":"02051895054819","distractor":"02051895054816","target":"present","response":"present","rt":"5203.0999999642","correct":true,"confidence":4},{"trial_n":121,"span":15,"encoder":"311303645733414","distractor":"311703645733414","target":"absent","response":"absent","rt":"6654.6000000238","correct":true,"confidence":1},{"trial_n":122,"span":15,"encoder":"869590364155593","distractor":"869590364155594","target":"present","response":"present","rt":"2968.7000000477","correct":true,"confidence":4},{"trial_n":123,"span":16,"encoder":"2481857183409651","distractor":"2481851183409651","target":"absent","response":"present","rt":"7658.5","correct":false,"confidence":1},{"trial_n":124,"span":15,"encoder":"769363238255083","distractor":"769363238245083","target":"present","response":"absent","rt":"14113.100000024","correct":false,"confidence":4},{"trial_n":125,"span":14,"encoder":"30965370173280","distractor":"30965770173280","target":"absent","response":"absent","rt":"2993.6999999881","correct":true,"confidence":3},{"trial_n":126,"span":14,"encoder":"48471527252418","distractor":"48471427252418","target":"absent","response":"present","rt":"6114.6999999881","correct":false,"confidence":3},{"trial_n":127,"span":13,"encoder":"4934565057633","distractor":"4934565057933","target":"present","response":"present","rt":"5928.8000000119","correct":true,"confidence":3},{"trial_n":128,"span":13,"encoder":"7478931503816","distractor":"7478931505816","target":"present","response":"present","rt":"51185.699999988","correct":true,"confidence":2},{"trial_n":129,"span":14,"encoder":"09290705760735","distractor":"09190705760735","target":"present","response":"present","rt":"9240.0999999642","correct":true,"confidence":2},{"trial_n":130,"span":14,"encoder":"17603337634962","distractor":"17673337634962","target":"absent","response":"absent","rt":"6780.4000000358","correct":true,"confidence":4},{"trial_n":131,"span":15,"encoder":"145218085760627","distractor":"145218085710627","target":"present","response":"present","rt":"2188.3999999762","correct":true,"confidence":5},{"trial_n":132,"span":15,"encoder":"093168588843921","distractor":"093968588843921","target":"absent","response":"present","rt":"1765.7999999523","correct":false,"confidence":5},{"trial_n":133,"span":14,"encoder":"84641165377163","distractor":"84041165377163","target":"absent","response":"absent","rt":"8418.8000000119","correct":true,"confidence":3},{"trial_n":134,"span":14,"encoder":"24433740232043","distractor":"24431740232043","target":"absent","response":"present","rt":"6428.3999999762","correct":false,"confidence":3},{"trial_n":135,"span":13,"encoder":"9544844815891","distractor":"9544844815871","target":"present","response":"present","rt":"4695.2000000477","correct":true,"confidence":3},{"trial_n":136,"span":13,"encoder":"5941382417430","distractor":"5941382467430","target":"absent","response":"absent","rt":"7548.8999999762","correct":true,"confidence":3},{"trial_n":137,"span":14,"encoder":"22969404823810","distractor":"22969404813810","target":"present","response":"absent","rt":"3797.6999999881","correct":false,"confidence":5},{"trial_n":138,"span":13,"encoder":"9800654212163","distractor":"9800254212163","target":"present","response":"absent","rt":"5689.0999999642","correct":false,"confidence":3},{"trial_n":139,"span":12,"encoder":"407213609575","distractor":"405213609575","target":"absent","response":"absent","rt":"6188.3000000119","correct":true,"confidence":4},{"trial_n":140,"span":12,"encoder":"722677614140","distractor":"722677614143","target":"present","response":"present","rt":"4126.0999999642","correct":true,"confidence":5}]