[{"trial_n":1,"span":8,"encoder":"64501107","distractor":"94501107","target":"present","response":"present","rt":"2133.7000000002","correct":true,"confidence":-1},{"trial_n":2,"span":8,"encoder":"39498919","distractor":"39198919","target":"present","response":"present","rt":"4240.6999999993","correct":true,"confidence":-1},{"trial_n":3,"span":10,"encoder":"4706022456","distractor":"5706022456","target":"absent","response":"present","rt":"11879.1","correct":false,"confidence":-1},{"trial_n":4,"span":8,"encoder":"25564111","distractor":"25564191","target":"absent","response":"absent","rt":"3433.7000000002","correct":true,"confidence":-1},{"trial_n":5,"span":8,"encoder":"20225206","distractor":"20225406","target":"present","response":"present","rt":"1997.5999999996","correct":true,"confidence":-1},{"trial_n":6,"span":10,"encoder":"2159048818","distractor":"2159068818","target":"present","response":"present","rt":"1515.6000000006","correct":true,"confidence":-1},{"trial_n":7,"span":10,"encoder":"6151693495","distractor":"6152693495","target":"absent","response":"present","rt":"1531.7000000002","correct":false,"confidence":-1},{"trial_n":8,"span":8,"encoder":"18851103","distractor":"18151103","target":"absent","response":"present","rt":"1504.8000000007","correct":false,"confidence":-1},{"trial_n":9,"span":6,"encoder":"811822","distractor":"811820","target":"present","response":"present","rt":"1489","correct":true,"confidence":-1},{"trial_n":10,"span":6,"encoder":"281072","distractor":"271072","target":"absent","response":"absent","rt":"2286.4000000004","correct":true,"confidence":-1},{"trial_n":11,"span":8,"encoder":"96616936","distractor":"96606936","target":"present","response":"present","rt":"913.79999999981","correct":true,"confidence":-1},{"trial_n":12,"span":8,"encoder":"00917377","distractor":"20917377","target":"absent","response":"present","rt":"1020.6000000006","correct":false,"confidence":-1},{"trial_n":13,"span":7,"encoder":"8474010","distractor":"8404010","target":"absent","response":"present","rt":"1220.6999999993","correct":false,"confidence":-1},{"trial_n":14,"span":6,"encoder":"470635","distractor":"470637","target":"present","response":"present","rt":"1518.2999999998","correct":true,"confidence":-1},{"trial_n":15,"span":6,"encoder":"629366","distractor":"629306","target":"absent","response":"present","rt":"1073.9000000004","correct":false,"confidence":-1},{"trial_n":16,"span":5,"encoder":"99555","distractor":"99455","target":"present","response":"present","rt":"1474","correct":true,"confidence":-1},{"trial_n":17,"span":5,"encoder":"95918","distractor":"97918","target":"absent","response":"present","rt":"1527.0999999996","correct":false,"confidence":-1},{"trial_n":18,"span":4,"encoder":"6344","distractor":"6244","target":"present","response":"present","rt":"1782.4000000004","correct":true,"confidence":-1},{"trial_n":19,"span":4,"encoder":"3039","distractor":"3099","target":"absent","response":"present","rt":"962.39999999944","correct":false,"confidence":-1},{"trial_n":20,"span":3,"encoder":"760","distractor":"660","target":"present","response":"present","rt":"1267.2000000002","correct":true,"confidence":-1},{"trial_n":21,"span":3,"encoder":"439","distractor":"437","target":"present","response":"present","rt":"1256.8999999994","correct":true,"confidence":5},{"trial_n":22,"span":4,"encoder":"2850","distractor":"2856","target":"present","response":"present","rt":"2266.3000000007","correct":true,"confidence":1},{"trial_n":23,"span":4,"encoder":"3904","distractor":"3984","target":"absent","response":"absent","rt":"2395.2999999998","correct":true,"confidence":2},{"trial_n":24,"span":5,"encoder":"67109","distractor":"67106","target":"present","response":"present","rt":"1942.4000000004","correct":true,"confidence":1},{"trial_n":25,"span":5,"encoder":"14305","distractor":"11305","target":"present","response":"present","rt":"1882.9000000004","correct":true,"confidence":1},{"trial_n":26,"span":6,"encoder":"095547","distractor":"095577","target":"present","response":"present","rt":"3018.1000000006","correct":true,"confidence":2},{"trial_n":27,"span":6,"encoder":"186432","distractor":"186435","target":"present","response":"present","rt":"1690.9000000004","correct":true,"confidence":1},{"trial_n":28,"span":7,"encoder":"1093433","distractor":"1003433","target":"absent","response":"present","rt":"3481.2000000002","correct":false,"confidence":2},{"trial_n":29,"span":6,"encoder":"265971","distractor":"265972","target":"present","response":"present","rt":"3097.3999999994","correct":true,"confidence":1},{"trial_n":30,"span":6,"encoder":"182376","distractor":"682376","target":"absent","response":"present","rt":"1941.0999999996","correct":false,"confidence":1},{"trial_n":31,"span":5,"encoder":"47137","distractor":"87137","target":"absent","response":"present","rt":"1971.0999999996","correct":false,"confidence":1},{"trial_n":32,"span":4,"encoder":"3819","distractor":"3119","target":"absent","response":"absent","rt":"1724.3999999994","correct":true,"confidence":3},{"trial_n":33,"span":4,"encoder":"7047","distractor":"7044","target":"absent","response":"absent","rt":"1909.1000000006","correct":true,"confidence":5},{"trial_n":34,"span":5,"encoder":"31524","distractor":"31522","target":"absent","response":"absent","rt":"1609.8000000007","correct":true,"confidence":5},{"trial_n":35,"span":5,"encoder":"55168","distractor":"55164","target":"absent","response":"absent","rt":"2395","correct":true,"confidence":5},{"trial_n":36,"span":6,"encoder":"881556","distractor":"881856","target":"absent","response":"present","rt":"2335.7000000002","correct":false,"confidence":4},{"trial_n":37,"span":5,"encoder":"96246","distractor":"96946","target":"absent","response":"absent","rt":"20417.5","correct":true,"confidence":1},{"trial_n":38,"span":5,"encoder":"33994","distractor":"93994","target":"absent","response":"present","rt":"2584.1000000006","correct":false,"confidence":3},{"trial_n":39,"span":4,"encoder":"8920","distractor":"8929","target":"absent","response":"absent","rt":"2056.3999999994","correct":true,"confidence":5},{"trial_n":40,"span":4,"encoder":"1172","distractor":"6172","target":"present","response":"present","rt":"1990.2999999998","correct":true,"confidence":4},{"trial_n":41,"span":5,"encoder":"68255","distractor":"68250","target":"absent","response":"absent","rt":"1703.8999999994","correct":true,"confidence":5},{"trial_n":42,"span":5,"encoder":"33488","distractor":"33288","target":"present","response":"present","rt":"1684.9000000004","correct":true,"confidence":4},{"trial_n":43,"span":6,"encoder":"546255","distractor":"536255","target":"present","response":"present","rt":"1973.7999999998","correct":true,"confidence":5},{"trial_n":44,"span":6,"encoder":"419579","distractor":"415579","target":"present","response":"absent","rt":"4235.6999999993","correct":false,"confidence":2},{"trial_n":45,"span":5,"encoder":"53812","distractor":"53832","target":"absent","response":"absent","rt":"4674.0999999996","correct":true,"confidence":4},{"trial_n":46,"span":5,"encoder":"05823","distractor":"05824","target":"absent","response":"absent","rt":"4979.2000000002","correct":true,"confidence":4},{"trial_n":47,"span":6,"encoder":"158096","distractor":"152096","target":"present","response":"present","rt":"2334.5999999996","correct":true,"confidence":5},{"trial_n":48,"span":6,"encoder":"306674","distractor":"906674","target":"present","response":"present","rt":"1851.2999999998","correct":true,"confidence":5},{"trial_n":49,"span":7,"encoder":"8985901","distractor":"8985101","target":"absent","response":"present","rt":"3021.7000000002","correct":false,"confidence":4},{"trial_n":50,"span":6,"encoder":"529912","distractor":"539912","target":"present","response":"present","rt":"1955.2000000002","correct":true,"confidence":4},{"trial_n":51,"span":6,"encoder":"535052","distractor":"535552","target":"absent","response":"absent","rt":"2047.7000000002","correct":true,"confidence":3},{"trial_n":52,"span":7,"encoder":"1121000","distractor":"1821000","target":"present","response":"present","rt":"2490.7999999998","correct":true,"confidence":3},{"trial_n":53,"span":7,"encoder":"5450749","distractor":"5453749","target":"present","response":"present","rt":"4047.5","correct":true,"confidence":1},{"trial_n":54,"span":8,"encoder":"29812859","distractor":"69812859","target":"present","response":"absent","rt":"4045.8999999994","correct":false,"confidence":2},{"trial_n":55,"span":7,"encoder":"6032824","distractor":"6032821","target":"absent","response":"absent","rt":"3081.2000000002","correct":true,"confidence":3},{"trial_n":56,"span":7,"encoder":"9840094","distractor":"9540094","target":"present","response":"present","rt":"1974.2999999998","correct":true,"confidence":3},{"trial_n":57,"span":8,"encoder":"76491109","distractor":"76494109","target":"absent","response":"present","rt":"1388","correct":false,"confidence":3},{"trial_n":58,"span":7,"encoder":"6767094","distractor":"6765094","target":"present","response":"present","rt":"1911.2000000002","correct":true,"confidence":4},{"trial_n":59,"span":7,"encoder":"8859219","distractor":"8859289","target":"present","response":"present","rt":"2342.0999999996","correct":true,"confidence":3},{"trial_n":60,"span":8,"encoder":"94704590","distractor":"94714590","target":"present","response":"present","rt":"1889.5","correct":true,"confidence":3},{"trial_n":61,"span":8,"encoder":"88586133","distractor":"88186133","target":"present","response":"present","rt":"2488.4000000004","correct":true,"confidence":2},{"trial_n":62,"span":9,"encoder":"802559678","distractor":"802559608","target":"absent","response":"present","rt":"3793.2999999998","correct":false,"confidence":1},{"trial_n":63,"span":8,"encoder":"32559203","distractor":"39559203","target":"present","response":"present","rt":"1738.3999999994","correct":true,"confidence":3},{"trial_n":64,"span":8,"encoder":"27769648","distractor":"57769648","target":"absent","response":"present","rt":"4284.5999999996","correct":false,"confidence":1},{"trial_n":65,"span":7,"encoder":"0188203","distractor":"0108203","target":"absent","response":"absent","rt":"8396","correct":true,"confidence":1},{"trial_n":66,"span":7,"encoder":"4490906","distractor":"4390906","target":"absent","response":"absent","rt":"2083.5999999996","correct":true,"confidence":5},{"trial_n":67,"span":8,"encoder":"29877207","distractor":"29871207","target":"absent","response":"absent","rt":"2250.5","correct":true,"confidence":3},{"trial_n":68,"span":8,"encoder":"33252171","distractor":"33352171","target":"present","response":"present","rt":"1752.6000000006","correct":true,"confidence":2},{"trial_n":69,"span":9,"encoder":"951046948","distractor":"951041948","target":"present","response":"present","rt":"2862.8999999994","correct":true,"confidence":1},{"trial_n":70,"span":9,"encoder":"214201436","distractor":"214261436","target":"present","response":"present","rt":"2238.5","correct":true,"confidence":4},{"trial_n":71,"span":8,"encoder":"39093125","distractor":"32093125","target":"present","response":"present","rt":"7433","correct":true,"confidence":-1},{"trial_n":72,"span":8,"encoder":"58496481","distractor":"54496481","target":"present","response":"present","rt":"2683.7999999998","correct":true,"confidence":-1},{"trial_n":73,"span":9,"encoder":"801557028","distractor":"801507028","target":"absent","response":"absent","rt":"9661.5","correct":true,"confidence":-1},{"trial_n":74,"span":9,"encoder":"266379802","distractor":"236379802","target":"absent","response":"absent","rt":"4431.2999999998","correct":true,"confidence":-1},{"trial_n":75,"span":10,"encoder":"5639139788","distractor":"5639139388","target":"present","response":"present","rt":"5494.0999999996","correct":true,"confidence":-1},{"trial_n":76,"span":10,"encoder":"5892759225","distractor":"5892719225","target":"present","response":"absent","rt":"5735.5","correct":false,"confidence":-1},{"trial_n":77,"span":9,"encoder":"029060798","distractor":"009060798","target":"absent","response":"present","rt":"4363.7000000002","correct":false,"confidence":-1},{"trial_n":78,"span":8,"encoder":"30551032","distractor":"36551032","target":"present","response":"present","rt":"2030.3999999994","correct":true,"confidence":-1},{"trial_n":79,"span":8,"encoder":"85327327","distractor":"85307327","target":"present","response":"present","rt":"4632.0999999996","correct":true,"confidence":-1},{"trial_n":80,"span":9,"encoder":"471807213","distractor":"471807513","target":"absent","response":"absent","rt":"2361.0999999996","correct":true,"confidence":-1},{"trial_n":81,"span":9,"encoder":"961489860","distractor":"901489860","target":"present","response":"absent","rt":"6189.1000000006","correct":false,"confidence":-1},{"trial_n":82,"span":8,"encoder":"18867701","distractor":"18867707","target":"absent","response":"absent","rt":"2546.8000000007","correct":true,"confidence":-1},{"trial_n":83,"span":8,"encoder":"20411263","distractor":"60411263","target":"present","response":"absent","rt":"5715.9000000004","correct":false,"confidence":-1},{"trial_n":84,"span":7,"encoder":"9185638","distractor":"9185630","target":"absent","response":"absent","rt":"3110.2000000002","correct":true,"confidence":-1},{"trial_n":85,"span":7,"encoder":"1952835","distractor":"1952815","target":"present","response":"present","rt":"2440.7000000002","correct":true,"confidence":-1},{"trial_n":86,"span":8,"encoder":"91804167","distractor":"91894167","target":"present","response":"absent","rt":"9627.2999999998","correct":false,"confidence":-1},{"trial_n":87,"span":7,"encoder":"0676055","distractor":"0676052","target":"present","response":"present","rt":"1816.9000000004","correct":true,"confidence":-1},{"trial_n":88,"span":7,"encoder":"5810674","distractor":"5819674","target":"present","response":"present","rt":"2852.2999999998","correct":true,"confidence":-1},{"trial_n":89,"span":8,"encoder":"64091605","distractor":"64091601","target":"absent","response":"absent","rt":"1487.7000000002","correct":true,"confidence":-1},{"trial_n":90,"span":8,"encoder":"15796970","distractor":"15796570","target":"present","response":"absent","rt":"7959.7999999998","correct":false,"confidence":-1},{"trial_n":91,"span":7,"encoder":"4266299","distractor":"4263299","target":"present","response":"present","rt":"7520","correct":true,"confidence":1},{"trial_n":92,"span":7,"encoder":"0502580","distractor":"0502480","target":"absent","response":"absent","rt":"10083.1","correct":true,"confidence":1},{"trial_n":93,"span":8,"encoder":"54240166","distractor":"54230166","target":"present","response":"present","rt":"4795.8999999994","correct":true,"confidence":1},{"trial_n":94,"span":8,"encoder":"06477544","distractor":"06470544","target":"present","response":"present","rt":"2425.2000000002","correct":true,"confidence":4},{"trial_n":95,"span":9,"encoder":"331432897","distractor":"331438897","target":"absent","response":"present","rt":"4597.4000000004","correct":false,"confidence":2},{"trial_n":96,"span":8,"encoder":"70321818","distractor":"70321878","target":"absent","response":"absent","rt":"3964.5","correct":true,"confidence":4},{"trial_n":97,"span":8,"encoder":"68909556","distractor":"68904556","target":"present","response":"present","rt":"2725.1000000006","correct":true,"confidence":5},{"trial_n":98,"span":9,"encoder":"626831284","distractor":"626831264","target":"present","response":"absent","rt":"6925.7000000002","correct":false,"confidence":1},{"trial_n":99,"span":8,"encoder":"50058877","distractor":"50058827","target":"present","response":"present","rt":"4787.2999999998","correct":true,"confidence":4},{"trial_n":100,"span":8,"encoder":"17154497","distractor":"17154498","target":"absent","response":"absent","rt":"2324.5999999996","correct":true,"confidence":4},{"trial_n":101,"span":9,"encoder":"324939805","distractor":"424939805","target":"present","response":"absent","rt":"292.20000000019","correct":false,"confidence":1},{"trial_n":102,"span":8,"encoder":"61341972","distractor":"61341922","target":"absent","response":"present","rt":"43.200000000186","correct":false,"confidence":1},{"trial_n":103,"span":7,"encoder":"0621796","distractor":"0621794","target":"absent","response":"present","rt":"199.39999999944","correct":false,"confidence":1},{"trial_n":104,"span":6,"encoder":"157992","distractor":"857992","target":"present","response":"absent","rt":"27","correct":false,"confidence":1},{"trial_n":105,"span":5,"encoder":"79243","distractor":"79743","target":"present","response":"present","rt":"72.899999999441","correct":true,"confidence":1},{"trial_n":106,"span":5,"encoder":"82458","distractor":"82058","target":"absent","response":"absent","rt":"126.90000000037","correct":true,"confidence":1},{"trial_n":107,"span":6,"encoder":"874374","distractor":"374374","target":"absent","response":"absent","rt":"64.400000000373","correct":true,"confidence":1},{"trial_n":108,"span":6,"encoder":"875380","distractor":"875381","target":"absent","response":"present","rt":"69.200000000186","correct":false,"confidence":1},{"trial_n":109,"span":5,"encoder":"80752","distractor":"80772","target":"absent","response":"present","rt":"294.10000000056","correct":false,"confidence":1},{"trial_n":110,"span":4,"encoder":"2034","distractor":"2834","target":"absent","response":"absent","rt":"231.90000000037","correct":true,"confidence":1},{"trial_n":111,"span":4,"encoder":"6988","distractor":"6908","target":"absent","response":"present","rt":"567.5","correct":false,"confidence":1},{"trial_n":112,"span":3,"encoder":"190","distractor":"290","target":"present","response":"absent","rt":"86.900000000373","correct":false,"confidence":1},{"trial_n":113,"span":2,"encoder":"78","distractor":"08","target":"absent","response":"present","rt":"382.39999999944","correct":false,"confidence":1},{"trial_n":114,"span":2,"encoder":"67","distractor":"62","target":"absent","response":"present","rt":"45","correct":false,"confidence":1},{"trial_n":115,"span":2,"encoder":"85","distractor":"86","target":"absent","response":"present","rt":"342.19999999925","correct":false,"confidence":1},{"trial_n":116,"span":2,"encoder":"66","distractor":"65","target":"present","response":"absent","rt":"318.5","correct":false,"confidence":1},{"trial_n":117,"span":2,"encoder":"49","distractor":"40","target":"absent","response":"present","rt":"124.20000000019","correct":false,"confidence":1},{"trial_n":118,"span":2,"encoder":"63","distractor":"93","target":"absent","response":"present","rt":"151.89999999944","correct":false,"confidence":1},{"trial_n":119,"span":2,"encoder":"47","distractor":"43","target":"present","response":"absent","rt":"153.20000000019","correct":false,"confidence":1},{"trial_n":120,"span":2,"encoder":"87","distractor":"37","target":"absent","response":"present","rt":"229.90000000037","correct":false,"confidence":1},{"trial_n":121,"span":2,"encoder":"69","distractor":"61","target":"present","response":"absent","rt":"122.29999999981","correct":false,"confidence":1},{"trial_n":122,"span":2,"encoder":"37","distractor":"07","target":"present","response":"present","rt":"339.90000000037","correct":true,"confidence":1},{"trial_n":123,"span":2,"encoder":"39","distractor":"49","target":"absent","response":"absent","rt":"5.2000000001863","correct":true,"confidence":1},{"trial_n":124,"span":3,"encoder":"492","distractor":"092","target":"absent","response":"absent","rt":"262.40000000037","correct":true,"confidence":1},{"trial_n":125,"span":3,"encoder":"929","distractor":"925","target":"absent","response":"absent","rt":"209","correct":true,"confidence":1},{"trial_n":126,"span":4,"encoder":"1590","distractor":"1599","target":"absent","response":"present","rt":"77.899999999441","correct":false,"confidence":1},{"trial_n":127,"span":3,"encoder":"707","distractor":"705","target":"present","response":"present","rt":"36.700000000186","correct":true,"confidence":1},{"trial_n":128,"span":3,"encoder":"308","distractor":"309","target":"present","response":"present","rt":"14.900000000373","correct":true,"confidence":1},{"trial_n":129,"span":4,"encoder":"0352","distractor":"0392","target":"absent","response":"present","rt":"121.70000000019","correct":false,"confidence":1},{"trial_n":130,"span":3,"encoder":"696","distractor":"695","target":"present","response":"absent","rt":"19.799999999814","correct":false,"confidence":1},{"trial_n":131,"span":2,"encoder":"31","distractor":"37","target":"present","response":"present","rt":"49.199999999255","correct":true,"confidence":1},{"trial_n":132,"span":2,"encoder":"83","distractor":"81","target":"absent","response":"present","rt":"56.600000000559","correct":false,"confidence":1},{"trial_n":133,"span":2,"encoder":"98","distractor":"88","target":"present","response":"absent","rt":"90.200000000186","correct":false,"confidence":1},{"trial_n":134,"span":2,"encoder":"15","distractor":"16","target":"absent","response":"absent","rt":"8.7999999998137","correct":true,"confidence":1},{"trial_n":135,"span":2,"encoder":"01","distractor":"03","target":"present","response":"present","rt":"53.399999999441","correct":true,"confidence":1},{"trial_n":136,"span":3,"encoder":"771","distractor":"171","target":"present","response":"absent","rt":"46.399999999441","correct":false,"confidence":1},{"trial_n":137,"span":2,"encoder":"66","distractor":"69","target":"present","response":"absent","rt":"53.100000000559","correct":false,"confidence":1},{"trial_n":138,"span":2,"encoder":"37","distractor":"36","target":"present","response":"absent","rt":"163","correct":false,"confidence":1},{"trial_n":139,"span":2,"encoder":"85","distractor":"05","target":"absent","response":"present","rt":"62.200000000186","correct":false,"confidence":1},{"trial_n":140,"span":2,"encoder":"74","distractor":"75","target":"absent","response":"present","rt":"99.899999999441","correct":false,"confidence":1}]