[{"trial_n":1,"min":25,"max":230,"target":"present","response":"present","rt":6877,"correct":true,"confidence":-1},{"trial_n":2,"min":25,"max":230,"target":"present","response":"present","rt":2955,"correct":true,"confidence":-1},{"trial_n":3,"min":41,"max":214,"target":"absent","response":"absent","rt":1522,"correct":true,"confidence":-1},{"trial_n":4,"min":41,"max":214,"target":"absent","response":"absent","rt":862,"correct":true,"confidence":-1},{"trial_n":5,"min":57,"max":198,"target":"present","response":"present","rt":491,"correct":true,"confidence":-1},{"trial_n":6,"min":57,"max":198,"target":"present","response":"absent","rt":444,"correct":false,"confidence":-1},{"trial_n":7,"min":41,"max":214,"target":"present","response":"present","rt":611,"correct":true,"confidence":-1},{"trial_n":8,"min":41,"max":214,"target":"present","response":"present","rt":452,"correct":true,"confidence":-1},{"trial_n":9,"min":57,"max":198,"target":"absent","response":"absent","rt":519,"correct":true,"confidence":-1},{"trial_n":10,"min":57,"max":198,"target":"absent","response":"absent","rt":538,"correct":true,"confidence":-1},{"trial_n":11,"min":65,"max":190,"target":"present","response":"present","rt":352,"correct":true,"confidence":-1},{"trial_n":12,"min":65,"max":190,"target":"absent","response":"absent","rt":600,"correct":true,"confidence":-1},{"trial_n":13,"min":73,"max":182,"target":"absent","response":"absent","rt":430,"correct":true,"confidence":-1},{"trial_n":14,"min":73,"max":182,"target":"present","response":"present","rt":406.00000000001,"correct":true,"confidence":-1},{"trial_n":15,"min":81,"max":174,"target":"present","response":"present","rt":948,"correct":true,"confidence":-1},{"trial_n":16,"min":81,"max":174,"target":"present","response":"present","rt":591,"correct":true,"confidence":-1},{"trial_n":17,"min":89,"max":166,"target":"present","response":"absent","rt":810,"correct":false,"confidence":-1},{"trial_n":18,"min":81,"max":174,"target":"absent","response":"present","rt":608.00000000001,"correct":false,"confidence":-1},{"trial_n":19,"min":73,"max":182,"target":"absent","response":"absent","rt":596.00000000001,"correct":true,"confidence":-1},{"trial_n":20,"min":73,"max":182,"target":"present","response":"present","rt":640.00000000001,"correct":true,"confidence":-1},{"trial_n":21,"min":77,"max":178,"target":"present","response":"present","rt":793,"correct":true,"confidence":4},{"trial_n":22,"min":77,"max":178,"target":"present","response":"present","rt":3585,"correct":true,"confidence":2},{"trial_n":23,"min":81,"max":174,"target":"present","response":"present","rt":1577,"correct":true,"confidence":3},{"trial_n":24,"min":81,"max":174,"target":"absent","response":"absent","rt":2959,"correct":true,"confidence":2},{"trial_n":25,"min":85,"max":170,"target":"present","response":"present","rt":2146,"correct":true,"confidence":3},{"trial_n":26,"min":85,"max":170,"target":"present","response":"present","rt":1400,"correct":true,"confidence":4},{"trial_n":27,"min":89,"max":166,"target":"absent","response":"absent","rt":850,"correct":true,"confidence":4},{"trial_n":28,"min":89,"max":166,"target":"absent","response":"absent","rt":1602,"correct":true,"confidence":5},{"trial_n":29,"min":93,"max":162,"target":"present","response":"present","rt":2014,"correct":true,"confidence":3},{"trial_n":30,"min":93,"max":162,"target":"absent","response":"absent","rt":759,"correct":true,"confidence":4},{"trial_n":31,"min":95,"max":160,"target":"present","response":"present","rt":1348,"correct":true,"confidence":4},{"trial_n":32,"min":95,"max":160,"target":"present","response":"absent","rt":1243,"correct":false,"confidence":4},{"trial_n":33,"min":93,"max":162,"target":"absent","response":"present","rt":1120,"correct":false,"confidence":3},{"trial_n":34,"min":91,"max":164,"target":"present","response":"present","rt":1231,"correct":true,"confidence":3},{"trial_n":35,"min":91,"max":164,"target":"present","response":"present","rt":985.00000000003,"correct":true,"confidence":4},{"trial_n":36,"min":93,"max":162,"target":"absent","response":"present","rt":2193,"correct":false,"confidence":2},{"trial_n":37,"min":91,"max":164,"target":"present","response":"present","rt":1083,"correct":true,"confidence":4},{"trial_n":38,"min":91,"max":164,"target":"present","response":"absent","rt":1316.0000000001,"correct":false,"confidence":4},{"trial_n":39,"min":89,"max":166,"target":"absent","response":"absent","rt":1147,"correct":true,"confidence":5},{"trial_n":40,"min":89,"max":166,"target":"absent","response":"absent","rt":1308.9999999999,"correct":true,"confidence":3},{"trial_n":41,"min":90,"max":165,"target":"present","response":"present","rt":1660.0000000001,"correct":true,"confidence":2},{"trial_n":42,"min":90,"max":165,"target":"absent","response":"present","rt":832,"correct":false,"confidence":4},{"trial_n":43,"min":89,"max":166,"target":"present","response":"present","rt":1018,"correct":true,"confidence":4},{"trial_n":44,"min":89,"max":166,"target":"absent","response":"absent","rt":1296,"correct":true,"confidence":3},{"trial_n":45,"min":90,"max":165,"target":"absent","response":"absent","rt":882,"correct":true,"confidence":3},{"trial_n":46,"min":90,"max":165,"target":"absent","response":"absent","rt":4458,"correct":true,"confidence":2},{"trial_n":47,"min":91,"max":164,"target":"present","response":"present","rt":752,"correct":true,"confidence":5},{"trial_n":48,"min":91,"max":164,"target":"present","response":"present","rt":689,"correct":true,"confidence":5},{"trial_n":49,"min":92,"max":163,"target":"present","response":"present","rt":897,"correct":true,"confidence":5},{"trial_n":50,"min":92,"max":163,"target":"present","response":"present","rt":683,"correct":true,"confidence":5},{"trial_n":51,"min":93,"max":162,"target":"absent","response":"absent","rt":926,"correct":true,"confidence":4},{"trial_n":52,"min":93,"max":162,"target":"present","response":"absent","rt":1492.9999999999,"correct":false,"confidence":2},{"trial_n":53,"min":92,"max":163,"target":"absent","response":"absent","rt":2615,"correct":true,"confidence":3},{"trial_n":54,"min":92,"max":163,"target":"absent","response":"present","rt":2218.9999999999,"correct":false,"confidence":2},{"trial_n":55,"min":91,"max":164,"target":"absent","response":"absent","rt":744.99999999994,"correct":true,"confidence":2},{"trial_n":56,"min":91,"max":164,"target":"absent","response":"absent","rt":1722,"correct":true,"confidence":3},{"trial_n":57,"min":92,"max":163,"target":"present","response":"absent","rt":3375.9999999999,"correct":false,"confidence":2},{"trial_n":58,"min":91,"max":164,"target":"absent","response":"present","rt":1227.0000000001,"correct":false,"confidence":2},{"trial_n":59,"min":90,"max":165,"target":"absent","response":"present","rt":2184,"correct":false,"confidence":2},{"trial_n":60,"min":89,"max":166,"target":"absent","response":"present","rt":1353,"correct":false,"confidence":2},{"trial_n":61,"min":88,"max":167,"target":"present","response":"present","rt":718,"correct":true,"confidence":5},{"trial_n":62,"min":88,"max":167,"target":"absent","response":"present","rt":1348.0000000001,"correct":false,"confidence":4},{"trial_n":63,"min":87,"max":168,"target":"present","response":"present","rt":752,"correct":true,"confidence":4},{"trial_n":64,"min":87,"max":168,"target":"absent","response":"absent","rt":818.00000000006,"correct":true,"confidence":5},{"trial_n":65,"min":88,"max":167,"target":"present","response":"present","rt":1185,"correct":true,"confidence":3},{"trial_n":66,"min":88,"max":167,"target":"present","response":"present","rt":853.99999999994,"correct":true,"confidence":3},{"trial_n":67,"min":89,"max":166,"target":"absent","response":"absent","rt":1533,"correct":true,"confidence":3},{"trial_n":68,"min":89,"max":166,"target":"absent","response":"absent","rt":1122.9999999999,"correct":true,"confidence":4},{"trial_n":69,"min":90,"max":165,"target":"absent","response":"absent","rt":782,"correct":true,"confidence":5},{"trial_n":70,"min":90,"max":165,"target":"absent","response":"present","rt":1173,"correct":false,"confidence":3},{"trial_n":71,"min":41,"max":214,"target":"present","response":"present","rt":1729,"correct":true,"confidence":-1},{"trial_n":72,"min":41,"max":214,"target":"present","response":"present","rt":641.99999999994,"correct":true,"confidence":-1},{"trial_n":73,"min":57,"max":198,"target":"absent","response":"absent","rt":896,"correct":true,"confidence":-1},{"trial_n":74,"min":57,"max":198,"target":"absent","response":"absent","rt":502,"correct":true,"confidence":-1},{"trial_n":75,"min":73,"max":182,"target":"present","response":"present","rt":469,"correct":true,"confidence":-1},{"trial_n":76,"min":73,"max":182,"target":"absent","response":"present","rt":670.00000000006,"correct":false,"confidence":-1},{"trial_n":77,"min":57,"max":198,"target":"absent","response":"absent","rt":535,"correct":true,"confidence":-1},{"trial_n":78,"min":57,"max":198,"target":"present","response":"present","rt":426,"correct":true,"confidence":-1},{"trial_n":79,"min":73,"max":182,"target":"present","response":"present","rt":576,"correct":true,"confidence":-1},{"trial_n":80,"min":73,"max":182,"target":"absent","response":"absent","rt":562,"correct":true,"confidence":-1},{"trial_n":81,"min":81,"max":174,"target":"present","response":"absent","rt":1841,"correct":false,"confidence":-1},{"trial_n":82,"min":73,"max":182,"target":"present","response":"absent","rt":1003,"correct":false,"confidence":-1},{"trial_n":83,"min":65,"max":190,"target":"present","response":"present","rt":977,"correct":true,"confidence":-1},{"trial_n":84,"min":65,"max":190,"target":"absent","response":"absent","rt":955.99999999994,"correct":true,"confidence":-1},{"trial_n":85,"min":73,"max":182,"target":"present","response":"present","rt":456,"correct":true,"confidence":-1},{"trial_n":86,"min":73,"max":182,"target":"present","response":"present","rt":743.99999999994,"correct":true,"confidence":-1},{"trial_n":87,"min":81,"max":174,"target":"present","response":"present","rt":702,"correct":true,"confidence":-1},{"trial_n":88,"min":81,"max":174,"target":"absent","response":"absent","rt":716.00000000006,"correct":true,"confidence":-1},{"trial_n":89,"min":89,"max":166,"target":"present","response":"present","rt":533,"correct":true,"confidence":-1},{"trial_n":90,"min":89,"max":166,"target":"present","response":"present","rt":550.99999999994,"correct":true,"confidence":-1},{"trial_n":91,"min":93,"max":162,"target":"absent","response":"present","rt":1533,"correct":false,"confidence":1},{"trial_n":92,"min":89,"max":166,"target":"present","response":"present","rt":1273,"correct":true,"confidence":3},{"trial_n":93,"min":89,"max":166,"target":"present","response":"present","rt":462,"correct":true,"confidence":5},{"trial_n":94,"min":93,"max":162,"target":"absent","response":"absent","rt":742,"correct":true,"confidence":5},{"trial_n":95,"min":93,"max":162,"target":"absent","response":"absent","rt":1075,"correct":true,"confidence":2},{"trial_n":96,"min":97,"max":158,"target":"absent","response":"absent","rt":1503,"correct":true,"confidence":2},{"trial_n":97,"min":97,"max":158,"target":"absent","response":"present","rt":980.00000000012,"correct":false,"confidence":2},{"trial_n":98,"min":93,"max":162,"target":"absent","response":"present","rt":670,"correct":false,"confidence":3},{"trial_n":99,"min":89,"max":166,"target":"present","response":"present","rt":1040,"correct":true,"confidence":3},{"trial_n":100,"min":89,"max":166,"target":"absent","response":"absent","rt":3735,"correct":true,"confidence":2},{"trial_n":101,"min":91,"max":164,"target":"present","response":"absent","rt":995,"correct":false,"confidence":2},{"trial_n":102,"min":89,"max":166,"target":"present","response":"present","rt":391,"correct":true,"confidence":4},{"trial_n":103,"min":89,"max":166,"target":"absent","response":"present","rt":3239,"correct":false,"confidence":1},{"trial_n":104,"min":87,"max":168,"target":"absent","response":"present","rt":611,"correct":false,"confidence":3},{"trial_n":105,"min":85,"max":170,"target":"present","response":"present","rt":498,"correct":true,"confidence":4},{"trial_n":106,"min":85,"max":170,"target":"absent","response":"absent","rt":568.00000000012,"correct":true,"confidence":4},{"trial_n":107,"min":87,"max":168,"target":"present","response":"present","rt":364,"correct":true,"confidence":5},{"trial_n":108,"min":87,"max":168,"target":"present","response":"absent","rt":1149,"correct":false,"confidence":2},{"trial_n":109,"min":85,"max":170,"target":"absent","response":"present","rt":331,"correct":false,"confidence":4},{"trial_n":110,"min":83,"max":172,"target":"absent","response":"absent","rt":1552,"correct":true,"confidence":3},{"trial_n":111,"min":83,"max":172,"target":"absent","response":"present","rt":1108,"correct":false,"confidence":4},{"trial_n":112,"min":82,"max":173,"target":"absent","response":"absent","rt":691.00000000012,"correct":true,"confidence":3},{"trial_n":113,"min":82,"max":173,"target":"absent","response":"absent","rt":566,"correct":true,"confidence":5},{"trial_n":114,"min":83,"max":172,"target":"present","response":"present","rt":456,"correct":true,"confidence":5},{"trial_n":115,"min":83,"max":172,"target":"present","response":"present","rt":747.99999999988,"correct":true,"confidence":4},{"trial_n":116,"min":84,"max":171,"target":"absent","response":"absent","rt":1060,"correct":true,"confidence":3},{"trial_n":117,"min":84,"max":171,"target":"absent","response":"absent","rt":1049,"correct":true,"confidence":5},{"trial_n":118,"min":85,"max":170,"target":"present","response":"present","rt":299,"correct":true,"confidence":5},{"trial_n":119,"min":85,"max":170,"target":"present","response":"present","rt":332,"correct":true,"confidence":5},{"trial_n":120,"min":86,"max":169,"target":"absent","response":"absent","rt":621.99999999988,"correct":true,"confidence":4},{"trial_n":121,"min":86,"max":169,"target":"present","response":"present","rt":263,"correct":true,"confidence":5},{"trial_n":122,"min":87,"max":168,"target":"absent","response":"present","rt":588,"correct":false,"confidence":4},{"trial_n":123,"min":86,"max":169,"target":"present","response":"present","rt":257,"correct":true,"confidence":5},{"trial_n":124,"min":86,"max":169,"target":"present","response":"present","rt":515,"correct":true,"confidence":4},{"trial_n":125,"min":87,"max":168,"target":"absent","response":"absent","rt":1051,"correct":true,"confidence":2},{"trial_n":126,"min":87,"max":168,"target":"present","response":"present","rt":452,"correct":true,"confidence":4},{"trial_n":127,"min":88,"max":167,"target":"absent","response":"present","rt":521.99999999988,"correct":false,"confidence":3},{"trial_n":128,"min":87,"max":168,"target":"present","response":"absent","rt":1253.9999999999,"correct":false,"confidence":2},{"trial_n":129,"min":86,"max":169,"target":"present","response":"present","rt":253.99999999988,"correct":true,"confidence":4},{"trial_n":130,"min":86,"max":169,"target":"present","response":"present","rt":1779,"correct":true,"confidence":3},{"trial_n":131,"min":87,"max":168,"target":"absent","response":"absent","rt":614,"correct":true,"confidence":3},{"trial_n":132,"min":87,"max":168,"target":"present","response":"present","rt":498.00000000012,"correct":true,"confidence":4},{"trial_n":133,"min":88,"max":167,"target":"absent","response":"absent","rt":949,"correct":true,"confidence":2},{"trial_n":134,"min":88,"max":167,"target":"present","response":"present","rt":552,"correct":true,"confidence":3},{"trial_n":135,"min":89,"max":166,"target":"absent","response":"absent","rt":685,"correct":true,"confidence":3},{"trial_n":136,"min":89,"max":166,"target":"present","response":"absent","rt":382,"correct":false,"confidence":5},{"trial_n":137,"min":88,"max":167,"target":"absent","response":"present","rt":666.99999999988,"correct":false,"confidence":4},{"trial_n":138,"min":87,"max":168,"target":"present","response":"present","rt":550,"correct":true,"confidence":4},{"trial_n":139,"min":87,"max":168,"target":"absent","response":"absent","rt":860,"correct":true,"confidence":2},{"trial_n":140,"min":88,"max":167,"target":"absent","response":"absent","rt":779.00000000012,"correct":true,"confidence":4}]