[{"trial_n":1,"span":8,"encoder":"30649913","distractor":"40649913","target":"present","response":"absent","rt":"4795","correct":false,"confidence":-1},{"trial_n":2,"span":6,"encoder":"512130","distractor":"512138","target":"present","response":"present","rt":"2061","correct":true,"confidence":-1},{"trial_n":3,"span":6,"encoder":"541570","distractor":"541560","target":"absent","response":"absent","rt":"2129","correct":true,"confidence":-1},{"trial_n":4,"span":8,"encoder":"15105964","distractor":"15135964","target":"absent","response":"present","rt":"1388","correct":false,"confidence":-1},{"trial_n":5,"span":6,"encoder":"084314","distractor":"184314","target":"present","response":"present","rt":"1311","correct":true,"confidence":-1},{"trial_n":6,"span":6,"encoder":"902129","distractor":"962129","target":"present","response":"present","rt":"1429","correct":true,"confidence":-1},{"trial_n":7,"span":8,"encoder":"23104578","distractor":"23101578","target":"absent","response":"absent","rt":"2427","correct":true,"confidence":-1},{"trial_n":8,"span":8,"encoder":"11275026","distractor":"11275028","target":"absent","response":"absent","rt":"1581","correct":true,"confidence":-1},{"trial_n":9,"span":10,"encoder":"2820112327","distractor":"2820112027","target":"present","response":"absent","rt":"1805","correct":false,"confidence":-1},{"trial_n":10,"span":8,"encoder":"59036949","distractor":"59030949","target":"present","response":"present","rt":"2088","correct":true,"confidence":-1},{"trial_n":11,"span":8,"encoder":"21322700","distractor":"21382700","target":"present","response":"absent","rt":"2860","correct":false,"confidence":-1},{"trial_n":12,"span":7,"encoder":"5922664","distractor":"5927664","target":"absent","response":"present","rt":"2185","correct":false,"confidence":-1},{"trial_n":13,"span":6,"encoder":"581340","distractor":"581380","target":"absent","response":"absent","rt":"2104","correct":true,"confidence":-1},{"trial_n":14,"span":6,"encoder":"010785","distractor":"010285","target":"absent","response":"absent","rt":"1643","correct":true,"confidence":-1},{"trial_n":15,"span":7,"encoder":"9167180","distractor":"9161180","target":"present","response":"present","rt":"2224","correct":true,"confidence":-1},{"trial_n":16,"span":7,"encoder":"5868468","distractor":"5860468","target":"absent","response":"absent","rt":"3381","correct":true,"confidence":-1},{"trial_n":17,"span":8,"encoder":"60013364","distractor":"60013363","target":"absent","response":"present","rt":"2009","correct":false,"confidence":-1},{"trial_n":18,"span":7,"encoder":"4720542","distractor":"4720546","target":"absent","response":"absent","rt":"1936","correct":true,"confidence":-1},{"trial_n":19,"span":7,"encoder":"5760369","distractor":"5760769","target":"absent","response":"absent","rt":"1797","correct":true,"confidence":-1},{"trial_n":20,"span":8,"encoder":"22760883","distractor":"22860883","target":"absent","response":"present","rt":"1477","correct":false,"confidence":-1},{"trial_n":21,"span":7,"encoder":"3822149","distractor":"3823149","target":"absent","response":"absent","rt":"3650","correct":true,"confidence":3},{"trial_n":22,"span":7,"encoder":"8851757","distractor":"8851457","target":"present","response":"present","rt":"2044","correct":true,"confidence":4},{"trial_n":23,"span":8,"encoder":"64322746","distractor":"64222746","target":"absent","response":"absent","rt":"2914","correct":true,"confidence":4},{"trial_n":24,"span":8,"encoder":"04552192","distractor":"04552132","target":"absent","response":"absent","rt":"2725","correct":true,"confidence":5},{"trial_n":25,"span":9,"encoder":"784746603","distractor":"724746603","target":"present","response":"present","rt":"2343","correct":true,"confidence":3},{"trial_n":26,"span":9,"encoder":"957563351","distractor":"937563351","target":"present","response":"present","rt":"2018","correct":true,"confidence":4},{"trial_n":27,"span":10,"encoder":"0970131063","distractor":"0970131065","target":"present","response":"present","rt":"3302","correct":true,"confidence":4},{"trial_n":28,"span":10,"encoder":"2917517019","distractor":"2917517719","target":"present","response":"present","rt":"2680","correct":true,"confidence":4},{"trial_n":29,"span":11,"encoder":"44368318243","distractor":"94368318243","target":"present","response":"present","rt":"3173","correct":true,"confidence":5},{"trial_n":30,"span":11,"encoder":"51471158779","distractor":"51471188779","target":"present","response":"absent","rt":"8254","correct":false,"confidence":3},{"trial_n":31,"span":10,"encoder":"9067943465","distractor":"9067943463","target":"present","response":"present","rt":"1710","correct":true,"confidence":4},{"trial_n":32,"span":10,"encoder":"3476892361","distractor":"3476892367","target":"present","response":"present","rt":"2011","correct":true,"confidence":4},{"trial_n":33,"span":11,"encoder":"52022113364","distractor":"52022113964","target":"absent","response":"absent","rt":"3813","correct":true,"confidence":4},{"trial_n":34,"span":11,"encoder":"48766416503","distractor":"18766416503","target":"present","response":"present","rt":"2124","correct":true,"confidence":3},{"trial_n":35,"span":12,"encoder":"878609243093","distractor":"878608243093","target":"present","response":"present","rt":"2277","correct":true,"confidence":3},{"trial_n":36,"span":12,"encoder":"730006445001","distractor":"738006445001","target":"present","response":"present","rt":"1903","correct":true,"confidence":4},{"trial_n":37,"span":13,"encoder":"6943400257672","distractor":"6343400257672","target":"absent","response":"absent","rt":"3681","correct":true,"confidence":2},{"trial_n":38,"span":13,"encoder":"4647174275162","distractor":"4647374275162","target":"present","response":"present","rt":"2749","correct":true,"confidence":3},{"trial_n":39,"span":14,"encoder":"61004091885289","distractor":"61004090885289","target":"absent","response":"present","rt":"2234","correct":false,"confidence":3},{"trial_n":40,"span":13,"encoder":"3374978232869","distractor":"3374978232889","target":"present","response":"present","rt":"2298","correct":true,"confidence":3},{"trial_n":41,"span":13,"encoder":"9345779785798","distractor":"9345771785798","target":"present","response":"present","rt":"2882","correct":true,"confidence":1},{"trial_n":42,"span":14,"encoder":"86274470759046","distractor":"86274470759036","target":"absent","response":"absent","rt":"1795","correct":true,"confidence":5},{"trial_n":43,"span":14,"encoder":"20268308510856","distractor":"20268308515856","target":"present","response":"present","rt":"1506","correct":true,"confidence":3},{"trial_n":44,"span":15,"encoder":"621961855649281","distractor":"621931855649281","target":"present","response":"present","rt":"2115.0000000001","correct":true,"confidence":3},{"trial_n":45,"span":15,"encoder":"818241012984034","distractor":"818241012984334","target":"present","response":"absent","rt":"4443","correct":false,"confidence":3},{"trial_n":46,"span":14,"encoder":"66758765611605","distractor":"66758065611605","target":"present","response":"absent","rt":"2264","correct":false,"confidence":4},{"trial_n":47,"span":13,"encoder":"1451579645921","distractor":"1451579745921","target":"present","response":"present","rt":"2687.9999999999","correct":true,"confidence":4},{"trial_n":48,"span":13,"encoder":"3051714393684","distractor":"3051714393680","target":"absent","response":"present","rt":"3077","correct":false,"confidence":3},{"trial_n":49,"span":12,"encoder":"465438444379","distractor":"465435444379","target":"absent","response":"absent","rt":"2051","correct":true,"confidence":5},{"trial_n":50,"span":12,"encoder":"278996961767","distractor":"278596961767","target":"absent","response":"absent","rt":"2090","correct":true,"confidence":5},{"trial_n":51,"span":13,"encoder":"8232730439883","distractor":"7232730439883","target":"present","response":"present","rt":"2947","correct":true,"confidence":4},{"trial_n":52,"span":13,"encoder":"4482810497697","distractor":"4482814497697","target":"present","response":"present","rt":"2545","correct":true,"confidence":2},{"trial_n":53,"span":14,"encoder":"81340410620056","distractor":"81340410620066","target":"present","response":"absent","rt":"2611","correct":false,"confidence":4},{"trial_n":54,"span":13,"encoder":"3832496903754","distractor":"3832496903752","target":"absent","response":"present","rt":"2389","correct":false,"confidence":4},{"trial_n":55,"span":12,"encoder":"506396401696","distractor":"506396461696","target":"absent","response":"absent","rt":"1775.0000000001","correct":true,"confidence":5},{"trial_n":56,"span":12,"encoder":"676547995720","distractor":"676047995720","target":"present","response":"absent","rt":"4686","correct":false,"confidence":4},{"trial_n":57,"span":11,"encoder":"99269315448","distractor":"99269615448","target":"absent","response":"absent","rt":"2666.0000000001","correct":true,"confidence":5},{"trial_n":58,"span":11,"encoder":"87693634482","distractor":"87693694482","target":"present","response":"present","rt":"2579.9999999999","correct":true,"confidence":4},{"trial_n":59,"span":12,"encoder":"512828260194","distractor":"512828263194","target":"absent","response":"present","rt":"1618","correct":false,"confidence":3},{"trial_n":60,"span":11,"encoder":"68494924282","distractor":"68894924282","target":"present","response":"present","rt":"2181","correct":true,"confidence":4},{"trial_n":61,"span":11,"encoder":"40322375303","distractor":"40322375393","target":"absent","response":"absent","rt":"3216","correct":true,"confidence":3},{"trial_n":62,"span":12,"encoder":"322635469424","distractor":"322634469424","target":"present","response":"present","rt":"2221","correct":true,"confidence":3},{"trial_n":63,"span":12,"encoder":"761082448073","distractor":"761082438073","target":"absent","response":"absent","rt":"3251","correct":true,"confidence":4},{"trial_n":64,"span":13,"encoder":"7783687050541","distractor":"7783687050841","target":"absent","response":"absent","rt":"2981","correct":true,"confidence":4},{"trial_n":65,"span":13,"encoder":"4820992788755","distractor":"4820992788715","target":"absent","response":"absent","rt":"2278","correct":true,"confidence":5},{"trial_n":66,"span":14,"encoder":"55138827278598","distractor":"55138627278598","target":"present","response":"present","rt":"2249","correct":true,"confidence":3},{"trial_n":67,"span":14,"encoder":"11653741724506","distractor":"11653701724506","target":"absent","response":"absent","rt":"3357","correct":true,"confidence":5},{"trial_n":68,"span":15,"encoder":"591899073980389","distractor":"591839073980389","target":"absent","response":"absent","rt":"5311","correct":true,"confidence":3},{"trial_n":69,"span":15,"encoder":"092020056417721","distractor":"092020056417727","target":"absent","response":"present","rt":"2172.0000000001","correct":false,"confidence":4},{"trial_n":70,"span":14,"encoder":"43840540013247","distractor":"43840590013247","target":"absent","response":"absent","rt":"2336.0000000001","correct":true,"confidence":5},{"trial_n":71,"span":8,"encoder":"96855901","distractor":"96855941","target":"present","response":"present","rt":"1735","correct":true,"confidence":-1},{"trial_n":72,"span":8,"encoder":"57487036","distractor":"27487036","target":"present","response":"present","rt":"4591.0000000002","correct":true,"confidence":-1},{"trial_n":73,"span":9,"encoder":"474467351","distractor":"484467351","target":"absent","response":"absent","rt":"6959","correct":true,"confidence":-1},{"trial_n":74,"span":9,"encoder":"166781580","distractor":"166741580","target":"absent","response":"absent","rt":"5769.9999999998","correct":true,"confidence":-1},{"trial_n":75,"span":10,"encoder":"7487606883","distractor":"7487206883","target":"present","response":"present","rt":"5279","correct":true,"confidence":-1},{"trial_n":76,"span":10,"encoder":"2603738034","distractor":"8603738034","target":"present","response":"absent","rt":"3886","correct":false,"confidence":-1},{"trial_n":77,"span":9,"encoder":"600874663","distractor":"610874663","target":"absent","response":"present","rt":"6133","correct":false,"confidence":-1},{"trial_n":78,"span":8,"encoder":"55908544","distractor":"15908544","target":"absent","response":"absent","rt":"5091","correct":true,"confidence":-1},{"trial_n":79,"span":8,"encoder":"00444351","distractor":"00844351","target":"present","response":"present","rt":"2762","correct":true,"confidence":-1},{"trial_n":80,"span":9,"encoder":"408974564","distractor":"408974524","target":"absent","response":"absent","rt":"4287.0000000002","correct":true,"confidence":-1},{"trial_n":81,"span":9,"encoder":"255296778","distractor":"255396778","target":"absent","response":"absent","rt":"5517","correct":true,"confidence":-1},{"trial_n":82,"span":10,"encoder":"4447763901","distractor":"4847763901","target":"present","response":"present","rt":"4160.0000000002","correct":true,"confidence":-1},{"trial_n":83,"span":10,"encoder":"1761778231","distractor":"1761770231","target":"absent","response":"absent","rt":"4982.9999999998","correct":true,"confidence":-1},{"trial_n":84,"span":11,"encoder":"69908428324","distractor":"69408428324","target":"absent","response":"present","rt":"3279","correct":false,"confidence":-1},{"trial_n":85,"span":10,"encoder":"8666919489","distractor":"8666919889","target":"present","response":"absent","rt":"4928","correct":false,"confidence":-1},{"trial_n":86,"span":9,"encoder":"995622843","distractor":"995632843","target":"absent","response":"absent","rt":"4327","correct":true,"confidence":-1},{"trial_n":87,"span":9,"encoder":"180347641","distractor":"180340641","target":"absent","response":"absent","rt":"2361","correct":true,"confidence":-1},{"trial_n":88,"span":10,"encoder":"0160437167","distractor":"0160434167","target":"absent","response":"absent","rt":"3099","correct":true,"confidence":-1},{"trial_n":89,"span":10,"encoder":"6833098833","distractor":"7833098833","target":"present","response":"absent","rt":"5256.9999999998","correct":false,"confidence":-1},{"trial_n":90,"span":9,"encoder":"532792975","distractor":"532792995","target":"present","response":"present","rt":"3077","correct":true,"confidence":-1},{"trial_n":91,"span":9,"encoder":"075795035","distractor":"075795735","target":"present","response":"present","rt":"2320","correct":true,"confidence":4},{"trial_n":92,"span":10,"encoder":"8856664333","distractor":"8876664333","target":"absent","response":"present","rt":"7072","correct":false,"confidence":2},{"trial_n":93,"span":9,"encoder":"924717680","distractor":"924717620","target":"present","response":"present","rt":"2292","correct":true,"confidence":5},{"trial_n":94,"span":9,"encoder":"573288203","distractor":"513288203","target":"present","response":"present","rt":"3633","correct":true,"confidence":3},{"trial_n":95,"span":10,"encoder":"8179626317","distractor":"8179626315","target":"present","response":"present","rt":"9936","correct":true,"confidence":4},{"trial_n":96,"span":10,"encoder":"8699536735","distractor":"8699535735","target":"present","response":"present","rt":"9188","correct":true,"confidence":3},{"trial_n":97,"span":11,"encoder":"79868807816","distractor":"79863807816","target":"present","response":"absent","rt":"7538","correct":false,"confidence":2},{"trial_n":98,"span":10,"encoder":"9203462587","distractor":"9203662587","target":"absent","response":"present","rt":"5375","correct":false,"confidence":2},{"trial_n":99,"span":9,"encoder":"659355592","distractor":"959355592","target":"absent","response":"absent","rt":"9381.0000000002","correct":true,"confidence":4},{"trial_n":100,"span":9,"encoder":"894723555","distractor":"894721555","target":"present","response":"present","rt":"5166","correct":true,"confidence":4},{"trial_n":101,"span":10,"encoder":"3841162245","distractor":"3841162145","target":"present","response":"present","rt":"3172","correct":true,"confidence":3},{"trial_n":102,"span":10,"encoder":"6486038095","distractor":"6486088095","target":"absent","response":"absent","rt":"4373.0000000002","correct":true,"confidence":2},{"trial_n":103,"span":11,"encoder":"60990680960","distractor":"60990680970","target":"present","response":"present","rt":"2834","correct":true,"confidence":5},{"trial_n":104,"span":11,"encoder":"75586844117","distractor":"75586846117","target":"present","response":"present","rt":"3445","correct":true,"confidence":4},{"trial_n":105,"span":12,"encoder":"120764416562","distractor":"100764416562","target":"present","response":"absent","rt":"6474","correct":false,"confidence":3},{"trial_n":106,"span":11,"encoder":"06539125616","distractor":"96539125616","target":"present","response":"present","rt":"5388.9999999998","correct":true,"confidence":3},{"trial_n":107,"span":11,"encoder":"92185950247","distractor":"92185850247","target":"present","response":"present","rt":"2413","correct":true,"confidence":5},{"trial_n":108,"span":12,"encoder":"266738311982","distractor":"266728311982","target":"absent","response":"absent","rt":"7580.0000000002","correct":true,"confidence":3},{"trial_n":109,"span":12,"encoder":"402371574663","distractor":"402871574663","target":"absent","response":"absent","rt":"5362","correct":true,"confidence":4},{"trial_n":110,"span":13,"encoder":"7072960019675","distractor":"7572960019675","target":"present","response":"present","rt":"7882","correct":true,"confidence":3},{"trial_n":111,"span":13,"encoder":"7410716080155","distractor":"7410716080175","target":"absent","response":"present","rt":"6916","correct":false,"confidence":2},{"trial_n":112,"span":12,"encoder":"124602912144","distractor":"124602910144","target":"present","response":"absent","rt":"8121.9999999998","correct":false,"confidence":3},{"trial_n":113,"span":11,"encoder":"66681208050","distractor":"66641208050","target":"absent","response":"absent","rt":"3539","correct":true,"confidence":4},{"trial_n":114,"span":11,"encoder":"80347245664","distractor":"80347265664","target":"present","response":"absent","rt":"8865.9999999998","correct":false,"confidence":1},{"trial_n":115,"span":10,"encoder":"1913769667","distractor":"1913969667","target":"absent","response":"absent","rt":"6220.0000000002","correct":true,"confidence":4},{"trial_n":116,"span":10,"encoder":"2818935228","distractor":"2818935928","target":"absent","response":"present","rt":"4142","correct":false,"confidence":3},{"trial_n":117,"span":9,"encoder":"755015404","distractor":"355015404","target":"present","response":"present","rt":"6539","correct":true,"confidence":3},{"trial_n":118,"span":9,"encoder":"885569439","distractor":"885469439","target":"absent","response":"absent","rt":"5751","correct":true,"confidence":3},{"trial_n":119,"span":10,"encoder":"5580410479","distractor":"5580510479","target":"present","response":"present","rt":"5752","correct":true,"confidence":3},{"trial_n":120,"span":10,"encoder":"7578785425","distractor":"7548785425","target":"present","response":"present","rt":"4815","correct":true,"confidence":3},{"trial_n":121,"span":11,"encoder":"76253549903","distractor":"76257549903","target":"absent","response":"absent","rt":"6077","correct":true,"confidence":4},{"trial_n":122,"span":11,"encoder":"25003025427","distractor":"25083025427","target":"present","response":"present","rt":"3024","correct":true,"confidence":4},{"trial_n":123,"span":12,"encoder":"992100060811","distractor":"992300060811","target":"absent","response":"absent","rt":"5791","correct":true,"confidence":4},{"trial_n":124,"span":12,"encoder":"141848806869","distractor":"141848806861","target":"absent","response":"absent","rt":"3095","correct":true,"confidence":5},{"trial_n":125,"span":13,"encoder":"8611312346053","distractor":"1611312346053","target":"absent","response":"present","rt":"6230","correct":false,"confidence":3},{"trial_n":126,"span":12,"encoder":"013962223592","distractor":"043962223592","target":"absent","response":"absent","rt":"3908","correct":true,"confidence":4},{"trial_n":127,"span":12,"encoder":"848768954361","distractor":"848168954361","target":"present","response":"present","rt":"4099","correct":true,"confidence":2},{"trial_n":128,"span":13,"encoder":"3265985000781","distractor":"3265985006781","target":"absent","response":"present","rt":"5631","correct":false,"confidence":3},{"trial_n":129,"span":12,"encoder":"621830306477","distractor":"621830506477","target":"present","response":"present","rt":"6602","correct":true,"confidence":2},{"trial_n":130,"span":12,"encoder":"266401345921","distractor":"266401348921","target":"present","response":"present","rt":"3573","correct":true,"confidence":3},{"trial_n":131,"span":13,"encoder":"3427733367167","distractor":"4427733367167","target":"absent","response":"present","rt":"20878","correct":false,"confidence":1},{"trial_n":132,"span":12,"encoder":"321850370473","distractor":"321850340473","target":"absent","response":"absent","rt":"9391","correct":true,"confidence":1},{"trial_n":133,"span":12,"encoder":"207589851204","distractor":"207589951204","target":"absent","response":"absent","rt":"2884.0000000002","correct":true,"confidence":3},{"trial_n":134,"span":13,"encoder":"2840730052898","distractor":"2840730052298","target":"absent","response":"absent","rt":"1973","correct":true,"confidence":5},{"trial_n":135,"span":13,"encoder":"2235565517161","distractor":"2235665517161","target":"present","response":"present","rt":"2972","correct":true,"confidence":5},{"trial_n":136,"span":14,"encoder":"99669753166878","distractor":"99649753166878","target":"present","response":"present","rt":"5283","correct":true,"confidence":3},{"trial_n":137,"span":14,"encoder":"84418567825268","distractor":"84416567825268","target":"present","response":"present","rt":"4118.0000000002","correct":true,"confidence":2},{"trial_n":138,"span":15,"encoder":"738144637959511","distractor":"738144607959511","target":"absent","response":"absent","rt":"5262","correct":true,"confidence":3},{"trial_n":139,"span":15,"encoder":"646750792460412","distractor":"646750792460432","target":"present","response":"present","rt":"1752","correct":true,"confidence":5},{"trial_n":140,"span":16,"encoder":"3955800346407044","distractor":"3955700346407044","target":"absent","response":"absent","rt":"8377","correct":true,"confidence":2}]