[{"trial_n":1,"n_dots":4.25,"target":"left","response":"left","rt":4444.6999999993,"correct":true,"confidence":-1},{"trial_n":2,"n_dots":4.25,"target":"right","response":"right","rt":1055.200000003,"correct":true,"confidence":-1},{"trial_n":3,"n_dots":3.85,"target":"right","response":"right","rt":708.60000000149,"correct":true,"confidence":-1},{"trial_n":4,"n_dots":3.85,"target":"right","response":"right","rt":658.10000000149,"correct":true,"confidence":-1},{"trial_n":5,"n_dots":3.45,"target":"right","response":"right","rt":1549.8999999985,"correct":true,"confidence":-1},{"trial_n":6,"n_dots":3.45,"target":"right","response":"right","rt":901.30000000075,"correct":true,"confidence":-1},{"trial_n":7,"n_dots":3.05,"target":"right","response":"right","rt":2.9000000022352,"correct":true,"confidence":-1},{"trial_n":8,"n_dots":3.05,"target":"right","response":"right","rt":369.69999999925,"correct":true,"confidence":-1},{"trial_n":9,"n_dots":2.85,"target":"right","response":"right","rt":435.09999999776,"correct":true,"confidence":-1},{"trial_n":10,"n_dots":2.85,"target":"right","response":"right","rt":78.60000000149,"correct":true,"confidence":-1},{"trial_n":11,"n_dots":2.65,"target":"right","response":"right","rt":892.30000000075,"correct":true,"confidence":-1},{"trial_n":12,"n_dots":2.65,"target":"left","response":"right","rt":55.900000002235,"correct":false,"confidence":-1},{"trial_n":13,"n_dots":2.75,"target":"left","response":"left","rt":865.09999999776,"correct":true,"confidence":-1},{"trial_n":14,"n_dots":2.75,"target":"left","response":"left","rt":404.89999999851,"correct":true,"confidence":-1},{"trial_n":15,"n_dots":2.65,"target":"left","response":"left","rt":2121.4000000022,"correct":true,"confidence":-1},{"trial_n":16,"n_dots":2.65,"target":"left","response":"left","rt":457.10000000149,"correct":true,"confidence":-1},{"trial_n":17,"n_dots":2.55,"target":"left","response":"left","rt":201.89999999851,"correct":true,"confidence":-1},{"trial_n":18,"n_dots":2.55,"target":"right","response":"left","rt":393.5,"correct":false,"confidence":-1},{"trial_n":19,"n_dots":2.65,"target":"left","response":"right","rt":403.19999999925,"correct":false,"confidence":-1},{"trial_n":20,"n_dots":2.75,"target":"right","response":"right","rt":216.09999999776,"correct":true,"confidence":-1},{"trial_n":21,"n_dots":2.75,"target":"left","response":"right","rt":300.89999999851,"correct":false,"confidence":1},{"trial_n":22,"n_dots":2.85,"target":"right","response":"left","rt":14637.699999999,"correct":false,"confidence":1},{"trial_n":23,"n_dots":2.95,"target":"right","response":"right","rt":548.69999999925,"correct":true,"confidence":3},{"trial_n":24,"n_dots":2.95,"target":"right","response":"right","rt":932.80000000075,"correct":true,"confidence":2},{"trial_n":25,"n_dots":2.85,"target":"right","response":"right","rt":939.79999999702,"correct":true,"confidence":2},{"trial_n":26,"n_dots":2.85,"target":"right","response":"right","rt":425.19999999925,"correct":true,"confidence":1},{"trial_n":27,"n_dots":2.75,"target":"left","response":"left","rt":1077.6999999993,"correct":true,"confidence":1},{"trial_n":28,"n_dots":2.75,"target":"right","response":"right","rt":35.800000000745,"correct":true,"confidence":2},{"trial_n":29,"n_dots":2.65,"target":"left","response":"right","rt":708.5,"correct":false,"confidence":2},{"trial_n":30,"n_dots":2.75,"target":"left","response":"right","rt":1174.4000000022,"correct":false,"confidence":2},{"trial_n":31,"n_dots":2.85,"target":"right","response":"left","rt":582.10000000149,"correct":false,"confidence":2},{"trial_n":32,"n_dots":2.95,"target":"left","response":"right","rt":1015.6999999993,"correct":false,"confidence":2},{"trial_n":33,"n_dots":3.05,"target":"left","response":"right","rt":1185.5,"correct":false,"confidence":2},{"trial_n":34,"n_dots":3.15,"target":"right","response":"right","rt":412.09999999776,"correct":true,"confidence":2},{"trial_n":35,"n_dots":3.15,"target":"right","response":"right","rt":829.60000000149,"correct":true,"confidence":2},{"trial_n":36,"n_dots":3.05,"target":"right","response":"right","rt":502.5,"correct":true,"confidence":2},{"trial_n":37,"n_dots":3.05,"target":"right","response":"right","rt":322.59999999776,"correct":true,"confidence":2},{"trial_n":38,"n_dots":2.95,"target":"left","response":"left","rt":294.5,"correct":true,"confidence":2},{"trial_n":39,"n_dots":2.95,"target":"left","response":"left","rt":98.300000000745,"correct":true,"confidence":3},{"trial_n":40,"n_dots":2.85,"target":"right","response":"right","rt":612.20000000298,"correct":true,"confidence":3},{"trial_n":41,"n_dots":2.85,"target":"left","response":"left","rt":276.59999999776,"correct":true,"confidence":3},{"trial_n":42,"n_dots":2.75,"target":"right","response":"right","rt":1622.8000000007,"correct":true,"confidence":1},{"trial_n":43,"n_dots":2.75,"target":"right","response":"left","rt":628.19999999925,"correct":false,"confidence":3},{"trial_n":44,"n_dots":2.85,"target":"right","response":"right","rt":590,"correct":true,"confidence":3},{"trial_n":45,"n_dots":2.85,"target":"left","response":"left","rt":390.89999999851,"correct":true,"confidence":3},{"trial_n":46,"n_dots":2.75,"target":"left","response":"left","rt":36.199999999255,"correct":true,"confidence":3},{"trial_n":47,"n_dots":2.75,"target":"left","response":"left","rt":94.900000002235,"correct":true,"confidence":3},{"trial_n":48,"n_dots":2.65,"target":"right","response":"right","rt":795.30000000075,"correct":true,"confidence":3},{"trial_n":49,"n_dots":2.65,"target":"left","response":"right","rt":855.5,"correct":false,"confidence":3},{"trial_n":50,"n_dots":2.75,"target":"left","response":"right","rt":815.19999999925,"correct":false,"confidence":3},{"trial_n":51,"n_dots":2.85,"target":"right","response":"right","rt":419.5,"correct":true,"confidence":3},{"trial_n":52,"n_dots":2.85,"target":"right","response":"right","rt":387.90000000224,"correct":true,"confidence":3},{"trial_n":53,"n_dots":2.75,"target":"right","response":"right","rt":1251.1000000015,"correct":true,"confidence":1},{"trial_n":54,"n_dots":2.75,"target":"right","response":"left","rt":3228.299999997,"correct":false,"confidence":1},{"trial_n":55,"n_dots":2.85,"target":"left","response":"right","rt":1923.6000000015,"correct":false,"confidence":1},{"trial_n":56,"n_dots":2.95,"target":"right","response":"right","rt":4681.700000003,"correct":true,"confidence":1},{"trial_n":57,"n_dots":2.95,"target":"left","response":"left","rt":2496.3999999985,"correct":true,"confidence":1},{"trial_n":58,"n_dots":2.85,"target":"right","response":"right","rt":3228.6999999993,"correct":true,"confidence":1},{"trial_n":59,"n_dots":2.85,"target":"left","response":"left","rt":1669.700000003,"correct":true,"confidence":1},{"trial_n":60,"n_dots":2.75,"target":"left","response":"right","rt":4164.6999999993,"correct":false,"confidence":1},{"trial_n":61,"n_dots":2.85,"target":"left","response":"right","rt":884.59999999776,"correct":false,"confidence":1},{"trial_n":62,"n_dots":2.95,"target":"right","response":"right","rt":766.5,"correct":true,"confidence":2},{"trial_n":63,"n_dots":2.95,"target":"left","response":"left","rt":1696.8999999985,"correct":true,"confidence":2},{"trial_n":64,"n_dots":2.85,"target":"left","response":"right","rt":475.89999999851,"correct":false,"confidence":2},{"trial_n":65,"n_dots":2.95,"target":"left","response":"right","rt":785.70000000298,"correct":false,"confidence":2},{"trial_n":66,"n_dots":3.05,"target":"left","response":"right","rt":2981.1000000015,"correct":false,"confidence":2},{"trial_n":67,"n_dots":3.15,"target":"right","response":"left","rt":2843.9000000022,"correct":false,"confidence":2},{"trial_n":68,"n_dots":3.25,"target":"left","response":"right","rt":185.69999999925,"correct":false,"confidence":2},{"trial_n":69,"n_dots":3.35,"target":"right","response":"right","rt":226,"correct":true,"confidence":2},{"trial_n":70,"n_dots":3.35,"target":"left","response":"left","rt":312.69999999925,"correct":true,"confidence":2},{"trial_n":71,"n_dots":3.25,"target":"left","response":"right","rt":1301.700000003,"correct":false,"confidence":2},{"trial_n":72,"n_dots":3.35,"target":"right","response":"right","rt":450.39999999851,"correct":true,"confidence":3},{"trial_n":73,"n_dots":3.35,"target":"right","response":"right","rt":2033.5,"correct":true,"confidence":1},{"trial_n":74,"n_dots":3.25,"target":"left","response":"left","rt":4157.8000000007,"correct":true,"confidence":1},{"trial_n":75,"n_dots":3.25,"target":"left","response":"left","rt":1836.1999999993,"correct":true,"confidence":1},{"trial_n":76,"n_dots":3.15,"target":"left","response":"right","rt":722.59999999776,"correct":false,"confidence":1},{"trial_n":77,"n_dots":3.25,"target":"left","response":"left","rt":3912.6999999993,"correct":true,"confidence":1},{"trial_n":78,"n_dots":3.25,"target":"left","response":"right","rt":1041,"correct":false,"confidence":1},{"trial_n":79,"n_dots":3.35,"target":"left","response":"right","rt":1985.6999999993,"correct":false,"confidence":1},{"trial_n":80,"n_dots":3.45,"target":"right","response":"right","rt":1010.1000000015,"correct":true,"confidence":3},{"trial_n":81,"n_dots":3.45,"target":"left","response":"right","rt":1046.5,"correct":false,"confidence":1},{"trial_n":82,"n_dots":3.55,"target":"right","response":"right","rt":270.59999999776,"correct":true,"confidence":2},{"trial_n":83,"n_dots":3.55,"target":"right","response":"right","rt":407.30000000075,"correct":true,"confidence":2},{"trial_n":84,"n_dots":3.45,"target":"left","response":"right","rt":537.89999999851,"correct":false,"confidence":1},{"trial_n":85,"n_dots":3.55,"target":"left","response":"left","rt":635.39999999851,"correct":true,"confidence":1},{"trial_n":86,"n_dots":3.55,"target":"right","response":"right","rt":114.39999999851,"correct":true,"confidence":2},{"trial_n":87,"n_dots":3.45,"target":"left","response":"right","rt":117.19999999925,"correct":false,"confidence":1},{"trial_n":88,"n_dots":3.55,"target":"left","response":"right","rt":615.80000000075,"correct":false,"confidence":1},{"trial_n":89,"n_dots":3.65,"target":"right","response":"right","rt":460,"correct":true,"confidence":3},{"trial_n":90,"n_dots":3.65,"target":"right","response":"right","rt":161.09999999776,"correct":true,"confidence":3},{"trial_n":91,"n_dots":3.55,"target":"left","response":"right","rt":59.5,"correct":false,"confidence":3},{"trial_n":92,"n_dots":3.65,"target":"right","response":"right","rt":1085.200000003,"correct":true,"confidence":3},{"trial_n":93,"n_dots":3.65,"target":"right","response":"right","rt":306,"correct":true,"confidence":3},{"trial_n":94,"n_dots":3.55,"target":"left","response":"right","rt":1244.1999999993,"correct":false,"confidence":3},{"trial_n":95,"n_dots":3.65,"target":"left","response":"right","rt":687.5,"correct":false,"confidence":3},{"trial_n":96,"n_dots":3.75,"target":"right","response":"right","rt":575.79999999702,"correct":true,"confidence":3},{"trial_n":97,"n_dots":3.75,"target":"right","response":"right","rt":551.10000000149,"correct":true,"confidence":3},{"trial_n":98,"n_dots":3.65,"target":"left","response":"left","rt":4122,"correct":true,"confidence":1},{"trial_n":99,"n_dots":3.65,"target":"left","response":"right","rt":102,"correct":false,"confidence":1},{"trial_n":100,"n_dots":3.75,"target":"left","response":"right","rt":291.60000000149,"correct":false,"confidence":1},{"trial_n":101,"n_dots":3.85,"target":"left","response":"left","rt":477.09999999776,"correct":true,"confidence":2},{"trial_n":102,"n_dots":3.85,"target":"right","response":"right","rt":148.5,"correct":true,"confidence":1},{"trial_n":103,"n_dots":3.75,"target":"left","response":"right","rt":562.19999999925,"correct":false,"confidence":1},{"trial_n":104,"n_dots":3.85,"target":"right","response":"right","rt":611.59999999776,"correct":true,"confidence":2},{"trial_n":105,"n_dots":3.85,"target":"right","response":"right","rt":143.5,"correct":true,"confidence":3},{"trial_n":106,"n_dots":3.75,"target":"left","response":"right","rt":337,"correct":false,"confidence":1},{"trial_n":107,"n_dots":3.85,"target":"left","response":"left","rt":1390.6999999993,"correct":true,"confidence":1},{"trial_n":108,"n_dots":3.85,"target":"right","response":"right","rt":1153.1999999993,"correct":true,"confidence":1},{"trial_n":109,"n_dots":3.75,"target":"right","response":"right","rt":138.19999999925,"correct":true,"confidence":3},{"trial_n":110,"n_dots":3.75,"target":"right","response":"right","rt":271.80000000075,"correct":true,"confidence":3},{"trial_n":111,"n_dots":3.65,"target":"left","response":"left","rt":5455.8000000007,"correct":true,"confidence":1},{"trial_n":112,"n_dots":3.65,"target":"left","response":"right","rt":591,"correct":false,"confidence":1},{"trial_n":113,"n_dots":3.75,"target":"right","response":"right","rt":153.39999999851,"correct":true,"confidence":1},{"trial_n":114,"n_dots":3.75,"target":"right","response":"right","rt":272,"correct":true,"confidence":1},{"trial_n":115,"n_dots":3.65,"target":"right","response":"right","rt":313.69999999925,"correct":true,"confidence":2},{"trial_n":116,"n_dots":3.65,"target":"right","response":"right","rt":916.30000000075,"correct":true,"confidence":2},{"trial_n":117,"n_dots":3.55,"target":"right","response":"right","rt":844.69999999925,"correct":true,"confidence":2},{"trial_n":118,"n_dots":3.55,"target":"left","response":"right","rt":478.30000000075,"correct":false,"confidence":1},{"trial_n":119,"n_dots":3.65,"target":"left","response":"right","rt":750.29999999702,"correct":false,"confidence":1},{"trial_n":120,"n_dots":3.75,"target":"left","response":"left","rt":3555,"correct":true,"confidence":1}]