[{"trial_n":1,"n_dots":4.25,"target":"left","response":"right","rt":2877.3999998569,"correct":false,"confidence":-1},{"trial_n":2,"n_dots":4.25,"target":"left","response":"left","rt":607.70000004768,"correct":true,"confidence":-1},{"trial_n":3,"n_dots":4.25,"target":"right","response":"right","rt":379.20000004768,"correct":true,"confidence":-1},{"trial_n":4,"n_dots":3.85,"target":"left","response":"left","rt":537.79999995232,"correct":true,"confidence":-1},{"trial_n":5,"n_dots":3.85,"target":"left","response":"left","rt":907.89999985695,"correct":true,"confidence":-1},{"trial_n":6,"n_dots":3.45,"target":"right","response":"right","rt":383.90000009537,"correct":true,"confidence":-1},{"trial_n":7,"n_dots":3.45,"target":"left","response":"right","rt":409,"correct":false,"confidence":-1},{"trial_n":8,"n_dots":3.65,"target":"right","response":"right","rt":428.80000019073,"correct":true,"confidence":-1},{"trial_n":9,"n_dots":3.65,"target":"left","response":"left","rt":375.10000014305,"correct":true,"confidence":-1},{"trial_n":10,"n_dots":3.45,"target":"right","response":"right","rt":98.400000095367,"correct":true,"confidence":-1},{"trial_n":11,"n_dots":3.45,"target":"left","response":"left","rt":271.09999990463,"correct":true,"confidence":-1},{"trial_n":12,"n_dots":3.25,"target":"left","response":"right","rt":357.30000019073,"correct":false,"confidence":-1},{"trial_n":13,"n_dots":3.35,"target":"right","response":"right","rt":203.10000014305,"correct":true,"confidence":-1},{"trial_n":14,"n_dots":3.35,"target":"right","response":"right","rt":248.70000004768,"correct":true,"confidence":-1},{"trial_n":15,"n_dots":3.25,"target":"right","response":"right","rt":48.200000047684,"correct":true,"confidence":-1},{"trial_n":16,"n_dots":3.25,"target":"right","response":"left","rt":271.79999995232,"correct":false,"confidence":-1},{"trial_n":17,"n_dots":3.35,"target":"left","response":"right","rt":2421.1999998093,"correct":false,"confidence":-1},{"trial_n":18,"n_dots":3.45,"target":"right","response":"right","rt":322.59999990463,"correct":true,"confidence":-1},{"trial_n":19,"n_dots":3.45,"target":"right","response":"left","rt":99.299999952316,"correct":false,"confidence":-1},{"trial_n":20,"n_dots":3.55,"target":"left","response":"right","rt":60.599999904633,"correct":false,"confidence":-1},{"trial_n":21,"n_dots":3.65,"target":"right","response":"left","rt":543.59999990463,"correct":false,"confidence":3},{"trial_n":22,"n_dots":3.75,"target":"right","response":"right","rt":1023.4000000954,"correct":true,"confidence":4},{"trial_n":23,"n_dots":3.75,"target":"right","response":"right","rt":682.20000004768,"correct":true,"confidence":4},{"trial_n":24,"n_dots":3.65,"target":"right","response":"right","rt":190.09999990463,"correct":true,"confidence":4},{"trial_n":25,"n_dots":3.65,"target":"right","response":"right","rt":464,"correct":true,"confidence":5},{"trial_n":26,"n_dots":3.55,"target":"left","response":"left","rt":371.09999990463,"correct":true,"confidence":5},{"trial_n":27,"n_dots":3.55,"target":"left","response":"left","rt":399.40000009537,"correct":true,"confidence":3},{"trial_n":28,"n_dots":3.45,"target":"left","response":"left","rt":483.79999995232,"correct":true,"confidence":3},{"trial_n":29,"n_dots":3.45,"target":"left","response":"left","rt":317.80000019073,"correct":true,"confidence":4},{"trial_n":30,"n_dots":3.35,"target":"right","response":"right","rt":145,"correct":true,"confidence":3},{"trial_n":31,"n_dots":3.35,"target":"left","response":"left","rt":1967.9000000954,"correct":true,"confidence":4},{"trial_n":32,"n_dots":3.25,"target":"right","response":"left","rt":329,"correct":false,"confidence":2},{"trial_n":33,"n_dots":3.35,"target":"right","response":"right","rt":288.39999985695,"correct":true,"confidence":4},{"trial_n":34,"n_dots":3.35,"target":"right","response":"right","rt":375,"correct":true,"confidence":5},{"trial_n":35,"n_dots":3.25,"target":"left","response":"right","rt":20.099999904633,"correct":false,"confidence":5},{"trial_n":36,"n_dots":3.35,"target":"left","response":"right","rt":1312.0999999046,"correct":false,"confidence":5},{"trial_n":37,"n_dots":3.45,"target":"right","response":"left","rt":1046.5999999046,"correct":false,"confidence":4},{"trial_n":38,"n_dots":3.55,"target":"left","response":"left","rt":710.29999995232,"correct":true,"confidence":1},{"trial_n":39,"n_dots":3.55,"target":"right","response":"right","rt":546,"correct":true,"confidence":4},{"trial_n":40,"n_dots":3.45,"target":"right","response":"right","rt":321.59999990463,"correct":true,"confidence":5},{"trial_n":41,"n_dots":3.45,"target":"left","response":"right","rt":4028.5999999046,"correct":false,"confidence":1},{"trial_n":42,"n_dots":3.55,"target":"right","response":"right","rt":374,"correct":true,"confidence":2},{"trial_n":43,"n_dots":3.55,"target":"right","response":"right","rt":994.09999990463,"correct":true,"confidence":1},{"trial_n":44,"n_dots":3.45,"target":"left","response":"left","rt":347.70000004768,"correct":true,"confidence":5},{"trial_n":45,"n_dots":3.45,"target":"left","response":"right","rt":569.39999985695,"correct":false,"confidence":4},{"trial_n":46,"n_dots":3.55,"target":"right","response":"right","rt":41,"correct":true,"confidence":5},{"trial_n":47,"n_dots":3.55,"target":"left","response":"left","rt":147.29999995232,"correct":true,"confidence":5},{"trial_n":48,"n_dots":3.45,"target":"left","response":"left","rt":551,"correct":true,"confidence":4},{"trial_n":49,"n_dots":3.45,"target":"right","response":"right","rt":933,"correct":true,"confidence":5},{"trial_n":50,"n_dots":3.35,"target":"right","response":"right","rt":599.5,"correct":true,"confidence":5},{"trial_n":51,"n_dots":3.35,"target":"left","response":"left","rt":840.39999985695,"correct":true,"confidence":3},{"trial_n":52,"n_dots":3.25,"target":"right","response":"right","rt":396.5,"correct":true,"confidence":2},{"trial_n":53,"n_dots":3.25,"target":"left","response":"left","rt":137.60000014305,"correct":true,"confidence":4},{"trial_n":54,"n_dots":3.15,"target":"right","response":"right","rt":344.10000014305,"correct":true,"confidence":4},{"trial_n":55,"n_dots":3.15,"target":"right","response":"left","rt":375.79999995232,"correct":false,"confidence":2},{"trial_n":56,"n_dots":3.25,"target":"left","response":"left","rt":210.5,"correct":true,"confidence":5},{"trial_n":57,"n_dots":3.25,"target":"left","response":"left","rt":61.200000047684,"correct":true,"confidence":4},{"trial_n":58,"n_dots":3.15,"target":"right","response":"right","rt":404.39999985695,"correct":true,"confidence":5},{"trial_n":59,"n_dots":3.15,"target":"left","response":"left","rt":346,"correct":true,"confidence":5},{"trial_n":60,"n_dots":3.05,"target":"left","response":"left","rt":60.600000143051,"correct":true,"confidence":5},{"trial_n":61,"n_dots":3.05,"target":"right","response":"right","rt":1132.7000000477,"correct":true,"confidence":3},{"trial_n":62,"n_dots":2.95,"target":"left","response":"left","rt":262.39999985695,"correct":true,"confidence":5},{"trial_n":63,"n_dots":2.95,"target":"left","response":"left","rt":371.5,"correct":true,"confidence":4},{"trial_n":64,"n_dots":2.85,"target":"left","response":"left","rt":305.70000004768,"correct":true,"confidence":3},{"trial_n":65,"n_dots":2.85,"target":"left","response":"left","rt":304.39999985695,"correct":true,"confidence":3},{"trial_n":66,"n_dots":2.75,"target":"right","response":"right","rt":139.09999990463,"correct":true,"confidence":4},{"trial_n":67,"n_dots":2.75,"target":"right","response":"right","rt":304.5,"correct":true,"confidence":3},{"trial_n":68,"n_dots":2.65,"target":"right","response":"left","rt":1366.9000000954,"correct":false,"confidence":2},{"trial_n":69,"n_dots":2.75,"target":"right","response":"right","rt":177,"correct":true,"confidence":4},{"trial_n":70,"n_dots":2.75,"target":"left","response":"left","rt":534,"correct":true,"confidence":1},{"trial_n":71,"n_dots":2.65,"target":"left","response":"left","rt":1954,"correct":true,"confidence":1},{"trial_n":72,"n_dots":2.65,"target":"right","response":"right","rt":190.10000014305,"correct":true,"confidence":3},{"trial_n":73,"n_dots":2.55,"target":"left","response":"left","rt":610.70000004768,"correct":true,"confidence":1},{"trial_n":74,"n_dots":2.55,"target":"left","response":"right","rt":266.5,"correct":false,"confidence":4},{"trial_n":75,"n_dots":2.65,"target":"right","response":"right","rt":1646.9000000954,"correct":true,"confidence":5},{"trial_n":76,"n_dots":2.65,"target":"right","response":"right","rt":256.60000014305,"correct":true,"confidence":1},{"trial_n":77,"n_dots":2.55,"target":"right","response":"left","rt":497.70000004768,"correct":false,"confidence":4},{"trial_n":78,"n_dots":2.65,"target":"left","response":"right","rt":233.20000004768,"correct":false,"confidence":5},{"trial_n":79,"n_dots":2.75,"target":"left","response":"left","rt":442.89999985695,"correct":true,"confidence":5},{"trial_n":80,"n_dots":2.75,"target":"left","response":"left","rt":744.59999990463,"correct":true,"confidence":5},{"trial_n":81,"n_dots":2.65,"target":"right","response":"left","rt":705.29999995232,"correct":false,"confidence":1},{"trial_n":82,"n_dots":2.75,"target":"left","response":"left","rt":417,"correct":true,"confidence":2},{"trial_n":83,"n_dots":2.75,"target":"right","response":"left","rt":1185.2999999523,"correct":false,"confidence":3},{"trial_n":84,"n_dots":2.85,"target":"left","response":"right","rt":1514.9000000954,"correct":false,"confidence":2},{"trial_n":85,"n_dots":2.95,"target":"left","response":"right","rt":264.29999995232,"correct":false,"confidence":4},{"trial_n":86,"n_dots":3.05,"target":"right","response":"right","rt":251.79999995232,"correct":true,"confidence":4},{"trial_n":87,"n_dots":3.05,"target":"left","response":"right","rt":177.59999990463,"correct":false,"confidence":4},{"trial_n":88,"n_dots":3.15,"target":"right","response":"right","rt":267.5,"correct":true,"confidence":4},{"trial_n":89,"n_dots":3.15,"target":"right","response":"right","rt":356.10000014305,"correct":true,"confidence":4},{"trial_n":90,"n_dots":3.05,"target":"right","response":"right","rt":307.5,"correct":true,"confidence":3},{"trial_n":91,"n_dots":3.05,"target":"left","response":"left","rt":287.30000019073,"correct":true,"confidence":2},{"trial_n":92,"n_dots":2.95,"target":"left","response":"right","rt":64.200000047684,"correct":false,"confidence":1},{"trial_n":93,"n_dots":3.05,"target":"left","response":"left","rt":675.19999980927,"correct":true,"confidence":3},{"trial_n":94,"n_dots":3.05,"target":"left","response":"left","rt":364.60000014305,"correct":true,"confidence":3},{"trial_n":95,"n_dots":2.95,"target":"right","response":"right","rt":519.29999995232,"correct":true,"confidence":2},{"trial_n":96,"n_dots":2.95,"target":"right","response":"right","rt":481.59999990463,"correct":true,"confidence":1},{"trial_n":97,"n_dots":2.85,"target":"left","response":"left","rt":827.10000014305,"correct":true,"confidence":5},{"trial_n":98,"n_dots":2.85,"target":"right","response":"right","rt":448.40000009537,"correct":true,"confidence":5},{"trial_n":99,"n_dots":2.75,"target":"left","response":"left","rt":891.69999980927,"correct":true,"confidence":3},{"trial_n":100,"n_dots":2.75,"target":"right","response":"left","rt":684.79999995232,"correct":false,"confidence":2},{"trial_n":101,"n_dots":2.85,"target":"left","response":"left","rt":285.20000004768,"correct":true,"confidence":5},{"trial_n":102,"n_dots":2.85,"target":"left","response":"left","rt":370.10000014305,"correct":true,"confidence":5},{"trial_n":103,"n_dots":2.75,"target":"right","response":"left","rt":554.20000004768,"correct":false,"confidence":4},{"trial_n":104,"n_dots":2.85,"target":"right","response":"left","rt":342,"correct":false,"confidence":3},{"trial_n":105,"n_dots":2.95,"target":"right","response":"right","rt":703.79999995232,"correct":true,"confidence":3},{"trial_n":106,"n_dots":2.95,"target":"left","response":"left","rt":413.70000004768,"correct":true,"confidence":3},{"trial_n":107,"n_dots":2.85,"target":"right","response":"right","rt":892.20000004768,"correct":true,"confidence":4},{"trial_n":108,"n_dots":2.85,"target":"left","response":"left","rt":339,"correct":true,"confidence":4},{"trial_n":109,"n_dots":2.75,"target":"left","response":"left","rt":36,"correct":true,"confidence":4},{"trial_n":110,"n_dots":2.75,"target":"right","response":"left","rt":346.59999990463,"correct":false,"confidence":4},{"trial_n":111,"n_dots":2.85,"target":"right","response":"left","rt":369.59999990463,"correct":false,"confidence":5},{"trial_n":112,"n_dots":2.95,"target":"right","response":"left","rt":717.20000004768,"correct":false,"confidence":5},{"trial_n":113,"n_dots":3.05,"target":"left","response":"left","rt":358.39999985695,"correct":true,"confidence":5},{"trial_n":114,"n_dots":3.05,"target":"left","response":"left","rt":237,"correct":true,"confidence":4},{"trial_n":115,"n_dots":2.95,"target":"right","response":"right","rt":877.79999995232,"correct":true,"confidence":3},{"trial_n":116,"n_dots":2.95,"target":"left","response":"left","rt":106.60000014305,"correct":true,"confidence":1},{"trial_n":117,"n_dots":2.85,"target":"left","response":"left","rt":412.5,"correct":true,"confidence":5},{"trial_n":118,"n_dots":2.85,"target":"left","response":"left","rt":153,"correct":true,"confidence":5},{"trial_n":119,"n_dots":2.75,"target":"right","response":"right","rt":130.19999980927,"correct":true,"confidence":5},{"trial_n":120,"n_dots":2.75,"target":"right","response":"right","rt":296.29999995232,"correct":true,"confidence":4}]