[{"trial_n":1,"min":25,"max":230,"target":"present","response":"present","rt":14615.600000024,"correct":true,"confidence":-1},{"trial_n":2,"min":25,"max":230,"target":"present","response":"absent","rt":16329.900000036,"correct":false,"confidence":-1},{"trial_n":3,"min":9,"max":246,"target":"absent","response":"absent","rt":3105.3999999762,"correct":true,"confidence":-1},{"trial_n":4,"min":9,"max":246,"target":"absent","response":"absent","rt":3892.9000000358,"correct":true,"confidence":-1},{"trial_n":5,"min":25,"max":230,"target":"present","response":"present","rt":2015.3999999762,"correct":true,"confidence":-1},{"trial_n":6,"min":25,"max":230,"target":"present","response":"present","rt":1207.6999999881,"correct":true,"confidence":-1},{"trial_n":7,"min":41,"max":214,"target":"present","response":"present","rt":1570.8000000119,"correct":true,"confidence":-1},{"trial_n":8,"min":41,"max":214,"target":"absent","response":"absent","rt":1433.1000000238,"correct":true,"confidence":-1},{"trial_n":9,"min":57,"max":198,"target":"present","response":"present","rt":973.80000001192,"correct":true,"confidence":-1},{"trial_n":10,"min":57,"max":198,"target":"absent","response":"absent","rt":778.70000004768,"correct":true,"confidence":-1},{"trial_n":11,"min":65,"max":190,"target":"absent","response":"absent","rt":1003,"correct":true,"confidence":-1},{"trial_n":12,"min":65,"max":190,"target":"absent","response":"absent","rt":722.90000003576,"correct":true,"confidence":-1},{"trial_n":13,"min":73,"max":182,"target":"present","response":"absent","rt":932.09999996424,"correct":false,"confidence":-1},{"trial_n":14,"min":65,"max":190,"target":"present","response":"present","rt":1012.5,"correct":true,"confidence":-1},{"trial_n":15,"min":65,"max":190,"target":"present","response":"present","rt":945.5,"correct":true,"confidence":-1},{"trial_n":16,"min":73,"max":182,"target":"absent","response":"absent","rt":898.89999997616,"correct":true,"confidence":-1},{"trial_n":17,"min":73,"max":182,"target":"absent","response":"absent","rt":1177.8000000119,"correct":true,"confidence":-1},{"trial_n":18,"min":81,"max":174,"target":"absent","response":"absent","rt":934.39999997616,"correct":true,"confidence":-1},{"trial_n":19,"min":81,"max":174,"target":"present","response":"present","rt":1149.6000000238,"correct":true,"confidence":-1},{"trial_n":20,"min":89,"max":166,"target":"absent","response":"absent","rt":623.09999996424,"correct":true,"confidence":-1},{"trial_n":21,"min":89,"max":166,"target":"present","response":"absent","rt":1069.1000000238,"correct":false,"confidence":4},{"trial_n":22,"min":85,"max":170,"target":"present","response":"absent","rt":1827.1000000238,"correct":false,"confidence":4},{"trial_n":23,"min":81,"max":174,"target":"absent","response":"absent","rt":855.19999998808,"correct":true,"confidence":4},{"trial_n":24,"min":81,"max":174,"target":"absent","response":"absent","rt":949.20000004768,"correct":true,"confidence":4},{"trial_n":25,"min":85,"max":170,"target":"present","response":"absent","rt":1179.5,"correct":false,"confidence":3},{"trial_n":26,"min":81,"max":174,"target":"absent","response":"absent","rt":1137.6999999881,"correct":true,"confidence":2},{"trial_n":27,"min":81,"max":174,"target":"present","response":"present","rt":1267.3999999762,"correct":true,"confidence":4},{"trial_n":28,"min":85,"max":170,"target":"absent","response":"present","rt":2445.6000000238,"correct":false,"confidence":4},{"trial_n":29,"min":81,"max":174,"target":"absent","response":"absent","rt":1929.6999999881,"correct":true,"confidence":4},{"trial_n":30,"min":81,"max":174,"target":"absent","response":"absent","rt":4821.2000000477,"correct":true,"confidence":4},{"trial_n":31,"min":83,"max":172,"target":"present","response":"present","rt":1639.6000000238,"correct":true,"confidence":4},{"trial_n":32,"min":83,"max":172,"target":"present","response":"present","rt":1585.3000000119,"correct":true,"confidence":4},{"trial_n":33,"min":85,"max":170,"target":"absent","response":"absent","rt":858.80000001192,"correct":true,"confidence":3},{"trial_n":34,"min":85,"max":170,"target":"present","response":"absent","rt":1524.3999999762,"correct":false,"confidence":2},{"trial_n":35,"min":83,"max":172,"target":"present","response":"absent","rt":1865.8000000119,"correct":false,"confidence":2},{"trial_n":36,"min":81,"max":174,"target":"absent","response":"absent","rt":1238.6999999881,"correct":true,"confidence":3},{"trial_n":37,"min":81,"max":174,"target":"absent","response":"absent","rt":1166.6999999881,"correct":true,"confidence":3},{"trial_n":38,"min":83,"max":172,"target":"present","response":"present","rt":2952.8000000119,"correct":true,"confidence":4},{"trial_n":39,"min":83,"max":172,"target":"absent","response":"absent","rt":9816.6999999881,"correct":true,"confidence":3},{"trial_n":40,"min":85,"max":170,"target":"present","response":"present","rt":8450.0999999642,"correct":true,"confidence":3},{"trial_n":41,"min":85,"max":170,"target":"absent","response":"absent","rt":1231.8000000119,"correct":true,"confidence":3},{"trial_n":42,"min":86,"max":169,"target":"absent","response":"present","rt":1000,"correct":false,"confidence":3},{"trial_n":43,"min":85,"max":170,"target":"present","response":"absent","rt":954.5,"correct":false,"confidence":3},{"trial_n":44,"min":84,"max":171,"target":"present","response":"absent","rt":2307.1999999881,"correct":false,"confidence":3},{"trial_n":45,"min":83,"max":172,"target":"absent","response":"absent","rt":3053.4000000358,"correct":true,"confidence":4},{"trial_n":46,"min":83,"max":172,"target":"present","response":"present","rt":3248.5,"correct":true,"confidence":4},{"trial_n":47,"min":84,"max":171,"target":"absent","response":"absent","rt":1680.6999999881,"correct":true,"confidence":4},{"trial_n":48,"min":84,"max":171,"target":"present","response":"absent","rt":15080.099999964,"correct":false,"confidence":3},{"trial_n":49,"min":83,"max":172,"target":"absent","response":"present","rt":4007.5,"correct":false,"confidence":4},{"trial_n":50,"min":82,"max":173,"target":"absent","response":"present","rt":1173.6000000238,"correct":false,"confidence":3},{"trial_n":51,"min":81,"max":174,"target":"absent","response":"absent","rt":796.40000003576,"correct":true,"confidence":4},{"trial_n":52,"min":81,"max":174,"target":"present","response":"absent","rt":1088.5,"correct":false,"confidence":4},{"trial_n":53,"min":80,"max":175,"target":"absent","response":"present","rt":840.89999997616,"correct":false,"confidence":3},{"trial_n":54,"min":79,"max":176,"target":"absent","response":"absent","rt":1057.1999999881,"correct":true,"confidence":4},{"trial_n":55,"min":79,"max":176,"target":"present","response":"present","rt":789.5,"correct":true,"confidence":4},{"trial_n":56,"min":80,"max":175,"target":"present","response":"absent","rt":1718.1000000238,"correct":false,"confidence":4},{"trial_n":57,"min":79,"max":176,"target":"absent","response":"present","rt":1247.1999999881,"correct":false,"confidence":3},{"trial_n":58,"min":78,"max":177,"target":"present","response":"absent","rt":718.39999997616,"correct":false,"confidence":3},{"trial_n":59,"min":77,"max":178,"target":"absent","response":"absent","rt":851.40000003576,"correct":true,"confidence":5},{"trial_n":60,"min":77,"max":178,"target":"present","response":"absent","rt":987.90000003576,"correct":false,"confidence":3},{"trial_n":61,"min":76,"max":179,"target":"absent","response":"absent","rt":773.10000002384,"correct":true,"confidence":4},{"trial_n":62,"min":76,"max":179,"target":"absent","response":"present","rt":3046.2000000477,"correct":false,"confidence":3},{"trial_n":63,"min":75,"max":180,"target":"present","response":"present","rt":1728.2000000477,"correct":true,"confidence":4},{"trial_n":64,"min":75,"max":180,"target":"present","response":"present","rt":1047,"correct":true,"confidence":4},{"trial_n":65,"min":76,"max":179,"target":"present","response":"present","rt":1028.8999999762,"correct":true,"confidence":4},{"trial_n":66,"min":76,"max":179,"target":"present","response":"present","rt":966,"correct":true,"confidence":4},{"trial_n":67,"min":77,"max":178,"target":"present","response":"present","rt":1056.5999999642,"correct":true,"confidence":4},{"trial_n":68,"min":77,"max":178,"target":"absent","response":"present","rt":984.5,"correct":false,"confidence":4},{"trial_n":69,"min":76,"max":179,"target":"present","response":"present","rt":933.89999997616,"correct":true,"confidence":3},{"trial_n":70,"min":76,"max":179,"target":"present","response":"present","rt":835.90000003576,"correct":true,"confidence":4},{"trial_n":71,"min":41,"max":214,"target":"present","response":"present","rt":2053.1999999881,"correct":true,"confidence":-1},{"trial_n":72,"min":41,"max":214,"target":"present","response":"present","rt":625.30000001192,"correct":true,"confidence":-1},{"trial_n":73,"min":57,"max":198,"target":"absent","response":"absent","rt":1044.8999999762,"correct":true,"confidence":-1},{"trial_n":74,"min":57,"max":198,"target":"absent","response":"absent","rt":883.29999995232,"correct":true,"confidence":-1},{"trial_n":75,"min":73,"max":182,"target":"present","response":"present","rt":648.70000004768,"correct":true,"confidence":-1},{"trial_n":76,"min":73,"max":182,"target":"present","response":"present","rt":1280.8999999762,"correct":true,"confidence":-1},{"trial_n":77,"min":89,"max":166,"target":"present","response":"present","rt":1248.1000000238,"correct":true,"confidence":-1},{"trial_n":78,"min":89,"max":166,"target":"absent","response":"absent","rt":935.79999995232,"correct":true,"confidence":-1},{"trial_n":79,"min":105,"max":150,"target":"present","response":"present","rt":1205.8999999762,"correct":true,"confidence":-1},{"trial_n":80,"min":105,"max":150,"target":"present","response":"absent","rt":794,"correct":false,"confidence":-1},{"trial_n":81,"min":97,"max":158,"target":"absent","response":"present","rt":15368,"correct":false,"confidence":-1},{"trial_n":82,"min":89,"max":166,"target":"absent","response":"present","rt":883.30000001192,"correct":false,"confidence":-1},{"trial_n":83,"min":81,"max":174,"target":"present","response":"present","rt":992.19999998808,"correct":true,"confidence":-1},{"trial_n":84,"min":81,"max":174,"target":"present","response":"present","rt":872.70000004768,"correct":true,"confidence":-1},{"trial_n":85,"min":89,"max":166,"target":"absent","response":"absent","rt":848.59999996424,"correct":true,"confidence":-1},{"trial_n":86,"min":89,"max":166,"target":"present","response":"present","rt":1307.8999999762,"correct":true,"confidence":-1},{"trial_n":87,"min":97,"max":158,"target":"absent","response":"absent","rt":5091.1999999881,"correct":true,"confidence":-1},{"trial_n":88,"min":97,"max":158,"target":"absent","response":"present","rt":6100.8000000119,"correct":false,"confidence":-1},{"trial_n":89,"min":89,"max":166,"target":"absent","response":"absent","rt":5265,"correct":true,"confidence":-1},{"trial_n":90,"min":89,"max":166,"target":"absent","response":"present","rt":1407.2999999523,"correct":false,"confidence":-1},{"trial_n":91,"min":85,"max":170,"target":"absent","response":"absent","rt":843.89999997616,"correct":true,"confidence":4},{"trial_n":92,"min":85,"max":170,"target":"absent","response":"present","rt":1261.3000000119,"correct":false,"confidence":3},{"trial_n":93,"min":81,"max":174,"target":"absent","response":"present","rt":2386.1999999881,"correct":false,"confidence":4},{"trial_n":94,"min":77,"max":178,"target":"absent","response":"absent","rt":988.09999996424,"correct":true,"confidence":3},{"trial_n":95,"min":77,"max":178,"target":"absent","response":"present","rt":754,"correct":false,"confidence":3},{"trial_n":96,"min":73,"max":182,"target":"absent","response":"absent","rt":1882.2999999523,"correct":true,"confidence":3},{"trial_n":97,"min":73,"max":182,"target":"present","response":"present","rt":2058.3000000119,"correct":true,"confidence":3},{"trial_n":98,"min":77,"max":178,"target":"present","response":"present","rt":1832.3000000119,"correct":true,"confidence":3},{"trial_n":99,"min":77,"max":178,"target":"present","response":"absent","rt":8307.5,"correct":false,"confidence":4},{"trial_n":100,"min":73,"max":182,"target":"present","response":"present","rt":1097.0999999642,"correct":true,"confidence":3},{"trial_n":101,"min":73,"max":182,"target":"present","response":"present","rt":632.30000001192,"correct":true,"confidence":5},{"trial_n":102,"min":75,"max":180,"target":"present","response":"present","rt":739,"correct":true,"confidence":5},{"trial_n":103,"min":75,"max":180,"target":"present","response":"present","rt":1016.5,"correct":true,"confidence":4},{"trial_n":104,"min":77,"max":178,"target":"absent","response":"absent","rt":1319.3000000119,"correct":true,"confidence":4},{"trial_n":105,"min":77,"max":178,"target":"present","response":"present","rt":661.19999998808,"correct":true,"confidence":3},{"trial_n":106,"min":79,"max":176,"target":"present","response":"absent","rt":1471.8000000119,"correct":false,"confidence":4},{"trial_n":107,"min":77,"max":178,"target":"absent","response":"absent","rt":908.5,"correct":true,"confidence":3},{"trial_n":108,"min":77,"max":178,"target":"absent","response":"present","rt":2408.8000000119,"correct":false,"confidence":3},{"trial_n":109,"min":75,"max":180,"target":"present","response":"present","rt":810.10000002384,"correct":true,"confidence":3},{"trial_n":110,"min":75,"max":180,"target":"absent","response":"absent","rt":846.30000001192,"correct":true,"confidence":4},{"trial_n":111,"min":76,"max":179,"target":"present","response":"present","rt":1690.5,"correct":true,"confidence":3},{"trial_n":112,"min":76,"max":179,"target":"absent","response":"present","rt":901.30000001192,"correct":false,"confidence":3},{"trial_n":113,"min":75,"max":180,"target":"absent","response":"absent","rt":1609.5,"correct":true,"confidence":3},{"trial_n":114,"min":75,"max":180,"target":"present","response":"present","rt":2931.7999999523,"correct":true,"confidence":4},{"trial_n":115,"min":76,"max":179,"target":"present","response":"present","rt":585.39999997616,"correct":true,"confidence":3},{"trial_n":116,"min":76,"max":179,"target":"absent","response":"absent","rt":1309.0999999642,"correct":true,"confidence":4},{"trial_n":117,"min":77,"max":178,"target":"present","response":"present","rt":630.69999998808,"correct":true,"confidence":3},{"trial_n":118,"min":77,"max":178,"target":"present","response":"present","rt":900.19999998808,"correct":true,"confidence":4},{"trial_n":119,"min":78,"max":177,"target":"present","response":"present","rt":2469.4000000358,"correct":true,"confidence":3},{"trial_n":120,"min":78,"max":177,"target":"absent","response":"present","rt":1174.6000000238,"correct":false,"confidence":4},{"trial_n":121,"min":77,"max":178,"target":"absent","response":"absent","rt":3721.3000000119,"correct":true,"confidence":4},{"trial_n":122,"min":77,"max":178,"target":"present","response":"present","rt":1202.0999999642,"correct":true,"confidence":3},{"trial_n":123,"min":78,"max":177,"target":"absent","response":"absent","rt":1382,"correct":true,"confidence":4},{"trial_n":124,"min":78,"max":177,"target":"absent","response":"present","rt":865.29999995232,"correct":false,"confidence":3},{"trial_n":125,"min":77,"max":178,"target":"present","response":"absent","rt":1129.6000000238,"correct":false,"confidence":4},{"trial_n":126,"min":76,"max":179,"target":"present","response":"present","rt":694,"correct":true,"confidence":3},{"trial_n":127,"min":76,"max":179,"target":"present","response":"present","rt":1136.3000000119,"correct":true,"confidence":3},{"trial_n":128,"min":77,"max":178,"target":"present","response":"present","rt":820.60000002384,"correct":true,"confidence":4},{"trial_n":129,"min":77,"max":178,"target":"present","response":"present","rt":1892.5,"correct":true,"confidence":3},{"trial_n":130,"min":78,"max":177,"target":"absent","response":"absent","rt":889.19999998808,"correct":true,"confidence":4},{"trial_n":131,"min":78,"max":177,"target":"present","response":"present","rt":564.69999998808,"correct":true,"confidence":3},{"trial_n":132,"min":79,"max":176,"target":"present","response":"present","rt":2303.6999999881,"correct":true,"confidence":4},{"trial_n":133,"min":79,"max":176,"target":"absent","response":"present","rt":1171,"correct":false,"confidence":3},{"trial_n":134,"min":78,"max":177,"target":"absent","response":"absent","rt":1665.3000000119,"correct":true,"confidence":3},{"trial_n":135,"min":78,"max":177,"target":"present","response":"absent","rt":9761.8999999762,"correct":false,"confidence":4},{"trial_n":136,"min":77,"max":178,"target":"absent","response":"present","rt":6141.2000000477,"correct":false,"confidence":4},{"trial_n":137,"min":76,"max":179,"target":"absent","response":"absent","rt":796.40000003576,"correct":true,"confidence":3},{"trial_n":138,"min":76,"max":179,"target":"present","response":"present","rt":579.39999997616,"correct":true,"confidence":4},{"trial_n":139,"min":77,"max":178,"target":"absent","response":"absent","rt":2348.3000000119,"correct":true,"confidence":4},{"trial_n":140,"min":77,"max":178,"target":"absent","response":"absent","rt":2551.5999999642,"correct":true,"confidence":3}]