[{"trial_n":1,"n_dots":4.25,"target":"left","response":"right","rt":2082,"correct":false,"confidence":-1},{"trial_n":2,"n_dots":4.25,"target":"right","response":"right","rt":1032,"correct":true,"confidence":-1},{"trial_n":3,"n_dots":4.25,"target":"left","response":"left","rt":1112,"correct":true,"confidence":-1},{"trial_n":4,"n_dots":3.85,"target":"left","response":"right","rt":624.00000000001,"correct":false,"confidence":-1},{"trial_n":5,"n_dots":4.25,"target":"left","response":"right","rt":628,"correct":false,"confidence":-1},{"trial_n":6,"n_dots":4.65,"target":"left","response":"left","rt":426,"correct":true,"confidence":-1},{"trial_n":7,"n_dots":4.65,"target":"right","response":"left","rt":688.99999999999,"correct":false,"confidence":-1},{"trial_n":8,"n_dots":4.85,"target":"left","response":"left","rt":374,"correct":true,"confidence":-1},{"trial_n":9,"n_dots":4.85,"target":"right","response":"right","rt":450,"correct":true,"confidence":-1},{"trial_n":10,"n_dots":4.65,"target":"right","response":"right","rt":503,"correct":true,"confidence":-1},{"trial_n":11,"n_dots":4.65,"target":"left","response":"left","rt":477,"correct":true,"confidence":-1},{"trial_n":12,"n_dots":4.45,"target":"right","response":"right","rt":429,"correct":true,"confidence":-1},{"trial_n":13,"n_dots":4.45,"target":"left","response":"left","rt":511,"correct":true,"confidence":-1},{"trial_n":14,"n_dots":4.35,"target":"right","response":"right","rt":476,"correct":true,"confidence":-1},{"trial_n":15,"n_dots":4.35,"target":"right","response":"right","rt":424,"correct":true,"confidence":-1},{"trial_n":16,"n_dots":4.25,"target":"right","response":"right","rt":479,"correct":true,"confidence":-1},{"trial_n":17,"n_dots":4.25,"target":"right","response":"right","rt":421,"correct":true,"confidence":-1},{"trial_n":18,"n_dots":4.15,"target":"right","response":"right","rt":528.00000000001,"correct":true,"confidence":-1},{"trial_n":19,"n_dots":4.15,"target":"right","response":"right","rt":604,"correct":true,"confidence":-1},{"trial_n":20,"n_dots":4.05,"target":"left","response":"left","rt":511,"correct":true,"confidence":-1},{"trial_n":21,"n_dots":4.05,"target":"left","response":"left","rt":650,"correct":true,"confidence":4},{"trial_n":22,"n_dots":3.95,"target":"left","response":"left","rt":466,"correct":true,"confidence":5},{"trial_n":23,"n_dots":3.95,"target":"right","response":"left","rt":1575,"correct":false,"confidence":3},{"trial_n":24,"n_dots":4.05,"target":"right","response":"left","rt":1072,"correct":false,"confidence":3},{"trial_n":25,"n_dots":4.15,"target":"left","response":"right","rt":911,"correct":false,"confidence":2},{"trial_n":26,"n_dots":4.25,"target":"right","response":"right","rt":787,"correct":true,"confidence":3},{"trial_n":27,"n_dots":4.25,"target":"right","response":"right","rt":803,"correct":true,"confidence":3},{"trial_n":28,"n_dots":4.15,"target":"right","response":"right","rt":1079,"correct":true,"confidence":3},{"trial_n":29,"n_dots":4.15,"target":"right","response":"right","rt":850,"correct":true,"confidence":3},{"trial_n":30,"n_dots":4.05,"target":"left","response":"left","rt":483.99999999997,"correct":true,"confidence":4},{"trial_n":31,"n_dots":4.05,"target":"left","response":"left","rt":643,"correct":true,"confidence":4},{"trial_n":32,"n_dots":3.95,"target":"left","response":"left","rt":464,"correct":true,"confidence":4},{"trial_n":33,"n_dots":3.95,"target":"right","response":"right","rt":442,"correct":true,"confidence":3},{"trial_n":34,"n_dots":3.85,"target":"left","response":"left","rt":443.00000000003,"correct":true,"confidence":4},{"trial_n":35,"n_dots":3.85,"target":"left","response":"left","rt":421,"correct":true,"confidence":5},{"trial_n":36,"n_dots":3.75,"target":"left","response":"left","rt":464.99999999997,"correct":true,"confidence":4},{"trial_n":37,"n_dots":3.75,"target":"left","response":"left","rt":427,"correct":true,"confidence":5},{"trial_n":38,"n_dots":3.65,"target":"right","response":"left","rt":709,"correct":false,"confidence":3},{"trial_n":39,"n_dots":3.75,"target":"left","response":"left","rt":435,"correct":true,"confidence":4},{"trial_n":40,"n_dots":3.75,"target":"left","response":"right","rt":874.00000000003,"correct":false,"confidence":2},{"trial_n":41,"n_dots":3.85,"target":"right","response":"right","rt":493.00000000003,"correct":true,"confidence":2},{"trial_n":42,"n_dots":3.85,"target":"left","response":"left","rt":754,"correct":true,"confidence":2},{"trial_n":43,"n_dots":3.75,"target":"right","response":"right","rt":802.00000000003,"correct":true,"confidence":3},{"trial_n":44,"n_dots":3.75,"target":"right","response":"right","rt":490.00000000003,"correct":true,"confidence":3},{"trial_n":45,"n_dots":3.65,"target":"left","response":"left","rt":707,"correct":true,"confidence":3},{"trial_n":46,"n_dots":3.65,"target":"left","response":"left","rt":465,"correct":true,"confidence":4},{"trial_n":47,"n_dots":3.55,"target":"right","response":"left","rt":1062,"correct":false,"confidence":2},{"trial_n":48,"n_dots":3.65,"target":"right","response":"right","rt":440,"correct":true,"confidence":3},{"trial_n":49,"n_dots":3.65,"target":"left","response":"right","rt":509,"correct":false,"confidence":3},{"trial_n":50,"n_dots":3.75,"target":"left","response":"left","rt":441,"correct":true,"confidence":4},{"trial_n":51,"n_dots":3.75,"target":"left","response":"left","rt":450.00000000006,"correct":true,"confidence":4},{"trial_n":52,"n_dots":3.65,"target":"right","response":"right","rt":568,"correct":true,"confidence":3},{"trial_n":53,"n_dots":3.65,"target":"left","response":"left","rt":470,"correct":true,"confidence":4},{"trial_n":54,"n_dots":3.55,"target":"right","response":"right","rt":502,"correct":true,"confidence":3},{"trial_n":55,"n_dots":3.55,"target":"right","response":"left","rt":487,"correct":false,"confidence":4},{"trial_n":56,"n_dots":3.65,"target":"left","response":"left","rt":518,"correct":true,"confidence":4},{"trial_n":57,"n_dots":3.65,"target":"left","response":"left","rt":893,"correct":true,"confidence":2},{"trial_n":58,"n_dots":3.55,"target":"left","response":"left","rt":757.00000000006,"correct":true,"confidence":2},{"trial_n":59,"n_dots":3.55,"target":"left","response":"right","rt":1148,"correct":false,"confidence":2},{"trial_n":60,"n_dots":3.65,"target":"left","response":"right","rt":687,"correct":false,"confidence":3},{"trial_n":61,"n_dots":3.75,"target":"right","response":"right","rt":2335,"correct":true,"confidence":3},{"trial_n":62,"n_dots":3.75,"target":"right","response":"right","rt":803.99999999994,"correct":true,"confidence":2},{"trial_n":63,"n_dots":3.65,"target":"left","response":"left","rt":467,"correct":true,"confidence":3},{"trial_n":64,"n_dots":3.65,"target":"right","response":"right","rt":1328.9999999999,"correct":true,"confidence":2},{"trial_n":65,"n_dots":3.55,"target":"right","response":"right","rt":702,"correct":true,"confidence":3},{"trial_n":66,"n_dots":3.55,"target":"left","response":"left","rt":422,"correct":true,"confidence":4},{"trial_n":67,"n_dots":3.45,"target":"left","response":"left","rt":497.99999999994,"correct":true,"confidence":3},{"trial_n":68,"n_dots":3.45,"target":"right","response":"right","rt":434,"correct":true,"confidence":2},{"trial_n":69,"n_dots":3.35,"target":"right","response":"left","rt":1772.9999999999,"correct":false,"confidence":1},{"trial_n":70,"n_dots":3.45,"target":"right","response":"right","rt":712.99999999994,"correct":true,"confidence":2},{"trial_n":71,"n_dots":3.45,"target":"right","response":"right","rt":482,"correct":true,"confidence":3},{"trial_n":72,"n_dots":3.35,"target":"right","response":"left","rt":602.00000000006,"correct":false,"confidence":2},{"trial_n":73,"n_dots":3.45,"target":"left","response":"left","rt":443.00000000006,"correct":true,"confidence":4},{"trial_n":74,"n_dots":3.45,"target":"right","response":"right","rt":811,"correct":true,"confidence":2},{"trial_n":75,"n_dots":3.35,"target":"left","response":"left","rt":417,"correct":true,"confidence":4},{"trial_n":76,"n_dots":3.35,"target":"left","response":"left","rt":409,"correct":true,"confidence":5},{"trial_n":77,"n_dots":3.25,"target":"right","response":"left","rt":1067,"correct":false,"confidence":2},{"trial_n":78,"n_dots":3.35,"target":"right","response":"left","rt":397,"correct":false,"confidence":3},{"trial_n":79,"n_dots":3.45,"target":"left","response":"left","rt":497.99999999994,"correct":true,"confidence":3},{"trial_n":80,"n_dots":3.45,"target":"left","response":"right","rt":571,"correct":false,"confidence":3},{"trial_n":81,"n_dots":3.55,"target":"left","response":"left","rt":511,"correct":true,"confidence":4},{"trial_n":82,"n_dots":3.55,"target":"left","response":"left","rt":389,"correct":true,"confidence":4},{"trial_n":83,"n_dots":3.45,"target":"left","response":"left","rt":626,"correct":true,"confidence":4},{"trial_n":84,"n_dots":3.45,"target":"left","response":"right","rt":512,"correct":false,"confidence":2},{"trial_n":85,"n_dots":3.55,"target":"left","response":"right","rt":634,"correct":false,"confidence":2},{"trial_n":86,"n_dots":3.65,"target":"left","response":"left","rt":589,"correct":true,"confidence":3},{"trial_n":87,"n_dots":3.65,"target":"right","response":"right","rt":396,"correct":true,"confidence":2},{"trial_n":88,"n_dots":3.55,"target":"right","response":"right","rt":412,"correct":true,"confidence":2},{"trial_n":89,"n_dots":3.55,"target":"right","response":"left","rt":413.00000000006,"correct":false,"confidence":3},{"trial_n":90,"n_dots":3.65,"target":"left","response":"left","rt":320.00000000006,"correct":true,"confidence":4},{"trial_n":91,"n_dots":3.65,"target":"left","response":"left","rt":441,"correct":true,"confidence":3},{"trial_n":92,"n_dots":3.55,"target":"left","response":"left","rt":384,"correct":true,"confidence":3},{"trial_n":93,"n_dots":3.55,"target":"left","response":"left","rt":196.00000000006,"correct":true,"confidence":4},{"trial_n":94,"n_dots":3.45,"target":"right","response":"left","rt":377,"correct":false,"confidence":3},{"trial_n":95,"n_dots":3.55,"target":"left","response":"left","rt":437,"correct":true,"confidence":3},{"trial_n":96,"n_dots":3.55,"target":"left","response":"left","rt":394.00000000006,"correct":true,"confidence":4},{"trial_n":97,"n_dots":3.45,"target":"right","response":"left","rt":419.00000000006,"correct":false,"confidence":3},{"trial_n":98,"n_dots":3.55,"target":"right","response":"left","rt":442.00000000006,"correct":false,"confidence":2},{"trial_n":99,"n_dots":3.65,"target":"right","response":"right","rt":1107,"correct":true,"confidence":2},{"trial_n":100,"n_dots":3.65,"target":"left","response":"left","rt":943.99999999994,"correct":true,"confidence":2},{"trial_n":101,"n_dots":3.55,"target":"right","response":"right","rt":857,"correct":true,"confidence":2},{"trial_n":102,"n_dots":3.55,"target":"right","response":"right","rt":211.00000000006,"correct":true,"confidence":3},{"trial_n":103,"n_dots":3.45,"target":"right","response":"left","rt":526,"correct":false,"confidence":3},{"trial_n":104,"n_dots":3.55,"target":"left","response":"left","rt":379,"correct":true,"confidence":3},{"trial_n":105,"n_dots":3.55,"target":"right","response":"left","rt":415,"correct":false,"confidence":3},{"trial_n":106,"n_dots":3.65,"target":"right","response":"left","rt":403,"correct":false,"confidence":3},{"trial_n":107,"n_dots":3.75,"target":"right","response":"right","rt":122,"correct":true,"confidence":3},{"trial_n":108,"n_dots":3.75,"target":"right","response":"right","rt":420,"correct":true,"confidence":3},{"trial_n":109,"n_dots":3.65,"target":"left","response":"left","rt":401,"correct":true,"confidence":4},{"trial_n":110,"n_dots":3.65,"target":"right","response":"right","rt":621,"correct":true,"confidence":3},{"trial_n":111,"n_dots":3.55,"target":"right","response":"left","rt":436,"correct":false,"confidence":3},{"trial_n":112,"n_dots":3.65,"target":"right","response":"left","rt":1951,"correct":false,"confidence":2},{"trial_n":113,"n_dots":3.75,"target":"left","response":"left","rt":545,"correct":true,"confidence":2},{"trial_n":114,"n_dots":3.75,"target":"right","response":"right","rt":388,"correct":true,"confidence":2},{"trial_n":115,"n_dots":3.65,"target":"right","response":"right","rt":338,"correct":true,"confidence":3},{"trial_n":116,"n_dots":3.65,"target":"right","response":"left","rt":990,"correct":false,"confidence":1},{"trial_n":117,"n_dots":3.75,"target":"left","response":"left","rt":367,"correct":true,"confidence":4},{"trial_n":118,"n_dots":3.75,"target":"right","response":"left","rt":609,"correct":false,"confidence":2},{"trial_n":119,"n_dots":3.85,"target":"left","response":"left","rt":722.99999999988,"correct":true,"confidence":4},{"trial_n":120,"n_dots":3.85,"target":"left","response":"left","rt":169,"correct":true,"confidence":5}]