[{"trial_n":1,"min":25,"max":230,"target":"present","response":"present","rt":2874.1000000006,"correct":true,"confidence":-1},{"trial_n":2,"min":25,"max":230,"target":"present","response":"present","rt":63,"correct":true,"confidence":-1},{"trial_n":3,"min":41,"max":214,"target":"absent","response":"present","rt":114.5,"correct":false,"confidence":-1},{"trial_n":4,"min":25,"max":230,"target":"absent","response":"present","rt":93.200000000186,"correct":false,"confidence":-1},{"trial_n":5,"min":9,"max":246,"target":"present","response":"present","rt":67.700000000186,"correct":true,"confidence":-1},{"trial_n":6,"min":9,"max":246,"target":"present","response":"present","rt":9.5,"correct":true,"confidence":-1},{"trial_n":7,"min":25,"max":230,"target":"absent","response":"present","rt":105.90000000037,"correct":false,"confidence":-1},{"trial_n":8,"min":9,"max":246,"target":"present","response":"present","rt":106.79999999981,"correct":true,"confidence":-1},{"trial_n":9,"min":9,"max":246,"target":"absent","response":"absent","rt":67.5,"correct":true,"confidence":-1},{"trial_n":10,"min":25,"max":230,"target":"present","response":"absent","rt":204.29999999981,"correct":false,"confidence":-1},{"trial_n":11,"min":17,"max":238,"target":"present","response":"present","rt":154.5,"correct":true,"confidence":-1},{"trial_n":12,"min":17,"max":238,"target":"present","response":"present","rt":210.10000000056,"correct":true,"confidence":-1},{"trial_n":13,"min":25,"max":230,"target":"absent","response":"absent","rt":221.79999999981,"correct":true,"confidence":-1},{"trial_n":14,"min":25,"max":230,"target":"present","response":"present","rt":53,"correct":true,"confidence":-1},{"trial_n":15,"min":33,"max":222,"target":"absent","response":"present","rt":201.10000000056,"correct":false,"confidence":-1},{"trial_n":16,"min":25,"max":230,"target":"present","response":"present","rt":232,"correct":true,"confidence":-1},{"trial_n":17,"min":25,"max":230,"target":"absent","response":"present","rt":110.5,"correct":false,"confidence":-1},{"trial_n":18,"min":17,"max":238,"target":"absent","response":"absent","rt":34.900000000373,"correct":true,"confidence":-1},{"trial_n":19,"min":17,"max":238,"target":"present","response":"present","rt":45.199999999255,"correct":true,"confidence":-1},{"trial_n":20,"min":25,"max":230,"target":"present","response":"absent","rt":263.5,"correct":false,"confidence":-1},{"trial_n":21,"min":21,"max":234,"target":"absent","response":"absent","rt":7596.7999999998,"correct":true,"confidence":1},{"trial_n":22,"min":21,"max":234,"target":"present","response":"present","rt":5717.5999999996,"correct":true,"confidence":1},{"trial_n":23,"min":25,"max":230,"target":"present","response":"present","rt":4966.1000000006,"correct":true,"confidence":1},{"trial_n":24,"min":25,"max":230,"target":"present","response":"present","rt":1629.9000000004,"correct":true,"confidence":4},{"trial_n":25,"min":29,"max":226,"target":"present","response":"present","rt":1284.4000000004,"correct":true,"confidence":4},{"trial_n":26,"min":29,"max":226,"target":"absent","response":"absent","rt":2388.6000000006,"correct":true,"confidence":1},{"trial_n":27,"min":33,"max":222,"target":"absent","response":"absent","rt":10926.5,"correct":true,"confidence":1},{"trial_n":28,"min":33,"max":222,"target":"present","response":"present","rt":2027.2000000002,"correct":true,"confidence":5},{"trial_n":29,"min":37,"max":218,"target":"present","response":"present","rt":2481.5999999996,"correct":true,"confidence":1},{"trial_n":30,"min":37,"max":218,"target":"present","response":"present","rt":1219.4000000004,"correct":true,"confidence":5},{"trial_n":31,"min":39,"max":216,"target":"absent","response":"present","rt":1567,"correct":false,"confidence":1},{"trial_n":32,"min":37,"max":218,"target":"absent","response":"present","rt":1138.5999999996,"correct":false,"confidence":4},{"trial_n":33,"min":35,"max":220,"target":"absent","response":"absent","rt":1360.8999999994,"correct":true,"confidence":4},{"trial_n":34,"min":35,"max":220,"target":"absent","response":"absent","rt":1739.2999999998,"correct":true,"confidence":4},{"trial_n":35,"min":37,"max":218,"target":"absent","response":"absent","rt":1624.8000000007,"correct":true,"confidence":4},{"trial_n":36,"min":37,"max":218,"target":"present","response":"present","rt":1207.5,"correct":true,"confidence":5},{"trial_n":37,"min":39,"max":216,"target":"present","response":"present","rt":1266.5,"correct":true,"confidence":5},{"trial_n":38,"min":39,"max":216,"target":"absent","response":"present","rt":2486.0999999996,"correct":false,"confidence":3},{"trial_n":39,"min":37,"max":218,"target":"present","response":"present","rt":1475,"correct":true,"confidence":4},{"trial_n":40,"min":37,"max":218,"target":"absent","response":"present","rt":1610.7000000002,"correct":false,"confidence":2},{"trial_n":41,"min":36,"max":219,"target":"present","response":"present","rt":1251,"correct":true,"confidence":3},{"trial_n":42,"min":36,"max":219,"target":"absent","response":"absent","rt":2545,"correct":true,"confidence":1},{"trial_n":43,"min":37,"max":218,"target":"absent","response":"absent","rt":2199.7000000002,"correct":true,"confidence":1},{"trial_n":44,"min":37,"max":218,"target":"present","response":"present","rt":1016.5999999996,"correct":true,"confidence":5},{"trial_n":45,"min":38,"max":217,"target":"absent","response":"absent","rt":1947.4000000004,"correct":true,"confidence":1},{"trial_n":46,"min":38,"max":217,"target":"present","response":"present","rt":1547.3999999994,"correct":true,"confidence":5},{"trial_n":47,"min":39,"max":216,"target":"present","response":"present","rt":1169.7000000002,"correct":true,"confidence":5},{"trial_n":48,"min":39,"max":216,"target":"absent","response":"absent","rt":2115.2999999998,"correct":true,"confidence":1},{"trial_n":49,"min":40,"max":215,"target":"absent","response":"present","rt":1485,"correct":false,"confidence":1},{"trial_n":50,"min":39,"max":216,"target":"absent","response":"absent","rt":2070.0999999996,"correct":true,"confidence":1},{"trial_n":51,"min":39,"max":216,"target":"absent","response":"absent","rt":2965.5,"correct":true,"confidence":1},{"trial_n":52,"min":40,"max":215,"target":"present","response":"present","rt":945.29999999981,"correct":true,"confidence":1},{"trial_n":53,"min":40,"max":215,"target":"absent","response":"absent","rt":1394,"correct":true,"confidence":1},{"trial_n":54,"min":41,"max":214,"target":"present","response":"present","rt":855.80000000075,"correct":true,"confidence":1},{"trial_n":55,"min":41,"max":214,"target":"absent","response":"absent","rt":1444.3999999994,"correct":true,"confidence":1},{"trial_n":56,"min":42,"max":213,"target":"present","response":"present","rt":1183,"correct":true,"confidence":1},{"trial_n":57,"min":42,"max":213,"target":"absent","response":"absent","rt":1108.4000000004,"correct":true,"confidence":1},{"trial_n":58,"min":43,"max":212,"target":"absent","response":"absent","rt":1300.8999999994,"correct":true,"confidence":1},{"trial_n":59,"min":43,"max":212,"target":"present","response":"present","rt":1076.5999999996,"correct":true,"confidence":3},{"trial_n":60,"min":44,"max":211,"target":"present","response":"present","rt":1513.7999999998,"correct":true,"confidence":3},{"trial_n":61,"min":44,"max":211,"target":"present","response":"present","rt":935,"correct":true,"confidence":3},{"trial_n":62,"min":45,"max":210,"target":"present","response":"present","rt":1153.2999999998,"correct":true,"confidence":3},{"trial_n":63,"min":45,"max":210,"target":"absent","response":"present","rt":1238.4000000004,"correct":false,"confidence":1},{"trial_n":64,"min":44,"max":211,"target":"absent","response":"absent","rt":1506.4000000004,"correct":true,"confidence":1},{"trial_n":65,"min":44,"max":211,"target":"present","response":"present","rt":1173.2000000002,"correct":true,"confidence":5},{"trial_n":66,"min":45,"max":210,"target":"absent","response":"absent","rt":1131.7000000002,"correct":true,"confidence":1},{"trial_n":67,"min":45,"max":210,"target":"present","response":"present","rt":1837.5,"correct":true,"confidence":5},{"trial_n":68,"min":46,"max":209,"target":"absent","response":"absent","rt":1187.3999999994,"correct":true,"confidence":1},{"trial_n":69,"min":46,"max":209,"target":"absent","response":"absent","rt":1088.9000000004,"correct":true,"confidence":1},{"trial_n":70,"min":47,"max":208,"target":"present","response":"present","rt":1328,"correct":true,"confidence":5},{"trial_n":71,"min":41,"max":214,"target":"present","response":"absent","rt":5357.9000000004,"correct":false,"confidence":-1},{"trial_n":72,"min":41,"max":214,"target":"present","response":"present","rt":1530.2000000002,"correct":true,"confidence":-1},{"trial_n":73,"min":41,"max":214,"target":"absent","response":"absent","rt":1424.2000000002,"correct":true,"confidence":-1},{"trial_n":74,"min":57,"max":198,"target":"absent","response":"present","rt":1375.2000000002,"correct":false,"confidence":-1},{"trial_n":75,"min":41,"max":214,"target":"present","response":"absent","rt":3657.5,"correct":false,"confidence":-1},{"trial_n":76,"min":25,"max":230,"target":"absent","response":"absent","rt":1743.7999999998,"correct":true,"confidence":-1},{"trial_n":77,"min":25,"max":230,"target":"absent","response":"absent","rt":1709.4000000004,"correct":true,"confidence":-1},{"trial_n":78,"min":41,"max":214,"target":"absent","response":"absent","rt":1455.2999999998,"correct":true,"confidence":-1},{"trial_n":79,"min":41,"max":214,"target":"absent","response":"absent","rt":3409.2999999998,"correct":true,"confidence":-1},{"trial_n":80,"min":57,"max":198,"target":"absent","response":"absent","rt":476.59999999963,"correct":true,"confidence":-1},{"trial_n":81,"min":57,"max":198,"target":"absent","response":"present","rt":182.89999999944,"correct":false,"confidence":-1},{"trial_n":82,"min":49,"max":206,"target":"present","response":"present","rt":493.90000000037,"correct":true,"confidence":-1},{"trial_n":83,"min":49,"max":206,"target":"present","response":"absent","rt":324.59999999963,"correct":false,"confidence":-1},{"trial_n":84,"min":41,"max":214,"target":"present","response":"present","rt":561.60000000056,"correct":true,"confidence":-1},{"trial_n":85,"min":41,"max":214,"target":"present","response":"absent","rt":857.5,"correct":false,"confidence":-1},{"trial_n":86,"min":33,"max":222,"target":"present","response":"absent","rt":4066.7999999998,"correct":false,"confidence":-1},{"trial_n":87,"min":25,"max":230,"target":"present","response":"present","rt":2133.5,"correct":true,"confidence":-1},{"trial_n":88,"min":25,"max":230,"target":"absent","response":"present","rt":294.89999999944,"correct":false,"confidence":-1},{"trial_n":89,"min":17,"max":238,"target":"present","response":"absent","rt":112.5,"correct":false,"confidence":-1},{"trial_n":90,"min":9,"max":246,"target":"present","response":"absent","rt":23.099999999627,"correct":false,"confidence":-1},{"trial_n":91,"min":5,"max":250,"target":"absent","response":"absent","rt":848.90000000037,"correct":true,"confidence":4},{"trial_n":92,"min":5,"max":250,"target":"absent","response":"absent","rt":843.5,"correct":true,"confidence":1},{"trial_n":93,"min":9,"max":246,"target":"absent","response":"absent","rt":1319.7999999998,"correct":true,"confidence":3},{"trial_n":94,"min":9,"max":246,"target":"present","response":"present","rt":2659.1999999993,"correct":true,"confidence":3},{"trial_n":95,"min":13,"max":242,"target":"absent","response":"absent","rt":417,"correct":true,"confidence":1},{"trial_n":96,"min":13,"max":242,"target":"present","response":"present","rt":1126.1000000006,"correct":true,"confidence":1},{"trial_n":97,"min":17,"max":238,"target":"absent","response":"absent","rt":1817.0999999996,"correct":true,"confidence":3},{"trial_n":98,"min":17,"max":238,"target":"absent","response":"absent","rt":2312.9000000004,"correct":true,"confidence":2},{"trial_n":99,"min":21,"max":234,"target":"present","response":"present","rt":857.29999999981,"correct":true,"confidence":4},{"trial_n":100,"min":21,"max":234,"target":"present","response":"present","rt":279,"correct":true,"confidence":4},{"trial_n":101,"min":23,"max":232,"target":"absent","response":"absent","rt":1285.5999999996,"correct":true,"confidence":2},{"trial_n":102,"min":23,"max":232,"target":"present","response":"present","rt":407.40000000037,"correct":true,"confidence":3},{"trial_n":103,"min":25,"max":230,"target":"absent","response":"absent","rt":634.29999999981,"correct":true,"confidence":2},{"trial_n":104,"min":25,"max":230,"target":"absent","response":"absent","rt":1877.5,"correct":true,"confidence":1},{"trial_n":105,"min":27,"max":228,"target":"present","response":"present","rt":404.89999999944,"correct":true,"confidence":2},{"trial_n":106,"min":27,"max":228,"target":"present","response":"present","rt":444.5,"correct":true,"confidence":3},{"trial_n":107,"min":29,"max":226,"target":"absent","response":"absent","rt":324,"correct":true,"confidence":3},{"trial_n":108,"min":29,"max":226,"target":"absent","response":"present","rt":838.29999999981,"correct":false,"confidence":4},{"trial_n":109,"min":27,"max":228,"target":"present","response":"present","rt":1919.4000000004,"correct":true,"confidence":2},{"trial_n":110,"min":27,"max":228,"target":"present","response":"present","rt":2914.7999999998,"correct":true,"confidence":2},{"trial_n":111,"min":28,"max":227,"target":"present","response":"present","rt":1216.5,"correct":true,"confidence":1},{"trial_n":112,"min":28,"max":227,"target":"absent","response":"present","rt":2686.8999999994,"correct":false,"confidence":1},{"trial_n":113,"min":27,"max":228,"target":"absent","response":"absent","rt":413.70000000019,"correct":true,"confidence":3},{"trial_n":114,"min":27,"max":228,"target":"present","response":"present","rt":355.89999999944,"correct":true,"confidence":3},{"trial_n":115,"min":28,"max":227,"target":"present","response":"absent","rt":2298.5999999996,"correct":false,"confidence":2},{"trial_n":116,"min":27,"max":228,"target":"present","response":"present","rt":242.70000000019,"correct":true,"confidence":3},{"trial_n":117,"min":27,"max":228,"target":"absent","response":"absent","rt":219.5,"correct":true,"confidence":3},{"trial_n":118,"min":28,"max":227,"target":"present","response":"present","rt":719.5,"correct":true,"confidence":3},{"trial_n":119,"min":28,"max":227,"target":"present","response":"present","rt":630.29999999981,"correct":true,"confidence":1},{"trial_n":120,"min":29,"max":226,"target":"present","response":"present","rt":1828,"correct":true,"confidence":3},{"trial_n":121,"min":29,"max":226,"target":"present","response":"present","rt":401.60000000056,"correct":true,"confidence":1},{"trial_n":122,"min":30,"max":225,"target":"absent","response":"absent","rt":1286.1000000006,"correct":true,"confidence":3},{"trial_n":123,"min":30,"max":225,"target":"present","response":"present","rt":1074.6999999993,"correct":true,"confidence":1},{"trial_n":124,"min":31,"max":224,"target":"absent","response":"absent","rt":377.10000000056,"correct":true,"confidence":3},{"trial_n":125,"min":31,"max":224,"target":"present","response":"present","rt":305.19999999925,"correct":true,"confidence":4},{"trial_n":126,"min":32,"max":223,"target":"present","response":"present","rt":1073.2000000002,"correct":true,"confidence":1},{"trial_n":127,"min":32,"max":223,"target":"absent","response":"absent","rt":244,"correct":true,"confidence":3},{"trial_n":128,"min":33,"max":222,"target":"absent","response":"absent","rt":421.89999999944,"correct":true,"confidence":3},{"trial_n":129,"min":33,"max":222,"target":"present","response":"present","rt":374.20000000019,"correct":true,"confidence":3},{"trial_n":130,"min":34,"max":221,"target":"absent","response":"present","rt":1904.6000000006,"correct":false,"confidence":1},{"trial_n":131,"min":33,"max":222,"target":"absent","response":"absent","rt":780.5,"correct":true,"confidence":1},{"trial_n":132,"min":33,"max":222,"target":"absent","response":"absent","rt":561.90000000037,"correct":true,"confidence":1},{"trial_n":133,"min":34,"max":221,"target":"present","response":"present","rt":2390.7000000002,"correct":true,"confidence":1},{"trial_n":134,"min":34,"max":221,"target":"present","response":"present","rt":1076.5,"correct":true,"confidence":1},{"trial_n":135,"min":35,"max":220,"target":"present","response":"absent","rt":163.70000000019,"correct":false,"confidence":1},{"trial_n":136,"min":34,"max":221,"target":"absent","response":"absent","rt":3014.7999999998,"correct":true,"confidence":1},{"trial_n":137,"min":34,"max":221,"target":"present","response":"present","rt":511.5,"correct":true,"confidence":2},{"trial_n":138,"min":35,"max":220,"target":"absent","response":"absent","rt":1517.5999999996,"correct":true,"confidence":3},{"trial_n":139,"min":35,"max":220,"target":"absent","response":"present","rt":911.10000000056,"correct":false,"confidence":1},{"trial_n":140,"min":34,"max":221,"target":"absent","response":"present","rt":578.10000000056,"correct":false,"confidence":1}]