[{"trial_n":1,"n_dots":4.25,"target":"left","response":"left","rt":2016.2000000477,"correct":true,"confidence":-1},{"trial_n":2,"n_dots":4.25,"target":"left","response":"left","rt":661.5,"correct":true,"confidence":-1},{"trial_n":3,"n_dots":3.85,"target":"left","response":"left","rt":643.29999995232,"correct":true,"confidence":-1},{"trial_n":4,"n_dots":3.85,"target":"right","response":"right","rt":239.5,"correct":true,"confidence":-1},{"trial_n":5,"n_dots":3.45,"target":"left","response":"right","rt":344.5,"correct":false,"confidence":-1},{"trial_n":6,"n_dots":3.85,"target":"left","response":"right","rt":270.80000019073,"correct":false,"confidence":-1},{"trial_n":7,"n_dots":4.25,"target":"right","response":"right","rt":131.40000009537,"correct":true,"confidence":-1},{"trial_n":8,"n_dots":4.25,"target":"right","response":"right","rt":188.20000004768,"correct":true,"confidence":-1},{"trial_n":9,"n_dots":4.05,"target":"right","response":"right","rt":241.5,"correct":true,"confidence":-1},{"trial_n":10,"n_dots":4.05,"target":"left","response":"left","rt":244.09999990463,"correct":true,"confidence":-1},{"trial_n":11,"n_dots":3.85,"target":"left","response":"left","rt":251.20000004768,"correct":true,"confidence":-1},{"trial_n":12,"n_dots":3.85,"target":"left","response":"left","rt":534.70000004768,"correct":true,"confidence":-1},{"trial_n":13,"n_dots":3.75,"target":"right","response":"right","rt":137.79999995232,"correct":true,"confidence":-1},{"trial_n":14,"n_dots":3.75,"target":"left","response":"right","rt":179.5,"correct":false,"confidence":-1},{"trial_n":15,"n_dots":3.85,"target":"right","response":"left","rt":361.59999990463,"correct":false,"confidence":-1},{"trial_n":16,"n_dots":3.95,"target":"left","response":"left","rt":99.5,"correct":true,"confidence":-1},{"trial_n":17,"n_dots":3.95,"target":"left","response":"left","rt":91.600000143051,"correct":true,"confidence":-1},{"trial_n":18,"n_dots":3.85,"target":"right","response":"left","rt":3422.5,"correct":false,"confidence":-1},{"trial_n":19,"n_dots":3.95,"target":"right","response":"right","rt":95.599999904633,"correct":true,"confidence":-1},{"trial_n":20,"n_dots":3.95,"target":"left","response":"left","rt":610.90000009537,"correct":true,"confidence":-1},{"trial_n":21,"n_dots":3.85,"target":"right","response":"right","rt":264.5,"correct":true,"confidence":5},{"trial_n":22,"n_dots":3.85,"target":"right","response":"right","rt":151.79999995232,"correct":true,"confidence":5},{"trial_n":23,"n_dots":3.75,"target":"right","response":"right","rt":307.70000004768,"correct":true,"confidence":5},{"trial_n":24,"n_dots":3.75,"target":"right","response":"left","rt":301.19999980927,"correct":false,"confidence":1},{"trial_n":25,"n_dots":3.85,"target":"left","response":"left","rt":388.5,"correct":true,"confidence":5},{"trial_n":26,"n_dots":3.85,"target":"left","response":"left","rt":188.59999990463,"correct":true,"confidence":5},{"trial_n":27,"n_dots":3.75,"target":"right","response":"left","rt":226.89999985695,"correct":false,"confidence":5},{"trial_n":28,"n_dots":3.85,"target":"left","response":"left","rt":249.09999990463,"correct":true,"confidence":5},{"trial_n":29,"n_dots":3.85,"target":"left","response":"left","rt":622.60000014305,"correct":true,"confidence":5},{"trial_n":30,"n_dots":3.75,"target":"right","response":"right","rt":190.90000009537,"correct":true,"confidence":5},{"trial_n":31,"n_dots":3.75,"target":"right","response":"right","rt":17.699999809265,"correct":true,"confidence":5},{"trial_n":32,"n_dots":3.65,"target":"left","response":"left","rt":101.29999995232,"correct":true,"confidence":5},{"trial_n":33,"n_dots":3.65,"target":"right","response":"right","rt":39.599999904633,"correct":true,"confidence":5},{"trial_n":34,"n_dots":3.55,"target":"left","response":"left","rt":566.79999995232,"correct":true,"confidence":5},{"trial_n":35,"n_dots":3.55,"target":"right","response":"right","rt":488.09999990463,"correct":true,"confidence":5},{"trial_n":36,"n_dots":3.45,"target":"left","response":"left","rt":442.09999990463,"correct":true,"confidence":5},{"trial_n":37,"n_dots":3.45,"target":"right","response":"right","rt":509.39999985695,"correct":true,"confidence":5},{"trial_n":38,"n_dots":3.35,"target":"right","response":"left","rt":270.89999985695,"correct":false,"confidence":5},{"trial_n":39,"n_dots":3.45,"target":"left","response":"left","rt":149.5,"correct":true,"confidence":5},{"trial_n":40,"n_dots":3.45,"target":"right","response":"left","rt":233,"correct":false,"confidence":5},{"trial_n":41,"n_dots":3.55,"target":"right","response":"right","rt":386.09999990463,"correct":true,"confidence":5},{"trial_n":42,"n_dots":3.55,"target":"right","response":"right","rt":568.29999995232,"correct":true,"confidence":5},{"trial_n":43,"n_dots":3.45,"target":"right","response":"right","rt":161.29999995232,"correct":true,"confidence":5},{"trial_n":44,"n_dots":3.45,"target":"left","response":"left","rt":218.90000009537,"correct":true,"confidence":5},{"trial_n":45,"n_dots":3.35,"target":"left","response":"left","rt":461.20000004768,"correct":true,"confidence":5},{"trial_n":46,"n_dots":3.35,"target":"left","response":"left","rt":12.200000047684,"correct":true,"confidence":5},{"trial_n":47,"n_dots":3.25,"target":"right","response":"right","rt":502.70000004768,"correct":true,"confidence":5},{"trial_n":48,"n_dots":3.25,"target":"left","response":"left","rt":203.5,"correct":true,"confidence":5},{"trial_n":49,"n_dots":3.15,"target":"left","response":"right","rt":253.30000019073,"correct":false,"confidence":5},{"trial_n":50,"n_dots":3.25,"target":"right","response":"right","rt":630.79999995232,"correct":true,"confidence":5},{"trial_n":51,"n_dots":3.25,"target":"left","response":"left","rt":138,"correct":true,"confidence":5},{"trial_n":52,"n_dots":3.15,"target":"left","response":"right","rt":294.79999995232,"correct":false,"confidence":5},{"trial_n":53,"n_dots":3.25,"target":"left","response":"right","rt":65.600000143051,"correct":false,"confidence":5},{"trial_n":54,"n_dots":3.35,"target":"right","response":"right","rt":257.70000004768,"correct":true,"confidence":5},{"trial_n":55,"n_dots":3.35,"target":"left","response":"left","rt":262.79999995232,"correct":true,"confidence":5},{"trial_n":56,"n_dots":3.25,"target":"right","response":"right","rt":239.20000004768,"correct":true,"confidence":5},{"trial_n":57,"n_dots":3.25,"target":"left","response":"left","rt":137.09999990463,"correct":true,"confidence":5},{"trial_n":58,"n_dots":3.15,"target":"left","response":"left","rt":149,"correct":true,"confidence":5},{"trial_n":59,"n_dots":3.15,"target":"left","response":"left","rt":19.099999904633,"correct":true,"confidence":5},{"trial_n":60,"n_dots":3.05,"target":"left","response":"left","rt":89.899999856949,"correct":true,"confidence":5},{"trial_n":61,"n_dots":3.05,"target":"right","response":"right","rt":89,"correct":true,"confidence":5},{"trial_n":62,"n_dots":2.95,"target":"right","response":"left","rt":100.40000009537,"correct":false,"confidence":5},{"trial_n":63,"n_dots":3.05,"target":"left","response":"left","rt":17.200000047684,"correct":true,"confidence":5},{"trial_n":64,"n_dots":3.05,"target":"left","response":"left","rt":451.90000009537,"correct":true,"confidence":5},{"trial_n":65,"n_dots":2.95,"target":"left","response":"left","rt":63.300000190735,"correct":true,"confidence":5},{"trial_n":66,"n_dots":2.95,"target":"left","response":"left","rt":162.80000019073,"correct":true,"confidence":5},{"trial_n":67,"n_dots":2.85,"target":"right","response":"right","rt":113.20000004768,"correct":true,"confidence":5},{"trial_n":68,"n_dots":2.85,"target":"left","response":"right","rt":37.799999952316,"correct":false,"confidence":5},{"trial_n":69,"n_dots":2.95,"target":"right","response":"right","rt":471,"correct":true,"confidence":5},{"trial_n":70,"n_dots":2.95,"target":"right","response":"right","rt":181.5,"correct":true,"confidence":5},{"trial_n":71,"n_dots":2.85,"target":"left","response":"left","rt":388.30000019073,"correct":true,"confidence":5},{"trial_n":72,"n_dots":2.85,"target":"left","response":"left","rt":174.39999985695,"correct":true,"confidence":5},{"trial_n":73,"n_dots":2.75,"target":"right","response":"left","rt":372.89999985695,"correct":false,"confidence":5},{"trial_n":74,"n_dots":2.85,"target":"left","response":"right","rt":21.300000190735,"correct":false,"confidence":5},{"trial_n":75,"n_dots":2.95,"target":"right","response":"left","rt":366.09999990463,"correct":false,"confidence":5},{"trial_n":76,"n_dots":3.05,"target":"left","response":"left","rt":364.5,"correct":true,"confidence":5},{"trial_n":77,"n_dots":3.05,"target":"left","response":"right","rt":241.40000009537,"correct":false,"confidence":5},{"trial_n":78,"n_dots":3.15,"target":"left","response":"left","rt":89.100000143051,"correct":true,"confidence":5},{"trial_n":79,"n_dots":3.15,"target":"right","response":"right","rt":24.5,"correct":true,"confidence":5},{"trial_n":80,"n_dots":3.05,"target":"left","response":"left","rt":223.10000014305,"correct":true,"confidence":5},{"trial_n":81,"n_dots":3.05,"target":"right","response":"right","rt":153.20000004768,"correct":true,"confidence":5},{"trial_n":82,"n_dots":2.95,"target":"left","response":"left","rt":383.5,"correct":true,"confidence":5},{"trial_n":83,"n_dots":2.95,"target":"left","response":"right","rt":284.79999995232,"correct":false,"confidence":5},{"trial_n":84,"n_dots":3.05,"target":"right","response":"right","rt":415.40000009537,"correct":true,"confidence":5},{"trial_n":85,"n_dots":3.05,"target":"right","response":"right","rt":239,"correct":true,"confidence":5},{"trial_n":86,"n_dots":2.95,"target":"left","response":"right","rt":301.40000009537,"correct":false,"confidence":5},{"trial_n":87,"n_dots":3.05,"target":"right","response":"right","rt":31.599999904633,"correct":true,"confidence":5},{"trial_n":88,"n_dots":3.05,"target":"right","response":"right","rt":337.40000009537,"correct":true,"confidence":5},{"trial_n":89,"n_dots":2.95,"target":"right","response":"right","rt":117.10000014305,"correct":true,"confidence":5},{"trial_n":90,"n_dots":2.95,"target":"right","response":"left","rt":102.79999995232,"correct":false,"confidence":5},{"trial_n":91,"n_dots":3.05,"target":"left","response":"left","rt":35.200000047684,"correct":true,"confidence":5},{"trial_n":92,"n_dots":3.05,"target":"right","response":"left","rt":465,"correct":false,"confidence":1},{"trial_n":93,"n_dots":3.15,"target":"left","response":"left","rt":449.60000014305,"correct":true,"confidence":5},{"trial_n":94,"n_dots":3.15,"target":"left","response":"left","rt":496.90000009537,"correct":true,"confidence":5},{"trial_n":95,"n_dots":3.05,"target":"left","response":"left","rt":681.70000004768,"correct":true,"confidence":5},{"trial_n":96,"n_dots":3.05,"target":"right","response":"right","rt":273.70000004768,"correct":true,"confidence":5},{"trial_n":97,"n_dots":2.95,"target":"right","response":"right","rt":86.799999952316,"correct":true,"confidence":5},{"trial_n":98,"n_dots":2.95,"target":"right","response":"right","rt":317,"correct":true,"confidence":5},{"trial_n":99,"n_dots":2.85,"target":"right","response":"right","rt":89.099999904633,"correct":true,"confidence":5},{"trial_n":100,"n_dots":2.85,"target":"right","response":"right","rt":333.5,"correct":true,"confidence":5},{"trial_n":101,"n_dots":2.75,"target":"left","response":"right","rt":20.799999952316,"correct":false,"confidence":5},{"trial_n":102,"n_dots":2.85,"target":"right","response":"right","rt":60.400000095367,"correct":true,"confidence":5},{"trial_n":103,"n_dots":2.85,"target":"left","response":"right","rt":221.29999995232,"correct":false,"confidence":5},{"trial_n":104,"n_dots":2.95,"target":"left","response":"left","rt":204.09999990463,"correct":true,"confidence":5},{"trial_n":105,"n_dots":2.95,"target":"right","response":"right","rt":376.20000004768,"correct":true,"confidence":5},{"trial_n":106,"n_dots":2.85,"target":"right","response":"right","rt":425.70000004768,"correct":true,"confidence":5},{"trial_n":107,"n_dots":2.85,"target":"left","response":"right","rt":281.09999990463,"correct":false,"confidence":5},{"trial_n":108,"n_dots":2.95,"target":"right","response":"right","rt":93,"correct":true,"confidence":5},{"trial_n":109,"n_dots":2.95,"target":"left","response":"left","rt":109.5,"correct":true,"confidence":5},{"trial_n":110,"n_dots":2.85,"target":"left","response":"left","rt":110.40000009537,"correct":true,"confidence":5},{"trial_n":111,"n_dots":2.85,"target":"right","response":"right","rt":158,"correct":true,"confidence":5},{"trial_n":112,"n_dots":2.75,"target":"left","response":"left","rt":255.20000004768,"correct":true,"confidence":5},{"trial_n":113,"n_dots":2.75,"target":"right","response":"right","rt":138.09999990463,"correct":true,"confidence":5},{"trial_n":114,"n_dots":2.65,"target":"right","response":"left","rt":231.29999995232,"correct":false,"confidence":5},{"trial_n":115,"n_dots":2.75,"target":"right","response":"right","rt":1132.8000001907,"correct":true,"confidence":5},{"trial_n":116,"n_dots":2.75,"target":"right","response":"right","rt":147.70000004768,"correct":true,"confidence":5},{"trial_n":117,"n_dots":2.65,"target":"right","response":"left","rt":266.29999995232,"correct":false,"confidence":5},{"trial_n":118,"n_dots":2.75,"target":"right","response":"right","rt":233.29999995232,"correct":true,"confidence":5},{"trial_n":119,"n_dots":2.75,"target":"left","response":"left","rt":306.90000009537,"correct":true,"confidence":5},{"trial_n":120,"n_dots":2.65,"target":"right","response":"right","rt":362.5,"correct":true,"confidence":5}]