[{"trial_n":1,"span":8,"encoder":"57448540","distractor":"57438540","target":"present","response":"present","rt":"5679.8999998569","correct":true,"confidence":-1},{"trial_n":2,"span":8,"encoder":"49479314","distractor":"49479394","target":"present","response":"present","rt":"1499.7999999523","correct":true,"confidence":-1},{"trial_n":3,"span":10,"encoder":"2658755702","distractor":"2658755732","target":"absent","response":"absent","rt":"2002.7999999523","correct":true,"confidence":-1},{"trial_n":4,"span":10,"encoder":"2728598214","distractor":"2728598215","target":"absent","response":"absent","rt":"1681.0999999046","correct":true,"confidence":-1},{"trial_n":5,"span":12,"encoder":"982466521584","distractor":"982466521564","target":"present","response":"present","rt":"931.70000004768","correct":true,"confidence":-1},{"trial_n":6,"span":12,"encoder":"925792036329","distractor":"925792036321","target":"absent","response":"absent","rt":"1384.9000000954","correct":true,"confidence":-1},{"trial_n":7,"span":14,"encoder":"44959596054174","distractor":"44959596057174","target":"absent","response":"present","rt":"1054.9000000954","correct":false,"confidence":-1},{"trial_n":8,"span":12,"encoder":"626460719190","distractor":"626430719190","target":"absent","response":"absent","rt":"1100.6999998093","correct":true,"confidence":-1},{"trial_n":9,"span":12,"encoder":"975780528134","distractor":"975780528132","target":"present","response":"present","rt":"1819.5","correct":true,"confidence":-1},{"trial_n":10,"span":14,"encoder":"07551234547528","distractor":"87551234547528","target":"present","response":"present","rt":"915.40000009537","correct":true,"confidence":-1},{"trial_n":11,"span":14,"encoder":"04930672531303","distractor":"04930672531333","target":"present","response":"present","rt":"2709.3999998569","correct":true,"confidence":-1},{"trial_n":12,"span":15,"encoder":"397825414147818","distractor":"397825414147898","target":"absent","response":"absent","rt":"1363.5999999046","correct":true,"confidence":-1},{"trial_n":13,"span":15,"encoder":"513352653287118","distractor":"513332653287118","target":"present","response":"present","rt":"3246.8000001907","correct":true,"confidence":-1},{"trial_n":14,"span":16,"encoder":"7855783538157387","distractor":"7855783568157387","target":"present","response":"present","rt":"872.20000004768","correct":true,"confidence":-1},{"trial_n":15,"span":16,"encoder":"3752126401341307","distractor":"3752926401341307","target":"absent","response":"present","rt":"877.70000004768","correct":false,"confidence":-1},{"trial_n":16,"span":15,"encoder":"350579679265290","distractor":"350579679265220","target":"absent","response":"present","rt":"1612.6999998093","correct":false,"confidence":-1},{"trial_n":17,"span":14,"encoder":"29256404743660","distractor":"29256604743660","target":"absent","response":"present","rt":"1381.7999999523","correct":false,"confidence":-1},{"trial_n":18,"span":13,"encoder":"0064013978290","distractor":"0064013978298","target":"present","response":"present","rt":"829.5","correct":true,"confidence":-1},{"trial_n":19,"span":13,"encoder":"6225004837829","distractor":"6225003837829","target":"present","response":"present","rt":"725.40000009537","correct":true,"confidence":-1},{"trial_n":20,"span":14,"encoder":"08845282945221","distractor":"06845282945221","target":"absent","response":"present","rt":"873.90000009537","correct":false,"confidence":-1},{"trial_n":21,"span":13,"encoder":"7802145816165","distractor":"7802145516165","target":"present","response":"present","rt":"871.70000004768","correct":true,"confidence":5},{"trial_n":22,"span":13,"encoder":"2659962536702","distractor":"2659962436702","target":"absent","response":"present","rt":"1005.5","correct":false,"confidence":5},{"trial_n":23,"span":12,"encoder":"130922941463","distractor":"130922941461","target":"absent","response":"present","rt":"1321.7000000477","correct":false,"confidence":5},{"trial_n":24,"span":11,"encoder":"13168539871","distractor":"13168519871","target":"present","response":"present","rt":"1317.4000000954","correct":true,"confidence":5},{"trial_n":25,"span":11,"encoder":"26906980511","distractor":"26905980511","target":"absent","response":"present","rt":"1374","correct":false,"confidence":5},{"trial_n":26,"span":10,"encoder":"2541318451","distractor":"2541318491","target":"absent","response":"absent","rt":"1510.4000000954","correct":true,"confidence":5},{"trial_n":27,"span":10,"encoder":"5488980905","distractor":"5480980905","target":"present","response":"present","rt":"938.90000009537","correct":true,"confidence":5},{"trial_n":28,"span":11,"encoder":"79287199673","distractor":"74287199673","target":"present","response":"present","rt":"879.20000004768","correct":true,"confidence":5},{"trial_n":29,"span":11,"encoder":"90827652226","distractor":"40827652226","target":"present","response":"present","rt":"790.90000009537","correct":true,"confidence":5},{"trial_n":30,"span":12,"encoder":"095713829656","distractor":"095713829650","target":"present","response":"present","rt":"1729.6000001431","correct":true,"confidence":5},{"trial_n":31,"span":12,"encoder":"547539204138","distractor":"547539264138","target":"present","response":"present","rt":"2608.5999999046","correct":true,"confidence":5},{"trial_n":32,"span":13,"encoder":"5931572238806","distractor":"5971572238806","target":"present","response":"present","rt":"1882.7000000477","correct":true,"confidence":5},{"trial_n":33,"span":13,"encoder":"1602747298676","distractor":"1602147298676","target":"absent","response":"present","rt":"1234","correct":false,"confidence":5},{"trial_n":34,"span":12,"encoder":"056097434369","distractor":"056017434369","target":"present","response":"present","rt":"2014.0999999046","correct":true,"confidence":5},{"trial_n":35,"span":12,"encoder":"231264928690","distractor":"231264928696","target":"present","response":"present","rt":"5911.5999999046","correct":true,"confidence":5},{"trial_n":36,"span":13,"encoder":"0201226697245","distractor":"0801226697245","target":"present","response":"absent","rt":"1818.2000000477","correct":false,"confidence":5},{"trial_n":37,"span":12,"encoder":"444702336270","distractor":"444702336070","target":"absent","response":"present","rt":"1349.9000000954","correct":false,"confidence":3},{"trial_n":38,"span":11,"encoder":"80916937558","distractor":"80916937557","target":"absent","response":"absent","rt":"2069.1999998093","correct":true,"confidence":5},{"trial_n":39,"span":11,"encoder":"87580771821","distractor":"87580771851","target":"absent","response":"absent","rt":"1504.2000000477","correct":true,"confidence":5},{"trial_n":40,"span":12,"encoder":"697556547815","distractor":"197556547815","target":"absent","response":"present","rt":"4887.8999998569","correct":false,"confidence":5},{"trial_n":41,"span":11,"encoder":"14842247869","distractor":"74842247869","target":"present","response":"present","rt":"1388.5","correct":true,"confidence":5},{"trial_n":42,"span":11,"encoder":"48569588204","distractor":"48569588214","target":"absent","response":"absent","rt":"1089","correct":true,"confidence":5},{"trial_n":43,"span":12,"encoder":"316939770091","distractor":"316339770091","target":"present","response":"absent","rt":"2095.1999998093","correct":false,"confidence":5},{"trial_n":44,"span":11,"encoder":"43950770933","distractor":"43750770933","target":"present","response":"present","rt":"1878","correct":true,"confidence":5},{"trial_n":45,"span":11,"encoder":"75129025285","distractor":"75129023285","target":"present","response":"present","rt":"1153.1999998093","correct":true,"confidence":5},{"trial_n":46,"span":12,"encoder":"901915156444","distractor":"971915156444","target":"absent","response":"present","rt":"950.89999985695","correct":false,"confidence":5},{"trial_n":47,"span":11,"encoder":"95173426394","distractor":"95173426396","target":"present","response":"absent","rt":"4769.3999998569","correct":false,"confidence":5},{"trial_n":48,"span":10,"encoder":"8579455256","distractor":"8579455226","target":"absent","response":"absent","rt":"1346.2999999523","correct":true,"confidence":5},{"trial_n":49,"span":10,"encoder":"3130954252","distractor":"3130754252","target":"absent","response":"present","rt":"1256.9000000954","correct":false,"confidence":5},{"trial_n":50,"span":9,"encoder":"539228859","distractor":"535228859","target":"absent","response":"present","rt":"1546.2999999523","correct":false,"confidence":5},{"trial_n":51,"span":8,"encoder":"45475970","distractor":"45405970","target":"absent","response":"absent","rt":"1704.7999999523","correct":true,"confidence":5},{"trial_n":52,"span":8,"encoder":"51150333","distractor":"71150333","target":"absent","response":"present","rt":"1206.9000000954","correct":false,"confidence":5},{"trial_n":53,"span":7,"encoder":"3127853","distractor":"3127883","target":"present","response":"absent","rt":"3090.2000000477","correct":false,"confidence":5},{"trial_n":54,"span":6,"encoder":"706173","distractor":"706175","target":"present","response":"present","rt":"1434.2000000477","correct":true,"confidence":5},{"trial_n":55,"span":6,"encoder":"963597","distractor":"968597","target":"present","response":"present","rt":"809.19999980927","correct":true,"confidence":5},{"trial_n":56,"span":7,"encoder":"5919702","distractor":"5919102","target":"absent","response":"present","rt":"2749","correct":false,"confidence":5},{"trial_n":57,"span":6,"encoder":"220587","distractor":"220588","target":"absent","response":"absent","rt":"1323.4000000954","correct":true,"confidence":5},{"trial_n":58,"span":6,"encoder":"741950","distractor":"141950","target":"absent","response":"absent","rt":"1323.3999998569","correct":true,"confidence":5},{"trial_n":59,"span":7,"encoder":"1563489","distractor":"1563439","target":"absent","response":"present","rt":"1432.6000001431","correct":false,"confidence":5},{"trial_n":60,"span":6,"encoder":"968583","distractor":"868583","target":"present","response":"present","rt":"1523.5999999046","correct":true,"confidence":5},{"trial_n":61,"span":6,"encoder":"783514","distractor":"784514","target":"present","response":"present","rt":"2015","correct":true,"confidence":5},{"trial_n":62,"span":7,"encoder":"0359032","distractor":"0359532","target":"present","response":"present","rt":"987.79999995232","correct":true,"confidence":5},{"trial_n":63,"span":7,"encoder":"6120057","distractor":"6128057","target":"present","response":"present","rt":"1129.0999999046","correct":true,"confidence":5},{"trial_n":64,"span":8,"encoder":"54070971","distractor":"59070971","target":"absent","response":"present","rt":"2818.3999998569","correct":false,"confidence":5},{"trial_n":65,"span":7,"encoder":"6195145","distractor":"6175145","target":"present","response":"present","rt":"1010.7999999523","correct":true,"confidence":5},{"trial_n":66,"span":7,"encoder":"0913024","distractor":"0913084","target":"absent","response":"present","rt":"842.09999990463","correct":false,"confidence":5},{"trial_n":67,"span":6,"encoder":"554896","distractor":"574896","target":"absent","response":"present","rt":"1625.5999999046","correct":false,"confidence":5},{"trial_n":68,"span":5,"encoder":"18062","distractor":"18562","target":"present","response":"present","rt":"1507.3999998569","correct":true,"confidence":5},{"trial_n":69,"span":5,"encoder":"05886","distractor":"05386","target":"present","response":"present","rt":"2044.5","correct":true,"confidence":5},{"trial_n":70,"span":6,"encoder":"614323","distractor":"644323","target":"absent","response":"absent","rt":"1331.5","correct":true,"confidence":5},{"trial_n":71,"span":8,"encoder":"44595736","distractor":"44595716","target":"present","response":"present","rt":"1884.9000000954","correct":true,"confidence":-1},{"trial_n":72,"span":8,"encoder":"67437765","distractor":"27437765","target":"present","response":"absent","rt":"1636.7000000477","correct":false,"confidence":-1},{"trial_n":73,"span":7,"encoder":"2841633","distractor":"2841133","target":"absent","response":"absent","rt":"1711.8999998569","correct":true,"confidence":-1},{"trial_n":74,"span":7,"encoder":"6924394","distractor":"7924394","target":"absent","response":"absent","rt":"1875.1999998093","correct":true,"confidence":-1},{"trial_n":75,"span":8,"encoder":"64156138","distractor":"64656138","target":"present","response":"present","rt":"319.70000004768","correct":true,"confidence":-1},{"trial_n":76,"span":8,"encoder":"58849984","distractor":"58889984","target":"present","response":"absent","rt":"1771.0999999046","correct":false,"confidence":-1},{"trial_n":77,"span":7,"encoder":"9988429","distractor":"6988429","target":"absent","response":"present","rt":"1766.8999998569","correct":false,"confidence":-1},{"trial_n":78,"span":6,"encoder":"969367","distractor":"989367","target":"present","response":"present","rt":"1579.7000000477","correct":true,"confidence":-1},{"trial_n":79,"span":6,"encoder":"339432","distractor":"939432","target":"present","response":"present","rt":"1181.2000000477","correct":true,"confidence":-1},{"trial_n":80,"span":7,"encoder":"9208256","distractor":"9208252","target":"present","response":"present","rt":"632.79999995232","correct":true,"confidence":-1},{"trial_n":81,"span":7,"encoder":"8978609","distractor":"8970609","target":"present","response":"present","rt":"997.5","correct":true,"confidence":-1},{"trial_n":82,"span":8,"encoder":"03249215","distractor":"03248215","target":"present","response":"present","rt":"644","correct":true,"confidence":-1},{"trial_n":83,"span":8,"encoder":"76439567","distractor":"76439517","target":"absent","response":"present","rt":"1158.4000000954","correct":false,"confidence":-1},{"trial_n":84,"span":7,"encoder":"8099253","distractor":"8599253","target":"present","response":"present","rt":"3197.7999999523","correct":true,"confidence":-1},{"trial_n":85,"span":7,"encoder":"7292026","distractor":"7292626","target":"absent","response":"present","rt":"335.09999990463","correct":false,"confidence":-1},{"trial_n":86,"span":6,"encoder":"061700","distractor":"061600","target":"present","response":"present","rt":"461.09999990463","correct":true,"confidence":-1},{"trial_n":87,"span":6,"encoder":"600438","distractor":"300438","target":"absent","response":"present","rt":"1299.2999999523","correct":false,"confidence":-1},{"trial_n":88,"span":5,"encoder":"37144","distractor":"37147","target":"present","response":"present","rt":"1203.5999999046","correct":true,"confidence":-1},{"trial_n":89,"span":5,"encoder":"15739","distractor":"15939","target":"absent","response":"present","rt":"819.39999985695","correct":false,"confidence":-1},{"trial_n":90,"span":4,"encoder":"9733","distractor":"9743","target":"present","response":"present","rt":"417.60000014305","correct":true,"confidence":-1},{"trial_n":91,"span":4,"encoder":"6619","distractor":"6919","target":"present","response":"present","rt":"1416.8999998569","correct":true,"confidence":5},{"trial_n":92,"span":5,"encoder":"69712","distractor":"65712","target":"absent","response":"absent","rt":"1478.6999998093","correct":true,"confidence":5},{"trial_n":93,"span":5,"encoder":"41074","distractor":"41072","target":"absent","response":"present","rt":"3914.7999999523","correct":false,"confidence":5},{"trial_n":94,"span":4,"encoder":"5529","distractor":"5589","target":"absent","response":"present","rt":"1834.0999999046","correct":false,"confidence":5},{"trial_n":95,"span":3,"encoder":"718","distractor":"418","target":"present","response":"absent","rt":"1727.5","correct":false,"confidence":5},{"trial_n":96,"span":2,"encoder":"45","distractor":"47","target":"absent","response":"absent","rt":"925.79999995232","correct":true,"confidence":5},{"trial_n":97,"span":2,"encoder":"74","distractor":"76","target":"present","response":"present","rt":"674.20000004768","correct":true,"confidence":5},{"trial_n":98,"span":3,"encoder":"125","distractor":"195","target":"present","response":"present","rt":"1259","correct":true,"confidence":5},{"trial_n":99,"span":3,"encoder":"945","distractor":"975","target":"absent","response":"absent","rt":"846.79999995232","correct":true,"confidence":5},{"trial_n":100,"span":4,"encoder":"9796","distractor":"9716","target":"present","response":"absent","rt":"771.60000014305","correct":false,"confidence":5},{"trial_n":101,"span":3,"encoder":"896","distractor":"696","target":"absent","response":"absent","rt":"968","correct":true,"confidence":5},{"trial_n":102,"span":3,"encoder":"356","distractor":"357","target":"absent","response":"absent","rt":"805.29999995232","correct":true,"confidence":5},{"trial_n":103,"span":4,"encoder":"3197","distractor":"3797","target":"present","response":"present","rt":"1015.7999999523","correct":true,"confidence":5},{"trial_n":104,"span":4,"encoder":"5138","distractor":"9138","target":"absent","response":"absent","rt":"828.5","correct":true,"confidence":5},{"trial_n":105,"span":5,"encoder":"79842","distractor":"74842","target":"present","response":"present","rt":"1286.6000001431","correct":true,"confidence":5},{"trial_n":106,"span":5,"encoder":"54730","distractor":"54738","target":"present","response":"present","rt":"1101.7000000477","correct":true,"confidence":5},{"trial_n":107,"span":6,"encoder":"323650","distractor":"823650","target":"absent","response":"absent","rt":"1101.5","correct":true,"confidence":5},{"trial_n":108,"span":6,"encoder":"735041","distractor":"734041","target":"absent","response":"absent","rt":"1938.6999998093","correct":true,"confidence":5},{"trial_n":109,"span":7,"encoder":"6705688","distractor":"6703688","target":"present","response":"present","rt":"4062.5","correct":true,"confidence":5},{"trial_n":110,"span":7,"encoder":"8878304","distractor":"8478304","target":"absent","response":"absent","rt":"1938.1000001431","correct":true,"confidence":5},{"trial_n":111,"span":8,"encoder":"87213447","distractor":"87213437","target":"absent","response":"absent","rt":"2269.6999998093","correct":true,"confidence":5},{"trial_n":112,"span":8,"encoder":"24217830","distractor":"24017830","target":"present","response":"absent","rt":"518.40000009537","correct":false,"confidence":5},{"trial_n":113,"span":7,"encoder":"9730746","distractor":"9710746","target":"absent","response":"absent","rt":"633.5","correct":true,"confidence":5},{"trial_n":114,"span":7,"encoder":"1362030","distractor":"1312030","target":"absent","response":"absent","rt":"3459.6000001431","correct":true,"confidence":1},{"trial_n":115,"span":8,"encoder":"32003298","distractor":"92003298","target":"absent","response":"present","rt":"2327.3999998569","correct":false,"confidence":5},{"trial_n":116,"span":7,"encoder":"5577964","distractor":"5577364","target":"absent","response":"absent","rt":"1554.1000001431","correct":true,"confidence":5},{"trial_n":117,"span":7,"encoder":"0877990","distractor":"0877980","target":"present","response":"absent","rt":"9224.7000000477","correct":false,"confidence":5},{"trial_n":118,"span":6,"encoder":"136411","distractor":"136418","target":"absent","response":"absent","rt":"1615.9000000954","correct":true,"confidence":5},{"trial_n":119,"span":6,"encoder":"584946","distractor":"584947","target":"present","response":"present","rt":"599.70000004768","correct":true,"confidence":5},{"trial_n":120,"span":7,"encoder":"4211277","distractor":"4211377","target":"absent","response":"absent","rt":"1457","correct":true,"confidence":5},{"trial_n":121,"span":7,"encoder":"2998651","distractor":"7998651","target":"present","response":"present","rt":"459.89999985695","correct":true,"confidence":1},{"trial_n":122,"span":8,"encoder":"53359251","distractor":"33359251","target":"absent","response":"absent","rt":"1056","correct":true,"confidence":5},{"trial_n":123,"span":8,"encoder":"81239789","distractor":"81209789","target":"absent","response":"absent","rt":"1243.1000001431","correct":true,"confidence":3},{"trial_n":124,"span":9,"encoder":"499049022","distractor":"419049022","target":"present","response":"absent","rt":"2328.7999999523","correct":false,"confidence":3},{"trial_n":125,"span":8,"encoder":"90482287","distractor":"90442287","target":"present","response":"present","rt":"2106.2000000477","correct":true,"confidence":3},{"trial_n":126,"span":8,"encoder":"43311592","distractor":"43311552","target":"absent","response":"absent","rt":"847.29999995232","correct":true,"confidence":5},{"trial_n":127,"span":9,"encoder":"205258041","distractor":"305258041","target":"present","response":"present","rt":"5068.8999998569","correct":true,"confidence":5},{"trial_n":128,"span":9,"encoder":"229303652","distractor":"229303852","target":"absent","response":"absent","rt":"1554.9000000954","correct":true,"confidence":5},{"trial_n":129,"span":10,"encoder":"7402601165","distractor":"7902601165","target":"absent","response":"present","rt":"1219.7000000477","correct":false,"confidence":1},{"trial_n":130,"span":9,"encoder":"304608863","distractor":"304608864","target":"present","response":"absent","rt":"1615.4000000954","correct":false,"confidence":5},{"trial_n":131,"span":8,"encoder":"48607175","distractor":"38607175","target":"present","response":"present","rt":"2825.7999999523","correct":true,"confidence":5},{"trial_n":132,"span":8,"encoder":"08485886","distractor":"08481886","target":"absent","response":"absent","rt":"2558.8000001907","correct":true,"confidence":5},{"trial_n":133,"span":9,"encoder":"458903407","distractor":"358903407","target":"present","response":"present","rt":"1397.2999999523","correct":true,"confidence":1},{"trial_n":134,"span":9,"encoder":"871353602","distractor":"861353602","target":"present","response":"present","rt":"3208.2999999523","correct":true,"confidence":1},{"trial_n":135,"span":10,"encoder":"7572337895","distractor":"7872337895","target":"absent","response":"absent","rt":"2049.1000001431","correct":true,"confidence":5},{"trial_n":136,"span":10,"encoder":"2127694429","distractor":"4127694429","target":"present","response":"present","rt":"1197.5999999046","correct":true,"confidence":1},{"trial_n":137,"span":11,"encoder":"69297790190","distractor":"69297710190","target":"present","response":"present","rt":"1637.4000000954","correct":true,"confidence":5},{"trial_n":138,"span":11,"encoder":"69179406858","distractor":"79179406858","target":"absent","response":"present","rt":"3873.2999999523","correct":false,"confidence":5},{"trial_n":139,"span":10,"encoder":"0274331393","distractor":"0279331393","target":"absent","response":"absent","rt":"599.09999990463","correct":true,"confidence":5},{"trial_n":140,"span":10,"encoder":"8661287870","distractor":"8661287810","target":"present","response":"present","rt":"1355.3999998569","correct":true,"confidence":5}]