[{"trial_n":1,"min":25,"max":230,"target":"present","response":"present","rt":6442.0999999046,"correct":true,"confidence":-1},{"trial_n":2,"min":25,"max":230,"target":"present","response":"present","rt":613.69999980927,"correct":true,"confidence":-1},{"trial_n":3,"min":41,"max":214,"target":"absent","response":"absent","rt":668.09999990463,"correct":true,"confidence":-1},{"trial_n":4,"min":41,"max":214,"target":"absent","response":"present","rt":1241.6000003815,"correct":false,"confidence":-1},{"trial_n":5,"min":25,"max":230,"target":"present","response":"present","rt":441.30000019073,"correct":true,"confidence":-1},{"trial_n":6,"min":25,"max":230,"target":"present","response":"present","rt":294.80000019073,"correct":true,"confidence":-1},{"trial_n":7,"min":41,"max":214,"target":"present","response":"present","rt":241.90000009537,"correct":true,"confidence":-1},{"trial_n":8,"min":41,"max":214,"target":"present","response":"present","rt":331.7000002861,"correct":true,"confidence":-1},{"trial_n":9,"min":57,"max":198,"target":"absent","response":"absent","rt":1020.1999998093,"correct":true,"confidence":-1},{"trial_n":10,"min":57,"max":198,"target":"present","response":"present","rt":374.5,"correct":true,"confidence":-1},{"trial_n":11,"min":65,"max":190,"target":"absent","response":"absent","rt":480.5,"correct":true,"confidence":-1},{"trial_n":12,"min":65,"max":190,"target":"present","response":"present","rt":330.60000038147,"correct":true,"confidence":-1},{"trial_n":13,"min":73,"max":182,"target":"present","response":"present","rt":369.09999990463,"correct":true,"confidence":-1},{"trial_n":14,"min":73,"max":182,"target":"absent","response":"absent","rt":389.40000009537,"correct":true,"confidence":-1},{"trial_n":15,"min":81,"max":174,"target":"present","response":"present","rt":333,"correct":true,"confidence":-1},{"trial_n":16,"min":81,"max":174,"target":"absent","response":"absent","rt":472.90000009537,"correct":true,"confidence":-1},{"trial_n":17,"min":89,"max":166,"target":"absent","response":"absent","rt":499.5,"correct":true,"confidence":-1},{"trial_n":18,"min":89,"max":166,"target":"absent","response":"absent","rt":340.30000019073,"correct":true,"confidence":-1},{"trial_n":19,"min":97,"max":158,"target":"absent","response":"absent","rt":421.30000019073,"correct":true,"confidence":-1},{"trial_n":20,"min":97,"max":158,"target":"present","response":"absent","rt":529.2999997139,"correct":false,"confidence":-1},{"trial_n":21,"min":93,"max":162,"target":"absent","response":"absent","rt":585.09999990463,"correct":true,"confidence":3},{"trial_n":22,"min":93,"max":162,"target":"absent","response":"absent","rt":615.40000009537,"correct":true,"confidence":3},{"trial_n":23,"min":97,"max":158,"target":"present","response":"absent","rt":711.5,"correct":false,"confidence":3},{"trial_n":24,"min":93,"max":162,"target":"present","response":"absent","rt":724,"correct":false,"confidence":2},{"trial_n":25,"min":89,"max":166,"target":"present","response":"present","rt":462.89999961853,"correct":true,"confidence":4},{"trial_n":26,"min":89,"max":166,"target":"absent","response":"absent","rt":773.7999997139,"correct":true,"confidence":1},{"trial_n":27,"min":93,"max":162,"target":"absent","response":"present","rt":1046.0999999046,"correct":false,"confidence":2},{"trial_n":28,"min":89,"max":166,"target":"absent","response":"present","rt":1037.7000002861,"correct":false,"confidence":2},{"trial_n":29,"min":85,"max":170,"target":"present","response":"absent","rt":1220.7999997139,"correct":false,"confidence":2},{"trial_n":30,"min":81,"max":174,"target":"present","response":"present","rt":2307.1999998093,"correct":true,"confidence":2},{"trial_n":31,"min":81,"max":174,"target":"absent","response":"present","rt":976.09999990463,"correct":false,"confidence":2},{"trial_n":32,"min":79,"max":176,"target":"absent","response":"present","rt":1985.4000000954,"correct":false,"confidence":2},{"trial_n":33,"min":77,"max":178,"target":"absent","response":"absent","rt":951,"correct":true,"confidence":2},{"trial_n":34,"min":77,"max":178,"target":"present","response":"present","rt":630.09999990463,"correct":true,"confidence":4},{"trial_n":35,"min":79,"max":176,"target":"present","response":"absent","rt":1476.5999999046,"correct":false,"confidence":2},{"trial_n":36,"min":77,"max":178,"target":"present","response":"present","rt":826.7999997139,"correct":true,"confidence":4},{"trial_n":37,"min":77,"max":178,"target":"absent","response":"absent","rt":1591.3000001907,"correct":true,"confidence":2},{"trial_n":38,"min":79,"max":176,"target":"absent","response":"present","rt":2420.5,"correct":false,"confidence":3},{"trial_n":39,"min":77,"max":178,"target":"present","response":"present","rt":605.7999997139,"correct":true,"confidence":3},{"trial_n":40,"min":77,"max":178,"target":"absent","response":"absent","rt":626.09999990463,"correct":true,"confidence":2},{"trial_n":41,"min":78,"max":177,"target":"absent","response":"present","rt":953,"correct":false,"confidence":2},{"trial_n":42,"min":77,"max":178,"target":"present","response":"present","rt":477.5,"correct":true,"confidence":4},{"trial_n":43,"min":77,"max":178,"target":"present","response":"present","rt":555.60000038147,"correct":true,"confidence":4},{"trial_n":44,"min":78,"max":177,"target":"present","response":"present","rt":574.7999997139,"correct":true,"confidence":3},{"trial_n":45,"min":78,"max":177,"target":"present","response":"present","rt":366.69999980927,"correct":true,"confidence":5},{"trial_n":46,"min":79,"max":176,"target":"absent","response":"absent","rt":1059.5,"correct":true,"confidence":2},{"trial_n":47,"min":79,"max":176,"target":"absent","response":"absent","rt":805,"correct":true,"confidence":2},{"trial_n":48,"min":80,"max":175,"target":"present","response":"present","rt":490.2999997139,"correct":true,"confidence":4},{"trial_n":49,"min":80,"max":175,"target":"present","response":"present","rt":389.2000002861,"correct":true,"confidence":4},{"trial_n":50,"min":81,"max":174,"target":"present","response":"absent","rt":1376.3999996185,"correct":false,"confidence":2},{"trial_n":51,"min":80,"max":175,"target":"present","response":"present","rt":526.5,"correct":true,"confidence":3},{"trial_n":52,"min":80,"max":175,"target":"absent","response":"absent","rt":641.19999980927,"correct":true,"confidence":3},{"trial_n":53,"min":81,"max":174,"target":"present","response":"present","rt":466.40000009537,"correct":true,"confidence":4},{"trial_n":54,"min":81,"max":174,"target":"present","response":"present","rt":630.90000009537,"correct":true,"confidence":3},{"trial_n":55,"min":82,"max":173,"target":"absent","response":"absent","rt":1049.5999999046,"correct":true,"confidence":3},{"trial_n":56,"min":82,"max":173,"target":"present","response":"absent","rt":602.69999980927,"correct":false,"confidence":4},{"trial_n":57,"min":81,"max":174,"target":"absent","response":"absent","rt":954.30000019073,"correct":true,"confidence":4},{"trial_n":58,"min":81,"max":174,"target":"absent","response":"absent","rt":1093.5,"correct":true,"confidence":2},{"trial_n":59,"min":82,"max":173,"target":"absent","response":"present","rt":1614.3000001907,"correct":false,"confidence":2},{"trial_n":60,"min":81,"max":174,"target":"absent","response":"present","rt":718.39999961853,"correct":false,"confidence":1},{"trial_n":61,"min":80,"max":175,"target":"absent","response":"absent","rt":515.5,"correct":true,"confidence":4},{"trial_n":62,"min":80,"max":175,"target":"absent","response":"absent","rt":1311.6000003815,"correct":true,"confidence":3},{"trial_n":63,"min":81,"max":174,"target":"present","response":"present","rt":613.19999980927,"correct":true,"confidence":3},{"trial_n":64,"min":81,"max":174,"target":"present","response":"present","rt":567.59999990463,"correct":true,"confidence":2},{"trial_n":65,"min":82,"max":173,"target":"absent","response":"absent","rt":869.69999980927,"correct":true,"confidence":3},{"trial_n":66,"min":82,"max":173,"target":"present","response":"absent","rt":665.40000009537,"correct":false,"confidence":4},{"trial_n":67,"min":81,"max":174,"target":"absent","response":"absent","rt":1511,"correct":true,"confidence":3},{"trial_n":68,"min":81,"max":174,"target":"absent","response":"absent","rt":696.80000019073,"correct":true,"confidence":1},{"trial_n":69,"min":82,"max":173,"target":"present","response":"absent","rt":7560.4000000954,"correct":false,"confidence":1},{"trial_n":70,"min":81,"max":174,"target":"present","response":"present","rt":719.7000002861,"correct":true,"confidence":4},{"trial_n":71,"min":41,"max":214,"target":"present","response":"present","rt":3135.0999999046,"correct":true,"confidence":-1},{"trial_n":72,"min":41,"max":214,"target":"present","response":"present","rt":566.2000002861,"correct":true,"confidence":-1},{"trial_n":73,"min":57,"max":198,"target":"absent","response":"absent","rt":328.89999961853,"correct":true,"confidence":-1},{"trial_n":74,"min":57,"max":198,"target":"absent","response":"absent","rt":459,"correct":true,"confidence":-1},{"trial_n":75,"min":73,"max":182,"target":"present","response":"present","rt":282.80000019073,"correct":true,"confidence":-1},{"trial_n":76,"min":73,"max":182,"target":"present","response":"present","rt":380.2000002861,"correct":true,"confidence":-1},{"trial_n":77,"min":89,"max":166,"target":"absent","response":"absent","rt":1021.2999997139,"correct":true,"confidence":-1},{"trial_n":78,"min":89,"max":166,"target":"present","response":"present","rt":921.59999990463,"correct":true,"confidence":-1},{"trial_n":79,"min":105,"max":150,"target":"present","response":"present","rt":741.09999990463,"correct":true,"confidence":-1},{"trial_n":80,"min":105,"max":150,"target":"absent","response":"present","rt":469.59999990463,"correct":false,"confidence":-1},{"trial_n":81,"min":97,"max":158,"target":"present","response":"absent","rt":833.40000009537,"correct":false,"confidence":-1},{"trial_n":82,"min":89,"max":166,"target":"present","response":"present","rt":676.5,"correct":true,"confidence":-1},{"trial_n":83,"min":89,"max":166,"target":"absent","response":"present","rt":711.30000019073,"correct":false,"confidence":-1},{"trial_n":84,"min":81,"max":174,"target":"absent","response":"absent","rt":863.30000019073,"correct":true,"confidence":-1},{"trial_n":85,"min":81,"max":174,"target":"present","response":"present","rt":283.7000002861,"correct":true,"confidence":-1},{"trial_n":86,"min":89,"max":166,"target":"absent","response":"present","rt":435.2999997139,"correct":false,"confidence":-1},{"trial_n":87,"min":81,"max":174,"target":"present","response":"present","rt":503.59999990463,"correct":true,"confidence":-1},{"trial_n":88,"min":81,"max":174,"target":"absent","response":"absent","rt":414.30000019073,"correct":true,"confidence":-1},{"trial_n":89,"min":89,"max":166,"target":"present","response":"present","rt":399.09999990463,"correct":true,"confidence":-1},{"trial_n":90,"min":89,"max":166,"target":"absent","response":"absent","rt":1111,"correct":true,"confidence":-1},{"trial_n":91,"min":93,"max":162,"target":"absent","response":"present","rt":517.09999990463,"correct":false,"confidence":3},{"trial_n":92,"min":89,"max":166,"target":"present","response":"present","rt":371.2000002861,"correct":true,"confidence":4},{"trial_n":93,"min":89,"max":166,"target":"present","response":"present","rt":307.7999997139,"correct":true,"confidence":4},{"trial_n":94,"min":93,"max":162,"target":"present","response":"present","rt":462.19999980927,"correct":true,"confidence":3},{"trial_n":95,"min":93,"max":162,"target":"present","response":"present","rt":1366.6999998093,"correct":true,"confidence":2},{"trial_n":96,"min":97,"max":158,"target":"present","response":"absent","rt":1405.5,"correct":false,"confidence":1},{"trial_n":97,"min":93,"max":162,"target":"absent","response":"present","rt":441.40000009537,"correct":false,"confidence":3},{"trial_n":98,"min":89,"max":166,"target":"present","response":"present","rt":274.2999997139,"correct":true,"confidence":4},{"trial_n":99,"min":89,"max":166,"target":"absent","response":"absent","rt":699.69999980927,"correct":true,"confidence":2},{"trial_n":100,"min":93,"max":162,"target":"absent","response":"present","rt":524.09999990463,"correct":false,"confidence":2},{"trial_n":101,"min":91,"max":164,"target":"present","response":"present","rt":415.30000019073,"correct":true,"confidence":3},{"trial_n":102,"min":91,"max":164,"target":"absent","response":"absent","rt":426.90000009537,"correct":true,"confidence":4},{"trial_n":103,"min":93,"max":162,"target":"present","response":"present","rt":173.10000038147,"correct":true,"confidence":4},{"trial_n":104,"min":93,"max":162,"target":"present","response":"absent","rt":1618.8999996185,"correct":false,"confidence":1},{"trial_n":105,"min":91,"max":164,"target":"present","response":"present","rt":456.59999990463,"correct":true,"confidence":3},{"trial_n":106,"min":91,"max":164,"target":"present","response":"present","rt":370.90000009537,"correct":true,"confidence":4},{"trial_n":107,"min":93,"max":162,"target":"absent","response":"absent","rt":1204.2000002861,"correct":true,"confidence":2},{"trial_n":108,"min":93,"max":162,"target":"present","response":"present","rt":703.59999990463,"correct":true,"confidence":3},{"trial_n":109,"min":95,"max":160,"target":"absent","response":"present","rt":499.89999961853,"correct":false,"confidence":1},{"trial_n":110,"min":93,"max":162,"target":"present","response":"present","rt":499.5,"correct":true,"confidence":1},{"trial_n":111,"min":93,"max":162,"target":"absent","response":"present","rt":432.80000019073,"correct":false,"confidence":3},{"trial_n":112,"min":92,"max":163,"target":"absent","response":"present","rt":493,"correct":false,"confidence":2},{"trial_n":113,"min":91,"max":164,"target":"present","response":"present","rt":508,"correct":true,"confidence":4},{"trial_n":114,"min":91,"max":164,"target":"present","response":"absent","rt":2134.7999997139,"correct":false,"confidence":2},{"trial_n":115,"min":90,"max":165,"target":"absent","response":"present","rt":391.59999990463,"correct":false,"confidence":2},{"trial_n":116,"min":89,"max":166,"target":"present","response":"absent","rt":2090.5999999046,"correct":false,"confidence":2},{"trial_n":117,"min":88,"max":167,"target":"absent","response":"present","rt":826.59999990463,"correct":false,"confidence":2},{"trial_n":118,"min":87,"max":168,"target":"absent","response":"present","rt":973.59999990463,"correct":false,"confidence":2},{"trial_n":119,"min":86,"max":169,"target":"absent","response":"absent","rt":1160.3999996185,"correct":true,"confidence":3},{"trial_n":120,"min":86,"max":169,"target":"absent","response":"present","rt":620.7999997139,"correct":false,"confidence":2},{"trial_n":121,"min":85,"max":170,"target":"absent","response":"present","rt":1111.3000001907,"correct":false,"confidence":3},{"trial_n":122,"min":84,"max":171,"target":"absent","response":"absent","rt":1254,"correct":true,"confidence":2},{"trial_n":123,"min":84,"max":171,"target":"present","response":"present","rt":1404.9000000954,"correct":true,"confidence":2},{"trial_n":124,"min":85,"max":170,"target":"absent","response":"present","rt":762.7999997139,"correct":false,"confidence":3},{"trial_n":125,"min":84,"max":171,"target":"absent","response":"absent","rt":968,"correct":true,"confidence":3},{"trial_n":126,"min":84,"max":171,"target":"present","response":"absent","rt":969.7999997139,"correct":false,"confidence":2},{"trial_n":127,"min":83,"max":172,"target":"absent","response":"present","rt":1083.5,"correct":false,"confidence":3},{"trial_n":128,"min":82,"max":173,"target":"present","response":"present","rt":362.40000009537,"correct":true,"confidence":4},{"trial_n":129,"min":82,"max":173,"target":"present","response":"present","rt":868.7000002861,"correct":true,"confidence":2},{"trial_n":130,"min":83,"max":172,"target":"present","response":"present","rt":405.5,"correct":true,"confidence":4},{"trial_n":131,"min":83,"max":172,"target":"absent","response":"absent","rt":833.59999990463,"correct":true,"confidence":3},{"trial_n":132,"min":84,"max":171,"target":"absent","response":"present","rt":387.59999990463,"correct":false,"confidence":2},{"trial_n":133,"min":83,"max":172,"target":"present","response":"present","rt":1399.9000000954,"correct":true,"confidence":3},{"trial_n":134,"min":83,"max":172,"target":"absent","response":"present","rt":987.5,"correct":false,"confidence":3},{"trial_n":135,"min":82,"max":173,"target":"present","response":"present","rt":470.69999980927,"correct":true,"confidence":3},{"trial_n":136,"min":82,"max":173,"target":"present","response":"present","rt":1087.6999998093,"correct":true,"confidence":1},{"trial_n":137,"min":83,"max":172,"target":"absent","response":"absent","rt":717.69999980927,"correct":true,"confidence":3},{"trial_n":138,"min":83,"max":172,"target":"present","response":"present","rt":902.59999990463,"correct":true,"confidence":4},{"trial_n":139,"min":84,"max":171,"target":"absent","response":"absent","rt":1268.4000000954,"correct":true,"confidence":3},{"trial_n":140,"min":84,"max":171,"target":"absent","response":"absent","rt":1350.2999997139,"correct":true,"confidence":2}]