[{"trial_n":1,"span":8,"encoder":"87809339","distractor":"87809330","target":"present","response":"present","rt":"6212.6000003815","correct":true,"confidence":-1},{"trial_n":2,"span":8,"encoder":"11843060","distractor":"11343060","target":"present","response":"present","rt":"3048.4000000954","correct":true,"confidence":-1},{"trial_n":3,"span":10,"encoder":"2508238103","distractor":"2908238103","target":"absent","response":"present","rt":"2608.5999999046","correct":false,"confidence":-1},{"trial_n":4,"span":8,"encoder":"04033005","distractor":"09033005","target":"absent","response":"present","rt":"3559.9000000954","correct":false,"confidence":-1},{"trial_n":5,"span":6,"encoder":"464617","distractor":"464619","target":"present","response":"present","rt":"1776.6000003815","correct":true,"confidence":-1},{"trial_n":6,"span":6,"encoder":"049816","distractor":"049814","target":"absent","response":"absent","rt":"3491.0999999046","correct":true,"confidence":-1},{"trial_n":7,"span":8,"encoder":"27270660","distractor":"27270460","target":"absent","response":"absent","rt":"1395.3000001907","correct":true,"confidence":-1},{"trial_n":8,"span":8,"encoder":"52355669","distractor":"52655669","target":"present","response":"present","rt":"2009.3000001907","correct":true,"confidence":-1},{"trial_n":9,"span":10,"encoder":"3597111913","distractor":"3597111910","target":"absent","response":"absent","rt":"1903.5","correct":true,"confidence":-1},{"trial_n":10,"span":10,"encoder":"8933418442","distractor":"8943418442","target":"present","response":"present","rt":"3250.3999996185","correct":true,"confidence":-1},{"trial_n":11,"span":12,"encoder":"266557587912","distractor":"266657587912","target":"absent","response":"absent","rt":"4427.0999999046","correct":true,"confidence":-1},{"trial_n":12,"span":12,"encoder":"659300837612","distractor":"659307837612","target":"absent","response":"absent","rt":"3253.1999998093","correct":true,"confidence":-1},{"trial_n":13,"span":13,"encoder":"2423858391754","distractor":"2423858391704","target":"present","response":"absent","rt":"2398.5","correct":false,"confidence":-1},{"trial_n":14,"span":12,"encoder":"459883652164","distractor":"459783652164","target":"absent","response":"present","rt":"1697","correct":false,"confidence":-1},{"trial_n":15,"span":11,"encoder":"23221450734","distractor":"23221450784","target":"present","response":"present","rt":"1543","correct":true,"confidence":-1},{"trial_n":16,"span":11,"encoder":"15167225929","distractor":"15117225929","target":"absent","response":"present","rt":"1134.6999998093","correct":false,"confidence":-1},{"trial_n":17,"span":10,"encoder":"1240133771","distractor":"1140133771","target":"absent","response":"absent","rt":"1728.5999999046","correct":true,"confidence":-1},{"trial_n":18,"span":10,"encoder":"5187251537","distractor":"5987251537","target":"absent","response":"present","rt":"2599.5","correct":false,"confidence":-1},{"trial_n":19,"span":9,"encoder":"373777439","distractor":"373777839","target":"present","response":"absent","rt":"1564.4000000954","correct":false,"confidence":-1},{"trial_n":20,"span":8,"encoder":"97828597","distractor":"37828597","target":"present","response":"present","rt":"1319.5","correct":true,"confidence":-1},{"trial_n":21,"span":8,"encoder":"80477092","distractor":"80477592","target":"present","response":"present","rt":"1504.4000000954","correct":true,"confidence":3},{"trial_n":22,"span":9,"encoder":"858664720","distractor":"458664720","target":"absent","response":"present","rt":"2444.5","correct":false,"confidence":3},{"trial_n":23,"span":8,"encoder":"08969737","distractor":"38969737","target":"present","response":"absent","rt":"5548.0999999046","correct":false,"confidence":2},{"trial_n":24,"span":7,"encoder":"1812159","distractor":"0812159","target":"absent","response":"present","rt":"2870.4000000954","correct":false,"confidence":2},{"trial_n":25,"span":6,"encoder":"852140","distractor":"852120","target":"absent","response":"absent","rt":"1635.0999999046","correct":true,"confidence":5},{"trial_n":26,"span":6,"encoder":"696242","distractor":"796242","target":"present","response":"present","rt":"1826.6999998093","correct":true,"confidence":3},{"trial_n":27,"span":7,"encoder":"2682241","distractor":"2682271","target":"absent","response":"present","rt":"3055.0999999046","correct":false,"confidence":2},{"trial_n":28,"span":6,"encoder":"106760","distractor":"406760","target":"present","response":"present","rt":"2681.5999999046","correct":true,"confidence":4},{"trial_n":29,"span":6,"encoder":"567190","distractor":"561190","target":"present","response":"present","rt":"2047.1999998093","correct":true,"confidence":5},{"trial_n":30,"span":7,"encoder":"0530803","distractor":"0530703","target":"present","response":"present","rt":"2182.0999999046","correct":true,"confidence":3},{"trial_n":31,"span":7,"encoder":"3966568","distractor":"3966567","target":"present","response":"present","rt":"1861.5","correct":true,"confidence":4},{"trial_n":32,"span":8,"encoder":"70529105","distractor":"70629105","target":"present","response":"absent","rt":"2731","correct":false,"confidence":3},{"trial_n":33,"span":7,"encoder":"6013510","distractor":"9013510","target":"absent","response":"absent","rt":"3708.1999998093","correct":true,"confidence":1},{"trial_n":34,"span":7,"encoder":"5502970","distractor":"0502970","target":"absent","response":"present","rt":"3960.8000001907","correct":false,"confidence":2},{"trial_n":35,"span":6,"encoder":"747919","distractor":"747913","target":"present","response":"present","rt":"2087.8000001907","correct":true,"confidence":5},{"trial_n":36,"span":6,"encoder":"353756","distractor":"333756","target":"present","response":"present","rt":"2588.1000003815","correct":true,"confidence":5},{"trial_n":37,"span":7,"encoder":"2312447","distractor":"2012447","target":"present","response":"absent","rt":"1746.9000000954","correct":false,"confidence":5},{"trial_n":38,"span":6,"encoder":"109279","distractor":"179279","target":"absent","response":"present","rt":"2963","correct":false,"confidence":4},{"trial_n":39,"span":5,"encoder":"51766","distractor":"51726","target":"present","response":"present","rt":"2289.0999999046","correct":true,"confidence":4},{"trial_n":40,"span":5,"encoder":"81433","distractor":"81431","target":"absent","response":"absent","rt":"3613.8000001907","correct":true,"confidence":3},{"trial_n":41,"span":6,"encoder":"610352","distractor":"310352","target":"present","response":"present","rt":"2526.7000002861","correct":true,"confidence":3},{"trial_n":42,"span":6,"encoder":"260532","distractor":"260432","target":"present","response":"absent","rt":"2290.1999998093","correct":false,"confidence":3},{"trial_n":43,"span":5,"encoder":"59359","distractor":"50359","target":"present","response":"absent","rt":"6156.2000002861","correct":false,"confidence":2},{"trial_n":44,"span":4,"encoder":"1363","distractor":"6363","target":"absent","response":"absent","rt":"2155","correct":true,"confidence":5},{"trial_n":45,"span":4,"encoder":"6185","distractor":"6187","target":"present","response":"present","rt":"1813.8000001907","correct":true,"confidence":5},{"trial_n":46,"span":5,"encoder":"26646","distractor":"20646","target":"absent","response":"absent","rt":"3042.0999999046","correct":true,"confidence":2},{"trial_n":47,"span":5,"encoder":"62446","distractor":"62406","target":"absent","response":"absent","rt":"1391.4000000954","correct":true,"confidence":5},{"trial_n":48,"span":6,"encoder":"124217","distractor":"124237","target":"absent","response":"absent","rt":"1416.5999999046","correct":true,"confidence":5},{"trial_n":49,"span":6,"encoder":"633495","distractor":"663495","target":"absent","response":"absent","rt":"2263.0999999046","correct":true,"confidence":3},{"trial_n":50,"span":7,"encoder":"9032726","distractor":"9332726","target":"absent","response":"present","rt":"2195.1999998093","correct":false,"confidence":3},{"trial_n":51,"span":6,"encoder":"805462","distractor":"805432","target":"present","response":"present","rt":"2782.4000000954","correct":true,"confidence":4},{"trial_n":52,"span":6,"encoder":"712453","distractor":"712455","target":"present","response":"present","rt":"2615.6999998093","correct":true,"confidence":3},{"trial_n":53,"span":7,"encoder":"0762592","distractor":"0462592","target":"present","response":"present","rt":"3880.4000000954","correct":true,"confidence":4},{"trial_n":54,"span":7,"encoder":"6320129","distractor":"6320159","target":"absent","response":"absent","rt":"2506.1999998093","correct":true,"confidence":5},{"trial_n":55,"span":8,"encoder":"63359098","distractor":"63359198","target":"present","response":"present","rt":"2580.5","correct":true,"confidence":2},{"trial_n":56,"span":8,"encoder":"52468905","distractor":"22468905","target":"absent","response":"absent","rt":"3093.7000002861","correct":true,"confidence":2},{"trial_n":57,"span":9,"encoder":"754224286","distractor":"753224286","target":"present","response":"absent","rt":"4495.7000002861","correct":false,"confidence":1},{"trial_n":58,"span":8,"encoder":"33984418","distractor":"33984458","target":"absent","response":"present","rt":"2062.8000001907","correct":false,"confidence":4},{"trial_n":59,"span":7,"encoder":"8790452","distractor":"8790482","target":"present","response":"present","rt":"1618.5999999046","correct":true,"confidence":3},{"trial_n":60,"span":7,"encoder":"9177156","distractor":"9174156","target":"absent","response":"present","rt":"1495.4000000954","correct":false,"confidence":4},{"trial_n":61,"span":6,"encoder":"927806","distractor":"947806","target":"absent","response":"absent","rt":"1977.1999998093","correct":true,"confidence":5},{"trial_n":62,"span":6,"encoder":"672460","distractor":"672430","target":"absent","response":"present","rt":"2745.6999998093","correct":false,"confidence":3},{"trial_n":63,"span":5,"encoder":"23749","distractor":"23789","target":"absent","response":"absent","rt":"2735.0999999046","correct":true,"confidence":4},{"trial_n":64,"span":5,"encoder":"81071","distractor":"81021","target":"absent","response":"absent","rt":"6226.1999998093","correct":true,"confidence":2},{"trial_n":65,"span":6,"encoder":"059225","distractor":"359225","target":"present","response":"present","rt":"1618.9000000954","correct":true,"confidence":5},{"trial_n":66,"span":6,"encoder":"044502","distractor":"944502","target":"absent","response":"present","rt":"3667.8000001907","correct":false,"confidence":2},{"trial_n":67,"span":5,"encoder":"85585","distractor":"85582","target":"present","response":"present","rt":"2168.2000002861","correct":true,"confidence":5},{"trial_n":68,"span":5,"encoder":"29838","distractor":"29888","target":"present","response":"present","rt":"1685","correct":true,"confidence":4},{"trial_n":69,"span":6,"encoder":"160905","distractor":"060905","target":"present","response":"present","rt":"2453","correct":true,"confidence":3},{"trial_n":70,"span":6,"encoder":"338014","distractor":"338004","target":"present","response":"present","rt":"2380.8000001907","correct":true,"confidence":4},{"trial_n":71,"span":8,"encoder":"75543177","distractor":"75573177","target":"present","response":"present","rt":"4665.1000003815","correct":true,"confidence":-1},{"trial_n":72,"span":8,"encoder":"12448070","distractor":"32448070","target":"present","response":"absent","rt":"4420.6999998093","correct":false,"confidence":-1},{"trial_n":73,"span":7,"encoder":"7422269","distractor":"7424269","target":"absent","response":"absent","rt":"1733.1999998093","correct":true,"confidence":-1},{"trial_n":74,"span":7,"encoder":"6710579","distractor":"6310579","target":"absent","response":"present","rt":"3400.2999997139","correct":false,"confidence":-1},{"trial_n":75,"span":6,"encoder":"723713","distractor":"123713","target":"present","response":"present","rt":"6774.3000001907","correct":true,"confidence":-1},{"trial_n":76,"span":6,"encoder":"583757","distractor":"553757","target":"present","response":"present","rt":"3580.3000001907","correct":true,"confidence":-1},{"trial_n":77,"span":7,"encoder":"5389851","distractor":"5383851","target":"absent","response":"absent","rt":"5237.1999998093","correct":true,"confidence":-1},{"trial_n":78,"span":7,"encoder":"7609639","distractor":"7609609","target":"present","response":"present","rt":"1828.0999999046","correct":true,"confidence":-1},{"trial_n":79,"span":8,"encoder":"74993197","distractor":"74993194","target":"absent","response":"absent","rt":"1729.5","correct":true,"confidence":-1},{"trial_n":80,"span":8,"encoder":"26376768","distractor":"20376768","target":"absent","response":"absent","rt":"4301.6999998093","correct":true,"confidence":-1},{"trial_n":81,"span":9,"encoder":"443765774","distractor":"463765774","target":"present","response":"absent","rt":"4378.8000001907","correct":false,"confidence":-1},{"trial_n":82,"span":8,"encoder":"12694658","distractor":"12694958","target":"absent","response":"absent","rt":"2284.6999998093","correct":true,"confidence":-1},{"trial_n":83,"span":8,"encoder":"37105750","distractor":"31105750","target":"present","response":"present","rt":"3548.5","correct":true,"confidence":-1},{"trial_n":84,"span":9,"encoder":"023443550","distractor":"027443550","target":"present","response":"absent","rt":"4642.3000001907","correct":false,"confidence":-1},{"trial_n":85,"span":8,"encoder":"55471163","distractor":"85471163","target":"absent","response":"absent","rt":"5671","correct":true,"confidence":-1},{"trial_n":86,"span":8,"encoder":"27833278","distractor":"27733278","target":"present","response":"present","rt":"3467.7000002861","correct":true,"confidence":-1},{"trial_n":87,"span":9,"encoder":"333014434","distractor":"303014434","target":"present","response":"present","rt":"2295.9000000954","correct":true,"confidence":-1},{"trial_n":88,"span":9,"encoder":"619081782","distractor":"919081782","target":"absent","response":"present","rt":"5861.0999999046","correct":false,"confidence":-1},{"trial_n":89,"span":8,"encoder":"38145904","distractor":"38145909","target":"present","response":"present","rt":"1565.0999999046","correct":true,"confidence":-1},{"trial_n":90,"span":8,"encoder":"22146975","distractor":"22046975","target":"absent","response":"present","rt":"5235.5","correct":false,"confidence":-1},{"trial_n":91,"span":7,"encoder":"1104096","distractor":"1174096","target":"absent","response":"present","rt":"5858.7000002861","correct":false,"confidence":2},{"trial_n":92,"span":6,"encoder":"216004","distractor":"216002","target":"absent","response":"absent","rt":"2617.2000002861","correct":true,"confidence":5},{"trial_n":93,"span":6,"encoder":"607955","distractor":"600955","target":"present","response":"present","rt":"2949","correct":true,"confidence":3},{"trial_n":94,"span":7,"encoder":"5984562","distractor":"5984962","target":"present","response":"present","rt":"1819.5","correct":true,"confidence":5},{"trial_n":95,"span":7,"encoder":"8580764","distractor":"8580714","target":"absent","response":"absent","rt":"2054.5","correct":true,"confidence":5},{"trial_n":96,"span":8,"encoder":"79558463","distractor":"79550463","target":"present","response":"present","rt":"5079.1999998093","correct":true,"confidence":5},{"trial_n":97,"span":8,"encoder":"41695720","distractor":"41695920","target":"present","response":"present","rt":"6162.0999999046","correct":true,"confidence":3},{"trial_n":98,"span":9,"encoder":"744304813","distractor":"744304873","target":"present","response":"present","rt":"5414.1999998093","correct":true,"confidence":3},{"trial_n":99,"span":9,"encoder":"000978877","distractor":"080978877","target":"present","response":"present","rt":"2789.8000001907","correct":true,"confidence":5},{"trial_n":100,"span":10,"encoder":"1666577688","distractor":"1666577687","target":"present","response":"present","rt":"2226.7000002861","correct":true,"confidence":5},{"trial_n":101,"span":10,"encoder":"7289431845","distractor":"7289431875","target":"absent","response":"absent","rt":"1979.3000001907","correct":true,"confidence":5},{"trial_n":102,"span":11,"encoder":"82262419521","distractor":"12262419521","target":"absent","response":"absent","rt":"6002.9000000954","correct":true,"confidence":1},{"trial_n":103,"span":11,"encoder":"75278288231","distractor":"75278281231","target":"present","response":"present","rt":"2777.4000000954","correct":true,"confidence":4},{"trial_n":104,"span":12,"encoder":"884935511960","distractor":"884938511960","target":"present","response":"present","rt":"5140.6999998093","correct":true,"confidence":3},{"trial_n":105,"span":12,"encoder":"426756717626","distractor":"426756716626","target":"absent","response":"absent","rt":"3866.7000002861","correct":true,"confidence":2},{"trial_n":106,"span":13,"encoder":"3366180038743","distractor":"3366180538743","target":"absent","response":"present","rt":"5692.5","correct":false,"confidence":3},{"trial_n":107,"span":12,"encoder":"053804916643","distractor":"053804914643","target":"present","response":"present","rt":"2568.5","correct":true,"confidence":3},{"trial_n":108,"span":12,"encoder":"244539011244","distractor":"244530011244","target":"absent","response":"absent","rt":"5555.0999999046","correct":true,"confidence":3},{"trial_n":109,"span":13,"encoder":"4194329699113","distractor":"4194329699313","target":"absent","response":"absent","rt":"2518.2999997139","correct":true,"confidence":5},{"trial_n":110,"span":13,"encoder":"7860458852925","distractor":"7860438852925","target":"present","response":"present","rt":"4914.7000002861","correct":true,"confidence":5},{"trial_n":111,"span":14,"encoder":"80228452875892","distractor":"80328452875892","target":"absent","response":"absent","rt":"3063.2999997139","correct":true,"confidence":3},{"trial_n":112,"span":14,"encoder":"05502026336716","distractor":"07502026336716","target":"present","response":"present","rt":"3995.6999998093","correct":true,"confidence":3},{"trial_n":113,"span":15,"encoder":"845941960657356","distractor":"845941960657359","target":"absent","response":"absent","rt":"1926.6999998093","correct":true,"confidence":5},{"trial_n":114,"span":15,"encoder":"493081745669243","distractor":"463081745669243","target":"present","response":"absent","rt":"5252.6999998093","correct":false,"confidence":1},{"trial_n":115,"span":14,"encoder":"65142598545843","distractor":"65142598945843","target":"present","response":"present","rt":"10367.800000191","correct":true,"confidence":1},{"trial_n":116,"span":14,"encoder":"85100470330383","distractor":"80100470330383","target":"present","response":"absent","rt":"4400","correct":false,"confidence":2},{"trial_n":117,"span":13,"encoder":"8725267727730","distractor":"8755267727730","target":"absent","response":"absent","rt":"7115.5999999046","correct":true,"confidence":3},{"trial_n":118,"span":13,"encoder":"4086951571834","distractor":"4186951571834","target":"absent","response":"absent","rt":"6895.3000001907","correct":true,"confidence":1},{"trial_n":119,"span":14,"encoder":"25044995746544","distractor":"25045995746544","target":"absent","response":"absent","rt":"4343.1999998093","correct":true,"confidence":5},{"trial_n":120,"span":14,"encoder":"42682981841367","distractor":"42682982841367","target":"absent","response":"absent","rt":"5690.3000001907","correct":true,"confidence":1},{"trial_n":121,"span":15,"encoder":"268605469096182","distractor":"268605469896182","target":"absent","response":"absent","rt":"10198.199999809","correct":true,"confidence":2},{"trial_n":122,"span":15,"encoder":"919638847967671","distractor":"914638847967671","target":"present","response":"absent","rt":"8802.7000002861","correct":false,"confidence":2},{"trial_n":123,"span":14,"encoder":"29570025019250","distractor":"29570025019200","target":"absent","response":"absent","rt":"2557.9000000954","correct":true,"confidence":5},{"trial_n":124,"span":14,"encoder":"18793998704328","distractor":"18793998704320","target":"present","response":"present","rt":"2104.8000001907","correct":true,"confidence":5},{"trial_n":125,"span":15,"encoder":"408830112171797","distractor":"407830112171797","target":"absent","response":"absent","rt":"3389.7999997139","correct":true,"confidence":4},{"trial_n":126,"span":15,"encoder":"063949086968398","distractor":"063989086968398","target":"present","response":"absent","rt":"7535.5999999046","correct":false,"confidence":2},{"trial_n":127,"span":14,"encoder":"42359135540655","distractor":"42359135530655","target":"absent","response":"absent","rt":"5635.5","correct":true,"confidence":1},{"trial_n":128,"span":14,"encoder":"40709389219494","distractor":"40209389219494","target":"present","response":"absent","rt":"5901.5999999046","correct":false,"confidence":1},{"trial_n":129,"span":13,"encoder":"2810650373712","distractor":"6810650373712","target":"absent","response":"absent","rt":"3421.1999998093","correct":true,"confidence":2},{"trial_n":130,"span":13,"encoder":"1268232190263","distractor":"1268237190263","target":"present","response":"absent","rt":"5570.5999999046","correct":false,"confidence":1},{"trial_n":131,"span":12,"encoder":"406157251834","distractor":"406137251834","target":"present","response":"present","rt":"5777.8000001907","correct":true,"confidence":2},{"trial_n":132,"span":12,"encoder":"374844986282","distractor":"374844986287","target":"absent","response":"absent","rt":"10801.200000286","correct":true,"confidence":1},{"trial_n":133,"span":13,"encoder":"6713768790188","distractor":"6753768790188","target":"absent","response":"absent","rt":"6682.9000000954","correct":true,"confidence":3},{"trial_n":134,"span":13,"encoder":"2325337238302","distractor":"2325337238402","target":"present","response":"present","rt":"2424.3999996185","correct":true,"confidence":5},{"trial_n":135,"span":14,"encoder":"24255821715061","distractor":"24255821717061","target":"absent","response":"absent","rt":"10720.599999905","correct":true,"confidence":4},{"trial_n":136,"span":14,"encoder":"06154690944269","distractor":"06154590944269","target":"present","response":"present","rt":"3905.5999999046","correct":true,"confidence":5},{"trial_n":137,"span":15,"encoder":"615555568417937","distractor":"615535568417937","target":"absent","response":"absent","rt":"1646.4000000954","correct":true,"confidence":5},{"trial_n":138,"span":15,"encoder":"399601914058946","distractor":"399601614058946","target":"present","response":"absent","rt":"6183.9000000954","correct":false,"confidence":2},{"trial_n":139,"span":14,"encoder":"24070641726013","distractor":"24070641726016","target":"absent","response":"absent","rt":"2451.5","correct":true,"confidence":4},{"trial_n":140,"span":14,"encoder":"85277593696609","distractor":"88277593696609","target":"present","response":"present","rt":"6053.7999997139","correct":true,"confidence":2}]