[{"trial_n":1,"span":8,"encoder":"37527402","distractor":"37557402","target":"present","response":"absent","rt":"13564","correct":false,"confidence":-1},{"trial_n":2,"span":6,"encoder":"700624","distractor":"700674","target":"present","response":"present","rt":"3023","correct":true,"confidence":-1},{"trial_n":3,"span":6,"encoder":"783402","distractor":"713402","target":"absent","response":"present","rt":"2299","correct":false,"confidence":-1},{"trial_n":4,"span":4,"encoder":"6782","distractor":"4782","target":"absent","response":"present","rt":"2404","correct":false,"confidence":-1},{"trial_n":5,"span":2,"encoder":"89","distractor":"84","target":"present","response":"absent","rt":"1644","correct":false,"confidence":-1},{"trial_n":6,"span":2,"encoder":"81","distractor":"83","target":"present","response":"present","rt":"1106","correct":true,"confidence":-1},{"trial_n":7,"span":2,"encoder":"43","distractor":"33","target":"absent","response":"absent","rt":"1772","correct":true,"confidence":-1},{"trial_n":8,"span":4,"encoder":"9326","distractor":"9329","target":"absent","response":"present","rt":"1932","correct":false,"confidence":-1},{"trial_n":9,"span":2,"encoder":"32","distractor":"92","target":"absent","response":"present","rt":"1433","correct":false,"confidence":-1},{"trial_n":10,"span":2,"encoder":"94","distractor":"44","target":"present","response":"present","rt":"1290","correct":true,"confidence":-1},{"trial_n":11,"span":2,"encoder":"06","distractor":"04","target":"present","response":"present","rt":"1265","correct":true,"confidence":-1},{"trial_n":12,"span":3,"encoder":"878","distractor":"978","target":"absent","response":"absent","rt":"1565","correct":true,"confidence":-1},{"trial_n":13,"span":3,"encoder":"324","distractor":"328","target":"present","response":"present","rt":"1292","correct":true,"confidence":-1},{"trial_n":14,"span":4,"encoder":"9857","distractor":"9847","target":"absent","response":"absent","rt":"1721","correct":true,"confidence":-1},{"trial_n":15,"span":4,"encoder":"2687","distractor":"2587","target":"absent","response":"absent","rt":"1800","correct":true,"confidence":-1},{"trial_n":16,"span":5,"encoder":"10927","distractor":"10922","target":"present","response":"present","rt":"1394","correct":true,"confidence":-1},{"trial_n":17,"span":5,"encoder":"34074","distractor":"36074","target":"present","response":"present","rt":"1922","correct":true,"confidence":-1},{"trial_n":18,"span":6,"encoder":"981656","distractor":"281656","target":"present","response":"present","rt":"1657","correct":true,"confidence":-1},{"trial_n":19,"span":6,"encoder":"232427","distractor":"032427","target":"present","response":"absent","rt":"3063","correct":false,"confidence":-1},{"trial_n":20,"span":5,"encoder":"39788","distractor":"39780","target":"absent","response":"present","rt":"3235","correct":false,"confidence":-1},{"trial_n":21,"span":4,"encoder":"2179","distractor":"2159","target":"present","response":"present","rt":"2047","correct":true,"confidence":3},{"trial_n":22,"span":4,"encoder":"6676","distractor":"6776","target":"absent","response":"absent","rt":"1711","correct":true,"confidence":5},{"trial_n":23,"span":5,"encoder":"60273","distractor":"67273","target":"absent","response":"absent","rt":"3014","correct":true,"confidence":3},{"trial_n":24,"span":5,"encoder":"94332","distractor":"94337","target":"absent","response":"absent","rt":"2210","correct":true,"confidence":5},{"trial_n":25,"span":6,"encoder":"068658","distractor":"088658","target":"absent","response":"absent","rt":"1590","correct":true,"confidence":4},{"trial_n":26,"span":6,"encoder":"491178","distractor":"441178","target":"absent","response":"absent","rt":"1684","correct":true,"confidence":5},{"trial_n":27,"span":7,"encoder":"7495678","distractor":"7495378","target":"absent","response":"present","rt":"1575","correct":false,"confidence":3},{"trial_n":28,"span":6,"encoder":"288134","distractor":"488134","target":"present","response":"absent","rt":"2221","correct":false,"confidence":5},{"trial_n":29,"span":5,"encoder":"56097","distractor":"56090","target":"absent","response":"present","rt":"2372","correct":false,"confidence":2},{"trial_n":30,"span":4,"encoder":"3461","distractor":"3462","target":"present","response":"absent","rt":"1920","correct":false,"confidence":5},{"trial_n":31,"span":3,"encoder":"480","distractor":"680","target":"present","response":"present","rt":"1805","correct":true,"confidence":4},{"trial_n":32,"span":3,"encoder":"581","distractor":"781","target":"absent","response":"absent","rt":"1260","correct":true,"confidence":5},{"trial_n":33,"span":4,"encoder":"7600","distractor":"7605","target":"present","response":"absent","rt":"2666","correct":false,"confidence":5},{"trial_n":34,"span":3,"encoder":"083","distractor":"003","target":"present","response":"present","rt":"1145","correct":true,"confidence":5},{"trial_n":35,"span":3,"encoder":"837","distractor":"237","target":"present","response":"present","rt":"1821","correct":true,"confidence":2},{"trial_n":36,"span":4,"encoder":"0676","distractor":"0876","target":"present","response":"present","rt":"2187","correct":true,"confidence":3},{"trial_n":37,"span":4,"encoder":"7158","distractor":"7118","target":"present","response":"present","rt":"1180","correct":true,"confidence":5},{"trial_n":38,"span":5,"encoder":"62737","distractor":"65737","target":"present","response":"present","rt":"1377","correct":true,"confidence":4},{"trial_n":39,"span":5,"encoder":"35489","distractor":"35419","target":"absent","response":"absent","rt":"1568","correct":true,"confidence":3},{"trial_n":40,"span":6,"encoder":"599337","distractor":"299337","target":"present","response":"absent","rt":"2398","correct":false,"confidence":2},{"trial_n":41,"span":5,"encoder":"05461","distractor":"02461","target":"absent","response":"absent","rt":"2054","correct":true,"confidence":3},{"trial_n":42,"span":5,"encoder":"26714","distractor":"26710","target":"present","response":"present","rt":"1774","correct":true,"confidence":5},{"trial_n":43,"span":6,"encoder":"716998","distractor":"716698","target":"present","response":"absent","rt":"1877","correct":false,"confidence":4},{"trial_n":44,"span":5,"encoder":"96279","distractor":"96219","target":"absent","response":"absent","rt":"2934","correct":true,"confidence":3},{"trial_n":45,"span":5,"encoder":"51659","distractor":"61659","target":"absent","response":"absent","rt":"1284","correct":true,"confidence":3},{"trial_n":46,"span":6,"encoder":"554071","distractor":"553071","target":"absent","response":"absent","rt":"1512","correct":true,"confidence":4},{"trial_n":47,"span":6,"encoder":"569626","distractor":"549626","target":"absent","response":"present","rt":"1418","correct":false,"confidence":4},{"trial_n":48,"span":5,"encoder":"81401","distractor":"88401","target":"present","response":"present","rt":"1496","correct":true,"confidence":4},{"trial_n":49,"span":5,"encoder":"37973","distractor":"37983","target":"absent","response":"absent","rt":"1794","correct":true,"confidence":3},{"trial_n":50,"span":6,"encoder":"261830","distractor":"261880","target":"absent","response":"absent","rt":"1411","correct":true,"confidence":2},{"trial_n":51,"span":6,"encoder":"296211","distractor":"293211","target":"present","response":"absent","rt":"2990","correct":false,"confidence":2},{"trial_n":52,"span":5,"encoder":"48980","distractor":"48580","target":"absent","response":"absent","rt":"1269","correct":true,"confidence":5},{"trial_n":53,"span":5,"encoder":"48533","distractor":"48333","target":"absent","response":"absent","rt":"1353","correct":true,"confidence":3},{"trial_n":54,"span":6,"encoder":"026820","distractor":"026320","target":"absent","response":"absent","rt":"1759","correct":true,"confidence":5},{"trial_n":55,"span":6,"encoder":"916683","distractor":"956683","target":"present","response":"absent","rt":"1880","correct":false,"confidence":3},{"trial_n":56,"span":5,"encoder":"33797","distractor":"33798","target":"absent","response":"absent","rt":"3792","correct":true,"confidence":4},{"trial_n":57,"span":5,"encoder":"27144","distractor":"07144","target":"absent","response":"absent","rt":"3374","correct":true,"confidence":3},{"trial_n":58,"span":6,"encoder":"514075","distractor":"514074","target":"present","response":"present","rt":"2467","correct":true,"confidence":4},{"trial_n":59,"span":6,"encoder":"939413","distractor":"639413","target":"absent","response":"present","rt":"2335","correct":false,"confidence":4},{"trial_n":60,"span":5,"encoder":"26964","distractor":"86964","target":"present","response":"present","rt":"1636","correct":true,"confidence":5},{"trial_n":61,"span":5,"encoder":"06263","distractor":"08263","target":"present","response":"present","rt":"1570","correct":true,"confidence":5},{"trial_n":62,"span":6,"encoder":"551450","distractor":"557450","target":"present","response":"present","rt":"1378","correct":true,"confidence":5},{"trial_n":63,"span":6,"encoder":"453818","distractor":"153818","target":"absent","response":"present","rt":"2286.9999999999","correct":false,"confidence":3},{"trial_n":64,"span":5,"encoder":"67574","distractor":"67570","target":"present","response":"present","rt":"2960","correct":true,"confidence":4},{"trial_n":65,"span":5,"encoder":"02585","distractor":"42585","target":"present","response":"present","rt":"1763","correct":true,"confidence":5},{"trial_n":66,"span":6,"encoder":"475884","distractor":"425884","target":"absent","response":"absent","rt":"1519","correct":true,"confidence":5},{"trial_n":67,"span":6,"encoder":"598089","distractor":"588089","target":"present","response":"present","rt":"1556","correct":true,"confidence":5},{"trial_n":68,"span":7,"encoder":"3751469","distractor":"3751869","target":"present","response":"absent","rt":"1444.9999999999","correct":false,"confidence":1},{"trial_n":69,"span":6,"encoder":"206606","distractor":"206601","target":"absent","response":"absent","rt":"1720","correct":true,"confidence":4},{"trial_n":70,"span":6,"encoder":"280364","distractor":"280344","target":"present","response":"present","rt":"2182","correct":true,"confidence":4},{"trial_n":71,"span":8,"encoder":"31306495","distractor":"31306435","target":"present","response":"present","rt":"6354","correct":true,"confidence":-1},{"trial_n":72,"span":8,"encoder":"37978691","distractor":"57978691","target":"present","response":"absent","rt":"1977.0000000001","correct":false,"confidence":-1},{"trial_n":73,"span":7,"encoder":"4655368","distractor":"4655361","target":"absent","response":"absent","rt":"1573.9999999999","correct":true,"confidence":-1},{"trial_n":74,"span":7,"encoder":"8511433","distractor":"8511438","target":"absent","response":"absent","rt":"2580","correct":true,"confidence":-1},{"trial_n":75,"span":8,"encoder":"38081303","distractor":"38081393","target":"present","response":"present","rt":"1483","correct":true,"confidence":-1},{"trial_n":76,"span":8,"encoder":"37291181","distractor":"37291781","target":"absent","response":"absent","rt":"2258","correct":true,"confidence":-1},{"trial_n":77,"span":9,"encoder":"137822291","distractor":"133822291","target":"absent","response":"absent","rt":"3409","correct":true,"confidence":-1},{"trial_n":78,"span":9,"encoder":"289426887","distractor":"287426887","target":"present","response":"present","rt":"5759","correct":true,"confidence":-1},{"trial_n":79,"span":10,"encoder":"6441355118","distractor":"6441355111","target":"present","response":"present","rt":"4080","correct":true,"confidence":-1},{"trial_n":80,"span":10,"encoder":"9311882329","distractor":"9331882329","target":"present","response":"absent","rt":"4339","correct":false,"confidence":-1},{"trial_n":81,"span":9,"encoder":"650983835","distractor":"650985835","target":"absent","response":"absent","rt":"2747","correct":true,"confidence":-1},{"trial_n":82,"span":9,"encoder":"631926614","distractor":"681926614","target":"present","response":"absent","rt":"2052.0000000002","correct":false,"confidence":-1},{"trial_n":83,"span":8,"encoder":"72977924","distractor":"72977928","target":"absent","response":"absent","rt":"1600","correct":true,"confidence":-1},{"trial_n":84,"span":8,"encoder":"52081099","distractor":"52080099","target":"present","response":"present","rt":"2354","correct":true,"confidence":-1},{"trial_n":85,"span":9,"encoder":"200335812","distractor":"200385812","target":"present","response":"absent","rt":"2297","correct":false,"confidence":-1},{"trial_n":86,"span":8,"encoder":"17812739","distractor":"17812939","target":"absent","response":"absent","rt":"2249","correct":true,"confidence":-1},{"trial_n":87,"span":8,"encoder":"56730941","distractor":"56730931","target":"present","response":"absent","rt":"890","correct":false,"confidence":-1},{"trial_n":88,"span":7,"encoder":"9882042","distractor":"8882042","target":"present","response":"present","rt":"3789.9999999998","correct":true,"confidence":-1},{"trial_n":89,"span":7,"encoder":"3334390","distractor":"3934390","target":"present","response":"present","rt":"1700.9999999998","correct":true,"confidence":-1},{"trial_n":90,"span":8,"encoder":"17658975","distractor":"17668975","target":"present","response":"present","rt":"2415","correct":true,"confidence":-1},{"trial_n":91,"span":8,"encoder":"72195365","distractor":"72190365","target":"absent","response":"present","rt":"3796","correct":false,"confidence":3},{"trial_n":92,"span":7,"encoder":"7961072","distractor":"7931072","target":"absent","response":"absent","rt":"3933","correct":true,"confidence":2},{"trial_n":93,"span":7,"encoder":"5392578","distractor":"9392578","target":"absent","response":"absent","rt":"3016","correct":true,"confidence":2},{"trial_n":94,"span":8,"encoder":"01925977","distractor":"07925977","target":"present","response":"present","rt":"3180","correct":true,"confidence":1},{"trial_n":95,"span":8,"encoder":"46540139","distractor":"46560139","target":"absent","response":"absent","rt":"4566","correct":true,"confidence":1},{"trial_n":96,"span":9,"encoder":"452230388","distractor":"452030388","target":"absent","response":"present","rt":"3583","correct":false,"confidence":3},{"trial_n":97,"span":8,"encoder":"41520471","distractor":"41520871","target":"absent","response":"absent","rt":"4176","correct":true,"confidence":1},{"trial_n":98,"span":8,"encoder":"56341517","distractor":"66341517","target":"present","response":"present","rt":"3008.0000000002","correct":true,"confidence":1},{"trial_n":99,"span":9,"encoder":"051134879","distractor":"051734879","target":"present","response":"absent","rt":"4837","correct":false,"confidence":1},{"trial_n":100,"span":8,"encoder":"58799740","distractor":"58709740","target":"present","response":"present","rt":"2368","correct":true,"confidence":1},{"trial_n":101,"span":8,"encoder":"96617320","distractor":"91617320","target":"absent","response":"present","rt":"2019.0000000002","correct":false,"confidence":2},{"trial_n":102,"span":7,"encoder":"8507362","distractor":"8507369","target":"present","response":"present","rt":"2399","correct":true,"confidence":2},{"trial_n":103,"span":7,"encoder":"7693437","distractor":"7691437","target":"absent","response":"present","rt":"3677","correct":false,"confidence":2},{"trial_n":104,"span":6,"encoder":"286725","distractor":"226725","target":"absent","response":"absent","rt":"1544","correct":true,"confidence":4},{"trial_n":105,"span":6,"encoder":"511388","distractor":"511378","target":"absent","response":"absent","rt":"2803","correct":true,"confidence":2},{"trial_n":106,"span":7,"encoder":"7286614","distractor":"7216614","target":"present","response":"absent","rt":"2895","correct":false,"confidence":2},{"trial_n":107,"span":6,"encoder":"992341","distractor":"999341","target":"present","response":"present","rt":"3107.0000000002","correct":true,"confidence":1},{"trial_n":108,"span":6,"encoder":"974776","distractor":"974775","target":"absent","response":"absent","rt":"2654","correct":true,"confidence":2},{"trial_n":109,"span":7,"encoder":"9119148","distractor":"9119348","target":"absent","response":"absent","rt":"3107","correct":true,"confidence":2},{"trial_n":110,"span":7,"encoder":"9496962","distractor":"9496960","target":"absent","response":"absent","rt":"3338","correct":true,"confidence":3},{"trial_n":111,"span":8,"encoder":"74182468","distractor":"74182458","target":"absent","response":"absent","rt":"1758","correct":true,"confidence":2},{"trial_n":112,"span":8,"encoder":"03657183","distractor":"03697183","target":"present","response":"present","rt":"2621","correct":true,"confidence":3},{"trial_n":113,"span":9,"encoder":"051846667","distractor":"051845667","target":"present","response":"absent","rt":"4684.0000000002","correct":false,"confidence":3},{"trial_n":114,"span":8,"encoder":"47417457","distractor":"47437457","target":"absent","response":"absent","rt":"3067.9999999998","correct":true,"confidence":2},{"trial_n":115,"span":8,"encoder":"47298703","distractor":"47298707","target":"present","response":"absent","rt":"6505.0000000002","correct":false,"confidence":3},{"trial_n":116,"span":7,"encoder":"7427663","distractor":"7527663","target":"absent","response":"absent","rt":"3161","correct":true,"confidence":3},{"trial_n":117,"span":7,"encoder":"9813451","distractor":"8813451","target":"present","response":"present","rt":"3324.0000000002","correct":true,"confidence":3},{"trial_n":118,"span":8,"encoder":"25746675","distractor":"25746695","target":"present","response":"present","rt":"2000","correct":true,"confidence":3},{"trial_n":119,"span":8,"encoder":"63907967","distractor":"63900967","target":"absent","response":"absent","rt":"1987","correct":true,"confidence":5},{"trial_n":120,"span":9,"encoder":"952872385","distractor":"952872185","target":"present","response":"present","rt":"1406","correct":true,"confidence":5},{"trial_n":121,"span":9,"encoder":"581812733","distractor":"981812733","target":"absent","response":"absent","rt":"1694.9999999998","correct":true,"confidence":3},{"trial_n":122,"span":10,"encoder":"9880511478","distractor":"8880511478","target":"present","response":"present","rt":"4111","correct":true,"confidence":3},{"trial_n":123,"span":10,"encoder":"3962341821","distractor":"3964341821","target":"present","response":"absent","rt":"3437","correct":false,"confidence":2},{"trial_n":124,"span":9,"encoder":"067072656","distractor":"067072556","target":"present","response":"present","rt":"2129","correct":true,"confidence":2},{"trial_n":125,"span":9,"encoder":"396217980","distractor":"396217680","target":"present","response":"absent","rt":"954","correct":false,"confidence":1},{"trial_n":126,"span":8,"encoder":"11182346","distractor":"11982346","target":"absent","response":"absent","rt":"2252.9999999998","correct":true,"confidence":3},{"trial_n":127,"span":8,"encoder":"05918633","distractor":"55918633","target":"present","response":"absent","rt":"3909","correct":false,"confidence":1},{"trial_n":128,"span":7,"encoder":"3105266","distractor":"3505266","target":"absent","response":"absent","rt":"1615","correct":true,"confidence":3},{"trial_n":129,"span":7,"encoder":"8081136","distractor":"8071136","target":"present","response":"absent","rt":"3056","correct":false,"confidence":3},{"trial_n":130,"span":6,"encoder":"978769","distractor":"278769","target":"absent","response":"absent","rt":"2311","correct":true,"confidence":3},{"trial_n":131,"span":6,"encoder":"873721","distractor":"873751","target":"present","response":"present","rt":"1646","correct":true,"confidence":3},{"trial_n":132,"span":7,"encoder":"2478399","distractor":"2472399","target":"absent","response":"present","rt":"5775","correct":false,"confidence":3},{"trial_n":133,"span":6,"encoder":"739552","distractor":"733552","target":"present","response":"present","rt":"1674","correct":true,"confidence":4},{"trial_n":134,"span":6,"encoder":"521433","distractor":"521933","target":"absent","response":"present","rt":"3306","correct":false,"confidence":3},{"trial_n":135,"span":5,"encoder":"77710","distractor":"73710","target":"absent","response":"present","rt":"10170","correct":false,"confidence":1},{"trial_n":136,"span":4,"encoder":"3628","distractor":"3622","target":"absent","response":"absent","rt":"1867","correct":true,"confidence":3},{"trial_n":137,"span":4,"encoder":"5975","distractor":"5475","target":"present","response":"present","rt":"1437","correct":true,"confidence":5},{"trial_n":138,"span":5,"encoder":"59972","distractor":"50972","target":"absent","response":"absent","rt":"1771","correct":true,"confidence":3},{"trial_n":139,"span":5,"encoder":"52913","distractor":"52917","target":"absent","response":"absent","rt":"987","correct":true,"confidence":5},{"trial_n":140,"span":6,"encoder":"050635","distractor":"950635","target":"present","response":"present","rt":"1560","correct":true,"confidence":4}]