[{"trial_n":1,"span":8,"encoder":"70326621","distractor":"79326621","target":"present","response":"present","rt":"2718.5","correct":true,"confidence":-1},{"trial_n":2,"span":8,"encoder":"74332399","distractor":"74392399","target":"present","response":"present","rt":"2518.6000001431","correct":true,"confidence":-1},{"trial_n":3,"span":10,"encoder":"6911423246","distractor":"6811423246","target":"absent","response":"absent","rt":"2768.5","correct":true,"confidence":-1},{"trial_n":4,"span":10,"encoder":"8914278197","distractor":"8918278197","target":"absent","response":"absent","rt":"2110.7000000477","correct":true,"confidence":-1},{"trial_n":5,"span":12,"encoder":"571561605053","distractor":"561561605053","target":"present","response":"present","rt":"1544.5","correct":true,"confidence":-1},{"trial_n":6,"span":12,"encoder":"264131623969","distractor":"264136623969","target":"absent","response":"present","rt":"2663.5","correct":false,"confidence":-1},{"trial_n":7,"span":10,"encoder":"4074277451","distractor":"4074277051","target":"present","response":"present","rt":"1140.5999999046","correct":true,"confidence":-1},{"trial_n":8,"span":10,"encoder":"7820196822","distractor":"7827196822","target":"present","response":"present","rt":"1889.8999998569","correct":true,"confidence":-1},{"trial_n":9,"span":12,"encoder":"632381926925","distractor":"636381926925","target":"present","response":"absent","rt":"1582.7999999523","correct":false,"confidence":-1},{"trial_n":10,"span":10,"encoder":"6771579611","distractor":"6771549611","target":"absent","response":"absent","rt":"2151.2000000477","correct":true,"confidence":-1},{"trial_n":11,"span":10,"encoder":"9241454121","distractor":"9941454121","target":"absent","response":"absent","rt":"1952.5","correct":true,"confidence":-1},{"trial_n":12,"span":11,"encoder":"04497540456","distractor":"04497540496","target":"present","response":"present","rt":"2318.2000000477","correct":true,"confidence":-1},{"trial_n":13,"span":11,"encoder":"68030233173","distractor":"68030233170","target":"absent","response":"absent","rt":"2216.5","correct":true,"confidence":-1},{"trial_n":14,"span":12,"encoder":"139996790538","distractor":"139996799538","target":"present","response":"present","rt":"1425","correct":true,"confidence":-1},{"trial_n":15,"span":12,"encoder":"803987999094","distractor":"803587999094","target":"present","response":"present","rt":"1788.2000000477","correct":true,"confidence":-1},{"trial_n":16,"span":13,"encoder":"6859834866577","distractor":"6859834866507","target":"absent","response":"absent","rt":"1915.4000000954","correct":true,"confidence":-1},{"trial_n":17,"span":13,"encoder":"3017830688759","distractor":"3017830688959","target":"absent","response":"present","rt":"1671.8000001907","correct":false,"confidence":-1},{"trial_n":18,"span":12,"encoder":"968805558329","distractor":"968807558329","target":"absent","response":"present","rt":"1964.7000000477","correct":false,"confidence":-1},{"trial_n":19,"span":11,"encoder":"19700479673","distractor":"89700479673","target":"present","response":"present","rt":"2676.6999998093","correct":true,"confidence":-1},{"trial_n":20,"span":11,"encoder":"89691812026","distractor":"89991812026","target":"absent","response":"absent","rt":"1908.1000001431","correct":true,"confidence":-1},{"trial_n":21,"span":12,"encoder":"655954042757","distractor":"655974042757","target":"absent","response":"present","rt":"2328.9000000954","correct":false,"confidence":3},{"trial_n":22,"span":11,"encoder":"59412910156","distractor":"59412911156","target":"present","response":"present","rt":"2203.1000001431","correct":true,"confidence":2},{"trial_n":23,"span":11,"encoder":"79655613869","distractor":"79665613869","target":"present","response":"present","rt":"2731","correct":true,"confidence":2},{"trial_n":24,"span":12,"encoder":"767578823571","distractor":"766578823571","target":"absent","response":"absent","rt":"5008.5","correct":true,"confidence":1},{"trial_n":25,"span":12,"encoder":"193713372316","distractor":"193613372316","target":"absent","response":"absent","rt":"5132.7000000477","correct":true,"confidence":1},{"trial_n":26,"span":13,"encoder":"5432125444478","distractor":"5402125444478","target":"absent","response":"absent","rt":"6437","correct":true,"confidence":5},{"trial_n":27,"span":13,"encoder":"3441211628058","distractor":"3441251628058","target":"absent","response":"present","rt":"3394.4000000954","correct":false,"confidence":3},{"trial_n":28,"span":12,"encoder":"442474160706","distractor":"452474160706","target":"present","response":"present","rt":"2306.4000000954","correct":true,"confidence":3},{"trial_n":29,"span":12,"encoder":"320355915245","distractor":"320355945245","target":"present","response":"present","rt":"2974.2000000477","correct":true,"confidence":2},{"trial_n":30,"span":13,"encoder":"3159110446931","distractor":"3159110446991","target":"absent","response":"absent","rt":"2265.4000000954","correct":true,"confidence":3},{"trial_n":31,"span":13,"encoder":"6234907601641","distractor":"6214907601641","target":"present","response":"present","rt":"3102.2999999523","correct":true,"confidence":3},{"trial_n":32,"span":14,"encoder":"88906634311539","distractor":"88906634311530","target":"present","response":"absent","rt":"3417.5999999046","correct":false,"confidence":1},{"trial_n":33,"span":13,"encoder":"1059902726106","distractor":"1059902746106","target":"absent","response":"present","rt":"2981.3000001907","correct":false,"confidence":4},{"trial_n":34,"span":12,"encoder":"536425179402","distractor":"536425179432","target":"present","response":"absent","rt":"1939.8999998569","correct":false,"confidence":1},{"trial_n":35,"span":11,"encoder":"27200170710","distractor":"27200170770","target":"present","response":"present","rt":"2061.6000001431","correct":true,"confidence":1},{"trial_n":36,"span":11,"encoder":"22257515275","distractor":"22257555275","target":"present","response":"present","rt":"2551.1999998093","correct":true,"confidence":4},{"trial_n":37,"span":12,"encoder":"606134992612","distractor":"606134992611","target":"present","response":"present","rt":"2116.0999999046","correct":true,"confidence":4},{"trial_n":38,"span":12,"encoder":"715240808201","distractor":"715244808201","target":"absent","response":"present","rt":"2603.2999999523","correct":false,"confidence":3},{"trial_n":39,"span":11,"encoder":"17874248513","distractor":"17874348513","target":"present","response":"present","rt":"2417","correct":true,"confidence":3},{"trial_n":40,"span":11,"encoder":"86709009710","distractor":"86809009710","target":"absent","response":"present","rt":"2086.5","correct":false,"confidence":3},{"trial_n":41,"span":10,"encoder":"7959761663","distractor":"7959561663","target":"absent","response":"present","rt":"2285.2000000477","correct":false,"confidence":2},{"trial_n":42,"span":9,"encoder":"207259523","distractor":"201259523","target":"present","response":"present","rt":"3151.7999999523","correct":true,"confidence":1},{"trial_n":43,"span":9,"encoder":"024797690","distractor":"026797690","target":"absent","response":"absent","rt":"2322.5","correct":true,"confidence":3},{"trial_n":44,"span":10,"encoder":"2836025039","distractor":"2836025037","target":"present","response":"present","rt":"3344.6999998093","correct":true,"confidence":2},{"trial_n":45,"span":10,"encoder":"5133567254","distractor":"5143567254","target":"present","response":"present","rt":"2335.3999998569","correct":true,"confidence":4},{"trial_n":46,"span":11,"encoder":"31723096361","distractor":"31723096365","target":"present","response":"present","rt":"3016.7000000477","correct":true,"confidence":4},{"trial_n":47,"span":11,"encoder":"80476405504","distractor":"80676405504","target":"absent","response":"absent","rt":"3692.7000000477","correct":true,"confidence":1},{"trial_n":48,"span":12,"encoder":"304776917088","distractor":"305776917088","target":"absent","response":"absent","rt":"3588.3999998569","correct":true,"confidence":1},{"trial_n":49,"span":12,"encoder":"671619949150","distractor":"671613949150","target":"present","response":"absent","rt":"3235.5","correct":false,"confidence":1},{"trial_n":50,"span":11,"encoder":"19968533830","distractor":"12968533830","target":"absent","response":"absent","rt":"3704.4000000954","correct":true,"confidence":3},{"trial_n":51,"span":11,"encoder":"77772825480","distractor":"77772825485","target":"present","response":"present","rt":"4685.9000000954","correct":true,"confidence":3},{"trial_n":52,"span":12,"encoder":"962410587928","distractor":"992410587928","target":"absent","response":"absent","rt":"5776","correct":true,"confidence":4},{"trial_n":53,"span":12,"encoder":"029957652500","distractor":"029957632500","target":"present","response":"present","rt":"2610.3999998569","correct":true,"confidence":4},{"trial_n":54,"span":13,"encoder":"6422725264628","distractor":"6422725264028","target":"absent","response":"present","rt":"3343.4000000954","correct":false,"confidence":4},{"trial_n":55,"span":12,"encoder":"747192328864","distractor":"747192325864","target":"absent","response":"present","rt":"4399.2999999523","correct":false,"confidence":4},{"trial_n":56,"span":11,"encoder":"76029283496","distractor":"73029283496","target":"absent","response":"absent","rt":"2779.5","correct":true,"confidence":5},{"trial_n":57,"span":11,"encoder":"52667208893","distractor":"52667201893","target":"present","response":"present","rt":"2827.8000001907","correct":true,"confidence":4},{"trial_n":58,"span":12,"encoder":"229706594441","distractor":"229706594440","target":"present","response":"present","rt":"3462.3000001907","correct":true,"confidence":4},{"trial_n":59,"span":12,"encoder":"805481968944","distractor":"805481968940","target":"absent","response":"absent","rt":"4024.7000000477","correct":true,"confidence":3},{"trial_n":60,"span":13,"encoder":"8491588400666","distractor":"8497588400666","target":"present","response":"present","rt":"4546.2000000477","correct":true,"confidence":5},{"trial_n":61,"span":13,"encoder":"9382452925561","distractor":"9182452925561","target":"absent","response":"absent","rt":"5345.5999999046","correct":true,"confidence":2},{"trial_n":62,"span":14,"encoder":"76572411324938","distractor":"76572411364938","target":"absent","response":"present","rt":"2735.9000000954","correct":false,"confidence":4},{"trial_n":63,"span":13,"encoder":"4740994722700","distractor":"4740694722700","target":"present","response":"present","rt":"2461.1999998093","correct":true,"confidence":4},{"trial_n":64,"span":13,"encoder":"0022705108743","distractor":"0022705128743","target":"present","response":"absent","rt":"2783.2000000477","correct":false,"confidence":5},{"trial_n":65,"span":12,"encoder":"700018107924","distractor":"700018107024","target":"absent","response":"absent","rt":"3412.1000001431","correct":true,"confidence":3},{"trial_n":66,"span":12,"encoder":"081798645012","distractor":"081798045012","target":"absent","response":"present","rt":"2785","correct":false,"confidence":4},{"trial_n":67,"span":11,"encoder":"43394346481","distractor":"43374346481","target":"present","response":"present","rt":"2018","correct":true,"confidence":4},{"trial_n":68,"span":11,"encoder":"43653942193","distractor":"53653942193","target":"present","response":"present","rt":"2662.1000001431","correct":true,"confidence":2},{"trial_n":69,"span":12,"encoder":"360096490330","distractor":"360096490338","target":"absent","response":"absent","rt":"2512.2000000477","correct":true,"confidence":3},{"trial_n":70,"span":12,"encoder":"619690623604","distractor":"619690624604","target":"present","response":"present","rt":"3581.5999999046","correct":true,"confidence":4},{"trial_n":71,"span":8,"encoder":"97024924","distractor":"97924924","target":"present","response":"present","rt":"4210.0999999046","correct":true,"confidence":-1},{"trial_n":72,"span":8,"encoder":"35992655","distractor":"35592655","target":"present","response":"present","rt":"4772.0999999046","correct":true,"confidence":-1},{"trial_n":73,"span":9,"encoder":"239995004","distractor":"239995044","target":"absent","response":"present","rt":"8521.4000000954","correct":false,"confidence":-1},{"trial_n":74,"span":8,"encoder":"82404361","distractor":"82004361","target":"absent","response":"absent","rt":"3405.8000001907","correct":true,"confidence":-1},{"trial_n":75,"span":8,"encoder":"17138779","distractor":"17178779","target":"present","response":"present","rt":"3579.2000000477","correct":true,"confidence":-1},{"trial_n":76,"span":9,"encoder":"880862929","distractor":"889862929","target":"absent","response":"absent","rt":"2635.1999998093","correct":true,"confidence":-1},{"trial_n":77,"span":9,"encoder":"209274289","distractor":"209974289","target":"present","response":"present","rt":"2638.7000000477","correct":true,"confidence":-1},{"trial_n":78,"span":10,"encoder":"1245260873","distractor":"1245200873","target":"present","response":"present","rt":"3128.2000000477","correct":true,"confidence":-1},{"trial_n":79,"span":10,"encoder":"4480499378","distractor":"4480439378","target":"present","response":"absent","rt":"4720.2999999523","correct":false,"confidence":-1},{"trial_n":80,"span":9,"encoder":"076374436","distractor":"076374936","target":"absent","response":"absent","rt":"1983.3999998569","correct":true,"confidence":-1},{"trial_n":81,"span":9,"encoder":"578660126","distractor":"528660126","target":"present","response":"absent","rt":"2071.4000000954","correct":false,"confidence":-1},{"trial_n":82,"span":8,"encoder":"63702550","distractor":"63702450","target":"present","response":"present","rt":"2378.9000000954","correct":true,"confidence":-1},{"trial_n":83,"span":8,"encoder":"99954351","distractor":"99954353","target":"absent","response":"absent","rt":"3227.7000000477","correct":true,"confidence":-1},{"trial_n":84,"span":9,"encoder":"648671043","distractor":"648671143","target":"absent","response":"present","rt":"2460.2000000477","correct":false,"confidence":-1},{"trial_n":85,"span":8,"encoder":"79933972","distractor":"79931972","target":"absent","response":"absent","rt":"2237.6000001431","correct":true,"confidence":-1},{"trial_n":86,"span":8,"encoder":"11334887","distractor":"11304887","target":"present","response":"absent","rt":"3413.1000001431","correct":false,"confidence":-1},{"trial_n":87,"span":7,"encoder":"7986890","distractor":"7986899","target":"absent","response":"absent","rt":"1906.9000000954","correct":true,"confidence":-1},{"trial_n":88,"span":7,"encoder":"4476610","distractor":"4476410","target":"present","response":"present","rt":"3419.2999999523","correct":true,"confidence":-1},{"trial_n":89,"span":8,"encoder":"50833738","distractor":"50833735","target":"absent","response":"present","rt":"3872.1999998093","correct":false,"confidence":-1},{"trial_n":90,"span":7,"encoder":"1038639","distractor":"1438639","target":"present","response":"present","rt":"4098.3999998569","correct":true,"confidence":-1},{"trial_n":91,"span":7,"encoder":"4565832","distractor":"4265832","target":"absent","response":"absent","rt":"2679.0999999046","correct":true,"confidence":5},{"trial_n":92,"span":8,"encoder":"81404227","distractor":"81304227","target":"present","response":"present","rt":"1920.5","correct":true,"confidence":5},{"trial_n":93,"span":8,"encoder":"16282951","distractor":"16282651","target":"absent","response":"absent","rt":"3101.2999999523","correct":true,"confidence":5},{"trial_n":94,"span":9,"encoder":"383316803","distractor":"383319803","target":"present","response":"absent","rt":"5835","correct":false,"confidence":3},{"trial_n":95,"span":8,"encoder":"95476608","distractor":"95479608","target":"present","response":"absent","rt":"3696.5","correct":false,"confidence":2},{"trial_n":96,"span":7,"encoder":"8566036","distractor":"8566033","target":"absent","response":"absent","rt":"4269.2000000477","correct":true,"confidence":4},{"trial_n":97,"span":7,"encoder":"8314025","distractor":"8374025","target":"present","response":"present","rt":"4354.7000000477","correct":true,"confidence":4},{"trial_n":98,"span":8,"encoder":"41129022","distractor":"41129024","target":"absent","response":"absent","rt":"7738.5","correct":true,"confidence":2},{"trial_n":99,"span":8,"encoder":"36577329","distractor":"36577328","target":"present","response":"present","rt":"2197.5","correct":true,"confidence":5},{"trial_n":100,"span":9,"encoder":"810434214","distractor":"510434214","target":"absent","response":"absent","rt":"3135.6000001431","correct":true,"confidence":3},{"trial_n":101,"span":9,"encoder":"108730201","distractor":"208730201","target":"absent","response":"absent","rt":"2126.3999998569","correct":true,"confidence":4},{"trial_n":102,"span":10,"encoder":"9510331945","distractor":"9510331905","target":"present","response":"absent","rt":"3833.7999999523","correct":false,"confidence":1},{"trial_n":103,"span":9,"encoder":"649763896","distractor":"649763886","target":"present","response":"absent","rt":"8711.1999998093","correct":false,"confidence":1},{"trial_n":104,"span":8,"encoder":"39093812","distractor":"35093812","target":"present","response":"present","rt":"4336","correct":true,"confidence":1},{"trial_n":105,"span":8,"encoder":"93799024","distractor":"33799024","target":"present","response":"present","rt":"4228.9000000954","correct":true,"confidence":5},{"trial_n":106,"span":9,"encoder":"253869795","distractor":"253869395","target":"absent","response":"present","rt":"6451.7000000477","correct":false,"confidence":2},{"trial_n":107,"span":8,"encoder":"58343235","distractor":"58373235","target":"present","response":"absent","rt":"3872.5999999046","correct":false,"confidence":1},{"trial_n":108,"span":7,"encoder":"6014038","distractor":"3014038","target":"absent","response":"absent","rt":"2835.9000000954","correct":true,"confidence":5},{"trial_n":109,"span":7,"encoder":"0945708","distractor":"0945703","target":"present","response":"absent","rt":"4318.5","correct":false,"confidence":1},{"trial_n":110,"span":6,"encoder":"971016","distractor":"771016","target":"present","response":"present","rt":"2087.6000001431","correct":true,"confidence":5},{"trial_n":111,"span":6,"encoder":"996116","distractor":"993116","target":"present","response":"present","rt":"2511.3999998569","correct":true,"confidence":5},{"trial_n":112,"span":7,"encoder":"9513012","distractor":"9513019","target":"absent","response":"absent","rt":"2185.8000001907","correct":true,"confidence":5},{"trial_n":113,"span":7,"encoder":"5154374","distractor":"5154324","target":"present","response":"present","rt":"2729","correct":true,"confidence":5},{"trial_n":114,"span":8,"encoder":"26028145","distractor":"26328145","target":"present","response":"present","rt":"4251.7999999523","correct":true,"confidence":2},{"trial_n":115,"span":8,"encoder":"64096557","distractor":"04096557","target":"present","response":"present","rt":"2819.2999999523","correct":true,"confidence":4},{"trial_n":116,"span":9,"encoder":"970639921","distractor":"770639921","target":"present","response":"present","rt":"2327.2999999523","correct":true,"confidence":5},{"trial_n":117,"span":9,"encoder":"175992446","distractor":"175992746","target":"present","response":"absent","rt":"6648.5","correct":false,"confidence":1},{"trial_n":118,"span":8,"encoder":"42848379","distractor":"42848369","target":"present","response":"present","rt":"5204.7999999523","correct":true,"confidence":4},{"trial_n":119,"span":8,"encoder":"64006524","distractor":"64006024","target":"absent","response":"absent","rt":"3372.2000000477","correct":true,"confidence":3},{"trial_n":120,"span":9,"encoder":"946870921","distractor":"946870931","target":"absent","response":"absent","rt":"2334.2999999523","correct":true,"confidence":5},{"trial_n":121,"span":9,"encoder":"838770166","distractor":"138770166","target":"absent","response":"absent","rt":"2885.6000001431","correct":true,"confidence":4},{"trial_n":122,"span":10,"encoder":"8288672670","distractor":"8288672600","target":"absent","response":"absent","rt":"5296.9000000954","correct":true,"confidence":3},{"trial_n":123,"span":10,"encoder":"4349137725","distractor":"4349137720","target":"present","response":"present","rt":"5566.7999999523","correct":true,"confidence":1},{"trial_n":124,"span":11,"encoder":"93633804677","distractor":"90633804677","target":"absent","response":"absent","rt":"3476.3999998569","correct":true,"confidence":1},{"trial_n":125,"span":11,"encoder":"46213860904","distractor":"46013860904","target":"absent","response":"present","rt":"3247.5","correct":false,"confidence":1},{"trial_n":126,"span":10,"encoder":"4858036675","distractor":"4858836675","target":"present","response":"present","rt":"6253.6000001431","correct":true,"confidence":1},{"trial_n":127,"span":10,"encoder":"9460558619","distractor":"8460558619","target":"absent","response":"absent","rt":"3041.6000001431","correct":true,"confidence":5},{"trial_n":128,"span":11,"encoder":"31693268894","distractor":"31693268094","target":"absent","response":"absent","rt":"5742.3999998569","correct":true,"confidence":2},{"trial_n":129,"span":11,"encoder":"33629203951","distractor":"33629293951","target":"absent","response":"present","rt":"5762.0999999046","correct":false,"confidence":1},{"trial_n":130,"span":10,"encoder":"9500521713","distractor":"9500521718","target":"absent","response":"absent","rt":"4420.7000000477","correct":true,"confidence":2},{"trial_n":131,"span":10,"encoder":"1674147516","distractor":"1674147586","target":"absent","response":"absent","rt":"4011.5","correct":true,"confidence":3},{"trial_n":132,"span":11,"encoder":"08576394918","distractor":"78576394918","target":"absent","response":"present","rt":"3604.5","correct":false,"confidence":1},{"trial_n":133,"span":10,"encoder":"4620073777","distractor":"4620072777","target":"absent","response":"absent","rt":"40811.200000048","correct":true,"confidence":1},{"trial_n":134,"span":10,"encoder":"0235311825","distractor":"3235311825","target":"absent","response":"absent","rt":"3581.6000001431","correct":true,"confidence":3},{"trial_n":135,"span":11,"encoder":"75418769988","distractor":"75018769988","target":"present","response":"present","rt":"3722.2999999523","correct":true,"confidence":2},{"trial_n":136,"span":11,"encoder":"82721094037","distractor":"82791094037","target":"absent","response":"absent","rt":"3815","correct":true,"confidence":5},{"trial_n":137,"span":12,"encoder":"309736274427","distractor":"309736274527","target":"present","response":"present","rt":"3085.8000001907","correct":true,"confidence":4},{"trial_n":138,"span":12,"encoder":"729751190820","distractor":"729761190820","target":"present","response":"present","rt":"5259.8000001907","correct":true,"confidence":1},{"trial_n":139,"span":13,"encoder":"5306298779096","distractor":"5306798779096","target":"absent","response":"absent","rt":"3271.6000001431","correct":true,"confidence":2},{"trial_n":140,"span":13,"encoder":"4253642783487","distractor":"4253642783287","target":"present","response":"absent","rt":"6541.1000001431","correct":false,"confidence":1}]