[{"trial_n":1,"min":25,"max":230,"target":"present","response":"absent","rt":4765,"correct":false,"confidence":-1},{"trial_n":2,"min":25,"max":230,"target":"present","response":"present","rt":1139,"correct":true,"confidence":-1},{"trial_n":3,"min":25,"max":230,"target":"absent","response":"absent","rt":884,"correct":true,"confidence":-1},{"trial_n":4,"min":41,"max":214,"target":"absent","response":"absent","rt":668,"correct":true,"confidence":-1},{"trial_n":5,"min":41,"max":214,"target":"present","response":"present","rt":644,"correct":true,"confidence":-1},{"trial_n":6,"min":57,"max":198,"target":"present","response":"present","rt":712,"correct":true,"confidence":-1},{"trial_n":7,"min":57,"max":198,"target":"absent","response":"absent","rt":785,"correct":true,"confidence":-1},{"trial_n":8,"min":73,"max":182,"target":"present","response":"absent","rt":1649,"correct":false,"confidence":-1},{"trial_n":9,"min":57,"max":198,"target":"absent","response":"absent","rt":862,"correct":true,"confidence":-1},{"trial_n":10,"min":57,"max":198,"target":"present","response":"present","rt":698,"correct":true,"confidence":-1},{"trial_n":11,"min":65,"max":190,"target":"absent","response":"absent","rt":625,"correct":true,"confidence":-1},{"trial_n":12,"min":65,"max":190,"target":"present","response":"absent","rt":387,"correct":false,"confidence":-1},{"trial_n":13,"min":57,"max":198,"target":"present","response":"present","rt":845,"correct":true,"confidence":-1},{"trial_n":14,"min":57,"max":198,"target":"absent","response":"absent","rt":441,"correct":true,"confidence":-1},{"trial_n":15,"min":65,"max":190,"target":"absent","response":"absent","rt":618,"correct":true,"confidence":-1},{"trial_n":16,"min":65,"max":190,"target":"present","response":"present","rt":348,"correct":true,"confidence":-1},{"trial_n":17,"min":73,"max":182,"target":"present","response":"present","rt":609,"correct":true,"confidence":-1},{"trial_n":18,"min":73,"max":182,"target":"present","response":"present","rt":737,"correct":true,"confidence":-1},{"trial_n":19,"min":81,"max":174,"target":"present","response":"present","rt":649.00000000001,"correct":true,"confidence":-1},{"trial_n":20,"min":81,"max":174,"target":"absent","response":"absent","rt":496.00000000001,"correct":true,"confidence":-1},{"trial_n":21,"min":85,"max":170,"target":"present","response":"present","rt":568,"correct":true,"confidence":4},{"trial_n":22,"min":85,"max":170,"target":"absent","response":"absent","rt":2811,"correct":true,"confidence":4},{"trial_n":23,"min":89,"max":166,"target":"present","response":"present","rt":543,"correct":true,"confidence":5},{"trial_n":24,"min":89,"max":166,"target":"absent","response":"absent","rt":1040,"correct":true,"confidence":4},{"trial_n":25,"min":93,"max":162,"target":"absent","response":"absent","rt":786,"correct":true,"confidence":3},{"trial_n":26,"min":93,"max":162,"target":"absent","response":"absent","rt":1237,"correct":true,"confidence":3},{"trial_n":27,"min":97,"max":158,"target":"absent","response":"absent","rt":1104,"correct":true,"confidence":3},{"trial_n":28,"min":97,"max":158,"target":"present","response":"absent","rt":1061,"correct":false,"confidence":3},{"trial_n":29,"min":93,"max":162,"target":"absent","response":"present","rt":1021,"correct":false,"confidence":3},{"trial_n":30,"min":89,"max":166,"target":"absent","response":"present","rt":1104,"correct":false,"confidence":3},{"trial_n":31,"min":87,"max":168,"target":"absent","response":"present","rt":1131,"correct":false,"confidence":3},{"trial_n":32,"min":85,"max":170,"target":"present","response":"present","rt":1327,"correct":true,"confidence":3},{"trial_n":33,"min":85,"max":170,"target":"absent","response":"present","rt":1054,"correct":false,"confidence":3},{"trial_n":34,"min":83,"max":172,"target":"absent","response":"absent","rt":1021,"correct":true,"confidence":3},{"trial_n":35,"min":83,"max":172,"target":"absent","response":"absent","rt":938,"correct":true,"confidence":3},{"trial_n":36,"min":85,"max":170,"target":"absent","response":"present","rt":836,"correct":false,"confidence":3},{"trial_n":37,"min":83,"max":172,"target":"absent","response":"present","rt":988.99999999999,"correct":false,"confidence":3},{"trial_n":38,"min":81,"max":174,"target":"absent","response":"absent","rt":804.99999999999,"correct":true,"confidence":3},{"trial_n":39,"min":81,"max":174,"target":"present","response":"present","rt":885,"correct":true,"confidence":3},{"trial_n":40,"min":83,"max":172,"target":"absent","response":"absent","rt":890,"correct":true,"confidence":3},{"trial_n":41,"min":83,"max":172,"target":"absent","response":"present","rt":1271,"correct":false,"confidence":3},{"trial_n":42,"min":82,"max":173,"target":"present","response":"present","rt":997,"correct":true,"confidence":5},{"trial_n":43,"min":82,"max":173,"target":"present","response":"present","rt":1230,"correct":true,"confidence":4},{"trial_n":44,"min":83,"max":172,"target":"present","response":"present","rt":848,"correct":true,"confidence":4},{"trial_n":45,"min":83,"max":172,"target":"absent","response":"absent","rt":823,"correct":true,"confidence":3},{"trial_n":46,"min":84,"max":171,"target":"present","response":"absent","rt":1797,"correct":false,"confidence":3},{"trial_n":47,"min":83,"max":172,"target":"absent","response":"absent","rt":1140,"correct":true,"confidence":3},{"trial_n":48,"min":83,"max":172,"target":"absent","response":"present","rt":1357,"correct":false,"confidence":3},{"trial_n":49,"min":82,"max":173,"target":"present","response":"present","rt":931,"correct":true,"confidence":3},{"trial_n":50,"min":82,"max":173,"target":"present","response":"present","rt":716,"correct":true,"confidence":3},{"trial_n":51,"min":83,"max":172,"target":"absent","response":"absent","rt":1391,"correct":true,"confidence":3},{"trial_n":52,"min":83,"max":172,"target":"present","response":"present","rt":698,"correct":true,"confidence":3},{"trial_n":53,"min":84,"max":171,"target":"absent","response":"absent","rt":1008,"correct":true,"confidence":3},{"trial_n":54,"min":84,"max":171,"target":"absent","response":"absent","rt":1223,"correct":true,"confidence":3},{"trial_n":55,"min":85,"max":170,"target":"present","response":"present","rt":699.99999999997,"correct":true,"confidence":3},{"trial_n":56,"min":85,"max":170,"target":"absent","response":"absent","rt":1391,"correct":true,"confidence":3},{"trial_n":57,"min":86,"max":169,"target":"present","response":"present","rt":767,"correct":true,"confidence":3},{"trial_n":58,"min":86,"max":169,"target":"present","response":"present","rt":934,"correct":true,"confidence":4},{"trial_n":59,"min":87,"max":168,"target":"present","response":"absent","rt":866,"correct":false,"confidence":3},{"trial_n":60,"min":86,"max":169,"target":"present","response":"present","rt":834,"correct":true,"confidence":3},{"trial_n":61,"min":86,"max":169,"target":"absent","response":"absent","rt":958.99999999997,"correct":true,"confidence":3},{"trial_n":62,"min":87,"max":168,"target":"absent","response":"absent","rt":1424,"correct":true,"confidence":3},{"trial_n":63,"min":87,"max":168,"target":"present","response":"absent","rt":1567,"correct":false,"confidence":3},{"trial_n":64,"min":86,"max":169,"target":"present","response":"present","rt":602.00000000003,"correct":true,"confidence":4},{"trial_n":65,"min":86,"max":169,"target":"present","response":"present","rt":834.99999999997,"correct":true,"confidence":4},{"trial_n":66,"min":87,"max":168,"target":"absent","response":"absent","rt":1192,"correct":true,"confidence":3},{"trial_n":67,"min":87,"max":168,"target":"present","response":"present","rt":817,"correct":true,"confidence":4},{"trial_n":68,"min":88,"max":167,"target":"present","response":"present","rt":735,"correct":true,"confidence":4},{"trial_n":69,"min":88,"max":167,"target":"present","response":"absent","rt":1235,"correct":false,"confidence":3},{"trial_n":70,"min":87,"max":168,"target":"present","response":"present","rt":918,"correct":true,"confidence":4},{"trial_n":71,"min":41,"max":214,"target":"present","response":"absent","rt":6334,"correct":false,"confidence":-1},{"trial_n":72,"min":41,"max":214,"target":"present","response":"absent","rt":1663,"correct":false,"confidence":-1},{"trial_n":73,"min":25,"max":230,"target":"absent","response":"absent","rt":999,"correct":true,"confidence":-1},{"trial_n":74,"min":25,"max":230,"target":"absent","response":"absent","rt":890,"correct":true,"confidence":-1},{"trial_n":75,"min":41,"max":214,"target":"present","response":"present","rt":491,"correct":true,"confidence":-1},{"trial_n":76,"min":41,"max":214,"target":"present","response":"present","rt":729,"correct":true,"confidence":-1},{"trial_n":77,"min":57,"max":198,"target":"present","response":"present","rt":677,"correct":true,"confidence":-1},{"trial_n":78,"min":57,"max":198,"target":"absent","response":"absent","rt":446.00000000003,"correct":true,"confidence":-1},{"trial_n":79,"min":73,"max":182,"target":"absent","response":"absent","rt":615,"correct":true,"confidence":-1},{"trial_n":80,"min":73,"max":182,"target":"absent","response":"present","rt":1147,"correct":false,"confidence":-1},{"trial_n":81,"min":65,"max":190,"target":"present","response":"present","rt":438,"correct":true,"confidence":-1},{"trial_n":82,"min":65,"max":190,"target":"absent","response":"absent","rt":834.99999999997,"correct":true,"confidence":-1},{"trial_n":83,"min":73,"max":182,"target":"absent","response":"absent","rt":399,"correct":true,"confidence":-1},{"trial_n":84,"min":73,"max":182,"target":"absent","response":"present","rt":585.99999999997,"correct":false,"confidence":-1},{"trial_n":85,"min":65,"max":190,"target":"present","response":"present","rt":646,"correct":true,"confidence":-1},{"trial_n":86,"min":65,"max":190,"target":"present","response":"present","rt":598,"correct":true,"confidence":-1},{"trial_n":87,"min":73,"max":182,"target":"present","response":"present","rt":364.99999999994,"correct":true,"confidence":-1},{"trial_n":88,"min":73,"max":182,"target":"present","response":"present","rt":428.99999999997,"correct":true,"confidence":-1},{"trial_n":89,"min":81,"max":174,"target":"absent","response":"absent","rt":901.00000000003,"correct":true,"confidence":-1},{"trial_n":90,"min":81,"max":174,"target":"present","response":"present","rt":744,"correct":true,"confidence":-1},{"trial_n":91,"min":85,"max":170,"target":"absent","response":"absent","rt":923,"correct":true,"confidence":4},{"trial_n":92,"min":85,"max":170,"target":"absent","response":"absent","rt":698,"correct":true,"confidence":3},{"trial_n":93,"min":89,"max":166,"target":"absent","response":"absent","rt":741,"correct":true,"confidence":3},{"trial_n":94,"min":89,"max":166,"target":"present","response":"present","rt":827,"correct":true,"confidence":3},{"trial_n":95,"min":93,"max":162,"target":"present","response":"present","rt":357,"correct":true,"confidence":4},{"trial_n":96,"min":93,"max":162,"target":"absent","response":"absent","rt":810,"correct":true,"confidence":4},{"trial_n":97,"min":97,"max":158,"target":"present","response":"present","rt":392,"correct":true,"confidence":4},{"trial_n":98,"min":97,"max":158,"target":"present","response":"present","rt":1243.9999999999,"correct":true,"confidence":4},{"trial_n":99,"min":101,"max":154,"target":"absent","response":"present","rt":598,"correct":false,"confidence":4},{"trial_n":100,"min":97,"max":158,"target":"present","response":"present","rt":716,"correct":true,"confidence":4},{"trial_n":101,"min":97,"max":158,"target":"present","response":"present","rt":609,"correct":true,"confidence":4},{"trial_n":102,"min":99,"max":156,"target":"absent","response":"present","rt":407,"correct":false,"confidence":3},{"trial_n":103,"min":97,"max":158,"target":"absent","response":"present","rt":467,"correct":false,"confidence":3},{"trial_n":104,"min":95,"max":160,"target":"absent","response":"present","rt":715,"correct":false,"confidence":3},{"trial_n":105,"min":93,"max":162,"target":"present","response":"present","rt":647,"correct":true,"confidence":3},{"trial_n":106,"min":93,"max":162,"target":"present","response":"present","rt":421,"correct":true,"confidence":3},{"trial_n":107,"min":95,"max":160,"target":"present","response":"present","rt":546.99999999994,"correct":true,"confidence":3},{"trial_n":108,"min":95,"max":160,"target":"absent","response":"present","rt":703,"correct":false,"confidence":3},{"trial_n":109,"min":93,"max":162,"target":"absent","response":"present","rt":892,"correct":false,"confidence":3},{"trial_n":110,"min":91,"max":164,"target":"present","response":"absent","rt":1386,"correct":false,"confidence":3},{"trial_n":111,"min":90,"max":165,"target":"present","response":"present","rt":1435,"correct":true,"confidence":1},{"trial_n":112,"min":90,"max":165,"target":"absent","response":"present","rt":907,"correct":false,"confidence":3},{"trial_n":113,"min":89,"max":166,"target":"absent","response":"present","rt":968.00000000006,"correct":false,"confidence":3},{"trial_n":114,"min":88,"max":167,"target":"present","response":"absent","rt":1154,"correct":false,"confidence":3},{"trial_n":115,"min":87,"max":168,"target":"absent","response":"absent","rt":1535,"correct":true,"confidence":3},{"trial_n":116,"min":87,"max":168,"target":"absent","response":"absent","rt":894.99999999994,"correct":true,"confidence":3},{"trial_n":117,"min":88,"max":167,"target":"present","response":"present","rt":531,"correct":true,"confidence":3},{"trial_n":118,"min":88,"max":167,"target":"absent","response":"absent","rt":748.99999999994,"correct":true,"confidence":3},{"trial_n":119,"min":89,"max":166,"target":"present","response":"absent","rt":654.99999999994,"correct":false,"confidence":3},{"trial_n":120,"min":88,"max":167,"target":"present","response":"absent","rt":372,"correct":false,"confidence":3},{"trial_n":121,"min":87,"max":168,"target":"absent","response":"present","rt":621.99999999994,"correct":false,"confidence":3},{"trial_n":122,"min":86,"max":169,"target":"absent","response":"present","rt":405,"correct":false,"confidence":3},{"trial_n":123,"min":85,"max":170,"target":"present","response":"present","rt":422.00000000006,"correct":true,"confidence":3},{"trial_n":124,"min":85,"max":170,"target":"absent","response":"present","rt":476,"correct":false,"confidence":3},{"trial_n":125,"min":84,"max":171,"target":"present","response":"present","rt":386.00000000006,"correct":true,"confidence":3},{"trial_n":126,"min":84,"max":171,"target":"present","response":"present","rt":441,"correct":true,"confidence":4},{"trial_n":127,"min":85,"max":170,"target":"present","response":"present","rt":463,"correct":true,"confidence":4},{"trial_n":128,"min":85,"max":170,"target":"absent","response":"present","rt":1123.9999999999,"correct":false,"confidence":3},{"trial_n":129,"min":84,"max":171,"target":"absent","response":"absent","rt":510.00000000006,"correct":true,"confidence":4},{"trial_n":130,"min":84,"max":171,"target":"present","response":"present","rt":489,"correct":true,"confidence":5},{"trial_n":131,"min":85,"max":170,"target":"present","response":"present","rt":497,"correct":true,"confidence":4},{"trial_n":132,"min":85,"max":170,"target":"absent","response":"absent","rt":841.00000000006,"correct":true,"confidence":5},{"trial_n":133,"min":86,"max":169,"target":"present","response":"present","rt":440,"correct":true,"confidence":5},{"trial_n":134,"min":86,"max":169,"target":"present","response":"present","rt":379,"correct":true,"confidence":4},{"trial_n":135,"min":87,"max":168,"target":"absent","response":"absent","rt":1279,"correct":true,"confidence":3},{"trial_n":136,"min":87,"max":168,"target":"present","response":"present","rt":598,"correct":true,"confidence":4},{"trial_n":137,"min":88,"max":167,"target":"present","response":"present","rt":386.00000000006,"correct":true,"confidence":4},{"trial_n":138,"min":88,"max":167,"target":"absent","response":"present","rt":367,"correct":false,"confidence":4},{"trial_n":139,"min":87,"max":168,"target":"absent","response":"absent","rt":490,"correct":true,"confidence":4},{"trial_n":140,"min":87,"max":168,"target":"absent","response":"absent","rt":518.99999999994,"correct":true,"confidence":4}]