[{"trial_n":1,"span":8,"encoder":"89435097","distractor":"89465097","target":"present","response":"present","rt":"2734.0999999046","correct":true,"confidence":-1},{"trial_n":2,"span":8,"encoder":"06807261","distractor":"06207261","target":"present","response":"present","rt":"766.59999990463","correct":true,"confidence":-1},{"trial_n":3,"span":10,"encoder":"3553205045","distractor":"3533205045","target":"absent","response":"present","rt":"1376.5","correct":false,"confidence":-1},{"trial_n":4,"span":8,"encoder":"79288420","distractor":"79280420","target":"absent","response":"absent","rt":"1236.7999999523","correct":true,"confidence":-1},{"trial_n":5,"span":8,"encoder":"04790836","distractor":"01790836","target":"present","response":"present","rt":"1092","correct":true,"confidence":-1},{"trial_n":6,"span":10,"encoder":"0798881170","distractor":"0198881170","target":"present","response":"present","rt":"1253.5","correct":true,"confidence":-1},{"trial_n":7,"span":10,"encoder":"1093655429","distractor":"6093655429","target":"present","response":"present","rt":"929.40000009537","correct":true,"confidence":-1},{"trial_n":8,"span":12,"encoder":"646106292255","distractor":"646116292255","target":"present","response":"present","rt":"1178","correct":true,"confidence":-1},{"trial_n":9,"span":12,"encoder":"698826021020","distractor":"698226021020","target":"present","response":"present","rt":"917.5","correct":true,"confidence":-1},{"trial_n":10,"span":14,"encoder":"82857612366457","distractor":"82857612306457","target":"present","response":"present","rt":"1155.3999998569","correct":true,"confidence":-1},{"trial_n":11,"span":14,"encoder":"64425359357006","distractor":"54425359357006","target":"absent","response":"present","rt":"1318","correct":false,"confidence":-1},{"trial_n":12,"span":13,"encoder":"3941763508983","distractor":"3941263508983","target":"present","response":"present","rt":"1073.4000000954","correct":true,"confidence":-1},{"trial_n":13,"span":13,"encoder":"4252948758752","distractor":"4252948158752","target":"absent","response":"present","rt":"838.79999995232","correct":false,"confidence":-1},{"trial_n":14,"span":12,"encoder":"336579953447","distractor":"396579953447","target":"present","response":"present","rt":"1995.2000000477","correct":true,"confidence":-1},{"trial_n":15,"span":12,"encoder":"034657562256","distractor":"034657564256","target":"present","response":"present","rt":"1153","correct":true,"confidence":-1},{"trial_n":16,"span":13,"encoder":"8533833846510","distractor":"8513833846510","target":"present","response":"present","rt":"1782","correct":true,"confidence":-1},{"trial_n":17,"span":13,"encoder":"7417231313129","distractor":"7417231318129","target":"present","response":"present","rt":"1722.2999999523","correct":true,"confidence":-1},{"trial_n":18,"span":14,"encoder":"85514426547033","distractor":"85514826547033","target":"present","response":"present","rt":"2216.0999999046","correct":true,"confidence":-1},{"trial_n":19,"span":14,"encoder":"00489839440894","distractor":"00483839440894","target":"present","response":"present","rt":"1693.5999999046","correct":true,"confidence":-1},{"trial_n":20,"span":15,"encoder":"147778007648283","distractor":"147778007698283","target":"present","response":"present","rt":"1084.7000000477","correct":true,"confidence":-1},{"trial_n":21,"span":15,"encoder":"706257059981913","distractor":"706257099981913","target":"absent","response":"present","rt":"2350.5","correct":false,"confidence":4},{"trial_n":22,"span":14,"encoder":"85359050491338","distractor":"85359050497338","target":"absent","response":"absent","rt":"1962.0999999046","correct":true,"confidence":5},{"trial_n":23,"span":14,"encoder":"56256622857624","distractor":"56256622857629","target":"absent","response":"present","rt":"3112.8999998569","correct":false,"confidence":4},{"trial_n":24,"span":13,"encoder":"8578176988214","distractor":"8578176988212","target":"absent","response":"present","rt":"1937.7999999523","correct":false,"confidence":5},{"trial_n":25,"span":12,"encoder":"577278385000","distractor":"577278385080","target":"present","response":"present","rt":"1899.2000000477","correct":true,"confidence":4},{"trial_n":26,"span":12,"encoder":"002261087652","distractor":"002261087659","target":"present","response":"present","rt":"1654.5999999046","correct":true,"confidence":4},{"trial_n":27,"span":13,"encoder":"8955374021836","distractor":"8955373021836","target":"absent","response":"absent","rt":"2007.6999998093","correct":true,"confidence":5},{"trial_n":28,"span":13,"encoder":"7553591206001","distractor":"7553591406001","target":"present","response":"present","rt":"1159.9000000954","correct":true,"confidence":4},{"trial_n":29,"span":14,"encoder":"99036209373798","distractor":"99636209373798","target":"present","response":"present","rt":"2705.2000000477","correct":true,"confidence":3},{"trial_n":30,"span":14,"encoder":"54536664213322","distractor":"54536664273322","target":"present","response":"present","rt":"2265.7999999523","correct":true,"confidence":4},{"trial_n":31,"span":15,"encoder":"600590727920122","distractor":"600590727920142","target":"absent","response":"present","rt":"2834.7000000477","correct":false,"confidence":4},{"trial_n":32,"span":14,"encoder":"88067857245115","distractor":"88067857245114","target":"present","response":"present","rt":"1379.7999999523","correct":true,"confidence":4},{"trial_n":33,"span":14,"encoder":"45979300310490","distractor":"45979300310390","target":"present","response":"present","rt":"1178.7999999523","correct":true,"confidence":4},{"trial_n":34,"span":15,"encoder":"297246784220747","distractor":"297246684220747","target":"absent","response":"absent","rt":"2030.8999998569","correct":true,"confidence":5},{"trial_n":35,"span":15,"encoder":"890140330065978","distractor":"890140230065978","target":"absent","response":"present","rt":"1996.5","correct":false,"confidence":4},{"trial_n":36,"span":14,"encoder":"58506087589055","distractor":"58506087581055","target":"present","response":"present","rt":"1280.0999999046","correct":true,"confidence":3},{"trial_n":37,"span":14,"encoder":"84120233764914","distractor":"84120333764914","target":"absent","response":"present","rt":"2048.9000000954","correct":false,"confidence":4},{"trial_n":38,"span":13,"encoder":"9427927044859","distractor":"9429927044859","target":"absent","response":"present","rt":"1316","correct":false,"confidence":4},{"trial_n":39,"span":12,"encoder":"976849344840","distractor":"966849344840","target":"absent","response":"present","rt":"1587.8999998569","correct":false,"confidence":4},{"trial_n":40,"span":11,"encoder":"37929491847","distractor":"37929498847","target":"absent","response":"absent","rt":"2929.5","correct":true,"confidence":4},{"trial_n":41,"span":11,"encoder":"45414858432","distractor":"45414808432","target":"present","response":"present","rt":"2554.1000001431","correct":true,"confidence":3},{"trial_n":42,"span":12,"encoder":"839931019815","distractor":"439931019815","target":"present","response":"present","rt":"2379.5","correct":true,"confidence":4},{"trial_n":43,"span":12,"encoder":"205815581975","distractor":"235815581975","target":"absent","response":"present","rt":"2726.5999999046","correct":false,"confidence":4},{"trial_n":44,"span":11,"encoder":"26062642375","distractor":"26062612375","target":"absent","response":"absent","rt":"1751","correct":true,"confidence":5},{"trial_n":45,"span":11,"encoder":"03398398973","distractor":"03398798973","target":"absent","response":"present","rt":"1115.2999999523","correct":false,"confidence":4},{"trial_n":46,"span":10,"encoder":"4659494070","distractor":"4659499070","target":"absent","response":"present","rt":"1260.4000000954","correct":false,"confidence":3},{"trial_n":47,"span":9,"encoder":"417503819","distractor":"417503719","target":"absent","response":"absent","rt":"3711.2999999523","correct":true,"confidence":3},{"trial_n":48,"span":9,"encoder":"270124515","distractor":"270124615","target":"present","response":"present","rt":"1337.2000000477","correct":true,"confidence":4},{"trial_n":49,"span":10,"encoder":"6924052924","distractor":"6924052984","target":"absent","response":"present","rt":"2197.5999999046","correct":false,"confidence":4},{"trial_n":50,"span":9,"encoder":"091921932","distractor":"071921932","target":"absent","response":"present","rt":"1231.2000000477","correct":false,"confidence":4},{"trial_n":51,"span":8,"encoder":"64854370","distractor":"64814370","target":"absent","response":"absent","rt":"3837.0999999046","correct":true,"confidence":3},{"trial_n":52,"span":8,"encoder":"88589055","distractor":"88519055","target":"present","response":"present","rt":"1291.3999998569","correct":true,"confidence":4},{"trial_n":53,"span":9,"encoder":"230631105","distractor":"230631100","target":"present","response":"present","rt":"2481.4000000954","correct":true,"confidence":4},{"trial_n":54,"span":9,"encoder":"934352643","distractor":"934353643","target":"present","response":"present","rt":"6335.3999998569","correct":true,"confidence":4},{"trial_n":55,"span":10,"encoder":"9622332636","distractor":"9622302636","target":"absent","response":"present","rt":"1209.2000000477","correct":false,"confidence":4},{"trial_n":56,"span":9,"encoder":"958755019","distractor":"958755079","target":"present","response":"present","rt":"1162","correct":true,"confidence":4},{"trial_n":57,"span":9,"encoder":"349221170","distractor":"329221170","target":"absent","response":"absent","rt":"2338.5999999046","correct":true,"confidence":4},{"trial_n":58,"span":10,"encoder":"9538118235","distractor":"9535118235","target":"absent","response":"present","rt":"1250.5999999046","correct":false,"confidence":3},{"trial_n":59,"span":9,"encoder":"112663220","distractor":"112662220","target":"absent","response":"absent","rt":"1440.2999999523","correct":true,"confidence":5},{"trial_n":60,"span":9,"encoder":"269203814","distractor":"969203814","target":"absent","response":"present","rt":"2217.2000000477","correct":false,"confidence":5},{"trial_n":61,"span":8,"encoder":"11394713","distractor":"11394783","target":"absent","response":"present","rt":"1364.2000000477","correct":false,"confidence":4},{"trial_n":62,"span":7,"encoder":"1174340","distractor":"1144340","target":"absent","response":"present","rt":"1237.3999998569","correct":false,"confidence":4},{"trial_n":63,"span":6,"encoder":"532278","distractor":"592278","target":"absent","response":"present","rt":"1111.2000000477","correct":false,"confidence":3},{"trial_n":64,"span":5,"encoder":"05024","distractor":"05027","target":"present","response":"present","rt":"1163.4000000954","correct":true,"confidence":3},{"trial_n":65,"span":5,"encoder":"05028","distractor":"05018","target":"present","response":"present","rt":"1068.7999999523","correct":true,"confidence":5},{"trial_n":66,"span":6,"encoder":"336272","distractor":"336472","target":"present","response":"present","rt":"1179.5","correct":true,"confidence":5},{"trial_n":67,"span":6,"encoder":"371259","distractor":"301259","target":"absent","response":"absent","rt":"1292.2000000477","correct":true,"confidence":5},{"trial_n":68,"span":7,"encoder":"3926686","distractor":"3924686","target":"present","response":"absent","rt":"3181.9000000954","correct":false,"confidence":3},{"trial_n":69,"span":6,"encoder":"442167","distractor":"442169","target":"absent","response":"absent","rt":"1840.9000000954","correct":true,"confidence":4},{"trial_n":70,"span":6,"encoder":"676539","distractor":"676569","target":"present","response":"present","rt":"3333.2000000477","correct":true,"confidence":5},{"trial_n":71,"span":8,"encoder":"54416602","distractor":"54456602","target":"present","response":"absent","rt":"3566.6000001431","correct":false,"confidence":-1},{"trial_n":72,"span":7,"encoder":"7429850","distractor":"7429830","target":"present","response":"present","rt":"1463","correct":true,"confidence":-1},{"trial_n":73,"span":7,"encoder":"7934891","distractor":"7734891","target":"absent","response":"absent","rt":"3016.5","correct":true,"confidence":-1},{"trial_n":74,"span":8,"encoder":"41237466","distractor":"41237486","target":"absent","response":"absent","rt":"2878.7999999523","correct":true,"confidence":-1},{"trial_n":75,"span":8,"encoder":"69280476","distractor":"69284476","target":"present","response":"absent","rt":"1241.2000000477","correct":false,"confidence":-1},{"trial_n":76,"span":7,"encoder":"1520868","distractor":"1520848","target":"present","response":"present","rt":"978.20000004768","correct":true,"confidence":-1},{"trial_n":77,"span":7,"encoder":"0004688","distractor":"0004678","target":"absent","response":"absent","rt":"2853.6000001431","correct":true,"confidence":-1},{"trial_n":78,"span":8,"encoder":"87429108","distractor":"87479108","target":"absent","response":"present","rt":"1337.7999999523","correct":false,"confidence":-1},{"trial_n":79,"span":7,"encoder":"0177291","distractor":"0177281","target":"absent","response":"absent","rt":"758.5","correct":true,"confidence":-1},{"trial_n":80,"span":7,"encoder":"0273422","distractor":"0273429","target":"present","response":"present","rt":"1239.2000000477","correct":true,"confidence":-1},{"trial_n":81,"span":8,"encoder":"24464605","distractor":"24454605","target":"absent","response":"present","rt":"962.60000014305","correct":false,"confidence":-1},{"trial_n":82,"span":7,"encoder":"4882809","distractor":"4882709","target":"absent","response":"absent","rt":"2482.2999999523","correct":true,"confidence":-1},{"trial_n":83,"span":7,"encoder":"9783606","distractor":"9785606","target":"absent","response":"absent","rt":"6901.4000000954","correct":true,"confidence":-1},{"trial_n":84,"span":8,"encoder":"80041971","distractor":"80041941","target":"present","response":"absent","rt":"2873.6000001431","correct":false,"confidence":-1},{"trial_n":85,"span":7,"encoder":"2969096","distractor":"9969096","target":"absent","response":"present","rt":"1179.1999998093","correct":false,"confidence":-1},{"trial_n":86,"span":6,"encoder":"026759","distractor":"026159","target":"absent","response":"absent","rt":"1019.8999998569","correct":true,"confidence":-1},{"trial_n":87,"span":6,"encoder":"272712","distractor":"272412","target":"present","response":"absent","rt":"1120.3000001907","correct":false,"confidence":-1},{"trial_n":88,"span":5,"encoder":"12788","distractor":"12188","target":"present","response":"present","rt":"694.20000004768","correct":true,"confidence":-1},{"trial_n":89,"span":5,"encoder":"11168","distractor":"11368","target":"absent","response":"present","rt":"847.89999985695","correct":false,"confidence":-1},{"trial_n":90,"span":4,"encoder":"4570","distractor":"4520","target":"absent","response":"present","rt":"1144.5","correct":false,"confidence":-1},{"trial_n":91,"span":3,"encoder":"114","distractor":"614","target":"present","response":"present","rt":"798.79999995232","correct":true,"confidence":3},{"trial_n":92,"span":3,"encoder":"269","distractor":"569","target":"absent","response":"absent","rt":"1667.5","correct":true,"confidence":3},{"trial_n":93,"span":4,"encoder":"6619","distractor":"6629","target":"absent","response":"absent","rt":"1099.8999998569","correct":true,"confidence":5},{"trial_n":94,"span":4,"encoder":"5478","distractor":"7478","target":"present","response":"present","rt":"1324.8000001907","correct":true,"confidence":5},{"trial_n":95,"span":5,"encoder":"63049","distractor":"63040","target":"present","response":"present","rt":"1137.8999998569","correct":true,"confidence":5},{"trial_n":96,"span":5,"encoder":"03550","distractor":"33550","target":"absent","response":"absent","rt":"1096.2000000477","correct":true,"confidence":5},{"trial_n":97,"span":6,"encoder":"567429","distractor":"597429","target":"absent","response":"absent","rt":"1930.2000000477","correct":true,"confidence":5},{"trial_n":98,"span":6,"encoder":"478201","distractor":"473201","target":"absent","response":"present","rt":"1823.7999999523","correct":false,"confidence":3},{"trial_n":99,"span":5,"encoder":"82112","distractor":"82212","target":"present","response":"present","rt":"1275.7000000477","correct":true,"confidence":5},{"trial_n":100,"span":5,"encoder":"77249","distractor":"77349","target":"absent","response":"absent","rt":"1354","correct":true,"confidence":5},{"trial_n":101,"span":6,"encoder":"365449","distractor":"365445","target":"present","response":"present","rt":"1578.2000000477","correct":true,"confidence":5},{"trial_n":102,"span":6,"encoder":"050174","distractor":"050974","target":"present","response":"present","rt":"1800.0999999046","correct":true,"confidence":5},{"trial_n":103,"span":7,"encoder":"1699715","distractor":"1699714","target":"absent","response":"present","rt":"1590","correct":false,"confidence":5},{"trial_n":104,"span":6,"encoder":"007117","distractor":"009117","target":"present","response":"present","rt":"1602.4000000954","correct":true,"confidence":5},{"trial_n":105,"span":6,"encoder":"048154","distractor":"048144","target":"present","response":"present","rt":"1654.8999998569","correct":true,"confidence":5},{"trial_n":106,"span":7,"encoder":"9996420","distractor":"3996420","target":"present","response":"absent","rt":"2408.2999999523","correct":false,"confidence":3},{"trial_n":107,"span":6,"encoder":"634125","distractor":"634325","target":"absent","response":"absent","rt":"1348.4000000954","correct":true,"confidence":5},{"trial_n":108,"span":6,"encoder":"012940","distractor":"012340","target":"absent","response":"absent","rt":"1581.7000000477","correct":true,"confidence":5},{"trial_n":109,"span":7,"encoder":"8346754","distractor":"8386754","target":"present","response":"absent","rt":"4443","correct":false,"confidence":5},{"trial_n":110,"span":6,"encoder":"766787","distractor":"766781","target":"present","response":"present","rt":"1717.1000001431","correct":true,"confidence":5},{"trial_n":111,"span":6,"encoder":"353582","distractor":"453582","target":"present","response":"present","rt":"1542.5","correct":true,"confidence":5},{"trial_n":112,"span":7,"encoder":"2615746","distractor":"2815746","target":"present","response":"present","rt":"2960.3000001907","correct":true,"confidence":2},{"trial_n":113,"span":7,"encoder":"2625739","distractor":"2625749","target":"absent","response":"absent","rt":"1295.8000001907","correct":true,"confidence":5},{"trial_n":114,"span":8,"encoder":"95342576","distractor":"95642576","target":"present","response":"present","rt":"2500.5","correct":true,"confidence":4},{"trial_n":115,"span":8,"encoder":"65254056","distractor":"65254053","target":"present","response":"present","rt":"1409","correct":true,"confidence":5},{"trial_n":116,"span":9,"encoder":"004621015","distractor":"004621018","target":"absent","response":"absent","rt":"4228659.8","correct":true,"confidence":3},{"trial_n":117,"span":9,"encoder":"283553602","distractor":"283253602","target":"present","response":"present","rt":"1781.7000000477","correct":true,"confidence":5},{"trial_n":118,"span":10,"encoder":"7218090510","distractor":"7268090510","target":"absent","response":"absent","rt":"27986.599999905","correct":true,"confidence":4},{"trial_n":119,"span":10,"encoder":"1195435267","distractor":"9195435267","target":"absent","response":"present","rt":"1814.1999998093","correct":false,"confidence":4},{"trial_n":120,"span":9,"encoder":"438154594","distractor":"438154584","target":"present","response":"absent","rt":"2288.3999998569","correct":false,"confidence":2},{"trial_n":121,"span":8,"encoder":"07011647","distractor":"02011647","target":"present","response":"present","rt":"1453.9000000954","correct":true,"confidence":5},{"trial_n":122,"span":8,"encoder":"01380415","distractor":"01384415","target":"absent","response":"present","rt":"442.59999990463","correct":false,"confidence":3},{"trial_n":123,"span":7,"encoder":"1386037","distractor":"1386067","target":"absent","response":"absent","rt":"537.10000014305","correct":true,"confidence":4},{"trial_n":124,"span":7,"encoder":"1807968","distractor":"1817968","target":"absent","response":"present","rt":"997.70000004768","correct":false,"confidence":2},{"trial_n":125,"span":6,"encoder":"080068","distractor":"080008","target":"present","response":"absent","rt":"1445","correct":false,"confidence":3},{"trial_n":126,"span":5,"encoder":"00748","distractor":"07748","target":"present","response":"present","rt":"1511","correct":true,"confidence":5},{"trial_n":127,"span":5,"encoder":"53840","distractor":"53640","target":"present","response":"present","rt":"1804.6000001431","correct":true,"confidence":5},{"trial_n":128,"span":6,"encoder":"165744","distractor":"195744","target":"present","response":"present","rt":"3526.0999999046","correct":true,"confidence":3},{"trial_n":129,"span":6,"encoder":"968678","distractor":"968688","target":"absent","response":"absent","rt":"725.70000004768","correct":true,"confidence":4},{"trial_n":130,"span":7,"encoder":"4457414","distractor":"4557414","target":"present","response":"present","rt":"2334.6999998093","correct":true,"confidence":2},{"trial_n":131,"span":7,"encoder":"1945412","distractor":"1945415","target":"present","response":"present","rt":"1757.0999999046","correct":true,"confidence":5},{"trial_n":132,"span":8,"encoder":"44229692","distractor":"44259692","target":"present","response":"present","rt":"1631.5","correct":true,"confidence":2},{"trial_n":133,"span":8,"encoder":"01639225","distractor":"01939225","target":"present","response":"absent","rt":"4536.0999999046","correct":false,"confidence":4},{"trial_n":134,"span":7,"encoder":"2251809","distractor":"2251807","target":"absent","response":"absent","rt":"1815.4000000954","correct":true,"confidence":5},{"trial_n":135,"span":7,"encoder":"1983609","distractor":"1983809","target":"present","response":"present","rt":"1670.3999998569","correct":true,"confidence":5},{"trial_n":136,"span":8,"encoder":"36368350","distractor":"36378350","target":"absent","response":"present","rt":"1963.4000000954","correct":false,"confidence":3},{"trial_n":137,"span":7,"encoder":"1405554","distractor":"1405854","target":"absent","response":"absent","rt":"1449.0999999046","correct":true,"confidence":5},{"trial_n":138,"span":7,"encoder":"9441603","distractor":"9446603","target":"absent","response":"absent","rt":"1438.6000001431","correct":true,"confidence":5},{"trial_n":139,"span":8,"encoder":"82833928","distractor":"82830928","target":"absent","response":"absent","rt":"797.5","correct":true,"confidence":3},{"trial_n":140,"span":8,"encoder":"67141109","distractor":"67143109","target":"present","response":"present","rt":"649.70000004768","correct":true,"confidence":3}]