[{"trial_n":1,"min":25,"max":230,"target":"present","response":"present","rt":4691.8999999762,"correct":true,"confidence":-1},{"trial_n":2,"min":25,"max":230,"target":"present","response":"present","rt":970.10000002384,"correct":true,"confidence":-1},{"trial_n":3,"min":41,"max":214,"target":"absent","response":"absent","rt":941.90000009537,"correct":true,"confidence":-1},{"trial_n":4,"min":41,"max":214,"target":"absent","response":"absent","rt":411.39999997616,"correct":true,"confidence":-1},{"trial_n":5,"min":57,"max":198,"target":"present","response":"present","rt":430.70000004768,"correct":true,"confidence":-1},{"trial_n":6,"min":57,"max":198,"target":"absent","response":"present","rt":756.79999995232,"correct":false,"confidence":-1},{"trial_n":7,"min":41,"max":214,"target":"absent","response":"absent","rt":589,"correct":true,"confidence":-1},{"trial_n":8,"min":41,"max":214,"target":"absent","response":"absent","rt":413.29999995232,"correct":true,"confidence":-1},{"trial_n":9,"min":57,"max":198,"target":"absent","response":"absent","rt":421.10000002384,"correct":true,"confidence":-1},{"trial_n":10,"min":57,"max":198,"target":"absent","response":"absent","rt":238.60000002384,"correct":true,"confidence":-1},{"trial_n":11,"min":65,"max":190,"target":"absent","response":"absent","rt":259.5,"correct":true,"confidence":-1},{"trial_n":12,"min":65,"max":190,"target":"present","response":"absent","rt":176.79999995232,"correct":false,"confidence":-1},{"trial_n":13,"min":57,"max":198,"target":"present","response":"present","rt":424.09999990463,"correct":true,"confidence":-1},{"trial_n":14,"min":57,"max":198,"target":"absent","response":"absent","rt":416.79999995232,"correct":true,"confidence":-1},{"trial_n":15,"min":65,"max":190,"target":"absent","response":"absent","rt":397.60000002384,"correct":true,"confidence":-1},{"trial_n":16,"min":65,"max":190,"target":"present","response":"present","rt":479.10000002384,"correct":true,"confidence":-1},{"trial_n":17,"min":73,"max":182,"target":"present","response":"present","rt":934.29999995232,"correct":true,"confidence":-1},{"trial_n":18,"min":73,"max":182,"target":"absent","response":"absent","rt":417.60000002384,"correct":true,"confidence":-1},{"trial_n":19,"min":81,"max":174,"target":"absent","response":"absent","rt":384.60000002384,"correct":true,"confidence":-1},{"trial_n":20,"min":81,"max":174,"target":"absent","response":"absent","rt":414.30000007153,"correct":true,"confidence":-1},{"trial_n":21,"min":85,"max":170,"target":"present","response":"present","rt":403.20000004768,"correct":true,"confidence":3},{"trial_n":22,"min":85,"max":170,"target":"present","response":"present","rt":799,"correct":true,"confidence":3},{"trial_n":23,"min":89,"max":166,"target":"absent","response":"absent","rt":1211.0999999046,"correct":true,"confidence":3},{"trial_n":24,"min":89,"max":166,"target":"absent","response":"present","rt":3267.5999999046,"correct":false,"confidence":2},{"trial_n":25,"min":85,"max":170,"target":"absent","response":"present","rt":2006.1000000238,"correct":false,"confidence":4},{"trial_n":26,"min":81,"max":174,"target":"absent","response":"present","rt":1115,"correct":false,"confidence":2},{"trial_n":27,"min":77,"max":178,"target":"absent","response":"absent","rt":955.70000004768,"correct":true,"confidence":5},{"trial_n":28,"min":77,"max":178,"target":"present","response":"absent","rt":3971,"correct":false,"confidence":2},{"trial_n":29,"min":73,"max":182,"target":"present","response":"present","rt":1521.7999999523,"correct":true,"confidence":5},{"trial_n":30,"min":73,"max":182,"target":"present","response":"present","rt":844.79999995232,"correct":true,"confidence":5},{"trial_n":31,"min":75,"max":180,"target":"absent","response":"present","rt":1407.2999999523,"correct":false,"confidence":3},{"trial_n":32,"min":73,"max":182,"target":"present","response":"present","rt":888,"correct":true,"confidence":3},{"trial_n":33,"min":73,"max":182,"target":"absent","response":"absent","rt":708.70000004768,"correct":true,"confidence":4},{"trial_n":34,"min":75,"max":180,"target":"present","response":"present","rt":1192.9000000954,"correct":true,"confidence":4},{"trial_n":35,"min":75,"max":180,"target":"present","response":"absent","rt":1194.9000000954,"correct":false,"confidence":2},{"trial_n":36,"min":73,"max":182,"target":"absent","response":"absent","rt":1142.2000000477,"correct":true,"confidence":2},{"trial_n":37,"min":73,"max":182,"target":"present","response":"present","rt":1140.1000000238,"correct":true,"confidence":5},{"trial_n":38,"min":75,"max":180,"target":"present","response":"present","rt":1024,"correct":true,"confidence":5},{"trial_n":39,"min":75,"max":180,"target":"present","response":"present","rt":1099.1999999285,"correct":true,"confidence":5},{"trial_n":40,"min":77,"max":178,"target":"absent","response":"absent","rt":2679,"correct":true,"confidence":2},{"trial_n":41,"min":77,"max":178,"target":"absent","response":"absent","rt":1552.3999999762,"correct":true,"confidence":2},{"trial_n":42,"min":78,"max":177,"target":"present","response":"present","rt":681.10000002384,"correct":true,"confidence":4},{"trial_n":43,"min":78,"max":177,"target":"absent","response":"present","rt":700.19999992847,"correct":false,"confidence":5},{"trial_n":44,"min":77,"max":178,"target":"present","response":"present","rt":746.80000007153,"correct":true,"confidence":5},{"trial_n":45,"min":77,"max":178,"target":"present","response":"present","rt":1338.2999999523,"correct":true,"confidence":3},{"trial_n":46,"min":78,"max":177,"target":"absent","response":"present","rt":1157.4000000954,"correct":false,"confidence":3},{"trial_n":47,"min":77,"max":178,"target":"absent","response":"absent","rt":572.89999997616,"correct":true,"confidence":4},{"trial_n":48,"min":77,"max":178,"target":"present","response":"absent","rt":2441,"correct":false,"confidence":2},{"trial_n":49,"min":76,"max":179,"target":"present","response":"present","rt":487.39999997616,"correct":true,"confidence":5},{"trial_n":50,"min":76,"max":179,"target":"absent","response":"present","rt":930.80000007153,"correct":false,"confidence":5},{"trial_n":51,"min":75,"max":180,"target":"absent","response":"absent","rt":517.60000002384,"correct":true,"confidence":2},{"trial_n":52,"min":75,"max":180,"target":"absent","response":"absent","rt":1321.1000000238,"correct":true,"confidence":4},{"trial_n":53,"min":76,"max":179,"target":"present","response":"present","rt":1765.3000000715,"correct":true,"confidence":4},{"trial_n":54,"min":76,"max":179,"target":"present","response":"absent","rt":1735,"correct":false,"confidence":2},{"trial_n":55,"min":75,"max":180,"target":"present","response":"present","rt":826.19999992847,"correct":true,"confidence":4},{"trial_n":56,"min":75,"max":180,"target":"present","response":"present","rt":1942.2000000477,"correct":true,"confidence":3},{"trial_n":57,"min":76,"max":179,"target":"absent","response":"absent","rt":830.70000004768,"correct":true,"confidence":4},{"trial_n":58,"min":76,"max":179,"target":"absent","response":"absent","rt":2085.4000000954,"correct":true,"confidence":4},{"trial_n":59,"min":77,"max":178,"target":"present","response":"present","rt":828.19999992847,"correct":true,"confidence":4},{"trial_n":60,"min":77,"max":178,"target":"present","response":"present","rt":811,"correct":true,"confidence":5},{"trial_n":61,"min":78,"max":177,"target":"absent","response":"absent","rt":657.70000004768,"correct":true,"confidence":5},{"trial_n":62,"min":78,"max":177,"target":"present","response":"absent","rt":2336.3999999762,"correct":false,"confidence":3},{"trial_n":63,"min":77,"max":178,"target":"present","response":"present","rt":947.79999995232,"correct":true,"confidence":4},{"trial_n":64,"min":77,"max":178,"target":"present","response":"absent","rt":1453.7999999523,"correct":false,"confidence":3},{"trial_n":65,"min":76,"max":179,"target":"absent","response":"absent","rt":1266.2999999523,"correct":true,"confidence":5},{"trial_n":66,"min":76,"max":179,"target":"present","response":"present","rt":686.79999995232,"correct":true,"confidence":5},{"trial_n":67,"min":77,"max":178,"target":"present","response":"present","rt":723.39999997616,"correct":true,"confidence":5},{"trial_n":68,"min":77,"max":178,"target":"present","response":"present","rt":893.30000007153,"correct":true,"confidence":5},{"trial_n":69,"min":78,"max":177,"target":"present","response":"present","rt":824,"correct":true,"confidence":5},{"trial_n":70,"min":78,"max":177,"target":"absent","response":"absent","rt":1128.6000000238,"correct":true,"confidence":4},{"trial_n":71,"min":41,"max":214,"target":"present","response":"present","rt":4733.8000000715,"correct":true,"confidence":-1},{"trial_n":72,"min":41,"max":214,"target":"present","response":"present","rt":1115.3999999762,"correct":true,"confidence":-1},{"trial_n":73,"min":57,"max":198,"target":"absent","response":"absent","rt":610,"correct":true,"confidence":-1},{"trial_n":74,"min":57,"max":198,"target":"absent","response":"present","rt":542.89999997616,"correct":false,"confidence":-1},{"trial_n":75,"min":41,"max":214,"target":"present","response":"present","rt":391.89999997616,"correct":true,"confidence":-1},{"trial_n":76,"min":41,"max":214,"target":"absent","response":"absent","rt":871.70000004768,"correct":true,"confidence":-1},{"trial_n":77,"min":57,"max":198,"target":"absent","response":"absent","rt":496.19999992847,"correct":true,"confidence":-1},{"trial_n":78,"min":57,"max":198,"target":"present","response":"present","rt":404,"correct":true,"confidence":-1},{"trial_n":79,"min":73,"max":182,"target":"absent","response":"present","rt":528.89999997616,"correct":false,"confidence":-1},{"trial_n":80,"min":57,"max":198,"target":"present","response":"present","rt":536.79999995232,"correct":true,"confidence":-1},{"trial_n":81,"min":57,"max":198,"target":"absent","response":"absent","rt":612.70000004768,"correct":true,"confidence":-1},{"trial_n":82,"min":65,"max":190,"target":"absent","response":"absent","rt":670.89999997616,"correct":true,"confidence":-1},{"trial_n":83,"min":65,"max":190,"target":"present","response":"present","rt":361.5,"correct":true,"confidence":-1},{"trial_n":84,"min":73,"max":182,"target":"absent","response":"present","rt":473.30000007153,"correct":false,"confidence":-1},{"trial_n":85,"min":65,"max":190,"target":"present","response":"present","rt":482,"correct":true,"confidence":-1},{"trial_n":86,"min":65,"max":190,"target":"absent","response":"absent","rt":514.60000002384,"correct":true,"confidence":-1},{"trial_n":87,"min":73,"max":182,"target":"absent","response":"absent","rt":492.10000002384,"correct":true,"confidence":-1},{"trial_n":88,"min":73,"max":182,"target":"present","response":"present","rt":414.80000007153,"correct":true,"confidence":-1},{"trial_n":89,"min":81,"max":174,"target":"present","response":"present","rt":2248.6000000238,"correct":true,"confidence":-1},{"trial_n":90,"min":81,"max":174,"target":"present","response":"present","rt":683.60000002384,"correct":true,"confidence":-1},{"trial_n":91,"min":85,"max":170,"target":"absent","response":"present","rt":1131.8999999762,"correct":false,"confidence":3},{"trial_n":92,"min":81,"max":174,"target":"present","response":"present","rt":464.39999997616,"correct":true,"confidence":3},{"trial_n":93,"min":81,"max":174,"target":"absent","response":"absent","rt":1204.3999999762,"correct":true,"confidence":4},{"trial_n":94,"min":85,"max":170,"target":"absent","response":"present","rt":602.39999997616,"correct":false,"confidence":4},{"trial_n":95,"min":81,"max":174,"target":"present","response":"present","rt":2228,"correct":true,"confidence":3},{"trial_n":96,"min":81,"max":174,"target":"absent","response":"absent","rt":1542.5,"correct":true,"confidence":1},{"trial_n":97,"min":85,"max":170,"target":"present","response":"present","rt":671.09999990463,"correct":true,"confidence":4},{"trial_n":98,"min":85,"max":170,"target":"present","response":"present","rt":681,"correct":true,"confidence":5},{"trial_n":99,"min":89,"max":166,"target":"present","response":"present","rt":579.79999995232,"correct":true,"confidence":4},{"trial_n":100,"min":89,"max":166,"target":"absent","response":"absent","rt":825,"correct":true,"confidence":3},{"trial_n":101,"min":91,"max":164,"target":"present","response":"present","rt":701.09999990463,"correct":true,"confidence":3},{"trial_n":102,"min":91,"max":164,"target":"absent","response":"absent","rt":831,"correct":true,"confidence":4},{"trial_n":103,"min":93,"max":162,"target":"absent","response":"present","rt":1029.5999999046,"correct":false,"confidence":1},{"trial_n":104,"min":91,"max":164,"target":"present","response":"present","rt":1103.6000000238,"correct":true,"confidence":5},{"trial_n":105,"min":91,"max":164,"target":"absent","response":"present","rt":1018.0999999046,"correct":false,"confidence":3},{"trial_n":106,"min":89,"max":166,"target":"present","response":"present","rt":697.70000004768,"correct":true,"confidence":5},{"trial_n":107,"min":89,"max":166,"target":"present","response":"present","rt":579.19999992847,"correct":true,"confidence":5},{"trial_n":108,"min":91,"max":164,"target":"absent","response":"present","rt":1078.3999999762,"correct":false,"confidence":2},{"trial_n":109,"min":89,"max":166,"target":"absent","response":"absent","rt":2736.5,"correct":true,"confidence":1},{"trial_n":110,"min":89,"max":166,"target":"absent","response":"present","rt":1783.2000000477,"correct":false,"confidence":1},{"trial_n":111,"min":88,"max":167,"target":"absent","response":"present","rt":593.79999995232,"correct":false,"confidence":4},{"trial_n":112,"min":87,"max":168,"target":"absent","response":"present","rt":2235.5,"correct":false,"confidence":1},{"trial_n":113,"min":86,"max":169,"target":"present","response":"present","rt":1956.1000000238,"correct":true,"confidence":1},{"trial_n":114,"min":86,"max":169,"target":"present","response":"present","rt":2109.8000000715,"correct":true,"confidence":4},{"trial_n":115,"min":87,"max":168,"target":"absent","response":"absent","rt":1936.8999999762,"correct":true,"confidence":1},{"trial_n":116,"min":87,"max":168,"target":"absent","response":"present","rt":1413.6000000238,"correct":false,"confidence":1},{"trial_n":117,"min":86,"max":169,"target":"present","response":"present","rt":782.30000007153,"correct":true,"confidence":4},{"trial_n":118,"min":86,"max":169,"target":"present","response":"present","rt":2223.2999999523,"correct":true,"confidence":3},{"trial_n":119,"min":87,"max":168,"target":"absent","response":"absent","rt":1302.7999999523,"correct":true,"confidence":1},{"trial_n":120,"min":87,"max":168,"target":"absent","response":"present","rt":1346.7999999523,"correct":false,"confidence":1},{"trial_n":121,"min":86,"max":169,"target":"present","response":"present","rt":1906.1000000238,"correct":true,"confidence":1},{"trial_n":122,"min":86,"max":169,"target":"present","response":"present","rt":432.19999992847,"correct":true,"confidence":4},{"trial_n":123,"min":87,"max":168,"target":"absent","response":"absent","rt":2597.2000000477,"correct":true,"confidence":1},{"trial_n":124,"min":87,"max":168,"target":"absent","response":"absent","rt":1239.5,"correct":true,"confidence":1},{"trial_n":125,"min":88,"max":167,"target":"absent","response":"absent","rt":1338.5,"correct":true,"confidence":4},{"trial_n":126,"min":88,"max":167,"target":"present","response":"present","rt":644,"correct":true,"confidence":4},{"trial_n":127,"min":89,"max":166,"target":"absent","response":"absent","rt":1514.3999999762,"correct":true,"confidence":1},{"trial_n":128,"min":89,"max":166,"target":"present","response":"absent","rt":1691,"correct":false,"confidence":1},{"trial_n":129,"min":88,"max":167,"target":"absent","response":"present","rt":904.29999995232,"correct":false,"confidence":4},{"trial_n":130,"min":87,"max":168,"target":"present","response":"present","rt":1112.6999999285,"correct":true,"confidence":3},{"trial_n":131,"min":87,"max":168,"target":"present","response":"present","rt":869.89999997616,"correct":true,"confidence":1},{"trial_n":132,"min":88,"max":167,"target":"present","response":"present","rt":1120.2999999523,"correct":true,"confidence":4},{"trial_n":133,"min":88,"max":167,"target":"present","response":"absent","rt":2757.0999999046,"correct":false,"confidence":2},{"trial_n":134,"min":87,"max":168,"target":"present","response":"present","rt":900.30000007153,"correct":true,"confidence":4},{"trial_n":135,"min":87,"max":168,"target":"present","response":"absent","rt":1480.7999999523,"correct":false,"confidence":1},{"trial_n":136,"min":86,"max":169,"target":"present","response":"present","rt":620.29999995232,"correct":true,"confidence":3},{"trial_n":137,"min":86,"max":169,"target":"present","response":"present","rt":1412.1000000238,"correct":true,"confidence":1},{"trial_n":138,"min":87,"max":168,"target":"present","response":"present","rt":669.29999995232,"correct":true,"confidence":4},{"trial_n":139,"min":87,"max":168,"target":"absent","response":"absent","rt":1414.5,"correct":true,"confidence":1},{"trial_n":140,"min":88,"max":167,"target":"absent","response":"absent","rt":1835.1000000238,"correct":true,"confidence":1}]