[{"trial_n":1,"n_dots":4.25,"target":"right","response":"right","rt":7519,"correct":true,"confidence":-1},{"trial_n":2,"n_dots":4.25,"target":"right","response":"right","rt":723,"correct":true,"confidence":-1},{"trial_n":3,"n_dots":3.85,"target":"left","response":"left","rt":791,"correct":true,"confidence":-1},{"trial_n":4,"n_dots":3.85,"target":"right","response":"right","rt":442,"correct":true,"confidence":-1},{"trial_n":5,"n_dots":3.45,"target":"left","response":"right","rt":656,"correct":false,"confidence":-1},{"trial_n":6,"n_dots":3.85,"target":"right","response":"left","rt":726,"correct":false,"confidence":-1},{"trial_n":7,"n_dots":4.25,"target":"right","response":"right","rt":520,"correct":true,"confidence":-1},{"trial_n":8,"n_dots":4.25,"target":"right","response":"right","rt":758,"correct":true,"confidence":-1},{"trial_n":9,"n_dots":4.05,"target":"left","response":"left","rt":488,"correct":true,"confidence":-1},{"trial_n":10,"n_dots":4.05,"target":"right","response":"right","rt":729,"correct":true,"confidence":-1},{"trial_n":11,"n_dots":3.85,"target":"right","response":"right","rt":512.99999999999,"correct":true,"confidence":-1},{"trial_n":12,"n_dots":3.85,"target":"left","response":"left","rt":532,"correct":true,"confidence":-1},{"trial_n":13,"n_dots":3.75,"target":"left","response":"left","rt":957,"correct":true,"confidence":-1},{"trial_n":14,"n_dots":3.75,"target":"right","response":"right","rt":519,"correct":true,"confidence":-1},{"trial_n":15,"n_dots":3.65,"target":"right","response":"right","rt":666.99999999999,"correct":true,"confidence":-1},{"trial_n":16,"n_dots":3.65,"target":"left","response":"right","rt":540,"correct":false,"confidence":-1},{"trial_n":17,"n_dots":3.75,"target":"left","response":"left","rt":935,"correct":true,"confidence":-1},{"trial_n":18,"n_dots":3.75,"target":"left","response":"left","rt":789.00000000001,"correct":true,"confidence":-1},{"trial_n":19,"n_dots":3.65,"target":"left","response":"right","rt":481,"correct":false,"confidence":-1},{"trial_n":20,"n_dots":3.75,"target":"left","response":"right","rt":489.99999999999,"correct":false,"confidence":-1},{"trial_n":21,"n_dots":3.85,"target":"left","response":"left","rt":556.00000000001,"correct":true,"confidence":4},{"trial_n":22,"n_dots":3.85,"target":"left","response":"left","rt":429,"correct":true,"confidence":4},{"trial_n":23,"n_dots":3.75,"target":"left","response":"left","rt":1053,"correct":true,"confidence":4},{"trial_n":24,"n_dots":3.75,"target":"right","response":"right","rt":788,"correct":true,"confidence":4},{"trial_n":25,"n_dots":3.65,"target":"left","response":"left","rt":655,"correct":true,"confidence":4},{"trial_n":26,"n_dots":3.65,"target":"left","response":"left","rt":737.00000000001,"correct":true,"confidence":3},{"trial_n":27,"n_dots":3.55,"target":"right","response":"right","rt":768,"correct":true,"confidence":3},{"trial_n":28,"n_dots":3.55,"target":"left","response":"left","rt":672,"correct":true,"confidence":3},{"trial_n":29,"n_dots":3.45,"target":"left","response":"left","rt":654,"correct":true,"confidence":3},{"trial_n":30,"n_dots":3.45,"target":"left","response":"left","rt":854,"correct":true,"confidence":3},{"trial_n":31,"n_dots":3.35,"target":"left","response":"left","rt":672,"correct":true,"confidence":3},{"trial_n":32,"n_dots":3.35,"target":"right","response":"right","rt":554,"correct":true,"confidence":4},{"trial_n":33,"n_dots":3.25,"target":"right","response":"right","rt":605,"correct":true,"confidence":5},{"trial_n":34,"n_dots":3.25,"target":"left","response":"left","rt":571,"correct":true,"confidence":3},{"trial_n":35,"n_dots":3.15,"target":"right","response":"right","rt":604,"correct":true,"confidence":3},{"trial_n":36,"n_dots":3.15,"target":"left","response":"left","rt":557,"correct":true,"confidence":3},{"trial_n":37,"n_dots":3.05,"target":"right","response":"left","rt":589,"correct":false,"confidence":3},{"trial_n":38,"n_dots":3.15,"target":"right","response":"right","rt":574,"correct":true,"confidence":3},{"trial_n":39,"n_dots":3.15,"target":"left","response":"left","rt":590,"correct":true,"confidence":5},{"trial_n":40,"n_dots":3.05,"target":"right","response":"right","rt":690,"correct":true,"confidence":4},{"trial_n":41,"n_dots":3.05,"target":"left","response":"left","rt":686,"correct":true,"confidence":4},{"trial_n":42,"n_dots":2.95,"target":"right","response":"right","rt":675,"correct":true,"confidence":4},{"trial_n":43,"n_dots":2.95,"target":"left","response":"left","rt":541,"correct":true,"confidence":4},{"trial_n":44,"n_dots":2.85,"target":"left","response":"left","rt":655.99999999997,"correct":true,"confidence":4},{"trial_n":45,"n_dots":2.85,"target":"left","response":"left","rt":641,"correct":true,"confidence":4},{"trial_n":46,"n_dots":2.75,"target":"left","response":"left","rt":840,"correct":true,"confidence":3},{"trial_n":47,"n_dots":2.75,"target":"right","response":"right","rt":625,"correct":true,"confidence":3},{"trial_n":48,"n_dots":2.65,"target":"right","response":"right","rt":740,"correct":true,"confidence":3},{"trial_n":49,"n_dots":2.65,"target":"left","response":"left","rt":525,"correct":true,"confidence":3},{"trial_n":50,"n_dots":2.55,"target":"right","response":"right","rt":1208,"correct":true,"confidence":4},{"trial_n":51,"n_dots":2.55,"target":"left","response":"right","rt":658,"correct":false,"confidence":4},{"trial_n":52,"n_dots":2.65,"target":"right","response":"right","rt":808,"correct":true,"confidence":4},{"trial_n":53,"n_dots":2.65,"target":"right","response":"left","rt":525,"correct":false,"confidence":3},{"trial_n":54,"n_dots":2.75,"target":"right","response":"right","rt":875,"correct":true,"confidence":3},{"trial_n":55,"n_dots":2.75,"target":"right","response":"right","rt":1128,"correct":true,"confidence":4},{"trial_n":56,"n_dots":2.65,"target":"right","response":"right","rt":692,"correct":true,"confidence":4},{"trial_n":57,"n_dots":2.65,"target":"right","response":"left","rt":625,"correct":false,"confidence":3},{"trial_n":58,"n_dots":2.75,"target":"left","response":"left","rt":625.99999999997,"correct":true,"confidence":3},{"trial_n":59,"n_dots":2.75,"target":"left","response":"right","rt":692,"correct":false,"confidence":4},{"trial_n":60,"n_dots":2.85,"target":"right","response":"right","rt":809,"correct":true,"confidence":5},{"trial_n":61,"n_dots":2.85,"target":"right","response":"right","rt":731,"correct":true,"confidence":4},{"trial_n":62,"n_dots":2.75,"target":"right","response":"left","rt":723,"correct":false,"confidence":3},{"trial_n":63,"n_dots":2.85,"target":"right","response":"right","rt":576,"correct":true,"confidence":3},{"trial_n":64,"n_dots":2.85,"target":"left","response":"right","rt":605,"correct":false,"confidence":3},{"trial_n":65,"n_dots":2.95,"target":"left","response":"right","rt":762,"correct":false,"confidence":3},{"trial_n":66,"n_dots":3.05,"target":"left","response":"left","rt":491.99999999988,"correct":true,"confidence":3},{"trial_n":67,"n_dots":3.05,"target":"right","response":"right","rt":1044,"correct":true,"confidence":3},{"trial_n":68,"n_dots":2.95,"target":"right","response":"left","rt":558.99999999988,"correct":false,"confidence":3},{"trial_n":69,"n_dots":3.05,"target":"right","response":"right","rt":509,"correct":true,"confidence":3},{"trial_n":70,"n_dots":3.05,"target":"right","response":"right","rt":761,"correct":true,"confidence":3},{"trial_n":71,"n_dots":2.95,"target":"left","response":"left","rt":427,"correct":true,"confidence":3},{"trial_n":72,"n_dots":2.95,"target":"right","response":"right","rt":545,"correct":true,"confidence":3},{"trial_n":73,"n_dots":2.85,"target":"right","response":"left","rt":594,"correct":false,"confidence":3},{"trial_n":74,"n_dots":2.95,"target":"left","response":"right","rt":878.99999999988,"correct":false,"confidence":3},{"trial_n":75,"n_dots":3.05,"target":"left","response":"left","rt":410,"correct":true,"confidence":3},{"trial_n":76,"n_dots":3.05,"target":"left","response":"left","rt":344,"correct":true,"confidence":4},{"trial_n":77,"n_dots":2.95,"target":"left","response":"left","rt":611.99999999988,"correct":true,"confidence":4},{"trial_n":78,"n_dots":2.95,"target":"right","response":"right","rt":577,"correct":true,"confidence":3},{"trial_n":79,"n_dots":2.85,"target":"left","response":"left","rt":577,"correct":true,"confidence":3},{"trial_n":80,"n_dots":2.85,"target":"left","response":"left","rt":579.00000000012,"correct":true,"confidence":3},{"trial_n":81,"n_dots":2.75,"target":"right","response":"right","rt":696,"correct":true,"confidence":3},{"trial_n":82,"n_dots":2.75,"target":"right","response":"right","rt":346,"correct":true,"confidence":3},{"trial_n":83,"n_dots":2.65,"target":"right","response":"left","rt":595,"correct":false,"confidence":3},{"trial_n":84,"n_dots":2.75,"target":"left","response":"left","rt":613,"correct":true,"confidence":4},{"trial_n":85,"n_dots":2.75,"target":"left","response":"left","rt":563,"correct":true,"confidence":3},{"trial_n":86,"n_dots":2.65,"target":"left","response":"left","rt":797,"correct":true,"confidence":3},{"trial_n":87,"n_dots":2.65,"target":"left","response":"left","rt":745,"correct":true,"confidence":3},{"trial_n":88,"n_dots":2.55,"target":"left","response":"right","rt":630,"correct":false,"confidence":4},{"trial_n":89,"n_dots":2.65,"target":"right","response":"left","rt":1046,"correct":false,"confidence":3},{"trial_n":90,"n_dots":2.75,"target":"right","response":"right","rt":695.99999999988,"correct":true,"confidence":4},{"trial_n":91,"n_dots":2.75,"target":"right","response":"right","rt":630,"correct":true,"confidence":4},{"trial_n":92,"n_dots":2.65,"target":"right","response":"right","rt":699,"correct":true,"confidence":3},{"trial_n":93,"n_dots":2.65,"target":"left","response":"left","rt":564,"correct":true,"confidence":3},{"trial_n":94,"n_dots":2.55,"target":"right","response":"right","rt":1579,"correct":true,"confidence":4},{"trial_n":95,"n_dots":2.55,"target":"right","response":"right","rt":730,"correct":true,"confidence":4},{"trial_n":96,"n_dots":2.45,"target":"right","response":"left","rt":1013,"correct":false,"confidence":3},{"trial_n":97,"n_dots":2.55,"target":"left","response":"right","rt":913.99999999988,"correct":false,"confidence":4},{"trial_n":98,"n_dots":2.65,"target":"left","response":"left","rt":630.99999999988,"correct":true,"confidence":3},{"trial_n":99,"n_dots":2.65,"target":"left","response":"left","rt":646.99999999988,"correct":true,"confidence":3},{"trial_n":100,"n_dots":2.55,"target":"left","response":"left","rt":515,"correct":true,"confidence":3},{"trial_n":101,"n_dots":2.55,"target":"right","response":"left","rt":599,"correct":false,"confidence":3},{"trial_n":102,"n_dots":2.65,"target":"left","response":"left","rt":516,"correct":true,"confidence":3},{"trial_n":103,"n_dots":2.65,"target":"right","response":"right","rt":650,"correct":true,"confidence":3},{"trial_n":104,"n_dots":2.55,"target":"right","response":"right","rt":415.00000000012,"correct":true,"confidence":3},{"trial_n":105,"n_dots":2.55,"target":"right","response":"right","rt":766.00000000012,"correct":true,"confidence":3},{"trial_n":106,"n_dots":2.45,"target":"right","response":"left","rt":284,"correct":false,"confidence":3},{"trial_n":107,"n_dots":2.55,"target":"left","response":"left","rt":514,"correct":true,"confidence":3},{"trial_n":108,"n_dots":2.55,"target":"left","response":"left","rt":731,"correct":true,"confidence":3},{"trial_n":109,"n_dots":2.45,"target":"left","response":"right","rt":633,"correct":false,"confidence":3},{"trial_n":110,"n_dots":2.55,"target":"right","response":"right","rt":551.00000000012,"correct":true,"confidence":3},{"trial_n":111,"n_dots":2.55,"target":"right","response":"right","rt":649.99999999988,"correct":true,"confidence":3},{"trial_n":112,"n_dots":2.45,"target":"right","response":"left","rt":964.99999999988,"correct":false,"confidence":3},{"trial_n":113,"n_dots":2.55,"target":"right","response":"right","rt":666.99999999988,"correct":true,"confidence":3},{"trial_n":114,"n_dots":2.55,"target":"left","response":"left","rt":550,"correct":true,"confidence":3},{"trial_n":115,"n_dots":2.45,"target":"left","response":"right","rt":650.00000000012,"correct":false,"confidence":3},{"trial_n":116,"n_dots":2.55,"target":"right","response":"left","rt":751,"correct":false,"confidence":3},{"trial_n":117,"n_dots":2.65,"target":"right","response":"right","rt":700,"correct":true,"confidence":3},{"trial_n":118,"n_dots":2.65,"target":"left","response":"left","rt":600,"correct":true,"confidence":3},{"trial_n":119,"n_dots":2.55,"target":"left","response":"right","rt":650,"correct":false,"confidence":3},{"trial_n":120,"n_dots":2.65,"target":"left","response":"left","rt":584,"correct":true,"confidence":3}]