[{"trial_n":1,"min":25,"max":230,"target":"present","response":"absent","rt":3344.7000000002,"correct":false,"confidence":-1},{"trial_n":2,"min":25,"max":230,"target":"present","response":"present","rt":1114.3999999999,"correct":true,"confidence":-1},{"trial_n":3,"min":25,"max":230,"target":"absent","response":"absent","rt":763.29999999981,"correct":true,"confidence":-1},{"trial_n":4,"min":41,"max":214,"target":"absent","response":"absent","rt":326.20000000019,"correct":true,"confidence":-1},{"trial_n":5,"min":41,"max":214,"target":"present","response":"present","rt":275.20000000019,"correct":true,"confidence":-1},{"trial_n":6,"min":57,"max":198,"target":"present","response":"absent","rt":331.39999999991,"correct":false,"confidence":-1},{"trial_n":7,"min":41,"max":214,"target":"absent","response":"absent","rt":214,"correct":true,"confidence":-1},{"trial_n":8,"min":41,"max":214,"target":"present","response":"present","rt":343.79999999981,"correct":true,"confidence":-1},{"trial_n":9,"min":57,"max":198,"target":"present","response":"present","rt":371.10000000009,"correct":true,"confidence":-1},{"trial_n":10,"min":57,"max":198,"target":"absent","response":"absent","rt":198.5,"correct":true,"confidence":-1},{"trial_n":11,"min":65,"max":190,"target":"absent","response":"absent","rt":236.89999999991,"correct":true,"confidence":-1},{"trial_n":12,"min":65,"max":190,"target":"present","response":"present","rt":301,"correct":true,"confidence":-1},{"trial_n":13,"min":73,"max":182,"target":"absent","response":"absent","rt":286.60000000009,"correct":true,"confidence":-1},{"trial_n":14,"min":73,"max":182,"target":"present","response":"absent","rt":301.30000000028,"correct":false,"confidence":-1},{"trial_n":15,"min":65,"max":190,"target":"absent","response":"absent","rt":275.5,"correct":true,"confidence":-1},{"trial_n":16,"min":65,"max":190,"target":"present","response":"present","rt":159.5,"correct":true,"confidence":-1},{"trial_n":17,"min":73,"max":182,"target":"present","response":"present","rt":531.09999999963,"correct":true,"confidence":-1},{"trial_n":18,"min":73,"max":182,"target":"absent","response":"absent","rt":322.29999999981,"correct":true,"confidence":-1},{"trial_n":19,"min":81,"max":174,"target":"absent","response":"absent","rt":305.89999999991,"correct":true,"confidence":-1},{"trial_n":20,"min":81,"max":174,"target":"present","response":"absent","rt":238,"correct":false,"confidence":-1},{"trial_n":21,"min":77,"max":178,"target":"present","response":"absent","rt":456.5,"correct":false,"confidence":5},{"trial_n":22,"min":73,"max":182,"target":"present","response":"present","rt":587.70000000019,"correct":true,"confidence":5},{"trial_n":23,"min":73,"max":182,"target":"present","response":"present","rt":735.5,"correct":true,"confidence":5},{"trial_n":24,"min":77,"max":178,"target":"present","response":"present","rt":1034,"correct":true,"confidence":5},{"trial_n":25,"min":77,"max":178,"target":"present","response":"absent","rt":687.10000000009,"correct":false,"confidence":5},{"trial_n":26,"min":73,"max":182,"target":"present","response":"present","rt":1678,"correct":true,"confidence":3},{"trial_n":27,"min":73,"max":182,"target":"present","response":"absent","rt":473.70000000019,"correct":false,"confidence":3},{"trial_n":28,"min":69,"max":186,"target":"absent","response":"absent","rt":410.70000000019,"correct":true,"confidence":5},{"trial_n":29,"min":69,"max":186,"target":"absent","response":"absent","rt":642.5,"correct":true,"confidence":5},{"trial_n":30,"min":73,"max":182,"target":"present","response":"present","rt":905.10000000009,"correct":true,"confidence":5},{"trial_n":31,"min":73,"max":182,"target":"absent","response":"absent","rt":796.20000000019,"correct":true,"confidence":5},{"trial_n":32,"min":75,"max":180,"target":"present","response":"absent","rt":476.69999999972,"correct":false,"confidence":5},{"trial_n":33,"min":73,"max":182,"target":"present","response":"present","rt":2222.5,"correct":true,"confidence":5},{"trial_n":34,"min":73,"max":182,"target":"absent","response":"absent","rt":987,"correct":true,"confidence":5},{"trial_n":35,"min":75,"max":180,"target":"absent","response":"absent","rt":366.69999999972,"correct":true,"confidence":5},{"trial_n":36,"min":75,"max":180,"target":"absent","response":"absent","rt":799.5,"correct":true,"confidence":5},{"trial_n":37,"min":77,"max":178,"target":"absent","response":"absent","rt":478.5,"correct":true,"confidence":5},{"trial_n":38,"min":77,"max":178,"target":"present","response":"present","rt":690.89999999991,"correct":true,"confidence":5},{"trial_n":39,"min":79,"max":176,"target":"absent","response":"absent","rt":635.10000000009,"correct":true,"confidence":5},{"trial_n":40,"min":79,"max":176,"target":"absent","response":"absent","rt":720.20000000019,"correct":true,"confidence":5},{"trial_n":41,"min":80,"max":175,"target":"absent","response":"absent","rt":374.40000000037,"correct":true,"confidence":5},{"trial_n":42,"min":80,"max":175,"target":"present","response":"present","rt":685.60000000009,"correct":true,"confidence":5},{"trial_n":43,"min":81,"max":174,"target":"absent","response":"absent","rt":598.19999999972,"correct":true,"confidence":5},{"trial_n":44,"min":81,"max":174,"target":"present","response":"present","rt":713.19999999972,"correct":true,"confidence":5},{"trial_n":45,"min":82,"max":173,"target":"absent","response":"absent","rt":409,"correct":true,"confidence":5},{"trial_n":46,"min":82,"max":173,"target":"absent","response":"absent","rt":388.70000000019,"correct":true,"confidence":5},{"trial_n":47,"min":83,"max":172,"target":"present","response":"present","rt":660.5,"correct":true,"confidence":5},{"trial_n":48,"min":83,"max":172,"target":"absent","response":"absent","rt":395.90000000037,"correct":true,"confidence":5},{"trial_n":49,"min":84,"max":171,"target":"absent","response":"absent","rt":324.29999999981,"correct":true,"confidence":5},{"trial_n":50,"min":84,"max":171,"target":"absent","response":"absent","rt":428,"correct":true,"confidence":5},{"trial_n":51,"min":85,"max":170,"target":"present","response":"absent","rt":702.09999999963,"correct":false,"confidence":5},{"trial_n":52,"min":84,"max":171,"target":"present","response":"present","rt":445.89999999991,"correct":true,"confidence":5},{"trial_n":53,"min":84,"max":171,"target":"absent","response":"absent","rt":322.20000000019,"correct":true,"confidence":5},{"trial_n":54,"min":85,"max":170,"target":"absent","response":"absent","rt":282.20000000019,"correct":true,"confidence":5},{"trial_n":55,"min":85,"max":170,"target":"present","response":"present","rt":503,"correct":true,"confidence":5},{"trial_n":56,"min":86,"max":169,"target":"present","response":"absent","rt":311,"correct":false,"confidence":5},{"trial_n":57,"min":85,"max":170,"target":"absent","response":"absent","rt":401,"correct":true,"confidence":5},{"trial_n":58,"min":85,"max":170,"target":"absent","response":"absent","rt":354.10000000009,"correct":true,"confidence":5},{"trial_n":59,"min":86,"max":169,"target":"present","response":"present","rt":1039.2000000002,"correct":true,"confidence":5},{"trial_n":60,"min":86,"max":169,"target":"present","response":"absent","rt":726.5,"correct":false,"confidence":5},{"trial_n":61,"min":85,"max":170,"target":"absent","response":"absent","rt":397.19999999972,"correct":true,"confidence":5},{"trial_n":62,"min":85,"max":170,"target":"present","response":"present","rt":606,"correct":true,"confidence":5},{"trial_n":63,"min":86,"max":169,"target":"absent","response":"absent","rt":930.70000000019,"correct":true,"confidence":5},{"trial_n":64,"min":86,"max":169,"target":"present","response":"present","rt":470.69999999972,"correct":true,"confidence":5},{"trial_n":65,"min":87,"max":168,"target":"absent","response":"absent","rt":311.30000000028,"correct":true,"confidence":5},{"trial_n":66,"min":87,"max":168,"target":"absent","response":"absent","rt":320.89999999991,"correct":true,"confidence":5},{"trial_n":67,"min":88,"max":167,"target":"present","response":"absent","rt":487.39999999991,"correct":false,"confidence":5},{"trial_n":68,"min":87,"max":168,"target":"absent","response":"absent","rt":267.30000000028,"correct":true,"confidence":5},{"trial_n":69,"min":87,"max":168,"target":"present","response":"present","rt":358.69999999972,"correct":true,"confidence":5},{"trial_n":70,"min":88,"max":167,"target":"present","response":"absent","rt":366.10000000009,"correct":false,"confidence":5},{"trial_n":71,"min":41,"max":214,"target":"present","response":"present","rt":1292,"correct":true,"confidence":-1},{"trial_n":72,"min":41,"max":214,"target":"present","response":"present","rt":454.10000000009,"correct":true,"confidence":-1},{"trial_n":73,"min":57,"max":198,"target":"absent","response":"absent","rt":317.30000000028,"correct":true,"confidence":-1},{"trial_n":74,"min":57,"max":198,"target":"absent","response":"absent","rt":268.70000000019,"correct":true,"confidence":-1},{"trial_n":75,"min":73,"max":182,"target":"present","response":"present","rt":316,"correct":true,"confidence":-1},{"trial_n":76,"min":73,"max":182,"target":"present","response":"present","rt":272.89999999991,"correct":true,"confidence":-1},{"trial_n":77,"min":89,"max":166,"target":"present","response":"present","rt":1073.5,"correct":true,"confidence":-1},{"trial_n":78,"min":89,"max":166,"target":"absent","response":"absent","rt":752.20000000019,"correct":true,"confidence":-1},{"trial_n":79,"min":105,"max":150,"target":"absent","response":"absent","rt":460.59999999963,"correct":true,"confidence":-1},{"trial_n":80,"min":105,"max":150,"target":"absent","response":"present","rt":386.60000000009,"correct":false,"confidence":-1},{"trial_n":81,"min":97,"max":158,"target":"absent","response":"absent","rt":485.20000000019,"correct":true,"confidence":-1},{"trial_n":82,"min":97,"max":158,"target":"absent","response":"absent","rt":528.29999999981,"correct":true,"confidence":-1},{"trial_n":83,"min":105,"max":150,"target":"absent","response":"absent","rt":505.89999999991,"correct":true,"confidence":-1},{"trial_n":84,"min":105,"max":150,"target":"absent","response":"absent","rt":383.89999999991,"correct":true,"confidence":-1},{"trial_n":85,"min":113,"max":142,"target":"present","response":"absent","rt":273.19999999972,"correct":false,"confidence":-1},{"trial_n":86,"min":105,"max":150,"target":"absent","response":"absent","rt":199.80000000028,"correct":true,"confidence":-1},{"trial_n":87,"min":105,"max":150,"target":"present","response":"absent","rt":296.60000000009,"correct":false,"confidence":-1},{"trial_n":88,"min":97,"max":158,"target":"present","response":"present","rt":113.20000000019,"correct":true,"confidence":-1},{"trial_n":89,"min":97,"max":158,"target":"present","response":"present","rt":328.60000000009,"correct":true,"confidence":-1},{"trial_n":90,"min":105,"max":150,"target":"absent","response":"absent","rt":351.89999999991,"correct":true,"confidence":-1},{"trial_n":91,"min":105,"max":150,"target":"absent","response":"absent","rt":1189.7999999998,"correct":true,"confidence":2},{"trial_n":92,"min":109,"max":146,"target":"absent","response":"present","rt":393.19999999972,"correct":false,"confidence":4},{"trial_n":93,"min":105,"max":150,"target":"present","response":"present","rt":371,"correct":true,"confidence":4},{"trial_n":94,"min":105,"max":150,"target":"absent","response":"absent","rt":389.70000000019,"correct":true,"confidence":2},{"trial_n":95,"min":109,"max":146,"target":"present","response":"absent","rt":453.89999999991,"correct":false,"confidence":3},{"trial_n":96,"min":105,"max":150,"target":"absent","response":"present","rt":270.09999999963,"correct":false,"confidence":3},{"trial_n":97,"min":101,"max":154,"target":"absent","response":"absent","rt":1019.1000000001,"correct":true,"confidence":3},{"trial_n":98,"min":101,"max":154,"target":"absent","response":"present","rt":418.40000000037,"correct":false,"confidence":4},{"trial_n":99,"min":97,"max":158,"target":"absent","response":"present","rt":350.29999999981,"correct":false,"confidence":4},{"trial_n":100,"min":93,"max":162,"target":"present","response":"absent","rt":1143.7000000002,"correct":false,"confidence":1},{"trial_n":101,"min":91,"max":164,"target":"present","response":"present","rt":239.69999999972,"correct":true,"confidence":3},{"trial_n":102,"min":91,"max":164,"target":"absent","response":"present","rt":492.60000000009,"correct":false,"confidence":4},{"trial_n":103,"min":89,"max":166,"target":"present","response":"absent","rt":233.80000000028,"correct":false,"confidence":4},{"trial_n":104,"min":87,"max":168,"target":"present","response":"present","rt":270.10000000009,"correct":true,"confidence":3},{"trial_n":105,"min":87,"max":168,"target":"absent","response":"present","rt":274.20000000019,"correct":false,"confidence":3},{"trial_n":106,"min":85,"max":170,"target":"absent","response":"absent","rt":474.20000000019,"correct":true,"confidence":2},{"trial_n":107,"min":85,"max":170,"target":"present","response":"present","rt":322.39999999991,"correct":true,"confidence":3},{"trial_n":108,"min":87,"max":168,"target":"present","response":"present","rt":294.29999999981,"correct":true,"confidence":4},{"trial_n":109,"min":87,"max":168,"target":"present","response":"absent","rt":255.5,"correct":false,"confidence":3},{"trial_n":110,"min":85,"max":170,"target":"present","response":"present","rt":195.90000000037,"correct":true,"confidence":4},{"trial_n":111,"min":85,"max":170,"target":"absent","response":"present","rt":223.10000000009,"correct":false,"confidence":3},{"trial_n":112,"min":84,"max":171,"target":"absent","response":"absent","rt":332.60000000009,"correct":true,"confidence":4},{"trial_n":113,"min":84,"max":171,"target":"present","response":"absent","rt":218.09999999963,"correct":false,"confidence":2},{"trial_n":114,"min":83,"max":172,"target":"present","response":"present","rt":223.39999999991,"correct":true,"confidence":1},{"trial_n":115,"min":83,"max":172,"target":"present","response":"present","rt":226.20000000019,"correct":true,"confidence":4},{"trial_n":116,"min":84,"max":171,"target":"present","response":"absent","rt":186,"correct":false,"confidence":4},{"trial_n":117,"min":83,"max":172,"target":"absent","response":"absent","rt":166.5,"correct":true,"confidence":1},{"trial_n":118,"min":83,"max":172,"target":"absent","response":"present","rt":155.5,"correct":false,"confidence":4},{"trial_n":119,"min":82,"max":173,"target":"present","response":"absent","rt":28.600000000093,"correct":false,"confidence":3},{"trial_n":120,"min":81,"max":174,"target":"absent","response":"present","rt":162.79999999981,"correct":false,"confidence":4},{"trial_n":121,"min":80,"max":175,"target":"present","response":"absent","rt":175.90000000037,"correct":false,"confidence":4},{"trial_n":122,"min":79,"max":176,"target":"absent","response":"present","rt":36.399999999907,"correct":false,"confidence":4},{"trial_n":123,"min":78,"max":177,"target":"absent","response":"absent","rt":609.59999999963,"correct":true,"confidence":2},{"trial_n":124,"min":78,"max":177,"target":"present","response":"present","rt":328.89999999991,"correct":true,"confidence":3},{"trial_n":125,"min":79,"max":176,"target":"absent","response":"present","rt":231.40000000037,"correct":false,"confidence":1},{"trial_n":126,"min":78,"max":177,"target":"present","response":"absent","rt":176,"correct":false,"confidence":1},{"trial_n":127,"min":77,"max":178,"target":"present","response":"present","rt":140.90000000037,"correct":true,"confidence":4},{"trial_n":128,"min":77,"max":178,"target":"absent","response":"absent","rt":104.39999999991,"correct":true,"confidence":3},{"trial_n":129,"min":78,"max":177,"target":"absent","response":"present","rt":226.60000000009,"correct":false,"confidence":1},{"trial_n":130,"min":77,"max":178,"target":"present","response":"absent","rt":233.59999999963,"correct":false,"confidence":1},{"trial_n":131,"min":76,"max":179,"target":"present","response":"present","rt":244.39999999991,"correct":true,"confidence":4},{"trial_n":132,"min":76,"max":179,"target":"present","response":"present","rt":148.70000000019,"correct":true,"confidence":1},{"trial_n":133,"min":77,"max":178,"target":"present","response":"absent","rt":161.69999999972,"correct":false,"confidence":1},{"trial_n":134,"min":76,"max":179,"target":"present","response":"absent","rt":200.89999999991,"correct":false,"confidence":3},{"trial_n":135,"min":75,"max":180,"target":"present","response":"present","rt":246.39999999991,"correct":true,"confidence":4},{"trial_n":136,"min":75,"max":180,"target":"present","response":"present","rt":655.39999999991,"correct":true,"confidence":1},{"trial_n":137,"min":76,"max":179,"target":"absent","response":"absent","rt":213.29999999981,"correct":true,"confidence":1},{"trial_n":138,"min":76,"max":179,"target":"present","response":"present","rt":331.09999999963,"correct":true,"confidence":5},{"trial_n":139,"min":77,"max":178,"target":"absent","response":"absent","rt":657.60000000009,"correct":true,"confidence":5},{"trial_n":140,"min":77,"max":178,"target":"absent","response":"present","rt":588,"correct":false,"confidence":1}]