[{"trial_n":1,"span":8,"encoder":"04827704","distractor":"04327704","target":"present","response":"present","rt":"4085.5","correct":true,"confidence":-1},{"trial_n":2,"span":8,"encoder":"69173440","distractor":"63173440","target":"present","response":"present","rt":"2045.5","correct":true,"confidence":-1},{"trial_n":3,"span":10,"encoder":"7865531670","distractor":"7865531170","target":"absent","response":"absent","rt":"3157.9","correct":true,"confidence":-1},{"trial_n":4,"span":10,"encoder":"8666991989","distractor":"8666992989","target":"absent","response":"present","rt":"2927.7","correct":false,"confidence":-1},{"trial_n":5,"span":8,"encoder":"71402361","distractor":"78402361","target":"present","response":"present","rt":"2094","correct":true,"confidence":-1},{"trial_n":6,"span":8,"encoder":"09180734","distractor":"09170734","target":"present","response":"present","rt":"2726.4","correct":true,"confidence":-1},{"trial_n":7,"span":10,"encoder":"4085387351","distractor":"4085387301","target":"present","response":"present","rt":"1310.9","correct":true,"confidence":-1},{"trial_n":8,"span":10,"encoder":"9712142444","distractor":"9112142444","target":"present","response":"present","rt":"3914.7000000001","correct":true,"confidence":-1},{"trial_n":9,"span":12,"encoder":"211201958461","distractor":"211201858461","target":"absent","response":"absent","rt":"1854.7999999999","correct":true,"confidence":-1},{"trial_n":10,"span":12,"encoder":"658549904886","distractor":"658549904896","target":"absent","response":"absent","rt":"1343.7999999999","correct":true,"confidence":-1},{"trial_n":11,"span":14,"encoder":"68264568523735","distractor":"68264563523735","target":"present","response":"present","rt":"4378.6","correct":true,"confidence":-1},{"trial_n":12,"span":14,"encoder":"77996501875589","distractor":"77996591875589","target":"absent","response":"present","rt":"4095.6000000001","correct":false,"confidence":-1},{"trial_n":13,"span":13,"encoder":"9829644411240","distractor":"9809644411240","target":"absent","response":"present","rt":"1423.5","correct":false,"confidence":-1},{"trial_n":14,"span":12,"encoder":"685279707340","distractor":"605279707340","target":"absent","response":"present","rt":"1461","correct":false,"confidence":-1},{"trial_n":15,"span":11,"encoder":"35765773263","distractor":"35765273263","target":"absent","response":"absent","rt":"4018.6","correct":true,"confidence":-1},{"trial_n":16,"span":11,"encoder":"09127287247","distractor":"09127287947","target":"absent","response":"present","rt":"3282.4","correct":false,"confidence":-1},{"trial_n":17,"span":10,"encoder":"4823917074","distractor":"2823917074","target":"present","response":"present","rt":"3138.4","correct":true,"confidence":-1},{"trial_n":18,"span":10,"encoder":"8720234575","distractor":"8820234575","target":"present","response":"present","rt":"1931.8","correct":true,"confidence":-1},{"trial_n":19,"span":11,"encoder":"01271471491","distractor":"01271471497","target":"absent","response":"absent","rt":"581.70000000007","correct":true,"confidence":-1},{"trial_n":20,"span":11,"encoder":"92776097800","distractor":"92796097800","target":"present","response":"present","rt":"2547.6000000001","correct":true,"confidence":-1},{"trial_n":21,"span":12,"encoder":"099483937838","distractor":"099183937838","target":"present","response":"present","rt":"2546.1","correct":true,"confidence":2},{"trial_n":22,"span":12,"encoder":"899522031794","distractor":"899722031794","target":"present","response":"present","rt":"2326.8999999999","correct":true,"confidence":3},{"trial_n":23,"span":13,"encoder":"8660291830480","distractor":"8160291830480","target":"present","response":"absent","rt":"2454.8","correct":false,"confidence":2},{"trial_n":24,"span":12,"encoder":"382307216850","distractor":"382397216850","target":"present","response":"absent","rt":"1346","correct":false,"confidence":1},{"trial_n":25,"span":11,"encoder":"93012672395","distractor":"93012632395","target":"present","response":"present","rt":"3652.7","correct":true,"confidence":1},{"trial_n":26,"span":11,"encoder":"65122363627","distractor":"05122363627","target":"absent","response":"present","rt":"724","correct":false,"confidence":1},{"trial_n":27,"span":10,"encoder":"2316384183","distractor":"2316304183","target":"absent","response":"present","rt":"890.5","correct":false,"confidence":1},{"trial_n":28,"span":9,"encoder":"312555724","distractor":"312555726","target":"present","response":"absent","rt":"1160.9","correct":false,"confidence":2},{"trial_n":29,"span":8,"encoder":"49498421","distractor":"49498441","target":"absent","response":"present","rt":"855.89999999991","correct":false,"confidence":1},{"trial_n":30,"span":7,"encoder":"5144401","distractor":"5104401","target":"present","response":"absent","rt":"4398.8999999999","correct":false,"confidence":2},{"trial_n":31,"span":6,"encoder":"418917","distractor":"418967","target":"absent","response":"absent","rt":"2703.6","correct":true,"confidence":5},{"trial_n":32,"span":6,"encoder":"109476","distractor":"109472","target":"present","response":"present","rt":"1938.7","correct":true,"confidence":5},{"trial_n":33,"span":7,"encoder":"8696844","distractor":"8696874","target":"absent","response":"absent","rt":"3997.3999999999","correct":true,"confidence":5},{"trial_n":34,"span":7,"encoder":"9059414","distractor":"9059424","target":"absent","response":"absent","rt":"2972.7000000001","correct":true,"confidence":5},{"trial_n":35,"span":8,"encoder":"57247390","distractor":"57297390","target":"present","response":"present","rt":"2552.6","correct":true,"confidence":5},{"trial_n":36,"span":8,"encoder":"01435793","distractor":"21435793","target":"absent","response":"absent","rt":"1843.2000000001","correct":true,"confidence":5},{"trial_n":37,"span":9,"encoder":"312342471","distractor":"322342471","target":"absent","response":"present","rt":"2618.5","correct":false,"confidence":4},{"trial_n":38,"span":8,"encoder":"18977340","distractor":"78977340","target":"absent","response":"absent","rt":"2019","correct":true,"confidence":5},{"trial_n":39,"span":8,"encoder":"31860155","distractor":"31800155","target":"absent","response":"absent","rt":"2193.2","correct":true,"confidence":5},{"trial_n":40,"span":9,"encoder":"054950214","distractor":"054900214","target":"present","response":"present","rt":"2625.5","correct":true,"confidence":5},{"trial_n":41,"span":9,"encoder":"541999616","distractor":"541999606","target":"present","response":"present","rt":"2278.7","correct":true,"confidence":5},{"trial_n":42,"span":10,"encoder":"1546554003","distractor":"1546454003","target":"present","response":"present","rt":"2334.2999999999","correct":true,"confidence":2},{"trial_n":43,"span":10,"encoder":"1449164760","distractor":"1449134760","target":"absent","response":"absent","rt":"1238.5","correct":true,"confidence":1},{"trial_n":44,"span":11,"encoder":"53383421185","distractor":"53383421188","target":"absent","response":"present","rt":"2418.1","correct":false,"confidence":3},{"trial_n":45,"span":10,"encoder":"5650640741","distractor":"1650640741","target":"absent","response":"present","rt":"1002.6","correct":false,"confidence":1},{"trial_n":46,"span":9,"encoder":"597025458","distractor":"597825458","target":"present","response":"present","rt":"4481.1","correct":true,"confidence":1},{"trial_n":47,"span":9,"encoder":"616449592","distractor":"616449512","target":"absent","response":"present","rt":"2294.3","correct":false,"confidence":5},{"trial_n":48,"span":8,"encoder":"78642970","distractor":"78642950","target":"present","response":"present","rt":"2150.7","correct":true,"confidence":5},{"trial_n":49,"span":8,"encoder":"73060609","distractor":"73060109","target":"absent","response":"absent","rt":"2680.7","correct":true,"confidence":5},{"trial_n":50,"span":9,"encoder":"792348478","distractor":"792345478","target":"present","response":"present","rt":"2570.2999999999","correct":true,"confidence":4},{"trial_n":51,"span":9,"encoder":"472533643","distractor":"472533443","target":"absent","response":"absent","rt":"3442","correct":true,"confidence":4},{"trial_n":52,"span":10,"encoder":"8270299945","distractor":"8270299935","target":"present","response":"present","rt":"3387.5","correct":true,"confidence":3},{"trial_n":53,"span":10,"encoder":"0600431710","distractor":"0600431730","target":"absent","response":"absent","rt":"2862.0999999999","correct":true,"confidence":5},{"trial_n":54,"span":11,"encoder":"76966684312","distractor":"73966684312","target":"absent","response":"present","rt":"1718.8","correct":false,"confidence":1},{"trial_n":55,"span":10,"encoder":"1770087481","distractor":"1770085481","target":"present","response":"present","rt":"3890.4000000001","correct":true,"confidence":3},{"trial_n":56,"span":10,"encoder":"5040024457","distractor":"5045024457","target":"absent","response":"absent","rt":"4521.6000000001","correct":true,"confidence":5},{"trial_n":57,"span":11,"encoder":"98400155610","distractor":"98400155680","target":"present","response":"present","rt":"4382.4000000001","correct":true,"confidence":4},{"trial_n":58,"span":11,"encoder":"68447775652","distractor":"68445775652","target":"present","response":"present","rt":"5481.4000000001","correct":true,"confidence":3},{"trial_n":59,"span":12,"encoder":"892417641161","distractor":"892415641161","target":"absent","response":"absent","rt":"2089.8","correct":true,"confidence":1},{"trial_n":60,"span":12,"encoder":"402846198884","distractor":"402846197884","target":"present","response":"present","rt":"999.19999999995","correct":true,"confidence":1},{"trial_n":61,"span":13,"encoder":"9407755732746","distractor":"9467755732746","target":"present","response":"present","rt":"5399.5","correct":true,"confidence":1},{"trial_n":62,"span":13,"encoder":"6194694156387","distractor":"6194698156387","target":"present","response":"present","rt":"18128","correct":true,"confidence":1},{"trial_n":63,"span":14,"encoder":"19623063874912","distractor":"19823063874912","target":"absent","response":"absent","rt":"2325.3","correct":true,"confidence":1},{"trial_n":64,"span":14,"encoder":"00437784043016","distractor":"00437784043056","target":"present","response":"present","rt":"1489.1000000001","correct":true,"confidence":1},{"trial_n":65,"span":15,"encoder":"674248304944071","distractor":"677248304944071","target":"absent","response":"absent","rt":"956.19999999995","correct":true,"confidence":3},{"trial_n":66,"span":15,"encoder":"663695923289634","distractor":"643695923289634","target":"present","response":"absent","rt":"1139.0999999999","correct":false,"confidence":1},{"trial_n":67,"span":14,"encoder":"07171309836448","distractor":"07171309836048","target":"present","response":"absent","rt":"3443.7","correct":false,"confidence":1},{"trial_n":68,"span":13,"encoder":"5899263591128","distractor":"5199263591128","target":"absent","response":"present","rt":"1267.8999999999","correct":false,"confidence":1},{"trial_n":69,"span":12,"encoder":"361860826880","distractor":"361260826880","target":"absent","response":"present","rt":"10298.2","correct":false,"confidence":1},{"trial_n":70,"span":11,"encoder":"35446824069","distractor":"35446884069","target":"present","response":"present","rt":"11201.7","correct":true,"confidence":1},{"trial_n":71,"span":8,"encoder":"16236209","distractor":"12236209","target":"present","response":"present","rt":"5507.7000000002","correct":true,"confidence":-1},{"trial_n":72,"span":8,"encoder":"75270647","distractor":"74270647","target":"present","response":"present","rt":"5867.2999999998","correct":true,"confidence":-1},{"trial_n":73,"span":9,"encoder":"890374710","distractor":"890374210","target":"absent","response":"absent","rt":"2801.5","correct":true,"confidence":-1},{"trial_n":74,"span":9,"encoder":"700986983","distractor":"709986983","target":"absent","response":"present","rt":"660.39999999991","correct":false,"confidence":-1},{"trial_n":75,"span":8,"encoder":"18346959","distractor":"18326959","target":"present","response":"absent","rt":"440.10000000009","correct":false,"confidence":-1},{"trial_n":76,"span":7,"encoder":"0092287","distractor":"0092217","target":"present","response":"absent","rt":"680.90000000037","correct":false,"confidence":-1},{"trial_n":77,"span":6,"encoder":"322257","distractor":"322250","target":"absent","response":"absent","rt":"420.60000000009","correct":true,"confidence":-1},{"trial_n":78,"span":6,"encoder":"758074","distractor":"758024","target":"absent","response":"absent","rt":"2052.2000000002","correct":true,"confidence":-1},{"trial_n":79,"span":7,"encoder":"6523233","distractor":"6503233","target":"present","response":"absent","rt":"442.29999999981","correct":false,"confidence":-1},{"trial_n":80,"span":6,"encoder":"054798","distractor":"054797","target":"present","response":"present","rt":"429.39999999991","correct":true,"confidence":-1},{"trial_n":81,"span":6,"encoder":"798754","distractor":"798554","target":"absent","response":"present","rt":"486.70000000019","correct":false,"confidence":-1},{"trial_n":82,"span":5,"encoder":"05549","distractor":"05545","target":"present","response":"absent","rt":"333.20000000019","correct":false,"confidence":-1},{"trial_n":83,"span":4,"encoder":"7039","distractor":"7030","target":"absent","response":"present","rt":"1223.9000000004","correct":false,"confidence":-1},{"trial_n":84,"span":3,"encoder":"830","distractor":"030","target":"absent","response":"absent","rt":"1346.8000000003","correct":true,"confidence":-1},{"trial_n":85,"span":3,"encoder":"544","distractor":"944","target":"present","response":"absent","rt":"3096.7999999998","correct":false,"confidence":-1},{"trial_n":86,"span":2,"encoder":"58","distractor":"48","target":"absent","response":"absent","rt":"1763.7999999998","correct":true,"confidence":-1},{"trial_n":87,"span":2,"encoder":"17","distractor":"37","target":"absent","response":"absent","rt":"1018.4000000004","correct":true,"confidence":-1},{"trial_n":88,"span":3,"encoder":"667","distractor":"669","target":"present","response":"present","rt":"2011.7999999998","correct":true,"confidence":-1},{"trial_n":89,"span":3,"encoder":"061","distractor":"091","target":"present","response":"present","rt":"1049.3000000003","correct":true,"confidence":-1},{"trial_n":90,"span":4,"encoder":"4486","distractor":"8486","target":"present","response":"present","rt":"1182.8999999999","correct":true,"confidence":-1},{"trial_n":91,"span":4,"encoder":"3423","distractor":"3433","target":"absent","response":"absent","rt":"1819.3999999999","correct":true,"confidence":5},{"trial_n":92,"span":5,"encoder":"21105","distractor":"61105","target":"absent","response":"absent","rt":"1846.8000000003","correct":true,"confidence":5},{"trial_n":93,"span":5,"encoder":"67980","distractor":"67981","target":"present","response":"present","rt":"1804.8000000003","correct":true,"confidence":5},{"trial_n":94,"span":6,"encoder":"288432","distractor":"288532","target":"absent","response":"present","rt":"21951.1","correct":false,"confidence":4},{"trial_n":95,"span":5,"encoder":"77334","distractor":"77384","target":"absent","response":"absent","rt":"2390.7000000002","correct":true,"confidence":5},{"trial_n":96,"span":5,"encoder":"03443","distractor":"13443","target":"absent","response":"absent","rt":"2787.7999999998","correct":true,"confidence":5},{"trial_n":97,"span":6,"encoder":"454205","distractor":"354205","target":"present","response":"present","rt":"3532.2000000002","correct":true,"confidence":5},{"trial_n":98,"span":6,"encoder":"543958","distractor":"943958","target":"present","response":"present","rt":"2933.6000000001","correct":true,"confidence":3},{"trial_n":99,"span":7,"encoder":"0649900","distractor":"0679900","target":"present","response":"present","rt":"5953.3999999999","correct":true,"confidence":5},{"trial_n":100,"span":7,"encoder":"7501059","distractor":"7101059","target":"present","response":"present","rt":"3782.2999999998","correct":true,"confidence":4},{"trial_n":101,"span":8,"encoder":"42322477","distractor":"42322417","target":"absent","response":"absent","rt":"3372.1000000001","correct":true,"confidence":5},{"trial_n":102,"span":8,"encoder":"74464702","distractor":"74484702","target":"absent","response":"absent","rt":"2396.6000000001","correct":true,"confidence":1},{"trial_n":103,"span":9,"encoder":"459643618","distractor":"459640618","target":"absent","response":"absent","rt":"4033","correct":true,"confidence":5},{"trial_n":104,"span":9,"encoder":"037294213","distractor":"237294213","target":"present","response":"absent","rt":"7662.6999999997","correct":false,"confidence":2},{"trial_n":105,"span":8,"encoder":"95779720","distractor":"95779700","target":"present","response":"present","rt":"5583.5","correct":true,"confidence":4},{"trial_n":106,"span":8,"encoder":"58137307","distractor":"58133307","target":"absent","response":"absent","rt":"3335.1999999997","correct":true,"confidence":5},{"trial_n":107,"span":9,"encoder":"622075371","distractor":"622025371","target":"present","response":"absent","rt":"4086.1000000001","correct":false,"confidence":5},{"trial_n":108,"span":8,"encoder":"70283130","distractor":"75283130","target":"absent","response":"absent","rt":"4051.5","correct":true,"confidence":3},{"trial_n":109,"span":8,"encoder":"75547814","distractor":"75547614","target":"present","response":"present","rt":"4253","correct":true,"confidence":5},{"trial_n":110,"span":9,"encoder":"338023632","distractor":"338023662","target":"absent","response":"absent","rt":"4736.6000000001","correct":true,"confidence":2},{"trial_n":111,"span":9,"encoder":"194017669","distractor":"194019669","target":"absent","response":"absent","rt":"4941","correct":true,"confidence":5},{"trial_n":112,"span":10,"encoder":"5946653096","distractor":"5946653496","target":"present","response":"absent","rt":"7178.2999999998","correct":false,"confidence":4},{"trial_n":113,"span":9,"encoder":"811344763","distractor":"811364763","target":"absent","response":"absent","rt":"3820.7000000002","correct":true,"confidence":5},{"trial_n":114,"span":9,"encoder":"572031318","distractor":"572039318","target":"present","response":"present","rt":"7381","correct":true,"confidence":3},{"trial_n":115,"span":10,"encoder":"6055204795","distractor":"6058204795","target":"absent","response":"present","rt":"2449.3999999999","correct":false,"confidence":2},{"trial_n":116,"span":9,"encoder":"570586648","distractor":"570583648","target":"present","response":"absent","rt":"2262.2000000002","correct":false,"confidence":5},{"trial_n":117,"span":8,"encoder":"67333425","distractor":"67333485","target":"absent","response":"absent","rt":"3254.3000000003","correct":true,"confidence":3},{"trial_n":118,"span":8,"encoder":"04633111","distractor":"04633161","target":"present","response":"present","rt":"3705.3999999999","correct":true,"confidence":5},{"trial_n":119,"span":9,"encoder":"800290076","distractor":"800290276","target":"absent","response":"absent","rt":"2763.2000000002","correct":true,"confidence":5},{"trial_n":120,"span":9,"encoder":"327278468","distractor":"327272468","target":"present","response":"present","rt":"6010.7999999998","correct":true,"confidence":5},{"trial_n":121,"span":10,"encoder":"5690383180","distractor":"5690383182","target":"present","response":"present","rt":"1827.2000000002","correct":true,"confidence":5},{"trial_n":122,"span":10,"encoder":"7380250911","distractor":"7380260911","target":"present","response":"present","rt":"8153.7999999998","correct":true,"confidence":4},{"trial_n":123,"span":11,"encoder":"05436585314","distractor":"05436585374","target":"absent","response":"absent","rt":"1694.3000000003","correct":true,"confidence":5},{"trial_n":124,"span":11,"encoder":"70133856495","distractor":"70133856425","target":"absent","response":"absent","rt":"2897.5","correct":true,"confidence":5},{"trial_n":125,"span":12,"encoder":"664613831982","distractor":"660613831982","target":"absent","response":"present","rt":"5087.1000000001","correct":false,"confidence":2},{"trial_n":126,"span":11,"encoder":"26538955581","distractor":"26138955581","target":"absent","response":"absent","rt":"4163.3999999999","correct":true,"confidence":5},{"trial_n":127,"span":11,"encoder":"12260732905","distractor":"19260732905","target":"present","response":"present","rt":"4466.5","correct":true,"confidence":5},{"trial_n":128,"span":12,"encoder":"444219640974","distractor":"844219640974","target":"absent","response":"absent","rt":"2127.5","correct":true,"confidence":5},{"trial_n":129,"span":12,"encoder":"631407543654","distractor":"631007543654","target":"absent","response":"absent","rt":"6623.5","correct":true,"confidence":4},{"trial_n":130,"span":13,"encoder":"2237190989615","distractor":"2237130989615","target":"absent","response":"absent","rt":"10184.9","correct":true,"confidence":2},{"trial_n":131,"span":13,"encoder":"9163775119547","distractor":"9163075119547","target":"present","response":"absent","rt":"4819.5999999996","correct":false,"confidence":2},{"trial_n":132,"span":12,"encoder":"733049717063","distractor":"733059717063","target":"absent","response":"absent","rt":"4842.8000000003","correct":true,"confidence":5},{"trial_n":133,"span":12,"encoder":"719908796759","distractor":"717908796759","target":"present","response":"absent","rt":"26465.3","correct":false,"confidence":2},{"trial_n":134,"span":11,"encoder":"51556043983","distractor":"54556043983","target":"present","response":"present","rt":"3794.1000000001","correct":true,"confidence":5},{"trial_n":135,"span":11,"encoder":"34874703362","distractor":"34874603362","target":"present","response":"present","rt":"1343.8999999999","correct":true,"confidence":2},{"trial_n":136,"span":12,"encoder":"857476563877","distractor":"857476563876","target":"present","response":"present","rt":"1434.5","correct":true,"confidence":5},{"trial_n":137,"span":12,"encoder":"523680725985","distractor":"523680725185","target":"present","response":"present","rt":"1634.8999999999","correct":true,"confidence":2},{"trial_n":138,"span":13,"encoder":"6500720019022","distractor":"6504720019022","target":"present","response":"present","rt":"3210.3999999999","correct":true,"confidence":5},{"trial_n":139,"span":13,"encoder":"1838237858914","distractor":"1836237858914","target":"absent","response":"absent","rt":"2195.2000000002","correct":true,"confidence":5},{"trial_n":140,"span":14,"encoder":"63509622679989","distractor":"63509622679929","target":"present","response":"present","rt":"2337.7999999998","correct":true,"confidence":5}]