[{"trial_n":1,"n_dots":4.25,"target":"right","response":"right","rt":4978.2000000477,"correct":true,"confidence":-1},{"trial_n":2,"n_dots":4.25,"target":"right","response":"right","rt":277.70000004768,"correct":true,"confidence":-1},{"trial_n":3,"n_dots":3.85,"target":"right","response":"left","rt":520.89999985695,"correct":false,"confidence":-1},{"trial_n":4,"n_dots":4.25,"target":"right","response":"right","rt":313.39999985695,"correct":true,"confidence":-1},{"trial_n":5,"n_dots":4.25,"target":"right","response":"right","rt":188.60000014305,"correct":true,"confidence":-1},{"trial_n":6,"n_dots":3.85,"target":"left","response":"left","rt":152.60000014305,"correct":true,"confidence":-1},{"trial_n":7,"n_dots":3.85,"target":"right","response":"right","rt":310.09999990463,"correct":true,"confidence":-1},{"trial_n":8,"n_dots":3.65,"target":"left","response":"left","rt":255.5,"correct":true,"confidence":-1},{"trial_n":9,"n_dots":3.65,"target":"left","response":"left","rt":264.90000009537,"correct":true,"confidence":-1},{"trial_n":10,"n_dots":3.45,"target":"left","response":"left","rt":521.5,"correct":true,"confidence":-1},{"trial_n":11,"n_dots":3.45,"target":"left","response":"left","rt":303.5,"correct":true,"confidence":-1},{"trial_n":12,"n_dots":3.25,"target":"left","response":"left","rt":146.90000009537,"correct":true,"confidence":-1},{"trial_n":13,"n_dots":3.25,"target":"left","response":"left","rt":117.60000014305,"correct":true,"confidence":-1},{"trial_n":14,"n_dots":3.15,"target":"left","response":"left","rt":369.20000004768,"correct":true,"confidence":-1},{"trial_n":15,"n_dots":3.15,"target":"left","response":"left","rt":287.30000019073,"correct":true,"confidence":-1},{"trial_n":16,"n_dots":3.05,"target":"left","response":"left","rt":326.79999995232,"correct":true,"confidence":-1},{"trial_n":17,"n_dots":3.05,"target":"left","response":"left","rt":294,"correct":true,"confidence":-1},{"trial_n":18,"n_dots":2.95,"target":"left","response":"left","rt":373.79999995232,"correct":true,"confidence":-1},{"trial_n":19,"n_dots":2.95,"target":"left","response":"left","rt":275.89999985695,"correct":true,"confidence":-1},{"trial_n":20,"n_dots":2.85,"target":"left","response":"left","rt":275.59999990463,"correct":true,"confidence":-1},{"trial_n":21,"n_dots":2.85,"target":"left","response":"left","rt":146.70000004768,"correct":true,"confidence":4},{"trial_n":22,"n_dots":2.75,"target":"right","response":"left","rt":131.40000009537,"correct":false,"confidence":4},{"trial_n":23,"n_dots":2.85,"target":"right","response":"right","rt":261.10000014305,"correct":true,"confidence":3},{"trial_n":24,"n_dots":2.85,"target":"right","response":"left","rt":334.70000004768,"correct":false,"confidence":4},{"trial_n":25,"n_dots":2.95,"target":"right","response":"left","rt":80.299999952316,"correct":false,"confidence":3},{"trial_n":26,"n_dots":3.05,"target":"right","response":"left","rt":87.899999856949,"correct":false,"confidence":2},{"trial_n":27,"n_dots":3.15,"target":"right","response":"right","rt":1732.4000000954,"correct":true,"confidence":1},{"trial_n":28,"n_dots":3.15,"target":"right","response":"left","rt":40.5,"correct":false,"confidence":2},{"trial_n":29,"n_dots":3.25,"target":"left","response":"left","rt":130.20000004768,"correct":true,"confidence":3},{"trial_n":30,"n_dots":3.25,"target":"left","response":"left","rt":265.40000009537,"correct":true,"confidence":2},{"trial_n":31,"n_dots":3.15,"target":"left","response":"left","rt":292.29999995232,"correct":true,"confidence":5},{"trial_n":32,"n_dots":3.15,"target":"right","response":"left","rt":251,"correct":false,"confidence":3},{"trial_n":33,"n_dots":3.25,"target":"right","response":"left","rt":205.80000019073,"correct":false,"confidence":3},{"trial_n":34,"n_dots":3.35,"target":"left","response":"left","rt":36.799999952316,"correct":true,"confidence":2},{"trial_n":35,"n_dots":3.35,"target":"right","response":"left","rt":703.79999995232,"correct":false,"confidence":4},{"trial_n":36,"n_dots":3.45,"target":"right","response":"left","rt":536.10000014305,"correct":false,"confidence":1},{"trial_n":37,"n_dots":3.55,"target":"left","response":"left","rt":90,"correct":true,"confidence":3},{"trial_n":38,"n_dots":3.55,"target":"left","response":"left","rt":95.399999856949,"correct":true,"confidence":5},{"trial_n":39,"n_dots":3.45,"target":"right","response":"right","rt":931.5,"correct":true,"confidence":4},{"trial_n":40,"n_dots":3.45,"target":"left","response":"left","rt":1031.0999999046,"correct":true,"confidence":4},{"trial_n":41,"n_dots":3.35,"target":"right","response":"right","rt":112.70000004768,"correct":true,"confidence":5},{"trial_n":42,"n_dots":3.35,"target":"left","response":"left","rt":14.599999904633,"correct":true,"confidence":1},{"trial_n":43,"n_dots":3.25,"target":"left","response":"left","rt":601.5,"correct":true,"confidence":5},{"trial_n":44,"n_dots":3.25,"target":"right","response":"right","rt":204.79999995232,"correct":true,"confidence":5},{"trial_n":45,"n_dots":3.15,"target":"left","response":"left","rt":521.79999995232,"correct":true,"confidence":4},{"trial_n":46,"n_dots":3.15,"target":"right","response":"left","rt":300.5,"correct":false,"confidence":4},{"trial_n":47,"n_dots":3.25,"target":"right","response":"right","rt":7.5,"correct":true,"confidence":3},{"trial_n":48,"n_dots":3.25,"target":"right","response":"left","rt":274.40000009537,"correct":false,"confidence":3},{"trial_n":49,"n_dots":3.35,"target":"right","response":"left","rt":268,"correct":false,"confidence":3},{"trial_n":50,"n_dots":3.45,"target":"right","response":"right","rt":265.5,"correct":true,"confidence":3},{"trial_n":51,"n_dots":3.45,"target":"right","response":"left","rt":634.20000004768,"correct":false,"confidence":3},{"trial_n":52,"n_dots":3.55,"target":"left","response":"left","rt":341.29999995232,"correct":true,"confidence":3},{"trial_n":53,"n_dots":3.55,"target":"left","response":"right","rt":178.5,"correct":false,"confidence":3},{"trial_n":54,"n_dots":3.65,"target":"right","response":"right","rt":243.89999985695,"correct":true,"confidence":3},{"trial_n":55,"n_dots":3.65,"target":"right","response":"right","rt":2.5999999046326,"correct":true,"confidence":4},{"trial_n":56,"n_dots":3.55,"target":"left","response":"left","rt":153.70000004768,"correct":true,"confidence":5},{"trial_n":57,"n_dots":3.55,"target":"right","response":"right","rt":89.200000047684,"correct":true,"confidence":5},{"trial_n":58,"n_dots":3.45,"target":"right","response":"right","rt":110.19999980927,"correct":true,"confidence":5},{"trial_n":59,"n_dots":3.45,"target":"left","response":"left","rt":377,"correct":true,"confidence":5},{"trial_n":60,"n_dots":3.35,"target":"right","response":"right","rt":325.29999995232,"correct":true,"confidence":3},{"trial_n":61,"n_dots":3.35,"target":"right","response":"left","rt":85.900000095367,"correct":false,"confidence":3},{"trial_n":62,"n_dots":3.45,"target":"left","response":"left","rt":58.5,"correct":true,"confidence":5},{"trial_n":63,"n_dots":3.45,"target":"left","response":"left","rt":623.79999995232,"correct":true,"confidence":4},{"trial_n":64,"n_dots":3.35,"target":"left","response":"left","rt":292,"correct":true,"confidence":3},{"trial_n":65,"n_dots":3.35,"target":"left","response":"left","rt":485.5,"correct":true,"confidence":2},{"trial_n":66,"n_dots":3.25,"target":"left","response":"right","rt":959.20000004768,"correct":false,"confidence":2},{"trial_n":67,"n_dots":3.35,"target":"right","response":"left","rt":23.200000047684,"correct":false,"confidence":3},{"trial_n":68,"n_dots":3.45,"target":"right","response":"left","rt":297.29999995232,"correct":false,"confidence":2},{"trial_n":69,"n_dots":3.55,"target":"right","response":"right","rt":1308.4000000954,"correct":true,"confidence":3},{"trial_n":70,"n_dots":3.55,"target":"left","response":"left","rt":93.799999952316,"correct":true,"confidence":2},{"trial_n":71,"n_dots":3.45,"target":"left","response":"left","rt":261.10000014305,"correct":true,"confidence":4},{"trial_n":72,"n_dots":3.45,"target":"right","response":"right","rt":39.899999856949,"correct":true,"confidence":3},{"trial_n":73,"n_dots":3.35,"target":"right","response":"right","rt":80,"correct":true,"confidence":3},{"trial_n":74,"n_dots":3.35,"target":"right","response":"right","rt":371.39999985695,"correct":true,"confidence":3},{"trial_n":75,"n_dots":3.25,"target":"right","response":"right","rt":401,"correct":true,"confidence":2},{"trial_n":76,"n_dots":3.25,"target":"right","response":"left","rt":206.5,"correct":false,"confidence":3},{"trial_n":77,"n_dots":3.35,"target":"left","response":"left","rt":62.299999952316,"correct":true,"confidence":5},{"trial_n":78,"n_dots":3.35,"target":"right","response":"right","rt":390.80000019073,"correct":true,"confidence":3},{"trial_n":79,"n_dots":3.25,"target":"right","response":"right","rt":178.10000014305,"correct":true,"confidence":4},{"trial_n":80,"n_dots":3.25,"target":"left","response":"left","rt":24.399999856949,"correct":true,"confidence":5},{"trial_n":81,"n_dots":3.15,"target":"right","response":"right","rt":318.5,"correct":true,"confidence":3},{"trial_n":82,"n_dots":3.15,"target":"left","response":"left","rt":322.09999990463,"correct":true,"confidence":3},{"trial_n":83,"n_dots":3.05,"target":"left","response":"right","rt":456.80000019073,"correct":false,"confidence":1},{"trial_n":84,"n_dots":3.15,"target":"right","response":"left","rt":242.70000004768,"correct":false,"confidence":3},{"trial_n":85,"n_dots":3.25,"target":"left","response":"left","rt":491.79999995232,"correct":true,"confidence":4},{"trial_n":86,"n_dots":3.25,"target":"left","response":"left","rt":659.20000004768,"correct":true,"confidence":4},{"trial_n":87,"n_dots":3.15,"target":"right","response":"left","rt":618.5,"correct":false,"confidence":4},{"trial_n":88,"n_dots":3.25,"target":"left","response":"left","rt":523.40000009537,"correct":true,"confidence":3},{"trial_n":89,"n_dots":3.25,"target":"left","response":"right","rt":890.20000004768,"correct":false,"confidence":2},{"trial_n":90,"n_dots":3.35,"target":"right","response":"right","rt":710.60000014305,"correct":true,"confidence":2},{"trial_n":91,"n_dots":3.35,"target":"left","response":"left","rt":537,"correct":true,"confidence":4},{"trial_n":92,"n_dots":3.25,"target":"left","response":"left","rt":463.79999995232,"correct":true,"confidence":5},{"trial_n":93,"n_dots":3.25,"target":"right","response":"left","rt":632.89999985695,"correct":false,"confidence":3},{"trial_n":94,"n_dots":3.35,"target":"left","response":"left","rt":845.79999995232,"correct":true,"confidence":5},{"trial_n":95,"n_dots":3.35,"target":"right","response":"left","rt":237.5,"correct":false,"confidence":4},{"trial_n":96,"n_dots":3.45,"target":"right","response":"left","rt":504.5,"correct":false,"confidence":1},{"trial_n":97,"n_dots":3.55,"target":"left","response":"left","rt":767.79999995232,"correct":true,"confidence":3},{"trial_n":98,"n_dots":3.55,"target":"right","response":"right","rt":276.09999990463,"correct":true,"confidence":1},{"trial_n":99,"n_dots":3.45,"target":"left","response":"left","rt":273.90000009537,"correct":true,"confidence":3},{"trial_n":100,"n_dots":3.45,"target":"left","response":"left","rt":266.09999990463,"correct":true,"confidence":4},{"trial_n":101,"n_dots":3.35,"target":"right","response":"right","rt":547.60000014305,"correct":true,"confidence":4},{"trial_n":102,"n_dots":3.35,"target":"right","response":"right","rt":94.5,"correct":true,"confidence":3},{"trial_n":103,"n_dots":3.25,"target":"left","response":"right","rt":538.29999995232,"correct":false,"confidence":2},{"trial_n":104,"n_dots":3.35,"target":"right","response":"right","rt":459.70000004768,"correct":true,"confidence":5},{"trial_n":105,"n_dots":3.35,"target":"left","response":"left","rt":887.5,"correct":true,"confidence":3},{"trial_n":106,"n_dots":3.25,"target":"left","response":"left","rt":151.70000004768,"correct":true,"confidence":5},{"trial_n":107,"n_dots":3.25,"target":"left","response":"right","rt":508.39999985695,"correct":false,"confidence":2},{"trial_n":108,"n_dots":3.35,"target":"left","response":"left","rt":85.200000047684,"correct":true,"confidence":3},{"trial_n":109,"n_dots":3.35,"target":"right","response":"right","rt":134.5,"correct":true,"confidence":4},{"trial_n":110,"n_dots":3.25,"target":"left","response":"left","rt":638.19999980927,"correct":true,"confidence":3},{"trial_n":111,"n_dots":3.25,"target":"left","response":"left","rt":81.299999952316,"correct":true,"confidence":5},{"trial_n":112,"n_dots":3.15,"target":"right","response":"left","rt":113.20000004768,"correct":false,"confidence":3},{"trial_n":113,"n_dots":3.25,"target":"left","response":"right","rt":268.70000004768,"correct":false,"confidence":4},{"trial_n":114,"n_dots":3.35,"target":"right","response":"left","rt":177.29999995232,"correct":false,"confidence":4},{"trial_n":115,"n_dots":3.45,"target":"left","response":"right","rt":226.29999995232,"correct":false,"confidence":2},{"trial_n":116,"n_dots":3.55,"target":"right","response":"right","rt":355.59999990463,"correct":true,"confidence":5},{"trial_n":117,"n_dots":3.55,"target":"left","response":"left","rt":237.5,"correct":true,"confidence":3},{"trial_n":118,"n_dots":3.45,"target":"right","response":"right","rt":128.90000009537,"correct":true,"confidence":1},{"trial_n":119,"n_dots":3.45,"target":"right","response":"right","rt":224.09999990463,"correct":true,"confidence":5},{"trial_n":120,"n_dots":3.35,"target":"right","response":"left","rt":277.20000004768,"correct":false,"confidence":4}]