[{"trial_n":1,"n_dots":4.25,"target":"left","response":"left","rt":3921.8999998569,"correct":true,"confidence":-1},{"trial_n":2,"n_dots":4.25,"target":"right","response":"right","rt":1436.1000001431,"correct":true,"confidence":-1},{"trial_n":3,"n_dots":3.85,"target":"left","response":"left","rt":778.79999995232,"correct":true,"confidence":-1},{"trial_n":4,"n_dots":3.85,"target":"right","response":"right","rt":1302.4000000954,"correct":true,"confidence":-1},{"trial_n":5,"n_dots":3.45,"target":"left","response":"left","rt":945.20000004768,"correct":true,"confidence":-1},{"trial_n":6,"n_dots":3.45,"target":"right","response":"right","rt":975,"correct":true,"confidence":-1},{"trial_n":7,"n_dots":3.05,"target":"right","response":"right","rt":1651.7999999523,"correct":true,"confidence":-1},{"trial_n":8,"n_dots":3.05,"target":"left","response":"left","rt":827,"correct":true,"confidence":-1},{"trial_n":9,"n_dots":2.85,"target":"left","response":"right","rt":522.30000019073,"correct":false,"confidence":-1},{"trial_n":10,"n_dots":3.05,"target":"right","response":"left","rt":793.19999980927,"correct":false,"confidence":-1},{"trial_n":11,"n_dots":3.25,"target":"left","response":"left","rt":636.79999995232,"correct":true,"confidence":-1},{"trial_n":12,"n_dots":3.25,"target":"right","response":"left","rt":728.90000009537,"correct":false,"confidence":-1},{"trial_n":13,"n_dots":3.35,"target":"right","response":"left","rt":523.60000014305,"correct":false,"confidence":-1},{"trial_n":14,"n_dots":3.45,"target":"right","response":"left","rt":569.10000014305,"correct":false,"confidence":-1},{"trial_n":15,"n_dots":3.55,"target":"right","response":"right","rt":859.29999995232,"correct":true,"confidence":-1},{"trial_n":16,"n_dots":3.55,"target":"right","response":"left","rt":500.5,"correct":false,"confidence":-1},{"trial_n":17,"n_dots":3.65,"target":"left","response":"left","rt":518.90000009537,"correct":true,"confidence":-1},{"trial_n":18,"n_dots":3.65,"target":"left","response":"left","rt":916.5,"correct":true,"confidence":-1},{"trial_n":19,"n_dots":3.55,"target":"left","response":"left","rt":846.20000004768,"correct":true,"confidence":-1},{"trial_n":20,"n_dots":3.55,"target":"right","response":"right","rt":519.19999980927,"correct":true,"confidence":-1},{"trial_n":21,"n_dots":3.45,"target":"left","response":"left","rt":710.79999995232,"correct":true,"confidence":2},{"trial_n":22,"n_dots":3.45,"target":"left","response":"left","rt":940.80000019073,"correct":true,"confidence":2},{"trial_n":23,"n_dots":3.35,"target":"right","response":"right","rt":521.29999995232,"correct":true,"confidence":2},{"trial_n":24,"n_dots":3.35,"target":"left","response":"left","rt":577.59999990463,"correct":true,"confidence":3},{"trial_n":25,"n_dots":3.25,"target":"right","response":"right","rt":444.29999995232,"correct":true,"confidence":2},{"trial_n":26,"n_dots":3.25,"target":"left","response":"left","rt":604.90000009537,"correct":true,"confidence":1},{"trial_n":27,"n_dots":3.15,"target":"left","response":"right","rt":425.30000019073,"correct":false,"confidence":2},{"trial_n":28,"n_dots":3.25,"target":"right","response":"right","rt":1244.3000001907,"correct":true,"confidence":1},{"trial_n":29,"n_dots":3.25,"target":"right","response":"right","rt":547.29999995232,"correct":true,"confidence":3},{"trial_n":30,"n_dots":3.15,"target":"right","response":"left","rt":755.60000014305,"correct":false,"confidence":2},{"trial_n":31,"n_dots":3.25,"target":"left","response":"left","rt":826.10000014305,"correct":true,"confidence":2},{"trial_n":32,"n_dots":3.25,"target":"left","response":"right","rt":671.20000004768,"correct":false,"confidence":2},{"trial_n":33,"n_dots":3.35,"target":"right","response":"left","rt":790.29999995232,"correct":false,"confidence":1},{"trial_n":34,"n_dots":3.45,"target":"left","response":"left","rt":1486.4000000954,"correct":true,"confidence":1},{"trial_n":35,"n_dots":3.45,"target":"left","response":"left","rt":2181.3999998569,"correct":true,"confidence":1},{"trial_n":36,"n_dots":3.35,"target":"right","response":"right","rt":580.30000019073,"correct":true,"confidence":2},{"trial_n":37,"n_dots":3.35,"target":"right","response":"right","rt":903.29999995232,"correct":true,"confidence":2},{"trial_n":38,"n_dots":3.25,"target":"right","response":"right","rt":870.29999995232,"correct":true,"confidence":1},{"trial_n":39,"n_dots":3.25,"target":"left","response":"left","rt":758,"correct":true,"confidence":2},{"trial_n":40,"n_dots":3.15,"target":"right","response":"right","rt":1221.9000000954,"correct":true,"confidence":2},{"trial_n":41,"n_dots":3.15,"target":"right","response":"right","rt":736.30000019073,"correct":true,"confidence":1},{"trial_n":42,"n_dots":3.05,"target":"left","response":"left","rt":618.60000014305,"correct":true,"confidence":3},{"trial_n":43,"n_dots":3.05,"target":"right","response":"left","rt":842.59999990463,"correct":false,"confidence":2},{"trial_n":44,"n_dots":3.15,"target":"right","response":"right","rt":1144.2999999523,"correct":true,"confidence":1},{"trial_n":45,"n_dots":3.15,"target":"left","response":"left","rt":800.70000004768,"correct":true,"confidence":2},{"trial_n":46,"n_dots":3.05,"target":"left","response":"left","rt":789.79999995232,"correct":true,"confidence":1},{"trial_n":47,"n_dots":3.05,"target":"left","response":"right","rt":748,"correct":false,"confidence":2},{"trial_n":48,"n_dots":3.15,"target":"right","response":"left","rt":924.60000014305,"correct":false,"confidence":2},{"trial_n":49,"n_dots":3.25,"target":"right","response":"left","rt":688.09999990463,"correct":false,"confidence":2},{"trial_n":50,"n_dots":3.35,"target":"right","response":"right","rt":682.30000019073,"correct":true,"confidence":2},{"trial_n":51,"n_dots":3.35,"target":"right","response":"right","rt":1558.8000001907,"correct":true,"confidence":1},{"trial_n":52,"n_dots":3.25,"target":"right","response":"left","rt":646.19999980927,"correct":false,"confidence":2},{"trial_n":53,"n_dots":3.35,"target":"left","response":"left","rt":1489.9000000954,"correct":true,"confidence":1},{"trial_n":54,"n_dots":3.35,"target":"left","response":"left","rt":689.40000009537,"correct":true,"confidence":2},{"trial_n":55,"n_dots":3.25,"target":"left","response":"right","rt":1221.7999999523,"correct":false,"confidence":2},{"trial_n":56,"n_dots":3.35,"target":"left","response":"left","rt":830,"correct":true,"confidence":1},{"trial_n":57,"n_dots":3.35,"target":"right","response":"left","rt":1046.7999999523,"correct":false,"confidence":1},{"trial_n":58,"n_dots":3.45,"target":"left","response":"left","rt":713,"correct":true,"confidence":1},{"trial_n":59,"n_dots":3.45,"target":"right","response":"right","rt":1097.2000000477,"correct":true,"confidence":3},{"trial_n":60,"n_dots":3.35,"target":"right","response":"right","rt":1056.0999999046,"correct":true,"confidence":1},{"trial_n":61,"n_dots":3.35,"target":"left","response":"left","rt":536.5,"correct":true,"confidence":2},{"trial_n":62,"n_dots":3.25,"target":"right","response":"right","rt":588.79999995232,"correct":true,"confidence":2},{"trial_n":63,"n_dots":3.25,"target":"right","response":"left","rt":664.30000019073,"correct":false,"confidence":2},{"trial_n":64,"n_dots":3.35,"target":"left","response":"right","rt":490.29999995232,"correct":false,"confidence":3},{"trial_n":65,"n_dots":3.45,"target":"left","response":"left","rt":646.20000004768,"correct":true,"confidence":3},{"trial_n":66,"n_dots":3.45,"target":"left","response":"left","rt":895,"correct":true,"confidence":2},{"trial_n":67,"n_dots":3.35,"target":"left","response":"left","rt":846.90000009537,"correct":true,"confidence":1},{"trial_n":68,"n_dots":3.35,"target":"left","response":"left","rt":608.79999995232,"correct":true,"confidence":3},{"trial_n":69,"n_dots":3.25,"target":"left","response":"right","rt":475,"correct":false,"confidence":2},{"trial_n":70,"n_dots":3.35,"target":"left","response":"left","rt":572.40000009537,"correct":true,"confidence":3},{"trial_n":71,"n_dots":3.35,"target":"left","response":"left","rt":637.5,"correct":true,"confidence":2},{"trial_n":72,"n_dots":3.25,"target":"left","response":"right","rt":436.69999980927,"correct":false,"confidence":2},{"trial_n":73,"n_dots":3.35,"target":"right","response":"left","rt":530.89999985695,"correct":false,"confidence":1},{"trial_n":74,"n_dots":3.45,"target":"right","response":"right","rt":517.5,"correct":true,"confidence":3},{"trial_n":75,"n_dots":3.45,"target":"right","response":"left","rt":1042,"correct":false,"confidence":2},{"trial_n":76,"n_dots":3.55,"target":"right","response":"right","rt":768.20000004768,"correct":true,"confidence":2},{"trial_n":77,"n_dots":3.55,"target":"left","response":"left","rt":733.60000014305,"correct":true,"confidence":2},{"trial_n":78,"n_dots":3.45,"target":"right","response":"right","rt":438.70000004768,"correct":true,"confidence":3},{"trial_n":79,"n_dots":3.45,"target":"right","response":"left","rt":923.39999985695,"correct":false,"confidence":1},{"trial_n":80,"n_dots":3.55,"target":"left","response":"left","rt":1248.2000000477,"correct":true,"confidence":1},{"trial_n":81,"n_dots":3.55,"target":"left","response":"right","rt":617.19999980927,"correct":false,"confidence":2},{"trial_n":82,"n_dots":3.65,"target":"right","response":"left","rt":1057.0999999046,"correct":false,"confidence":1},{"trial_n":83,"n_dots":3.75,"target":"left","response":"right","rt":732.60000014305,"correct":false,"confidence":2},{"trial_n":84,"n_dots":3.85,"target":"left","response":"left","rt":661,"correct":true,"confidence":3},{"trial_n":85,"n_dots":3.85,"target":"right","response":"right","rt":556.70000004768,"correct":true,"confidence":3},{"trial_n":86,"n_dots":3.75,"target":"left","response":"left","rt":712.10000014305,"correct":true,"confidence":3},{"trial_n":87,"n_dots":3.75,"target":"right","response":"right","rt":2294,"correct":true,"confidence":1},{"trial_n":88,"n_dots":3.65,"target":"right","response":"left","rt":1254.9000000954,"correct":false,"confidence":1},{"trial_n":89,"n_dots":3.75,"target":"left","response":"left","rt":965.09999990463,"correct":true,"confidence":2},{"trial_n":90,"n_dots":3.75,"target":"right","response":"right","rt":505.39999985695,"correct":true,"confidence":3},{"trial_n":91,"n_dots":3.65,"target":"left","response":"left","rt":900.20000004768,"correct":true,"confidence":3},{"trial_n":92,"n_dots":3.65,"target":"left","response":"left","rt":968.79999995232,"correct":true,"confidence":2},{"trial_n":93,"n_dots":3.55,"target":"left","response":"left","rt":848.89999985695,"correct":true,"confidence":2},{"trial_n":94,"n_dots":3.55,"target":"left","response":"left","rt":699.29999995232,"correct":true,"confidence":2},{"trial_n":95,"n_dots":3.45,"target":"right","response":"right","rt":879.90000009537,"correct":true,"confidence":1},{"trial_n":96,"n_dots":3.45,"target":"right","response":"right","rt":560.20000004768,"correct":true,"confidence":2},{"trial_n":97,"n_dots":3.35,"target":"right","response":"right","rt":825.20000004768,"correct":true,"confidence":1},{"trial_n":98,"n_dots":3.35,"target":"left","response":"left","rt":1047.3999998569,"correct":true,"confidence":2},{"trial_n":99,"n_dots":3.25,"target":"left","response":"left","rt":1090.2000000477,"correct":true,"confidence":1},{"trial_n":100,"n_dots":3.25,"target":"right","response":"right","rt":890.39999985695,"correct":true,"confidence":1},{"trial_n":101,"n_dots":3.15,"target":"left","response":"left","rt":717.90000009537,"correct":true,"confidence":2},{"trial_n":102,"n_dots":3.15,"target":"right","response":"right","rt":1061.4000000954,"correct":true,"confidence":1},{"trial_n":103,"n_dots":3.05,"target":"left","response":"right","rt":985.29999995232,"correct":false,"confidence":1},{"trial_n":104,"n_dots":3.15,"target":"right","response":"right","rt":727.5,"correct":true,"confidence":2},{"trial_n":105,"n_dots":3.15,"target":"left","response":"left","rt":931.70000004768,"correct":true,"confidence":2},{"trial_n":106,"n_dots":3.05,"target":"left","response":"right","rt":892.59999990463,"correct":false,"confidence":2},{"trial_n":107,"n_dots":3.15,"target":"right","response":"right","rt":775.29999995232,"correct":true,"confidence":2},{"trial_n":108,"n_dots":3.15,"target":"right","response":"left","rt":1061.3999998569,"correct":false,"confidence":2},{"trial_n":109,"n_dots":3.25,"target":"left","response":"left","rt":1077.7000000477,"correct":true,"confidence":1},{"trial_n":110,"n_dots":3.25,"target":"right","response":"left","rt":1853.3999998569,"correct":false,"confidence":3},{"trial_n":111,"n_dots":3.35,"target":"right","response":"right","rt":1599.4000000954,"correct":true,"confidence":3},{"trial_n":112,"n_dots":3.35,"target":"left","response":"left","rt":731.89999985695,"correct":true,"confidence":2},{"trial_n":113,"n_dots":3.25,"target":"right","response":"right","rt":494.20000004768,"correct":true,"confidence":3},{"trial_n":114,"n_dots":3.25,"target":"right","response":"right","rt":562.5,"correct":true,"confidence":3},{"trial_n":115,"n_dots":3.15,"target":"right","response":"right","rt":714.60000014305,"correct":true,"confidence":2},{"trial_n":116,"n_dots":3.15,"target":"right","response":"left","rt":1312.5,"correct":false,"confidence":1},{"trial_n":117,"n_dots":3.25,"target":"left","response":"left","rt":957.79999995232,"correct":true,"confidence":2},{"trial_n":118,"n_dots":3.25,"target":"left","response":"right","rt":600.5,"correct":false,"confidence":1},{"trial_n":119,"n_dots":3.35,"target":"left","response":"left","rt":572.69999980927,"correct":true,"confidence":2},{"trial_n":120,"n_dots":3.35,"target":"right","response":"right","rt":900.19999980927,"correct":true,"confidence":1}]