[{"trial_n":1,"span":8,"encoder":"12117265","distractor":"12111265","target":"present","response":"present","rt":"7216","correct":true,"confidence":-1},{"trial_n":2,"span":8,"encoder":"29041619","distractor":"19041619","target":"present","response":"present","rt":"2693","correct":true,"confidence":-1},{"trial_n":3,"span":10,"encoder":"2604524656","distractor":"2604514656","target":"absent","response":"present","rt":"2951","correct":false,"confidence":-1},{"trial_n":4,"span":8,"encoder":"05977921","distractor":"05477921","target":"absent","response":"absent","rt":"4312","correct":true,"confidence":-1},{"trial_n":5,"span":8,"encoder":"90454079","distractor":"91454079","target":"present","response":"present","rt":"1774","correct":true,"confidence":-1},{"trial_n":6,"span":10,"encoder":"4927252364","distractor":"4927952364","target":"absent","response":"present","rt":"2296","correct":false,"confidence":-1},{"trial_n":7,"span":8,"encoder":"22462304","distractor":"02462304","target":"absent","response":"present","rt":"1698","correct":false,"confidence":-1},{"trial_n":8,"span":6,"encoder":"169238","distractor":"169258","target":"absent","response":"present","rt":"1279","correct":false,"confidence":-1},{"trial_n":9,"span":4,"encoder":"2784","distractor":"6784","target":"present","response":"present","rt":"845","correct":true,"confidence":-1},{"trial_n":10,"span":4,"encoder":"5587","distractor":"5187","target":"present","response":"present","rt":"1198","correct":true,"confidence":-1},{"trial_n":11,"span":6,"encoder":"468758","distractor":"468788","target":"present","response":"present","rt":"1465","correct":true,"confidence":-1},{"trial_n":12,"span":6,"encoder":"197539","distractor":"197639","target":"absent","response":"absent","rt":"1557","correct":true,"confidence":-1},{"trial_n":13,"span":7,"encoder":"9366322","distractor":"9366328","target":"absent","response":"absent","rt":"2354","correct":true,"confidence":-1},{"trial_n":14,"span":7,"encoder":"1077218","distractor":"1077288","target":"absent","response":"present","rt":"1898","correct":false,"confidence":-1},{"trial_n":15,"span":6,"encoder":"269815","distractor":"299815","target":"present","response":"present","rt":"1601","correct":true,"confidence":-1},{"trial_n":16,"span":6,"encoder":"357364","distractor":"352364","target":"absent","response":"absent","rt":"2030","correct":true,"confidence":-1},{"trial_n":17,"span":7,"encoder":"0116942","distractor":"0116442","target":"present","response":"absent","rt":"1901","correct":false,"confidence":-1},{"trial_n":18,"span":6,"encoder":"189887","distractor":"119887","target":"present","response":"absent","rt":"2755","correct":false,"confidence":-1},{"trial_n":19,"span":5,"encoder":"02496","distractor":"02426","target":"present","response":"present","rt":"1176","correct":true,"confidence":-1},{"trial_n":20,"span":5,"encoder":"15056","distractor":"05056","target":"absent","response":"present","rt":"701","correct":false,"confidence":-1},{"trial_n":21,"span":4,"encoder":"3760","distractor":"3260","target":"present","response":"present","rt":"1074","correct":true,"confidence":5},{"trial_n":22,"span":4,"encoder":"8229","distractor":"9229","target":"present","response":"present","rt":"4393","correct":true,"confidence":5},{"trial_n":23,"span":5,"encoder":"56490","distractor":"55490","target":"absent","response":"absent","rt":"3161","correct":true,"confidence":5},{"trial_n":24,"span":5,"encoder":"80267","distractor":"80247","target":"absent","response":"absent","rt":"7781","correct":true,"confidence":5},{"trial_n":25,"span":6,"encoder":"726023","distractor":"726003","target":"absent","response":"absent","rt":"5000","correct":true,"confidence":4},{"trial_n":26,"span":6,"encoder":"195473","distractor":"695473","target":"absent","response":"absent","rt":"6084","correct":true,"confidence":5},{"trial_n":27,"span":7,"encoder":"5318355","distractor":"5314355","target":"absent","response":"absent","rt":"3073","correct":true,"confidence":5},{"trial_n":28,"span":7,"encoder":"7068043","distractor":"3068043","target":"present","response":"present","rt":"4037","correct":true,"confidence":4},{"trial_n":29,"span":8,"encoder":"60339729","distractor":"60339229","target":"present","response":"present","rt":"7227","correct":true,"confidence":4},{"trial_n":30,"span":8,"encoder":"59912221","distractor":"59712221","target":"present","response":"present","rt":"4614","correct":true,"confidence":3},{"trial_n":31,"span":9,"encoder":"363712740","distractor":"163712740","target":"present","response":"present","rt":"3813","correct":true,"confidence":4},{"trial_n":32,"span":9,"encoder":"685773795","distractor":"685773705","target":"absent","response":"absent","rt":"4098","correct":true,"confidence":5},{"trial_n":33,"span":10,"encoder":"9254860924","distractor":"9254860934","target":"present","response":"present","rt":"3324","correct":true,"confidence":5},{"trial_n":34,"span":10,"encoder":"3944715917","distractor":"3944715916","target":"absent","response":"absent","rt":"3853.9999999999","correct":true,"confidence":4},{"trial_n":35,"span":11,"encoder":"12688524297","distractor":"12688524227","target":"absent","response":"absent","rt":"2624","correct":true,"confidence":5},{"trial_n":36,"span":11,"encoder":"00784155667","distractor":"00784155657","target":"absent","response":"present","rt":"7244","correct":false,"confidence":3},{"trial_n":37,"span":10,"encoder":"2955655442","distractor":"2955755442","target":"absent","response":"absent","rt":"3560","correct":true,"confidence":5},{"trial_n":38,"span":10,"encoder":"4762998951","distractor":"4762998251","target":"absent","response":"absent","rt":"4507","correct":true,"confidence":4},{"trial_n":39,"span":11,"encoder":"91192388521","distractor":"91192387521","target":"present","response":"present","rt":"3914","correct":true,"confidence":4},{"trial_n":40,"span":11,"encoder":"41896556584","distractor":"41896566584","target":"present","response":"present","rt":"2682.0000000001","correct":true,"confidence":4},{"trial_n":41,"span":12,"encoder":"381821530820","distractor":"581821530820","target":"present","response":"present","rt":"2265.9999999999","correct":true,"confidence":3},{"trial_n":42,"span":12,"encoder":"348721452887","distractor":"348721752887","target":"present","response":"present","rt":"6601","correct":true,"confidence":3},{"trial_n":43,"span":13,"encoder":"2894193696045","distractor":"2894193697045","target":"present","response":"present","rt":"6109","correct":true,"confidence":4},{"trial_n":44,"span":13,"encoder":"1141183447311","distractor":"1141182447311","target":"present","response":"absent","rt":"9873","correct":false,"confidence":3},{"trial_n":45,"span":12,"encoder":"259865685750","distractor":"250865685750","target":"absent","response":"present","rt":"8557","correct":false,"confidence":3},{"trial_n":46,"span":11,"encoder":"53101019178","distractor":"53101619178","target":"present","response":"present","rt":"2952","correct":true,"confidence":4},{"trial_n":47,"span":11,"encoder":"14302004633","distractor":"14302004733","target":"absent","response":"present","rt":"6152","correct":false,"confidence":3},{"trial_n":48,"span":10,"encoder":"5328214014","distractor":"5348214014","target":"present","response":"present","rt":"3284.0000000001","correct":true,"confidence":4},{"trial_n":49,"span":10,"encoder":"2231203495","distractor":"2231283495","target":"absent","response":"present","rt":"2147","correct":false,"confidence":3},{"trial_n":50,"span":9,"encoder":"829572418","distractor":"889572418","target":"present","response":"present","rt":"5177.0000000001","correct":true,"confidence":4},{"trial_n":51,"span":9,"encoder":"020737414","distractor":"020737412","target":"present","response":"present","rt":"10031","correct":true,"confidence":2},{"trial_n":52,"span":10,"encoder":"1818650495","distractor":"1618650495","target":"present","response":"present","rt":"2491","correct":true,"confidence":4},{"trial_n":53,"span":10,"encoder":"5029797842","distractor":"5029597842","target":"present","response":"present","rt":"2144","correct":true,"confidence":4},{"trial_n":54,"span":11,"encoder":"14727714207","distractor":"14127714207","target":"absent","response":"present","rt":"3482","correct":false,"confidence":3},{"trial_n":55,"span":10,"encoder":"4643957383","distractor":"4643950383","target":"present","response":"present","rt":"6120.0000000001","correct":true,"confidence":3},{"trial_n":56,"span":10,"encoder":"7457820803","distractor":"7957820803","target":"absent","response":"present","rt":"3078","correct":false,"confidence":3},{"trial_n":57,"span":9,"encoder":"283630714","distractor":"233630714","target":"present","response":"present","rt":"2771","correct":true,"confidence":3},{"trial_n":58,"span":9,"encoder":"230402904","distractor":"230602904","target":"absent","response":"present","rt":"2155","correct":false,"confidence":3},{"trial_n":59,"span":8,"encoder":"17666082","distractor":"07666082","target":"present","response":"present","rt":"2706","correct":true,"confidence":4},{"trial_n":60,"span":8,"encoder":"92688027","distractor":"97688027","target":"absent","response":"present","rt":"4335","correct":false,"confidence":3},{"trial_n":61,"span":7,"encoder":"5075680","distractor":"5070680","target":"absent","response":"absent","rt":"3354.0000000001","correct":true,"confidence":4},{"trial_n":62,"span":7,"encoder":"2231051","distractor":"2232051","target":"absent","response":"absent","rt":"2266.0000000001","correct":true,"confidence":5},{"trial_n":63,"span":8,"encoder":"79162106","distractor":"79162107","target":"absent","response":"absent","rt":"3235.0000000001","correct":true,"confidence":5},{"trial_n":64,"span":8,"encoder":"39027586","distractor":"39027886","target":"present","response":"present","rt":"3436.9999999999","correct":true,"confidence":4},{"trial_n":65,"span":9,"encoder":"501341083","distractor":"501341183","target":"absent","response":"present","rt":"4307.0000000001","correct":false,"confidence":3},{"trial_n":66,"span":8,"encoder":"43583207","distractor":"43583307","target":"absent","response":"absent","rt":"7539","correct":true,"confidence":3},{"trial_n":67,"span":8,"encoder":"60403967","distractor":"60403917","target":"present","response":"absent","rt":"3141","correct":false,"confidence":2},{"trial_n":68,"span":7,"encoder":"3999735","distractor":"3996735","target":"present","response":"present","rt":"1550","correct":true,"confidence":4},{"trial_n":69,"span":7,"encoder":"0689070","distractor":"2689070","target":"absent","response":"present","rt":"5018","correct":false,"confidence":3},{"trial_n":70,"span":6,"encoder":"259888","distractor":"259887","target":"present","response":"present","rt":"2198","correct":true,"confidence":5},{"trial_n":71,"span":8,"encoder":"80714939","distractor":"80719939","target":"present","response":"present","rt":"6772.0000000001","correct":true,"confidence":-1},{"trial_n":72,"span":8,"encoder":"45262719","distractor":"45262769","target":"present","response":"present","rt":"1642","correct":true,"confidence":-1},{"trial_n":73,"span":9,"encoder":"299835385","distractor":"299835388","target":"absent","response":"absent","rt":"1371","correct":true,"confidence":-1},{"trial_n":74,"span":9,"encoder":"757246098","distractor":"757286098","target":"absent","response":"present","rt":"5421","correct":false,"confidence":-1},{"trial_n":75,"span":8,"encoder":"24803343","distractor":"24003343","target":"present","response":"absent","rt":"224","correct":false,"confidence":-1},{"trial_n":76,"span":7,"encoder":"2981672","distractor":"2481672","target":"present","response":"absent","rt":"246","correct":false,"confidence":-1},{"trial_n":77,"span":6,"encoder":"298800","distractor":"292800","target":"absent","response":"absent","rt":"318","correct":true,"confidence":-1},{"trial_n":78,"span":6,"encoder":"599982","distractor":"596982","target":"absent","response":"absent","rt":"300.99999999977","correct":true,"confidence":-1},{"trial_n":79,"span":7,"encoder":"8033108","distractor":"5033108","target":"absent","response":"absent","rt":"496","correct":true,"confidence":-1},{"trial_n":80,"span":7,"encoder":"8732706","distractor":"8712706","target":"absent","response":"present","rt":"469","correct":false,"confidence":-1},{"trial_n":81,"span":6,"encoder":"374917","distractor":"374517","target":"absent","response":"present","rt":"386","correct":false,"confidence":-1},{"trial_n":82,"span":5,"encoder":"18024","distractor":"18044","target":"present","response":"absent","rt":"158","correct":false,"confidence":-1},{"trial_n":83,"span":4,"encoder":"4256","distractor":"4255","target":"absent","response":"present","rt":"168","correct":false,"confidence":-1},{"trial_n":84,"span":3,"encoder":"586","distractor":"986","target":"present","response":"present","rt":"241.99999999977","correct":true,"confidence":-1},{"trial_n":85,"span":3,"encoder":"086","distractor":"686","target":"present","response":"absent","rt":"205","correct":false,"confidence":-1},{"trial_n":86,"span":2,"encoder":"73","distractor":"83","target":"present","response":"absent","rt":"176","correct":false,"confidence":-1},{"trial_n":87,"span":2,"encoder":"36","distractor":"32","target":"present","response":"absent","rt":"224","correct":false,"confidence":-1},{"trial_n":88,"span":2,"encoder":"25","distractor":"23","target":"present","response":"absent","rt":"184","correct":false,"confidence":-1},{"trial_n":89,"span":2,"encoder":"96","distractor":"93","target":"absent","response":"absent","rt":"1684","correct":true,"confidence":-1},{"trial_n":90,"span":2,"encoder":"32","distractor":"34","target":"absent","response":"absent","rt":"1010","correct":true,"confidence":-1},{"trial_n":91,"span":3,"encoder":"349","distractor":"319","target":"absent","response":"absent","rt":"1943","correct":true,"confidence":5},{"trial_n":92,"span":3,"encoder":"165","distractor":"765","target":"absent","response":"absent","rt":"1380.9999999998","correct":true,"confidence":5},{"trial_n":93,"span":4,"encoder":"1428","distractor":"1458","target":"absent","response":"absent","rt":"2411","correct":true,"confidence":5},{"trial_n":94,"span":4,"encoder":"3880","distractor":"8880","target":"absent","response":"absent","rt":"1511","correct":true,"confidence":5},{"trial_n":95,"span":5,"encoder":"31370","distractor":"31310","target":"absent","response":"absent","rt":"1132","correct":true,"confidence":5},{"trial_n":96,"span":5,"encoder":"61452","distractor":"11452","target":"present","response":"present","rt":"1831.0000000002","correct":true,"confidence":5},{"trial_n":97,"span":6,"encoder":"978536","distractor":"998536","target":"present","response":"present","rt":"4004","correct":true,"confidence":5},{"trial_n":98,"span":6,"encoder":"428724","distractor":"418724","target":"present","response":"present","rt":"6405","correct":true,"confidence":4},{"trial_n":99,"span":7,"encoder":"7720846","distractor":"4720846","target":"absent","response":"absent","rt":"3075","correct":true,"confidence":4},{"trial_n":100,"span":7,"encoder":"3023766","distractor":"3023066","target":"absent","response":"absent","rt":"2445","correct":true,"confidence":4},{"trial_n":101,"span":8,"encoder":"15853691","distractor":"15753691","target":"absent","response":"absent","rt":"11085","correct":true,"confidence":4},{"trial_n":102,"span":8,"encoder":"22590458","distractor":"22590758","target":"present","response":"absent","rt":"5650","correct":false,"confidence":3},{"trial_n":103,"span":7,"encoder":"4647843","distractor":"4647443","target":"present","response":"present","rt":"2611","correct":true,"confidence":5},{"trial_n":104,"span":7,"encoder":"8849616","distractor":"8819616","target":"present","response":"present","rt":"6129","correct":true,"confidence":3},{"trial_n":105,"span":8,"encoder":"10153839","distractor":"10153539","target":"present","response":"absent","rt":"8750","correct":false,"confidence":3},{"trial_n":106,"span":7,"encoder":"3742401","distractor":"3752401","target":"present","response":"absent","rt":"4079","correct":false,"confidence":3},{"trial_n":107,"span":6,"encoder":"611675","distractor":"311675","target":"absent","response":"absent","rt":"2192","correct":true,"confidence":5},{"trial_n":108,"span":6,"encoder":"423207","distractor":"223207","target":"present","response":"present","rt":"1708.9999999998","correct":true,"confidence":5},{"trial_n":109,"span":7,"encoder":"2898935","distractor":"3898935","target":"absent","response":"absent","rt":"3480","correct":true,"confidence":5},{"trial_n":110,"span":7,"encoder":"1185745","distractor":"1185785","target":"present","response":"present","rt":"4464","correct":true,"confidence":5},{"trial_n":111,"span":8,"encoder":"70727405","distractor":"70727105","target":"absent","response":"absent","rt":"2380","correct":true,"confidence":5},{"trial_n":112,"span":8,"encoder":"85906231","distractor":"85900231","target":"absent","response":"absent","rt":"4521.0000000002","correct":true,"confidence":4},{"trial_n":113,"span":9,"encoder":"250137838","distractor":"250137938","target":"present","response":"present","rt":"3978","correct":true,"confidence":4},{"trial_n":114,"span":9,"encoder":"343087883","distractor":"313087883","target":"present","response":"present","rt":"4826","correct":true,"confidence":3},{"trial_n":115,"span":10,"encoder":"7858030939","distractor":"7818030939","target":"present","response":"absent","rt":"6582","correct":false,"confidence":3},{"trial_n":116,"span":9,"encoder":"161975402","distractor":"161915402","target":"absent","response":"absent","rt":"4562.0000000002","correct":true,"confidence":4},{"trial_n":117,"span":9,"encoder":"489701477","distractor":"489706477","target":"present","response":"present","rt":"6046","correct":true,"confidence":3},{"trial_n":118,"span":10,"encoder":"2392616703","distractor":"2392916703","target":"present","response":"absent","rt":"10634","correct":false,"confidence":4},{"trial_n":119,"span":9,"encoder":"872424302","distractor":"862424302","target":"present","response":"present","rt":"7981","correct":true,"confidence":3},{"trial_n":120,"span":9,"encoder":"527212174","distractor":"127212174","target":"present","response":"present","rt":"3077","correct":true,"confidence":2},{"trial_n":121,"span":10,"encoder":"9001185500","distractor":"9001185590","target":"absent","response":"absent","rt":"9164","correct":true,"confidence":3},{"trial_n":122,"span":10,"encoder":"6303372908","distractor":"6303392908","target":"present","response":"present","rt":"14324","correct":true,"confidence":3},{"trial_n":123,"span":11,"encoder":"34695498588","distractor":"34695498488","target":"absent","response":"present","rt":"11307","correct":false,"confidence":3},{"trial_n":124,"span":10,"encoder":"1822410263","distractor":"1822410203","target":"absent","response":"present","rt":"6601","correct":false,"confidence":3},{"trial_n":125,"span":9,"encoder":"651906446","distractor":"651906436","target":"present","response":"present","rt":"4181","correct":true,"confidence":5},{"trial_n":126,"span":9,"encoder":"608471484","distractor":"658471484","target":"present","response":"present","rt":"3814","correct":true,"confidence":3},{"trial_n":127,"span":10,"encoder":"5231609107","distractor":"5231659107","target":"absent","response":"absent","rt":"5269","correct":true,"confidence":3},{"trial_n":128,"span":10,"encoder":"6885230153","distractor":"6888230153","target":"absent","response":"absent","rt":"3805","correct":true,"confidence":3},{"trial_n":129,"span":11,"encoder":"54219264835","distractor":"54219364835","target":"present","response":"present","rt":"6191","correct":true,"confidence":2},{"trial_n":130,"span":11,"encoder":"83418386800","distractor":"83418286800","target":"present","response":"present","rt":"5029","correct":true,"confidence":3},{"trial_n":131,"span":12,"encoder":"653411981426","distractor":"153411981426","target":"absent","response":"present","rt":"4128.9999999998","correct":false,"confidence":3},{"trial_n":132,"span":11,"encoder":"62174753669","distractor":"62174053669","target":"present","response":"present","rt":"7157","correct":true,"confidence":2},{"trial_n":133,"span":11,"encoder":"52699683200","distractor":"62699683200","target":"present","response":"present","rt":"6423","correct":true,"confidence":3},{"trial_n":134,"span":12,"encoder":"800113832282","distractor":"800113892282","target":"absent","response":"present","rt":"5478.9999999998","correct":false,"confidence":2},{"trial_n":135,"span":11,"encoder":"32113128193","distractor":"32113128693","target":"present","response":"absent","rt":"12624","correct":false,"confidence":3},{"trial_n":136,"span":10,"encoder":"3891676988","distractor":"4891676988","target":"absent","response":"absent","rt":"11938","correct":true,"confidence":3},{"trial_n":137,"span":10,"encoder":"0692266624","distractor":"0692267624","target":"absent","response":"absent","rt":"3655","correct":true,"confidence":3},{"trial_n":138,"span":11,"encoder":"59805879897","distractor":"99805879897","target":"absent","response":"absent","rt":"5459","correct":true,"confidence":3},{"trial_n":139,"span":11,"encoder":"06087608874","distractor":"09087608874","target":"present","response":"present","rt":"5011.0000000002","correct":true,"confidence":3},{"trial_n":140,"span":12,"encoder":"276305251157","distractor":"276305251657","target":"absent","response":"absent","rt":"3749","correct":true,"confidence":3}]