[{"trial_n":1,"min":25,"max":230,"target":"present","response":"absent","rt":3836.2000000477,"correct":false,"confidence":-1},{"trial_n":2,"min":25,"max":230,"target":"present","response":"present","rt":943.40000009537,"correct":true,"confidence":-1},{"trial_n":3,"min":25,"max":230,"target":"absent","response":"absent","rt":720.29999995232,"correct":true,"confidence":-1},{"trial_n":4,"min":41,"max":214,"target":"absent","response":"absent","rt":982.09999990463,"correct":true,"confidence":-1},{"trial_n":5,"min":41,"max":214,"target":"present","response":"present","rt":598.19999980927,"correct":true,"confidence":-1},{"trial_n":6,"min":57,"max":198,"target":"present","response":"present","rt":686.29999995232,"correct":true,"confidence":-1},{"trial_n":7,"min":57,"max":198,"target":"absent","response":"absent","rt":614.5,"correct":true,"confidence":-1},{"trial_n":8,"min":73,"max":182,"target":"present","response":"present","rt":615.20000004768,"correct":true,"confidence":-1},{"trial_n":9,"min":73,"max":182,"target":"present","response":"absent","rt":606.80000019073,"correct":false,"confidence":-1},{"trial_n":10,"min":57,"max":198,"target":"present","response":"present","rt":636.60000014305,"correct":true,"confidence":-1},{"trial_n":11,"min":57,"max":198,"target":"present","response":"present","rt":590.79999995232,"correct":true,"confidence":-1},{"trial_n":12,"min":65,"max":190,"target":"absent","response":"absent","rt":613.10000014305,"correct":true,"confidence":-1},{"trial_n":13,"min":65,"max":190,"target":"absent","response":"absent","rt":618.59999990463,"correct":true,"confidence":-1},{"trial_n":14,"min":73,"max":182,"target":"absent","response":"absent","rt":578.20000004768,"correct":true,"confidence":-1},{"trial_n":15,"min":73,"max":182,"target":"present","response":"present","rt":567.29999995232,"correct":true,"confidence":-1},{"trial_n":16,"min":81,"max":174,"target":"present","response":"absent","rt":627.29999995232,"correct":false,"confidence":-1},{"trial_n":17,"min":73,"max":182,"target":"absent","response":"absent","rt":605.40000009537,"correct":true,"confidence":-1},{"trial_n":18,"min":73,"max":182,"target":"absent","response":"absent","rt":583.40000009537,"correct":true,"confidence":-1},{"trial_n":19,"min":81,"max":174,"target":"present","response":"present","rt":816.90000009537,"correct":true,"confidence":-1},{"trial_n":20,"min":81,"max":174,"target":"absent","response":"absent","rt":719.60000014305,"correct":true,"confidence":-1},{"trial_n":21,"min":85,"max":170,"target":"absent","response":"absent","rt":743.09999990463,"correct":true,"confidence":3},{"trial_n":22,"min":85,"max":170,"target":"absent","response":"present","rt":907.20000004768,"correct":false,"confidence":3},{"trial_n":23,"min":81,"max":174,"target":"absent","response":"present","rt":955.5,"correct":false,"confidence":3},{"trial_n":24,"min":77,"max":178,"target":"absent","response":"present","rt":815.90000009537,"correct":false,"confidence":2},{"trial_n":25,"min":73,"max":182,"target":"absent","response":"present","rt":2105.1999998093,"correct":false,"confidence":1},{"trial_n":26,"min":69,"max":186,"target":"present","response":"present","rt":713.79999995232,"correct":true,"confidence":5},{"trial_n":27,"min":69,"max":186,"target":"present","response":"present","rt":715.20000004768,"correct":true,"confidence":5},{"trial_n":28,"min":73,"max":182,"target":"present","response":"present","rt":700.60000014305,"correct":true,"confidence":4},{"trial_n":29,"min":73,"max":182,"target":"absent","response":"absent","rt":1073.8000001907,"correct":true,"confidence":2},{"trial_n":30,"min":77,"max":178,"target":"absent","response":"present","rt":3479.8000001907,"correct":false,"confidence":2},{"trial_n":31,"min":75,"max":180,"target":"present","response":"present","rt":777.90000009537,"correct":true,"confidence":4},{"trial_n":32,"min":75,"max":180,"target":"present","response":"present","rt":683.80000019073,"correct":true,"confidence":3},{"trial_n":33,"min":77,"max":178,"target":"absent","response":"present","rt":842.19999980927,"correct":false,"confidence":3},{"trial_n":34,"min":75,"max":180,"target":"present","response":"present","rt":783.80000019073,"correct":true,"confidence":3},{"trial_n":35,"min":75,"max":180,"target":"present","response":"present","rt":692.59999990463,"correct":true,"confidence":4},{"trial_n":36,"min":77,"max":178,"target":"present","response":"present","rt":727.39999985695,"correct":true,"confidence":3},{"trial_n":37,"min":77,"max":178,"target":"absent","response":"absent","rt":808.60000014305,"correct":true,"confidence":2},{"trial_n":38,"min":79,"max":176,"target":"present","response":"present","rt":644,"correct":true,"confidence":5},{"trial_n":39,"min":79,"max":176,"target":"present","response":"present","rt":2158.7999999523,"correct":true,"confidence":4},{"trial_n":40,"min":81,"max":174,"target":"present","response":"present","rt":913.39999985695,"correct":true,"confidence":3},{"trial_n":41,"min":81,"max":174,"target":"present","response":"present","rt":856.09999990463,"correct":true,"confidence":3},{"trial_n":42,"min":82,"max":173,"target":"present","response":"present","rt":689.59999990463,"correct":true,"confidence":3},{"trial_n":43,"min":82,"max":173,"target":"present","response":"present","rt":706.60000014305,"correct":true,"confidence":3},{"trial_n":44,"min":83,"max":172,"target":"present","response":"present","rt":650.70000004768,"correct":true,"confidence":2},{"trial_n":45,"min":83,"max":172,"target":"absent","response":"absent","rt":1067.7999999523,"correct":true,"confidence":1},{"trial_n":46,"min":84,"max":171,"target":"absent","response":"absent","rt":1484.7999999523,"correct":true,"confidence":2},{"trial_n":47,"min":84,"max":171,"target":"absent","response":"absent","rt":1919.3999998569,"correct":true,"confidence":2},{"trial_n":48,"min":85,"max":170,"target":"present","response":"present","rt":665.30000019073,"correct":true,"confidence":3},{"trial_n":49,"min":85,"max":170,"target":"absent","response":"present","rt":1160.7999999523,"correct":false,"confidence":2},{"trial_n":50,"min":84,"max":171,"target":"present","response":"absent","rt":994.59999990463,"correct":false,"confidence":2},{"trial_n":51,"min":83,"max":172,"target":"present","response":"present","rt":853.20000004768,"correct":true,"confidence":2},{"trial_n":52,"min":83,"max":172,"target":"present","response":"present","rt":1519.5,"correct":true,"confidence":2},{"trial_n":53,"min":84,"max":171,"target":"absent","response":"present","rt":1359.0999999046,"correct":false,"confidence":2},{"trial_n":54,"min":83,"max":172,"target":"present","response":"present","rt":711.5,"correct":true,"confidence":3},{"trial_n":55,"min":83,"max":172,"target":"absent","response":"present","rt":1117,"correct":false,"confidence":2},{"trial_n":56,"min":82,"max":173,"target":"present","response":"present","rt":823.40000009537,"correct":true,"confidence":2},{"trial_n":57,"min":82,"max":173,"target":"absent","response":"present","rt":775.40000009537,"correct":false,"confidence":1},{"trial_n":58,"min":81,"max":174,"target":"absent","response":"absent","rt":789.69999980927,"correct":true,"confidence":3},{"trial_n":59,"min":81,"max":174,"target":"present","response":"present","rt":776.59999990463,"correct":true,"confidence":3},{"trial_n":60,"min":82,"max":173,"target":"absent","response":"present","rt":1068.8999998569,"correct":false,"confidence":2},{"trial_n":61,"min":81,"max":174,"target":"present","response":"present","rt":763.70000004768,"correct":true,"confidence":4},{"trial_n":62,"min":81,"max":174,"target":"absent","response":"present","rt":1019.5,"correct":false,"confidence":2},{"trial_n":63,"min":80,"max":175,"target":"absent","response":"absent","rt":818.39999985695,"correct":true,"confidence":4},{"trial_n":64,"min":80,"max":175,"target":"absent","response":"present","rt":2690.2999999523,"correct":false,"confidence":1},{"trial_n":65,"min":79,"max":176,"target":"absent","response":"present","rt":5578.7000000477,"correct":false,"confidence":1},{"trial_n":66,"min":78,"max":177,"target":"present","response":"present","rt":905.79999995232,"correct":true,"confidence":1},{"trial_n":67,"min":78,"max":177,"target":"absent","response":"absent","rt":1071.4000000954,"correct":true,"confidence":3},{"trial_n":68,"min":79,"max":176,"target":"absent","response":"absent","rt":1222.5999999046,"correct":true,"confidence":4},{"trial_n":69,"min":79,"max":176,"target":"absent","response":"absent","rt":856.69999980927,"correct":true,"confidence":4},{"trial_n":70,"min":80,"max":175,"target":"present","response":"present","rt":1122.8999998569,"correct":true,"confidence":2},{"trial_n":71,"min":41,"max":214,"target":"present","response":"present","rt":2051.4000000954,"correct":true,"confidence":-1},{"trial_n":72,"min":41,"max":214,"target":"present","response":"present","rt":810.60000014305,"correct":true,"confidence":-1},{"trial_n":73,"min":57,"max":198,"target":"absent","response":"absent","rt":760,"correct":true,"confidence":-1},{"trial_n":74,"min":57,"max":198,"target":"absent","response":"present","rt":905.40000009537,"correct":false,"confidence":-1},{"trial_n":75,"min":41,"max":214,"target":"present","response":"present","rt":833.29999995232,"correct":true,"confidence":-1},{"trial_n":76,"min":41,"max":214,"target":"absent","response":"absent","rt":700.39999985695,"correct":true,"confidence":-1},{"trial_n":77,"min":57,"max":198,"target":"absent","response":"absent","rt":734.19999980927,"correct":true,"confidence":-1},{"trial_n":78,"min":57,"max":198,"target":"absent","response":"absent","rt":784.59999990463,"correct":true,"confidence":-1},{"trial_n":79,"min":73,"max":182,"target":"present","response":"present","rt":649,"correct":true,"confidence":-1},{"trial_n":80,"min":73,"max":182,"target":"present","response":"present","rt":930.09999990463,"correct":true,"confidence":-1},{"trial_n":81,"min":81,"max":174,"target":"absent","response":"absent","rt":818.90000009537,"correct":true,"confidence":-1},{"trial_n":82,"min":81,"max":174,"target":"absent","response":"absent","rt":978.79999995232,"correct":true,"confidence":-1},{"trial_n":83,"min":89,"max":166,"target":"absent","response":"absent","rt":1400.5999999046,"correct":true,"confidence":-1},{"trial_n":84,"min":89,"max":166,"target":"absent","response":"absent","rt":1237.5,"correct":true,"confidence":-1},{"trial_n":85,"min":97,"max":158,"target":"absent","response":"absent","rt":868.5,"correct":true,"confidence":-1},{"trial_n":86,"min":97,"max":158,"target":"absent","response":"absent","rt":720,"correct":true,"confidence":-1},{"trial_n":87,"min":105,"max":150,"target":"absent","response":"absent","rt":689.09999990463,"correct":true,"confidence":-1},{"trial_n":88,"min":105,"max":150,"target":"absent","response":"absent","rt":765.90000009537,"correct":true,"confidence":-1},{"trial_n":89,"min":113,"max":142,"target":"present","response":"absent","rt":857.20000004768,"correct":false,"confidence":-1},{"trial_n":90,"min":105,"max":150,"target":"present","response":"absent","rt":710.80000019073,"correct":false,"confidence":-1},{"trial_n":91,"min":101,"max":154,"target":"present","response":"absent","rt":1231.4000000954,"correct":false,"confidence":1},{"trial_n":92,"min":97,"max":158,"target":"present","response":"absent","rt":1605.2999999523,"correct":false,"confidence":1},{"trial_n":93,"min":93,"max":162,"target":"absent","response":"absent","rt":2029,"correct":true,"confidence":1},{"trial_n":94,"min":93,"max":162,"target":"present","response":"absent","rt":2394.8000001907,"correct":false,"confidence":1},{"trial_n":95,"min":89,"max":166,"target":"present","response":"present","rt":1383.7000000477,"correct":true,"confidence":1},{"trial_n":96,"min":89,"max":166,"target":"present","response":"present","rt":948.70000004768,"correct":true,"confidence":1},{"trial_n":97,"min":93,"max":162,"target":"present","response":"present","rt":957,"correct":true,"confidence":1},{"trial_n":98,"min":93,"max":162,"target":"present","response":"present","rt":1038.7000000477,"correct":true,"confidence":1},{"trial_n":99,"min":97,"max":158,"target":"absent","response":"absent","rt":786.30000019073,"correct":true,"confidence":1},{"trial_n":100,"min":97,"max":158,"target":"present","response":"absent","rt":1246.5,"correct":false,"confidence":1},{"trial_n":101,"min":95,"max":160,"target":"present","response":"absent","rt":4140.2000000477,"correct":false,"confidence":1},{"trial_n":102,"min":93,"max":162,"target":"present","response":"present","rt":782.89999985695,"correct":true,"confidence":3},{"trial_n":103,"min":93,"max":162,"target":"absent","response":"absent","rt":1454.2999999523,"correct":true,"confidence":1},{"trial_n":104,"min":95,"max":160,"target":"absent","response":"present","rt":854.90000009537,"correct":false,"confidence":2},{"trial_n":105,"min":93,"max":162,"target":"present","response":"absent","rt":1111,"correct":false,"confidence":1},{"trial_n":106,"min":91,"max":164,"target":"present","response":"absent","rt":1309.4000000954,"correct":false,"confidence":1},{"trial_n":107,"min":89,"max":166,"target":"present","response":"absent","rt":882.39999985695,"correct":false,"confidence":1},{"trial_n":108,"min":87,"max":168,"target":"absent","response":"absent","rt":1510,"correct":true,"confidence":2},{"trial_n":109,"min":87,"max":168,"target":"absent","response":"absent","rt":1035.3000001907,"correct":true,"confidence":1},{"trial_n":110,"min":89,"max":166,"target":"absent","response":"absent","rt":952.09999990463,"correct":true,"confidence":1},{"trial_n":111,"min":89,"max":166,"target":"present","response":"absent","rt":799.5,"correct":false,"confidence":2},{"trial_n":112,"min":88,"max":167,"target":"absent","response":"absent","rt":800.90000009537,"correct":true,"confidence":2},{"trial_n":113,"min":88,"max":167,"target":"absent","response":"absent","rt":872.5,"correct":true,"confidence":1},{"trial_n":114,"min":89,"max":166,"target":"absent","response":"absent","rt":918.70000004768,"correct":true,"confidence":1},{"trial_n":115,"min":89,"max":166,"target":"absent","response":"absent","rt":815.79999995232,"correct":true,"confidence":2},{"trial_n":116,"min":90,"max":165,"target":"absent","response":"absent","rt":699.60000014305,"correct":true,"confidence":2},{"trial_n":117,"min":90,"max":165,"target":"present","response":"absent","rt":1597.5,"correct":false,"confidence":1},{"trial_n":118,"min":89,"max":166,"target":"absent","response":"present","rt":929.69999980927,"correct":false,"confidence":1},{"trial_n":119,"min":88,"max":167,"target":"present","response":"absent","rt":722.10000014305,"correct":false,"confidence":1},{"trial_n":120,"min":87,"max":168,"target":"present","response":"present","rt":917.09999990463,"correct":true,"confidence":1},{"trial_n":121,"min":87,"max":168,"target":"absent","response":"absent","rt":1047.7999999523,"correct":true,"confidence":1},{"trial_n":122,"min":88,"max":167,"target":"absent","response":"absent","rt":1490.3000001907,"correct":true,"confidence":1},{"trial_n":123,"min":88,"max":167,"target":"present","response":"present","rt":787.5,"correct":true,"confidence":3},{"trial_n":124,"min":89,"max":166,"target":"present","response":"present","rt":1006.9000000954,"correct":true,"confidence":2},{"trial_n":125,"min":89,"max":166,"target":"present","response":"present","rt":761,"correct":true,"confidence":3},{"trial_n":126,"min":90,"max":165,"target":"present","response":"present","rt":906.60000014305,"correct":true,"confidence":2},{"trial_n":127,"min":90,"max":165,"target":"absent","response":"absent","rt":1010.3000001907,"correct":true,"confidence":1},{"trial_n":128,"min":91,"max":164,"target":"absent","response":"absent","rt":1158.2000000477,"correct":true,"confidence":1},{"trial_n":129,"min":91,"max":164,"target":"present","response":"absent","rt":798.70000004768,"correct":false,"confidence":1},{"trial_n":130,"min":90,"max":165,"target":"present","response":"absent","rt":2596.5,"correct":false,"confidence":1},{"trial_n":131,"min":89,"max":166,"target":"present","response":"present","rt":1275.4000000954,"correct":true,"confidence":1},{"trial_n":132,"min":89,"max":166,"target":"present","response":"present","rt":692.89999985695,"correct":true,"confidence":2},{"trial_n":133,"min":90,"max":165,"target":"absent","response":"absent","rt":6121.1999998093,"correct":true,"confidence":1},{"trial_n":134,"min":90,"max":165,"target":"absent","response":"absent","rt":1141.7999999523,"correct":true,"confidence":1},{"trial_n":135,"min":91,"max":164,"target":"present","response":"present","rt":716.09999990463,"correct":true,"confidence":2},{"trial_n":136,"min":91,"max":164,"target":"present","response":"absent","rt":1322.5,"correct":false,"confidence":1},{"trial_n":137,"min":90,"max":165,"target":"present","response":"absent","rt":996,"correct":false,"confidence":1},{"trial_n":138,"min":89,"max":166,"target":"present","response":"absent","rt":987,"correct":false,"confidence":1},{"trial_n":139,"min":88,"max":167,"target":"absent","response":"absent","rt":860.09999990463,"correct":true,"confidence":1},{"trial_n":140,"min":88,"max":167,"target":"absent","response":"present","rt":777,"correct":false,"confidence":1}]