[{"trial_n":1,"span":8,"encoder":"30902692","distractor":"30902682","target":"present","response":"absent","rt":"5846.8999999762","correct":false,"confidence":-1},{"trial_n":2,"span":6,"encoder":"714915","distractor":"614915","target":"present","response":"absent","rt":"2170.7000000477","correct":false,"confidence":-1},{"trial_n":3,"span":4,"encoder":"2611","distractor":"0611","target":"absent","response":"absent","rt":"3328.7999999523","correct":true,"confidence":-1},{"trial_n":4,"span":4,"encoder":"9080","distractor":"3080","target":"absent","response":"absent","rt":"1236.8999999762","correct":true,"confidence":-1},{"trial_n":5,"span":6,"encoder":"408942","distractor":"488942","target":"present","response":"absent","rt":"2685.7000000477","correct":false,"confidence":-1},{"trial_n":6,"span":4,"encoder":"8493","distractor":"2493","target":"absent","response":"absent","rt":"1428.6999999285","correct":true,"confidence":-1},{"trial_n":7,"span":4,"encoder":"6652","distractor":"6622","target":"absent","response":"absent","rt":"1611.3999999762","correct":true,"confidence":-1},{"trial_n":8,"span":6,"encoder":"357259","distractor":"957259","target":"present","response":"present","rt":"3096","correct":true,"confidence":-1},{"trial_n":9,"span":6,"encoder":"186595","distractor":"486595","target":"present","response":"present","rt":"2507.4000000954","correct":true,"confidence":-1},{"trial_n":10,"span":8,"encoder":"80058274","distractor":"80258274","target":"present","response":"absent","rt":"2158.6000000238","correct":false,"confidence":-1},{"trial_n":11,"span":6,"encoder":"521972","distractor":"521982","target":"present","response":"absent","rt":"2292.7000000477","correct":false,"confidence":-1},{"trial_n":12,"span":5,"encoder":"79295","distractor":"39295","target":"present","response":"absent","rt":"1648","correct":false,"confidence":-1},{"trial_n":13,"span":4,"encoder":"2698","distractor":"2618","target":"absent","response":"absent","rt":"2121.5","correct":true,"confidence":-1},{"trial_n":14,"span":4,"encoder":"6158","distractor":"6358","target":"absent","response":"absent","rt":"1560.7999999523","correct":true,"confidence":-1},{"trial_n":15,"span":5,"encoder":"37589","distractor":"47589","target":"present","response":"absent","rt":"1774.6000000238","correct":false,"confidence":-1},{"trial_n":16,"span":4,"encoder":"6076","distractor":"6072","target":"present","response":"present","rt":"1790.5","correct":true,"confidence":-1},{"trial_n":17,"span":4,"encoder":"0039","distractor":"0439","target":"present","response":"present","rt":"2455.7999999523","correct":true,"confidence":-1},{"trial_n":18,"span":5,"encoder":"64490","distractor":"64690","target":"absent","response":"present","rt":"5655.2999999523","correct":false,"confidence":-1},{"trial_n":19,"span":4,"encoder":"1597","distractor":"1537","target":"present","response":"present","rt":"1617.3999999762","correct":true,"confidence":-1},{"trial_n":20,"span":4,"encoder":"8799","distractor":"4799","target":"present","response":"present","rt":"1437.8000000715","correct":true,"confidence":-1},{"trial_n":21,"span":5,"encoder":"31949","distractor":"31943","target":"absent","response":"present","rt":"3523","correct":false,"confidence":2},{"trial_n":22,"span":4,"encoder":"8099","distractor":"6099","target":"absent","response":"absent","rt":"1377.0999999046","correct":true,"confidence":5},{"trial_n":23,"span":4,"encoder":"4772","distractor":"4372","target":"absent","response":"absent","rt":"5590","correct":true,"confidence":2},{"trial_n":24,"span":5,"encoder":"27553","distractor":"21553","target":"absent","response":"absent","rt":"2267.7000000477","correct":true,"confidence":3},{"trial_n":25,"span":5,"encoder":"34714","distractor":"34718","target":"absent","response":"absent","rt":"3025.3000000715","correct":true,"confidence":4},{"trial_n":26,"span":6,"encoder":"663773","distractor":"613773","target":"absent","response":"present","rt":"2124.8999999762","correct":false,"confidence":3},{"trial_n":27,"span":5,"encoder":"15585","distractor":"65585","target":"present","response":"present","rt":"2549.8000000715","correct":true,"confidence":4},{"trial_n":28,"span":5,"encoder":"65638","distractor":"63638","target":"present","response":"absent","rt":"2355.9000000954","correct":false,"confidence":2},{"trial_n":29,"span":4,"encoder":"1302","distractor":"1202","target":"absent","response":"absent","rt":"1778.5","correct":true,"confidence":5},{"trial_n":30,"span":4,"encoder":"0204","distractor":"0604","target":"present","response":"present","rt":"1311","correct":true,"confidence":5},{"trial_n":31,"span":5,"encoder":"36563","distractor":"32563","target":"present","response":"present","rt":"1842.5","correct":true,"confidence":5},{"trial_n":32,"span":5,"encoder":"93791","distractor":"03791","target":"absent","response":"present","rt":"2025.7000000477","correct":false,"confidence":5},{"trial_n":33,"span":4,"encoder":"4241","distractor":"4541","target":"present","response":"present","rt":"943.89999997616","correct":true,"confidence":5},{"trial_n":34,"span":4,"encoder":"6400","distractor":"6200","target":"absent","response":"absent","rt":"1440.5","correct":true,"confidence":5},{"trial_n":35,"span":5,"encoder":"34047","distractor":"34947","target":"present","response":"present","rt":"1159.1000000238","correct":true,"confidence":5},{"trial_n":36,"span":5,"encoder":"85937","distractor":"85037","target":"present","response":"present","rt":"1705.3999999762","correct":true,"confidence":5},{"trial_n":37,"span":6,"encoder":"886712","distractor":"886812","target":"present","response":"present","rt":"1228.4000000954","correct":true,"confidence":5},{"trial_n":38,"span":6,"encoder":"319876","distractor":"313876","target":"present","response":"present","rt":"3847.7999999523","correct":true,"confidence":3},{"trial_n":39,"span":7,"encoder":"6974279","distractor":"6274279","target":"absent","response":"present","rt":"4469.8999999762","correct":false,"confidence":3},{"trial_n":40,"span":6,"encoder":"351132","distractor":"351138","target":"absent","response":"absent","rt":"1261.2000000477","correct":true,"confidence":4},{"trial_n":41,"span":6,"encoder":"104747","distractor":"104707","target":"absent","response":"present","rt":"1308.7999999523","correct":false,"confidence":5},{"trial_n":42,"span":5,"encoder":"92527","distractor":"92537","target":"present","response":"absent","rt":"5470","correct":false,"confidence":3},{"trial_n":43,"span":4,"encoder":"1527","distractor":"1727","target":"present","response":"present","rt":"1153.6000000238","correct":true,"confidence":5},{"trial_n":44,"span":4,"encoder":"0981","distractor":"8981","target":"absent","response":"absent","rt":"1840.6999999285","correct":true,"confidence":5},{"trial_n":45,"span":5,"encoder":"52336","distractor":"51336","target":"absent","response":"present","rt":"2524.3999999762","correct":false,"confidence":5},{"trial_n":46,"span":4,"encoder":"7286","distractor":"7296","target":"absent","response":"absent","rt":"4359.6999999285","correct":true,"confidence":5},{"trial_n":47,"span":4,"encoder":"7576","distractor":"6576","target":"absent","response":"present","rt":"2927.0999999046","correct":false,"confidence":5},{"trial_n":48,"span":3,"encoder":"731","distractor":"031","target":"present","response":"present","rt":"2349","correct":true,"confidence":5},{"trial_n":49,"span":3,"encoder":"731","distractor":"711","target":"absent","response":"absent","rt":"1297","correct":true,"confidence":5},{"trial_n":50,"span":4,"encoder":"0949","distractor":"0944","target":"present","response":"present","rt":"1477.3999999762","correct":true,"confidence":5},{"trial_n":51,"span":4,"encoder":"4464","distractor":"4434","target":"present","response":"present","rt":"1126.1000000238","correct":true,"confidence":5},{"trial_n":52,"span":5,"encoder":"71023","distractor":"71020","target":"absent","response":"absent","rt":"1249.5","correct":true,"confidence":5},{"trial_n":53,"span":5,"encoder":"87737","distractor":"87037","target":"absent","response":"absent","rt":"1536.3999999762","correct":true,"confidence":5},{"trial_n":54,"span":6,"encoder":"363412","distractor":"363612","target":"absent","response":"absent","rt":"2902","correct":true,"confidence":1},{"trial_n":55,"span":6,"encoder":"467383","distractor":"461383","target":"present","response":"present","rt":"2180.6000000238","correct":true,"confidence":5},{"trial_n":56,"span":7,"encoder":"8551149","distractor":"8559149","target":"absent","response":"present","rt":"3989.1000000238","correct":false,"confidence":5},{"trial_n":57,"span":6,"encoder":"178816","distractor":"108816","target":"present","response":"present","rt":"2986.7000000477","correct":true,"confidence":5},{"trial_n":58,"span":6,"encoder":"894829","distractor":"894129","target":"present","response":"present","rt":"4726.5","correct":true,"confidence":4},{"trial_n":59,"span":7,"encoder":"9113508","distractor":"9114508","target":"absent","response":"absent","rt":"4173.1000000238","correct":true,"confidence":2},{"trial_n":60,"span":7,"encoder":"4163016","distractor":"4163014","target":"absent","response":"present","rt":"6592.8000000715","correct":false,"confidence":3},{"trial_n":61,"span":6,"encoder":"214771","distractor":"214471","target":"absent","response":"absent","rt":"6433.3999999762","correct":true,"confidence":3},{"trial_n":62,"span":6,"encoder":"545417","distractor":"540417","target":"present","response":"present","rt":"2137.8999999762","correct":true,"confidence":5},{"trial_n":63,"span":7,"encoder":"9585088","distractor":"9585087","target":"present","response":"present","rt":"2189.3999999762","correct":true,"confidence":5},{"trial_n":64,"span":7,"encoder":"0843648","distractor":"0843678","target":"absent","response":"absent","rt":"2937.5","correct":true,"confidence":1},{"trial_n":65,"span":8,"encoder":"86038645","distractor":"36038645","target":"absent","response":"absent","rt":"1903.8999999762","correct":true,"confidence":5},{"trial_n":66,"span":8,"encoder":"00724013","distractor":"00724014","target":"present","response":"present","rt":"3410.2000000477","correct":true,"confidence":3},{"trial_n":67,"span":9,"encoder":"663300527","distractor":"661300527","target":"present","response":"present","rt":"3265.5","correct":true,"confidence":5},{"trial_n":68,"span":9,"encoder":"824121731","distractor":"824621731","target":"present","response":"present","rt":"4374.7999999523","correct":true,"confidence":3},{"trial_n":69,"span":10,"encoder":"4699147961","distractor":"4699177961","target":"absent","response":"absent","rt":"3711.5","correct":true,"confidence":2},{"trial_n":70,"span":10,"encoder":"3425372263","distractor":"3475372263","target":"present","response":"absent","rt":"4092.8999999762","correct":false,"confidence":1},{"trial_n":71,"span":8,"encoder":"51511886","distractor":"51911886","target":"present","response":"present","rt":"5016.0999999046","correct":true,"confidence":-1},{"trial_n":72,"span":8,"encoder":"54800744","distractor":"54800734","target":"present","response":"present","rt":"3366.1000000238","correct":true,"confidence":-1},{"trial_n":73,"span":9,"encoder":"494595836","distractor":"494595866","target":"absent","response":"absent","rt":"3692.1000000238","correct":true,"confidence":-1},{"trial_n":74,"span":9,"encoder":"447477009","distractor":"447477809","target":"absent","response":"absent","rt":"3553.2000000477","correct":true,"confidence":-1},{"trial_n":75,"span":10,"encoder":"8591211489","distractor":"8541211489","target":"present","response":"absent","rt":"4829.2000000477","correct":false,"confidence":-1},{"trial_n":76,"span":9,"encoder":"825722205","distractor":"825720205","target":"present","response":"present","rt":"2894.8000000715","correct":true,"confidence":-1},{"trial_n":77,"span":9,"encoder":"109967323","distractor":"102967323","target":"absent","response":"absent","rt":"4823.6000000238","correct":true,"confidence":-1},{"trial_n":78,"span":10,"encoder":"8963952413","distractor":"8963957413","target":"absent","response":"absent","rt":"4391.7999999523","correct":true,"confidence":-1},{"trial_n":79,"span":10,"encoder":"4354875232","distractor":"4354865232","target":"present","response":"present","rt":"4058.7999999523","correct":true,"confidence":-1},{"trial_n":80,"span":11,"encoder":"86231845587","distractor":"86231848587","target":"present","response":"absent","rt":"9918.9000000954","correct":false,"confidence":-1},{"trial_n":81,"span":10,"encoder":"6350675611","distractor":"6354675611","target":"present","response":"absent","rt":"6610.1000000238","correct":false,"confidence":-1},{"trial_n":82,"span":9,"encoder":"783609198","distractor":"783609598","target":"present","response":"present","rt":"4552.5","correct":true,"confidence":-1},{"trial_n":83,"span":9,"encoder":"544111454","distractor":"044111454","target":"present","response":"present","rt":"6859.2999999523","correct":true,"confidence":-1},{"trial_n":84,"span":10,"encoder":"1355774794","distractor":"1355774294","target":"absent","response":"absent","rt":"2926.6000000238","correct":true,"confidence":-1},{"trial_n":85,"span":10,"encoder":"3091729187","distractor":"0091729187","target":"absent","response":"absent","rt":"4310.7000000477","correct":true,"confidence":-1},{"trial_n":86,"span":11,"encoder":"27227416709","distractor":"27297416709","target":"present","response":"absent","rt":"9142.8000000715","correct":false,"confidence":-1},{"trial_n":87,"span":10,"encoder":"4418577421","distractor":"4418577121","target":"present","response":"present","rt":"6280.6999999285","correct":true,"confidence":-1},{"trial_n":88,"span":10,"encoder":"9657796043","distractor":"9657796044","target":"present","response":"present","rt":"1875.3999999762","correct":true,"confidence":-1},{"trial_n":89,"span":11,"encoder":"65530897273","distractor":"65520897273","target":"absent","response":"absent","rt":"6585","correct":true,"confidence":-1},{"trial_n":90,"span":11,"encoder":"53638902105","distractor":"53635902105","target":"present","response":"absent","rt":"11008.900000095","correct":false,"confidence":-1},{"trial_n":91,"span":10,"encoder":"7676823794","distractor":"8676823794","target":"present","response":"present","rt":"6158.1000000238","correct":true,"confidence":4},{"trial_n":92,"span":10,"encoder":"5245103528","distractor":"5245103523","target":"present","response":"present","rt":"3019.7999999523","correct":true,"confidence":5},{"trial_n":93,"span":11,"encoder":"98069662345","distractor":"98019662345","target":"present","response":"present","rt":"11692.899999976","correct":true,"confidence":3},{"trial_n":94,"span":11,"encoder":"62914102425","distractor":"67914102425","target":"absent","response":"absent","rt":"5190.5999999046","correct":true,"confidence":3},{"trial_n":95,"span":12,"encoder":"616361131192","distractor":"616361181192","target":"absent","response":"absent","rt":"11456.5","correct":true,"confidence":2},{"trial_n":96,"span":12,"encoder":"805500781957","distractor":"807500781957","target":"absent","response":"absent","rt":"3692.1000000238","correct":true,"confidence":4},{"trial_n":97,"span":13,"encoder":"4460711898348","distractor":"4460791898348","target":"absent","response":"absent","rt":"6138.8999999762","correct":true,"confidence":3},{"trial_n":98,"span":13,"encoder":"8448301801231","distractor":"8428301801231","target":"absent","response":"absent","rt":"8405.3999999762","correct":true,"confidence":4},{"trial_n":99,"span":14,"encoder":"60000117888976","distractor":"60000117888876","target":"present","response":"present","rt":"5483.5","correct":true,"confidence":3},{"trial_n":100,"span":14,"encoder":"37724094803237","distractor":"37724094803337","target":"present","response":"present","rt":"6206.3999999762","correct":true,"confidence":3},{"trial_n":101,"span":15,"encoder":"780318877429554","distractor":"780318877429559","target":"present","response":"present","rt":"2761.4000000954","correct":true,"confidence":3},{"trial_n":102,"span":15,"encoder":"119106445376362","distractor":"119106445376367","target":"present","response":"present","rt":"3930.7000000477","correct":true,"confidence":4},{"trial_n":103,"span":16,"encoder":"0938131157769849","distractor":"0938131157799849","target":"present","response":"present","rt":"8391.8000000715","correct":true,"confidence":2},{"trial_n":104,"span":16,"encoder":"0559215460559894","distractor":"0559215465559894","target":"absent","response":"absent","rt":"3210.5999999046","correct":true,"confidence":3},{"trial_n":105,"span":17,"encoder":"48160416463509837","distractor":"48160816463509837","target":"absent","response":"present","rt":"15808.600000024","correct":false,"confidence":1},{"trial_n":106,"span":16,"encoder":"2997169024491336","distractor":"2997169024491332","target":"absent","response":"absent","rt":"2540.1000000238","correct":true,"confidence":5},{"trial_n":107,"span":16,"encoder":"3161062719764556","distractor":"3161062719764656","target":"present","response":"present","rt":"2662.3000000715","correct":true,"confidence":5},{"trial_n":108,"span":17,"encoder":"96992732565299189","distractor":"96992732765299189","target":"absent","response":"absent","rt":"7275.5","correct":true,"confidence":1},{"trial_n":109,"span":17,"encoder":"23418822477033165","distractor":"23418022477033165","target":"present","response":"present","rt":"6957.7000000477","correct":true,"confidence":3},{"trial_n":110,"span":18,"encoder":"043171384477107836","distractor":"043171354477107836","target":"absent","response":"absent","rt":"7598.5","correct":true,"confidence":2},{"trial_n":111,"span":18,"encoder":"813594061978149113","distractor":"813594060978149113","target":"present","response":"present","rt":"9587.7999999523","correct":true,"confidence":1},{"trial_n":112,"span":19,"encoder":"4165947680438116647","distractor":"4165947280438116647","target":"present","response":"present","rt":"17969.899999976","correct":true,"confidence":3},{"trial_n":113,"span":19,"encoder":"1944355242009586722","distractor":"1947355242009586722","target":"absent","response":"present","rt":"12983.899999976","correct":false,"confidence":2},{"trial_n":114,"span":18,"encoder":"415601719933557768","distractor":"415601719533557768","target":"absent","response":"absent","rt":"8037.8999999762","correct":true,"confidence":2},{"trial_n":115,"span":18,"encoder":"482670578669697778","distractor":"582670578669697778","target":"absent","response":"absent","rt":"8316.4000000954","correct":true,"confidence":2},{"trial_n":116,"span":19,"encoder":"3328620471354309654","distractor":"3828620471354309654","target":"present","response":"present","rt":"11779.700000048","correct":true,"confidence":2},{"trial_n":117,"span":19,"encoder":"8900343449476175068","distractor":"8900343449476175768","target":"absent","response":"present","rt":"11553","correct":false,"confidence":1},{"trial_n":118,"span":18,"encoder":"254360936669832819","distractor":"254369936669832819","target":"absent","response":"absent","rt":"6034.7999999523","correct":true,"confidence":2},{"trial_n":119,"span":18,"encoder":"668340901811550920","distractor":"668345901811550920","target":"absent","response":"absent","rt":"11869.5","correct":true,"confidence":1},{"trial_n":120,"span":19,"encoder":"4058204526275793356","distractor":"4258204526275793356","target":"present","response":"present","rt":"5482.5","correct":true,"confidence":2},{"trial_n":121,"span":19,"encoder":"6580271156420586898","distractor":"6520271156420586898","target":"present","response":"present","rt":"14249.600000024","correct":true,"confidence":2},{"trial_n":122,"span":20,"encoder":"89892761789375455057","distractor":"89892761089375455057","target":"present","response":"present","rt":"11426.699999928","correct":true,"confidence":2},{"trial_n":123,"span":20,"encoder":"46132524100664590048","distractor":"46132324100664590048","target":"absent","response":"present","rt":"8430.1000000238","correct":false,"confidence":1},{"trial_n":124,"span":19,"encoder":"3691678358379161548","distractor":"3691678358379161048","target":"present","response":"present","rt":"2897","correct":true,"confidence":5},{"trial_n":125,"span":19,"encoder":"7173363968520652244","distractor":"7173363968520652944","target":"present","response":"present","rt":"4506","correct":true,"confidence":3},{"trial_n":126,"span":20,"encoder":"95783503864615663924","distractor":"95783503864615663124","target":"absent","response":"absent","rt":"2118.1000000238","correct":true,"confidence":4},{"trial_n":127,"span":20,"encoder":"66999004837049307312","distractor":"66999004837049307392","target":"present","response":"present","rt":"2423.3999999762","correct":true,"confidence":5},{"trial_n":128,"span":21,"encoder":"271318800053486639949","distractor":"271317800053486639949","target":"absent","response":"present","rt":"7378.1000000238","correct":false,"confidence":3},{"trial_n":129,"span":20,"encoder":"54231636691987952935","distractor":"54231636691187952935","target":"present","response":"absent","rt":"6824.1000000238","correct":false,"confidence":1},{"trial_n":130,"span":19,"encoder":"2459202960708403974","distractor":"2459202962708403974","target":"present","response":"present","rt":"8377.8999999762","correct":true,"confidence":2},{"trial_n":131,"span":19,"encoder":"8221737268989234946","distractor":"8221737268989234936","target":"absent","response":"absent","rt":"3043.8999999762","correct":true,"confidence":5},{"trial_n":132,"span":20,"encoder":"63519247449914530793","distractor":"63519247449914560793","target":"present","response":"present","rt":"7914.3999999762","correct":true,"confidence":2},{"trial_n":133,"span":20,"encoder":"12853374635276439681","distractor":"12853374635276449681","target":"absent","response":"absent","rt":"9271","correct":true,"confidence":1},{"trial_n":134,"span":21,"encoder":"584561885652479269811","distractor":"584161885652479269811","target":"absent","response":"absent","rt":"12265.899999976","correct":true,"confidence":3},{"trial_n":135,"span":21,"encoder":"532546937640917079377","distractor":"532543937640917079377","target":"absent","response":"present","rt":"12860.5","correct":false,"confidence":1},{"trial_n":136,"span":20,"encoder":"18635717462708260699","distractor":"08635717462708260699","target":"absent","response":"absent","rt":"4783.6000000238","correct":true,"confidence":2},{"trial_n":137,"span":20,"encoder":"24327794007990352803","distractor":"24327794004990352803","target":"present","response":"present","rt":"8133.8000000715","correct":true,"confidence":2},{"trial_n":138,"span":21,"encoder":"864851615508070674936","distractor":"864851615568070674936","target":"absent","response":"present","rt":"13622.399999976","correct":false,"confidence":2},{"trial_n":139,"span":20,"encoder":"88655799190666255870","distractor":"88615799190666255870","target":"absent","response":"absent","rt":"7485.3999999762","correct":true,"confidence":3},{"trial_n":140,"span":20,"encoder":"61513722904436214717","distractor":"61513722904436214757","target":"absent","response":"absent","rt":"2005.7000000477","correct":true,"confidence":5}]