[{"trial_n":1,"min":25,"max":230,"target":"present","response":"absent","rt":1875.1000001431,"correct":false,"confidence":-1},{"trial_n":2,"min":25,"max":230,"target":"present","response":"present","rt":940.29999995232,"correct":true,"confidence":-1},{"trial_n":3,"min":25,"max":230,"target":"absent","response":"absent","rt":566.30000019073,"correct":true,"confidence":-1},{"trial_n":4,"min":41,"max":214,"target":"absent","response":"absent","rt":358.40000009537,"correct":true,"confidence":-1},{"trial_n":5,"min":41,"max":214,"target":"present","response":"present","rt":498.79999995232,"correct":true,"confidence":-1},{"trial_n":6,"min":57,"max":198,"target":"present","response":"present","rt":417.20000004768,"correct":true,"confidence":-1},{"trial_n":7,"min":57,"max":198,"target":"present","response":"present","rt":743.59999990463,"correct":true,"confidence":-1},{"trial_n":8,"min":73,"max":182,"target":"present","response":"present","rt":742.5,"correct":true,"confidence":-1},{"trial_n":9,"min":73,"max":182,"target":"present","response":"present","rt":265.5,"correct":true,"confidence":-1},{"trial_n":10,"min":89,"max":166,"target":"present","response":"absent","rt":254.39999985695,"correct":false,"confidence":-1},{"trial_n":11,"min":81,"max":174,"target":"present","response":"present","rt":341.90000009537,"correct":true,"confidence":-1},{"trial_n":12,"min":81,"max":174,"target":"absent","response":"absent","rt":328.39999985695,"correct":true,"confidence":-1},{"trial_n":13,"min":89,"max":166,"target":"absent","response":"absent","rt":454,"correct":true,"confidence":-1},{"trial_n":14,"min":89,"max":166,"target":"absent","response":"absent","rt":580.90000009537,"correct":true,"confidence":-1},{"trial_n":15,"min":97,"max":158,"target":"absent","response":"present","rt":362.70000004768,"correct":false,"confidence":-1},{"trial_n":16,"min":89,"max":166,"target":"absent","response":"absent","rt":338.5,"correct":true,"confidence":-1},{"trial_n":17,"min":89,"max":166,"target":"absent","response":"absent","rt":313.39999985695,"correct":true,"confidence":-1},{"trial_n":18,"min":97,"max":158,"target":"absent","response":"absent","rt":304.29999995232,"correct":true,"confidence":-1},{"trial_n":19,"min":97,"max":158,"target":"absent","response":"absent","rt":419.69999980927,"correct":true,"confidence":-1},{"trial_n":20,"min":105,"max":150,"target":"present","response":"absent","rt":429.09999990463,"correct":false,"confidence":-1},{"trial_n":21,"min":101,"max":154,"target":"absent","response":"absent","rt":595.20000004768,"correct":true,"confidence":5},{"trial_n":22,"min":101,"max":154,"target":"absent","response":"absent","rt":603.29999995232,"correct":true,"confidence":5},{"trial_n":23,"min":105,"max":150,"target":"present","response":"absent","rt":368.90000009537,"correct":false,"confidence":5},{"trial_n":24,"min":101,"max":154,"target":"present","response":"absent","rt":999.70000004768,"correct":false,"confidence":5},{"trial_n":25,"min":97,"max":158,"target":"absent","response":"absent","rt":304.5,"correct":true,"confidence":5},{"trial_n":26,"min":97,"max":158,"target":"present","response":"absent","rt":879,"correct":false,"confidence":4},{"trial_n":27,"min":93,"max":162,"target":"present","response":"absent","rt":723.60000014305,"correct":false,"confidence":5},{"trial_n":28,"min":89,"max":166,"target":"absent","response":"absent","rt":906.5,"correct":true,"confidence":5},{"trial_n":29,"min":89,"max":166,"target":"present","response":"absent","rt":683.20000004768,"correct":false,"confidence":4},{"trial_n":30,"min":85,"max":170,"target":"absent","response":"absent","rt":474.70000004768,"correct":true,"confidence":4},{"trial_n":31,"min":85,"max":170,"target":"absent","response":"absent","rt":367.20000004768,"correct":true,"confidence":4},{"trial_n":32,"min":87,"max":168,"target":"present","response":"present","rt":1016,"correct":true,"confidence":4},{"trial_n":33,"min":87,"max":168,"target":"absent","response":"absent","rt":461.70000004768,"correct":true,"confidence":3},{"trial_n":34,"min":89,"max":166,"target":"present","response":"absent","rt":611,"correct":false,"confidence":4},{"trial_n":35,"min":87,"max":168,"target":"present","response":"absent","rt":627.79999995232,"correct":false,"confidence":4},{"trial_n":36,"min":85,"max":170,"target":"present","response":"present","rt":1140.7999999523,"correct":true,"confidence":4},{"trial_n":37,"min":85,"max":170,"target":"absent","response":"present","rt":1535.9000000954,"correct":false,"confidence":5},{"trial_n":38,"min":83,"max":172,"target":"absent","response":"absent","rt":424.70000004768,"correct":true,"confidence":4},{"trial_n":39,"min":83,"max":172,"target":"present","response":"present","rt":1057.2999999523,"correct":true,"confidence":3},{"trial_n":40,"min":85,"max":170,"target":"absent","response":"absent","rt":460.90000009537,"correct":true,"confidence":4},{"trial_n":41,"min":85,"max":170,"target":"present","response":"present","rt":529.29999995232,"correct":true,"confidence":5},{"trial_n":42,"min":86,"max":169,"target":"present","response":"present","rt":946.70000004768,"correct":true,"confidence":4},{"trial_n":43,"min":86,"max":169,"target":"present","response":"absent","rt":370.40000009537,"correct":false,"confidence":4},{"trial_n":44,"min":85,"max":170,"target":"present","response":"absent","rt":891.79999995232,"correct":false,"confidence":4},{"trial_n":45,"min":84,"max":171,"target":"present","response":"absent","rt":482.90000009537,"correct":false,"confidence":4},{"trial_n":46,"min":83,"max":172,"target":"absent","response":"absent","rt":475.40000009537,"correct":true,"confidence":3},{"trial_n":47,"min":83,"max":172,"target":"absent","response":"absent","rt":430.30000019073,"correct":true,"confidence":5},{"trial_n":48,"min":84,"max":171,"target":"absent","response":"absent","rt":328.40000009537,"correct":true,"confidence":5},{"trial_n":49,"min":84,"max":171,"target":"present","response":"present","rt":745.70000004768,"correct":true,"confidence":4},{"trial_n":50,"min":85,"max":170,"target":"present","response":"present","rt":1412.3999998569,"correct":true,"confidence":4},{"trial_n":51,"min":85,"max":170,"target":"absent","response":"absent","rt":609.5,"correct":true,"confidence":4},{"trial_n":52,"min":86,"max":169,"target":"present","response":"present","rt":711.5,"correct":true,"confidence":5},{"trial_n":53,"min":86,"max":169,"target":"absent","response":"absent","rt":799.40000009537,"correct":true,"confidence":4},{"trial_n":54,"min":87,"max":168,"target":"absent","response":"absent","rt":502.70000004768,"correct":true,"confidence":1},{"trial_n":55,"min":87,"max":168,"target":"absent","response":"absent","rt":542.79999995232,"correct":true,"confidence":1},{"trial_n":56,"min":88,"max":167,"target":"present","response":"absent","rt":726.5,"correct":false,"confidence":4},{"trial_n":57,"min":87,"max":168,"target":"present","response":"absent","rt":388.79999995232,"correct":false,"confidence":4},{"trial_n":58,"min":86,"max":169,"target":"present","response":"present","rt":402.29999995232,"correct":true,"confidence":5},{"trial_n":59,"min":86,"max":169,"target":"present","response":"present","rt":1623.5999999046,"correct":true,"confidence":4},{"trial_n":60,"min":87,"max":168,"target":"absent","response":"absent","rt":454.59999990463,"correct":true,"confidence":4},{"trial_n":61,"min":87,"max":168,"target":"present","response":"present","rt":1259.7000000477,"correct":true,"confidence":4},{"trial_n":62,"min":88,"max":167,"target":"absent","response":"absent","rt":348.89999985695,"correct":true,"confidence":4},{"trial_n":63,"min":88,"max":167,"target":"absent","response":"absent","rt":764.59999990463,"correct":true,"confidence":4},{"trial_n":64,"min":89,"max":166,"target":"present","response":"present","rt":729.5,"correct":true,"confidence":4},{"trial_n":65,"min":89,"max":166,"target":"absent","response":"present","rt":600.09999990463,"correct":false,"confidence":4},{"trial_n":66,"min":88,"max":167,"target":"absent","response":"absent","rt":334.79999995232,"correct":true,"confidence":4},{"trial_n":67,"min":88,"max":167,"target":"present","response":"present","rt":1359.5,"correct":true,"confidence":4},{"trial_n":68,"min":89,"max":166,"target":"absent","response":"absent","rt":522.70000004768,"correct":true,"confidence":3},{"trial_n":69,"min":89,"max":166,"target":"present","response":"absent","rt":609.09999990463,"correct":false,"confidence":3},{"trial_n":70,"min":88,"max":167,"target":"absent","response":"absent","rt":615.59999990463,"correct":true,"confidence":3},{"trial_n":71,"min":41,"max":214,"target":"present","response":"present","rt":1717.7999999523,"correct":true,"confidence":-1},{"trial_n":72,"min":41,"max":214,"target":"present","response":"present","rt":488.79999995232,"correct":true,"confidence":-1},{"trial_n":73,"min":57,"max":198,"target":"absent","response":"absent","rt":364.90000009537,"correct":true,"confidence":-1},{"trial_n":74,"min":57,"max":198,"target":"absent","response":"absent","rt":439.70000004768,"correct":true,"confidence":-1},{"trial_n":75,"min":73,"max":182,"target":"present","response":"present","rt":501.20000004768,"correct":true,"confidence":-1},{"trial_n":76,"min":73,"max":182,"target":"present","response":"present","rt":214.09999990463,"correct":true,"confidence":-1},{"trial_n":77,"min":89,"max":166,"target":"absent","response":"absent","rt":215.80000019073,"correct":true,"confidence":-1},{"trial_n":78,"min":89,"max":166,"target":"absent","response":"absent","rt":445.89999985695,"correct":true,"confidence":-1},{"trial_n":79,"min":105,"max":150,"target":"absent","response":"present","rt":632.89999985695,"correct":false,"confidence":-1},{"trial_n":80,"min":89,"max":166,"target":"present","response":"present","rt":158.39999985695,"correct":true,"confidence":-1},{"trial_n":81,"min":89,"max":166,"target":"present","response":"present","rt":107.70000004768,"correct":true,"confidence":-1},{"trial_n":82,"min":97,"max":158,"target":"absent","response":"absent","rt":192.20000004768,"correct":true,"confidence":-1},{"trial_n":83,"min":97,"max":158,"target":"absent","response":"absent","rt":754.70000004768,"correct":true,"confidence":-1},{"trial_n":84,"min":105,"max":150,"target":"absent","response":"present","rt":262.70000004768,"correct":false,"confidence":-1},{"trial_n":85,"min":97,"max":158,"target":"present","response":"present","rt":234.79999995232,"correct":true,"confidence":-1},{"trial_n":86,"min":97,"max":158,"target":"absent","response":"absent","rt":241.80000019073,"correct":true,"confidence":-1},{"trial_n":87,"min":105,"max":150,"target":"present","response":"present","rt":639.79999995232,"correct":true,"confidence":-1},{"trial_n":88,"min":105,"max":150,"target":"present","response":"present","rt":208.69999980927,"correct":true,"confidence":-1},{"trial_n":89,"min":113,"max":142,"target":"absent","response":"present","rt":163.79999995232,"correct":false,"confidence":-1},{"trial_n":90,"min":105,"max":150,"target":"absent","response":"absent","rt":263.79999995232,"correct":true,"confidence":-1},{"trial_n":91,"min":105,"max":150,"target":"present","response":"absent","rt":450,"correct":false,"confidence":3},{"trial_n":92,"min":101,"max":154,"target":"present","response":"absent","rt":1074.2999999523,"correct":false,"confidence":3},{"trial_n":93,"min":97,"max":158,"target":"absent","response":"absent","rt":946.79999995232,"correct":true,"confidence":4},{"trial_n":94,"min":97,"max":158,"target":"absent","response":"present","rt":172.09999990463,"correct":false,"confidence":5},{"trial_n":95,"min":93,"max":162,"target":"absent","response":"present","rt":519.70000004768,"correct":false,"confidence":5},{"trial_n":96,"min":89,"max":166,"target":"present","response":"present","rt":442.5,"correct":true,"confidence":5},{"trial_n":97,"min":89,"max":166,"target":"present","response":"present","rt":263.39999985695,"correct":true,"confidence":5},{"trial_n":98,"min":93,"max":162,"target":"absent","response":"absent","rt":387.5,"correct":true,"confidence":5},{"trial_n":99,"min":93,"max":162,"target":"absent","response":"absent","rt":706.69999980927,"correct":true,"confidence":5},{"trial_n":100,"min":97,"max":158,"target":"present","response":"absent","rt":327.69999980927,"correct":false,"confidence":5},{"trial_n":101,"min":95,"max":160,"target":"present","response":"present","rt":1035.5999999046,"correct":true,"confidence":5},{"trial_n":102,"min":95,"max":160,"target":"present","response":"present","rt":779.39999985695,"correct":true,"confidence":5},{"trial_n":103,"min":97,"max":158,"target":"absent","response":"present","rt":517,"correct":false,"confidence":5},{"trial_n":104,"min":95,"max":160,"target":"present","response":"present","rt":214.09999990463,"correct":true,"confidence":5},{"trial_n":105,"min":95,"max":160,"target":"absent","response":"present","rt":546.40000009537,"correct":false,"confidence":5},{"trial_n":106,"min":93,"max":162,"target":"present","response":"present","rt":761,"correct":true,"confidence":5},{"trial_n":107,"min":93,"max":162,"target":"absent","response":"present","rt":355,"correct":false,"confidence":5},{"trial_n":108,"min":91,"max":164,"target":"absent","response":"present","rt":167.20000004768,"correct":false,"confidence":5},{"trial_n":109,"min":89,"max":166,"target":"absent","response":"present","rt":433,"correct":false,"confidence":5},{"trial_n":110,"min":87,"max":168,"target":"present","response":"present","rt":104.40000009537,"correct":true,"confidence":5},{"trial_n":111,"min":87,"max":168,"target":"present","response":"present","rt":202.90000009537,"correct":true,"confidence":5},{"trial_n":112,"min":88,"max":167,"target":"present","response":"present","rt":158.59999990463,"correct":true,"confidence":5},{"trial_n":113,"min":88,"max":167,"target":"present","response":"present","rt":274.30000019073,"correct":true,"confidence":5},{"trial_n":114,"min":89,"max":166,"target":"present","response":"present","rt":362.70000004768,"correct":true,"confidence":5},{"trial_n":115,"min":89,"max":166,"target":"present","response":"absent","rt":252.59999990463,"correct":false,"confidence":1},{"trial_n":116,"min":88,"max":167,"target":"absent","response":"present","rt":453,"correct":false,"confidence":3},{"trial_n":117,"min":87,"max":168,"target":"present","response":"present","rt":166.10000014305,"correct":true,"confidence":5},{"trial_n":118,"min":87,"max":168,"target":"absent","response":"absent","rt":732.60000014305,"correct":true,"confidence":5},{"trial_n":119,"min":88,"max":167,"target":"absent","response":"absent","rt":746.30000019073,"correct":true,"confidence":5},{"trial_n":120,"min":88,"max":167,"target":"present","response":"present","rt":780.39999985695,"correct":true,"confidence":5},{"trial_n":121,"min":89,"max":166,"target":"absent","response":"present","rt":533.59999990463,"correct":false,"confidence":5},{"trial_n":122,"min":88,"max":167,"target":"absent","response":"absent","rt":713.39999985695,"correct":true,"confidence":3},{"trial_n":123,"min":88,"max":167,"target":"present","response":"present","rt":371.40000009537,"correct":true,"confidence":5},{"trial_n":124,"min":89,"max":166,"target":"present","response":"absent","rt":748.5,"correct":false,"confidence":3},{"trial_n":125,"min":88,"max":167,"target":"absent","response":"absent","rt":582.29999995232,"correct":true,"confidence":2},{"trial_n":126,"min":88,"max":167,"target":"absent","response":"present","rt":604.89999985695,"correct":false,"confidence":1},{"trial_n":127,"min":87,"max":168,"target":"present","response":"present","rt":747.5,"correct":true,"confidence":5},{"trial_n":128,"min":87,"max":168,"target":"absent","response":"absent","rt":731.29999995232,"correct":true,"confidence":3},{"trial_n":129,"min":88,"max":167,"target":"present","response":"present","rt":489.79999995232,"correct":true,"confidence":3},{"trial_n":130,"min":88,"max":167,"target":"absent","response":"present","rt":858.09999990463,"correct":false,"confidence":3},{"trial_n":131,"min":87,"max":168,"target":"present","response":"present","rt":1397.5999999046,"correct":true,"confidence":5},{"trial_n":132,"min":87,"max":168,"target":"present","response":"present","rt":87.700000047684,"correct":true,"confidence":5},{"trial_n":133,"min":88,"max":167,"target":"present","response":"absent","rt":301.79999995232,"correct":false,"confidence":2},{"trial_n":134,"min":87,"max":168,"target":"present","response":"present","rt":289.90000009537,"correct":true,"confidence":5},{"trial_n":135,"min":87,"max":168,"target":"present","response":"present","rt":48.600000143051,"correct":true,"confidence":5},{"trial_n":136,"min":88,"max":167,"target":"present","response":"present","rt":319.70000004768,"correct":true,"confidence":1},{"trial_n":137,"min":88,"max":167,"target":"absent","response":"absent","rt":1000.4000000954,"correct":true,"confidence":5},{"trial_n":138,"min":89,"max":166,"target":"absent","response":"present","rt":1036.7000000477,"correct":false,"confidence":5},{"trial_n":139,"min":88,"max":167,"target":"absent","response":"present","rt":180.5,"correct":false,"confidence":5},{"trial_n":140,"min":87,"max":168,"target":"absent","response":"present","rt":498.19999980927,"correct":false,"confidence":5}]