[{"trial_n":1,"n_dots":4.25,"target":"right","response":"left","rt":5510.3999999994,"correct":false,"confidence":-1},{"trial_n":2,"n_dots":4.25,"target":"right","response":"right","rt":806.59999999963,"correct":true,"confidence":-1},{"trial_n":3,"n_dots":4.25,"target":"left","response":"left","rt":300.40000000037,"correct":true,"confidence":-1},{"trial_n":4,"n_dots":3.85,"target":"left","response":"right","rt":377.79999999981,"correct":false,"confidence":-1},{"trial_n":5,"n_dots":4.25,"target":"right","response":"right","rt":288.5,"correct":true,"confidence":-1},{"trial_n":6,"n_dots":4.25,"target":"left","response":"left","rt":257.5,"correct":true,"confidence":-1},{"trial_n":7,"n_dots":3.85,"target":"right","response":"left","rt":384.20000000019,"correct":false,"confidence":-1},{"trial_n":8,"n_dots":4.05,"target":"right","response":"right","rt":259.70000000019,"correct":true,"confidence":-1},{"trial_n":9,"n_dots":4.05,"target":"left","response":"left","rt":328.70000000019,"correct":true,"confidence":-1},{"trial_n":10,"n_dots":3.85,"target":"right","response":"left","rt":219.5,"correct":false,"confidence":-1},{"trial_n":11,"n_dots":4.05,"target":"right","response":"left","rt":488.79999999981,"correct":false,"confidence":-1},{"trial_n":12,"n_dots":4.25,"target":"right","response":"right","rt":231.09999999963,"correct":true,"confidence":-1},{"trial_n":13,"n_dots":4.25,"target":"left","response":"left","rt":86.400000000373,"correct":true,"confidence":-1},{"trial_n":14,"n_dots":4.15,"target":"left","response":"left","rt":188.30000000075,"correct":true,"confidence":-1},{"trial_n":15,"n_dots":4.15,"target":"left","response":"left","rt":210.09999999963,"correct":true,"confidence":-1},{"trial_n":16,"n_dots":4.05,"target":"right","response":"left","rt":235.89999999944,"correct":false,"confidence":-1},{"trial_n":17,"n_dots":4.15,"target":"right","response":"left","rt":192.5,"correct":false,"confidence":-1},{"trial_n":18,"n_dots":4.25,"target":"right","response":"left","rt":185.39999999944,"correct":false,"confidence":-1},{"trial_n":19,"n_dots":4.35,"target":"right","response":"left","rt":223.5,"correct":false,"confidence":-1},{"trial_n":20,"n_dots":4.45,"target":"left","response":"left","rt":232.79999999981,"correct":true,"confidence":-1},{"trial_n":21,"n_dots":4.45,"target":"left","response":"left","rt":104.89999999944,"correct":true,"confidence":1},{"trial_n":22,"n_dots":4.35,"target":"left","response":"left","rt":206.70000000019,"correct":true,"confidence":3},{"trial_n":23,"n_dots":4.35,"target":"left","response":"left","rt":204.09999999963,"correct":true,"confidence":3},{"trial_n":24,"n_dots":4.25,"target":"right","response":"left","rt":220.39999999944,"correct":false,"confidence":4},{"trial_n":25,"n_dots":4.35,"target":"left","response":"right","rt":227.70000000019,"correct":false,"confidence":4},{"trial_n":26,"n_dots":4.45,"target":"left","response":"left","rt":206.09999999963,"correct":true,"confidence":3},{"trial_n":27,"n_dots":4.45,"target":"left","response":"left","rt":499.89999999944,"correct":true,"confidence":3},{"trial_n":28,"n_dots":4.35,"target":"right","response":"left","rt":366.29999999981,"correct":false,"confidence":2},{"trial_n":29,"n_dots":4.45,"target":"right","response":"right","rt":358.20000000019,"correct":true,"confidence":3},{"trial_n":30,"n_dots":4.45,"target":"left","response":"left","rt":259.30000000075,"correct":true,"confidence":3},{"trial_n":31,"n_dots":4.35,"target":"right","response":"right","rt":242.19999999925,"correct":true,"confidence":1},{"trial_n":32,"n_dots":4.35,"target":"left","response":"left","rt":278.79999999981,"correct":true,"confidence":2},{"trial_n":33,"n_dots":4.25,"target":"right","response":"right","rt":305.5,"correct":true,"confidence":3},{"trial_n":34,"n_dots":4.25,"target":"right","response":"right","rt":335.40000000037,"correct":true,"confidence":4},{"trial_n":35,"n_dots":4.15,"target":"right","response":"right","rt":442.5,"correct":true,"confidence":5},{"trial_n":36,"n_dots":4.15,"target":"right","response":"left","rt":809,"correct":false,"confidence":1},{"trial_n":37,"n_dots":4.25,"target":"right","response":"right","rt":269.80000000075,"correct":true,"confidence":4},{"trial_n":38,"n_dots":4.25,"target":"right","response":"right","rt":252.19999999925,"correct":true,"confidence":3},{"trial_n":39,"n_dots":4.15,"target":"left","response":"left","rt":181.5,"correct":true,"confidence":3},{"trial_n":40,"n_dots":4.15,"target":"left","response":"left","rt":100.40000000037,"correct":true,"confidence":3},{"trial_n":41,"n_dots":4.05,"target":"right","response":"left","rt":210.89999999944,"correct":false,"confidence":3},{"trial_n":42,"n_dots":4.15,"target":"left","response":"left","rt":208.59999999963,"correct":true,"confidence":1},{"trial_n":43,"n_dots":4.15,"target":"left","response":"left","rt":291,"correct":true,"confidence":3},{"trial_n":44,"n_dots":4.05,"target":"left","response":"right","rt":264.89999999944,"correct":false,"confidence":2},{"trial_n":45,"n_dots":4.15,"target":"left","response":"left","rt":318.79999999981,"correct":true,"confidence":2},{"trial_n":46,"n_dots":4.15,"target":"left","response":"right","rt":238.40000000037,"correct":false,"confidence":3},{"trial_n":47,"n_dots":4.25,"target":"left","response":"left","rt":235.60000000056,"correct":true,"confidence":2},{"trial_n":48,"n_dots":4.25,"target":"right","response":"right","rt":313.70000000019,"correct":true,"confidence":4},{"trial_n":49,"n_dots":4.15,"target":"left","response":"left","rt":99.800000000745,"correct":true,"confidence":2},{"trial_n":50,"n_dots":4.15,"target":"left","response":"left","rt":178.39999999944,"correct":true,"confidence":1},{"trial_n":51,"n_dots":4.05,"target":"right","response":"right","rt":310.89999999944,"correct":true,"confidence":5},{"trial_n":52,"n_dots":4.05,"target":"right","response":"right","rt":338.39999999944,"correct":true,"confidence":5},{"trial_n":53,"n_dots":3.95,"target":"left","response":"left","rt":261.30000000075,"correct":true,"confidence":3},{"trial_n":54,"n_dots":3.95,"target":"left","response":"left","rt":117.89999999944,"correct":true,"confidence":3},{"trial_n":55,"n_dots":3.85,"target":"right","response":"right","rt":325.89999999944,"correct":true,"confidence":3},{"trial_n":56,"n_dots":3.85,"target":"right","response":"left","rt":284.29999999981,"correct":false,"confidence":2},{"trial_n":57,"n_dots":3.95,"target":"right","response":"right","rt":470.40000000037,"correct":true,"confidence":4},{"trial_n":58,"n_dots":3.95,"target":"left","response":"left","rt":410.59999999963,"correct":true,"confidence":2},{"trial_n":59,"n_dots":3.85,"target":"left","response":"right","rt":289.20000000019,"correct":false,"confidence":4},{"trial_n":60,"n_dots":3.95,"target":"right","response":"right","rt":1094.2999999998,"correct":true,"confidence":5},{"trial_n":61,"n_dots":3.95,"target":"right","response":"left","rt":250.80000000075,"correct":false,"confidence":3},{"trial_n":62,"n_dots":4.05,"target":"left","response":"right","rt":343.5,"correct":false,"confidence":3},{"trial_n":63,"n_dots":4.15,"target":"left","response":"left","rt":216.79999999981,"correct":true,"confidence":1},{"trial_n":64,"n_dots":4.15,"target":"left","response":"right","rt":284.5,"correct":false,"confidence":1},{"trial_n":65,"n_dots":4.25,"target":"left","response":"left","rt":280.70000000019,"correct":true,"confidence":3},{"trial_n":66,"n_dots":4.25,"target":"right","response":"right","rt":281.09999999963,"correct":true,"confidence":1},{"trial_n":67,"n_dots":4.15,"target":"left","response":"left","rt":383.10000000056,"correct":true,"confidence":4},{"trial_n":68,"n_dots":4.15,"target":"left","response":"right","rt":308.5,"correct":false,"confidence":4},{"trial_n":69,"n_dots":4.25,"target":"right","response":"right","rt":416.20000000019,"correct":true,"confidence":5},{"trial_n":70,"n_dots":4.25,"target":"right","response":"right","rt":349.39999999944,"correct":true,"confidence":5},{"trial_n":71,"n_dots":4.15,"target":"left","response":"left","rt":234.60000000056,"correct":true,"confidence":4},{"trial_n":72,"n_dots":4.15,"target":"right","response":"right","rt":442.79999999981,"correct":true,"confidence":5},{"trial_n":73,"n_dots":4.05,"target":"left","response":"left","rt":352,"correct":true,"confidence":3},{"trial_n":74,"n_dots":4.05,"target":"right","response":"right","rt":273.30000000075,"correct":true,"confidence":1},{"trial_n":75,"n_dots":3.95,"target":"left","response":"left","rt":830.29999999981,"correct":true,"confidence":4},{"trial_n":76,"n_dots":3.95,"target":"right","response":"right","rt":323.5,"correct":true,"confidence":5},{"trial_n":77,"n_dots":3.85,"target":"left","response":"left","rt":250.39999999944,"correct":true,"confidence":3},{"trial_n":78,"n_dots":3.85,"target":"right","response":"right","rt":230.89999999944,"correct":true,"confidence":1},{"trial_n":79,"n_dots":3.75,"target":"right","response":"left","rt":200.09999999963,"correct":false,"confidence":2},{"trial_n":80,"n_dots":3.85,"target":"left","response":"left","rt":374.70000000019,"correct":true,"confidence":1},{"trial_n":81,"n_dots":3.85,"target":"left","response":"right","rt":186.40000000037,"correct":false,"confidence":1},{"trial_n":82,"n_dots":3.95,"target":"right","response":"right","rt":1060.2999999998,"correct":true,"confidence":5},{"trial_n":83,"n_dots":3.95,"target":"left","response":"left","rt":140.39999999944,"correct":true,"confidence":3},{"trial_n":84,"n_dots":3.85,"target":"left","response":"right","rt":253.79999999981,"correct":false,"confidence":1},{"trial_n":85,"n_dots":3.95,"target":"right","response":"left","rt":253.90000000037,"correct":false,"confidence":1},{"trial_n":86,"n_dots":4.05,"target":"left","response":"right","rt":302.59999999963,"correct":false,"confidence":4},{"trial_n":87,"n_dots":4.15,"target":"left","response":"right","rt":278.5,"correct":false,"confidence":4},{"trial_n":88,"n_dots":4.25,"target":"right","response":"right","rt":305.69999999925,"correct":true,"confidence":5},{"trial_n":89,"n_dots":4.25,"target":"right","response":"right","rt":227.29999999981,"correct":true,"confidence":1},{"trial_n":90,"n_dots":4.15,"target":"left","response":"left","rt":752.70000000019,"correct":true,"confidence":3},{"trial_n":91,"n_dots":4.15,"target":"left","response":"left","rt":180.69999999925,"correct":true,"confidence":3},{"trial_n":92,"n_dots":4.05,"target":"right","response":"right","rt":271.79999999981,"correct":true,"confidence":4},{"trial_n":93,"n_dots":4.05,"target":"left","response":"left","rt":234.90000000037,"correct":true,"confidence":1},{"trial_n":94,"n_dots":3.95,"target":"right","response":"right","rt":406.79999999981,"correct":true,"confidence":5},{"trial_n":95,"n_dots":3.95,"target":"right","response":"right","rt":247.10000000056,"correct":true,"confidence":1},{"trial_n":96,"n_dots":3.85,"target":"right","response":"right","rt":315.29999999981,"correct":true,"confidence":5},{"trial_n":97,"n_dots":3.85,"target":"left","response":"left","rt":1815.2000000002,"correct":true,"confidence":3},{"trial_n":98,"n_dots":3.75,"target":"right","response":"right","rt":319.59999999963,"correct":true,"confidence":5},{"trial_n":99,"n_dots":3.75,"target":"right","response":"right","rt":288.19999999925,"correct":true,"confidence":5},{"trial_n":100,"n_dots":3.65,"target":"right","response":"right","rt":316.40000000037,"correct":true,"confidence":5},{"trial_n":101,"n_dots":3.65,"target":"left","response":"right","rt":399.40000000037,"correct":false,"confidence":1},{"trial_n":102,"n_dots":3.75,"target":"right","response":"right","rt":384.5,"correct":true,"confidence":4},{"trial_n":103,"n_dots":3.75,"target":"left","response":"left","rt":172.29999999981,"correct":true,"confidence":1},{"trial_n":104,"n_dots":3.65,"target":"left","response":"left","rt":43.700000000186,"correct":true,"confidence":1},{"trial_n":105,"n_dots":3.65,"target":"left","response":"right","rt":646.19999999925,"correct":false,"confidence":1},{"trial_n":106,"n_dots":3.75,"target":"right","response":"right","rt":378.89999999944,"correct":true,"confidence":5},{"trial_n":107,"n_dots":3.75,"target":"right","response":"right","rt":287.10000000056,"correct":true,"confidence":5},{"trial_n":108,"n_dots":3.65,"target":"right","response":"right","rt":146.10000000056,"correct":true,"confidence":1},{"trial_n":109,"n_dots":3.65,"target":"left","response":"left","rt":794,"correct":true,"confidence":4},{"trial_n":110,"n_dots":3.55,"target":"left","response":"right","rt":369.29999999981,"correct":false,"confidence":5},{"trial_n":111,"n_dots":3.65,"target":"right","response":"right","rt":293.40000000037,"correct":true,"confidence":4},{"trial_n":112,"n_dots":3.65,"target":"left","response":"left","rt":424.09999999963,"correct":true,"confidence":1},{"trial_n":113,"n_dots":3.55,"target":"right","response":"right","rt":300.70000000019,"correct":true,"confidence":5},{"trial_n":114,"n_dots":3.55,"target":"right","response":"right","rt":302.79999999981,"correct":true,"confidence":5},{"trial_n":115,"n_dots":3.45,"target":"right","response":"right","rt":305.80000000075,"correct":true,"confidence":5},{"trial_n":116,"n_dots":3.45,"target":"right","response":"right","rt":1541.3999999994,"correct":true,"confidence":5},{"trial_n":117,"n_dots":3.35,"target":"left","response":"left","rt":165.70000000019,"correct":true,"confidence":1},{"trial_n":118,"n_dots":3.35,"target":"right","response":"left","rt":209.40000000037,"correct":false,"confidence":1},{"trial_n":119,"n_dots":3.45,"target":"left","response":"right","rt":245.79999999981,"correct":false,"confidence":3},{"trial_n":120,"n_dots":3.55,"target":"left","response":"right","rt":301.79999999981,"correct":false,"confidence":4}]