[{"trial_n":1,"n_dots":4.25,"target":"left","response":"left","rt":2072.5999999046,"correct":true,"confidence":-1},{"trial_n":2,"n_dots":4.25,"target":"right","response":"right","rt":3047.8000000715,"correct":true,"confidence":-1},{"trial_n":3,"n_dots":3.85,"target":"right","response":"right","rt":687.69999992847,"correct":true,"confidence":-1},{"trial_n":4,"n_dots":3.85,"target":"right","response":"left","rt":883.09999990463,"correct":false,"confidence":-1},{"trial_n":5,"n_dots":4.25,"target":"left","response":"left","rt":228.60000002384,"correct":true,"confidence":-1},{"trial_n":6,"n_dots":4.25,"target":"right","response":"right","rt":324.69999992847,"correct":true,"confidence":-1},{"trial_n":7,"n_dots":3.85,"target":"right","response":"right","rt":104,"correct":true,"confidence":-1},{"trial_n":8,"n_dots":3.85,"target":"left","response":"right","rt":428.10000002384,"correct":false,"confidence":-1},{"trial_n":9,"n_dots":4.05,"target":"left","response":"left","rt":271.80000007153,"correct":true,"confidence":-1},{"trial_n":10,"n_dots":4.05,"target":"left","response":"left","rt":325.09999990463,"correct":true,"confidence":-1},{"trial_n":11,"n_dots":3.85,"target":"right","response":"left","rt":323.39999997616,"correct":false,"confidence":-1},{"trial_n":12,"n_dots":4.05,"target":"left","response":"left","rt":1006,"correct":true,"confidence":-1},{"trial_n":13,"n_dots":4.05,"target":"left","response":"left","rt":251.39999997616,"correct":true,"confidence":-1},{"trial_n":14,"n_dots":3.95,"target":"right","response":"left","rt":322.79999995232,"correct":false,"confidence":-1},{"trial_n":15,"n_dots":4.05,"target":"left","response":"left","rt":91.900000095367,"correct":true,"confidence":-1},{"trial_n":16,"n_dots":4.05,"target":"right","response":"right","rt":447.39999997616,"correct":true,"confidence":-1},{"trial_n":17,"n_dots":3.95,"target":"left","response":"right","rt":538.20000004768,"correct":false,"confidence":-1},{"trial_n":18,"n_dots":4.05,"target":"left","response":"left","rt":717.5,"correct":true,"confidence":-1},{"trial_n":19,"n_dots":4.05,"target":"left","response":"left","rt":92.200000047684,"correct":true,"confidence":-1},{"trial_n":20,"n_dots":3.95,"target":"left","response":"left","rt":600.89999997616,"correct":true,"confidence":-1},{"trial_n":21,"n_dots":3.95,"target":"right","response":"left","rt":203.79999995232,"correct":false,"confidence":2},{"trial_n":22,"n_dots":4.05,"target":"right","response":"right","rt":944.60000002384,"correct":true,"confidence":1},{"trial_n":23,"n_dots":4.05,"target":"right","response":"right","rt":1328.7000000477,"correct":true,"confidence":3},{"trial_n":24,"n_dots":3.95,"target":"right","response":"left","rt":1650,"correct":false,"confidence":3},{"trial_n":25,"n_dots":4.05,"target":"right","response":"right","rt":1080.2999999523,"correct":true,"confidence":2},{"trial_n":26,"n_dots":4.05,"target":"right","response":"right","rt":4529.6000000238,"correct":true,"confidence":3},{"trial_n":27,"n_dots":3.95,"target":"left","response":"left","rt":515.89999997616,"correct":true,"confidence":4},{"trial_n":28,"n_dots":3.95,"target":"right","response":"right","rt":703.80000007153,"correct":true,"confidence":5},{"trial_n":29,"n_dots":3.85,"target":"left","response":"left","rt":554.19999992847,"correct":true,"confidence":3},{"trial_n":30,"n_dots":3.85,"target":"right","response":"right","rt":1774,"correct":true,"confidence":2},{"trial_n":31,"n_dots":3.75,"target":"left","response":"left","rt":634.10000002384,"correct":true,"confidence":3},{"trial_n":32,"n_dots":3.75,"target":"right","response":"right","rt":831.5,"correct":true,"confidence":3},{"trial_n":33,"n_dots":3.65,"target":"right","response":"left","rt":485.90000009537,"correct":false,"confidence":3},{"trial_n":34,"n_dots":3.75,"target":"right","response":"right","rt":909.39999997616,"correct":true,"confidence":4},{"trial_n":35,"n_dots":3.75,"target":"left","response":"left","rt":345.29999995232,"correct":true,"confidence":5},{"trial_n":36,"n_dots":3.65,"target":"right","response":"right","rt":654.70000004768,"correct":true,"confidence":5},{"trial_n":37,"n_dots":3.65,"target":"left","response":"left","rt":378.30000007153,"correct":true,"confidence":3},{"trial_n":38,"n_dots":3.55,"target":"left","response":"left","rt":80.200000047684,"correct":true,"confidence":3},{"trial_n":39,"n_dots":3.55,"target":"left","response":"left","rt":55.899999976158,"correct":true,"confidence":3},{"trial_n":40,"n_dots":3.45,"target":"left","response":"left","rt":121.29999995232,"correct":true,"confidence":4},{"trial_n":41,"n_dots":3.45,"target":"left","response":"left","rt":6.7999999523163,"correct":true,"confidence":3},{"trial_n":42,"n_dots":3.35,"target":"right","response":"right","rt":273.69999992847,"correct":true,"confidence":3},{"trial_n":43,"n_dots":3.35,"target":"right","response":"left","rt":230,"correct":false,"confidence":2},{"trial_n":44,"n_dots":3.45,"target":"right","response":"left","rt":788.89999997616,"correct":false,"confidence":3},{"trial_n":45,"n_dots":3.55,"target":"left","response":"left","rt":587,"correct":true,"confidence":4},{"trial_n":46,"n_dots":3.55,"target":"right","response":"right","rt":530,"correct":true,"confidence":3},{"trial_n":47,"n_dots":3.45,"target":"right","response":"left","rt":327.69999992847,"correct":false,"confidence":4},{"trial_n":48,"n_dots":3.55,"target":"right","response":"right","rt":441.80000007153,"correct":true,"confidence":2},{"trial_n":49,"n_dots":3.55,"target":"left","response":"left","rt":325.89999997616,"correct":true,"confidence":5},{"trial_n":50,"n_dots":3.45,"target":"left","response":"left","rt":440.20000004768,"correct":true,"confidence":3},{"trial_n":51,"n_dots":3.45,"target":"right","response":"left","rt":387.10000002384,"correct":false,"confidence":3},{"trial_n":52,"n_dots":3.55,"target":"left","response":"left","rt":499.69999992847,"correct":true,"confidence":4},{"trial_n":53,"n_dots":3.55,"target":"left","response":"left","rt":104.79999995232,"correct":true,"confidence":2},{"trial_n":54,"n_dots":3.45,"target":"left","response":"left","rt":81.299999952316,"correct":true,"confidence":4},{"trial_n":55,"n_dots":3.45,"target":"left","response":"left","rt":311,"correct":true,"confidence":3},{"trial_n":56,"n_dots":3.35,"target":"right","response":"left","rt":469.39999997616,"correct":false,"confidence":4},{"trial_n":57,"n_dots":3.45,"target":"right","response":"right","rt":893.29999995232,"correct":true,"confidence":2},{"trial_n":58,"n_dots":3.45,"target":"right","response":"right","rt":459.20000004768,"correct":true,"confidence":3},{"trial_n":59,"n_dots":3.35,"target":"left","response":"left","rt":381,"correct":true,"confidence":4},{"trial_n":60,"n_dots":3.35,"target":"right","response":"right","rt":638.80000007153,"correct":true,"confidence":4},{"trial_n":61,"n_dots":3.25,"target":"left","response":"left","rt":343.60000002384,"correct":true,"confidence":3},{"trial_n":62,"n_dots":3.25,"target":"left","response":"left","rt":282.70000004768,"correct":true,"confidence":4},{"trial_n":63,"n_dots":3.15,"target":"left","response":"right","rt":420.39999997616,"correct":false,"confidence":3},{"trial_n":64,"n_dots":3.25,"target":"right","response":"right","rt":388.89999997616,"correct":true,"confidence":5},{"trial_n":65,"n_dots":3.25,"target":"right","response":"right","rt":621.89999997616,"correct":true,"confidence":4},{"trial_n":66,"n_dots":3.15,"target":"right","response":"right","rt":484.89999997616,"correct":true,"confidence":3},{"trial_n":67,"n_dots":3.15,"target":"right","response":"left","rt":268.30000007153,"correct":false,"confidence":4},{"trial_n":68,"n_dots":3.25,"target":"right","response":"right","rt":452,"correct":true,"confidence":3},{"trial_n":69,"n_dots":3.25,"target":"left","response":"left","rt":280.39999997616,"correct":true,"confidence":4},{"trial_n":70,"n_dots":3.15,"target":"right","response":"left","rt":590.89999997616,"correct":false,"confidence":4},{"trial_n":71,"n_dots":3.25,"target":"right","response":"right","rt":538.10000002384,"correct":true,"confidence":4},{"trial_n":72,"n_dots":3.25,"target":"left","response":"left","rt":316.29999995232,"correct":true,"confidence":4},{"trial_n":73,"n_dots":3.15,"target":"left","response":"left","rt":383,"correct":true,"confidence":1},{"trial_n":74,"n_dots":3.15,"target":"right","response":"right","rt":1008.5,"correct":true,"confidence":3},{"trial_n":75,"n_dots":3.05,"target":"left","response":"left","rt":334.70000004768,"correct":true,"confidence":3},{"trial_n":76,"n_dots":3.05,"target":"right","response":"right","rt":304.09999990463,"correct":true,"confidence":4},{"trial_n":77,"n_dots":2.95,"target":"right","response":"right","rt":411,"correct":true,"confidence":4},{"trial_n":78,"n_dots":2.95,"target":"left","response":"left","rt":276.60000002384,"correct":true,"confidence":3},{"trial_n":79,"n_dots":2.85,"target":"left","response":"left","rt":324.10000002384,"correct":true,"confidence":3},{"trial_n":80,"n_dots":2.85,"target":"left","response":"right","rt":422.89999997616,"correct":false,"confidence":4},{"trial_n":81,"n_dots":2.95,"target":"left","response":"left","rt":382.10000002384,"correct":true,"confidence":3},{"trial_n":82,"n_dots":2.95,"target":"right","response":"right","rt":331.39999997616,"correct":true,"confidence":3},{"trial_n":83,"n_dots":2.85,"target":"left","response":"left","rt":205.39999997616,"correct":true,"confidence":4},{"trial_n":84,"n_dots":2.85,"target":"right","response":"right","rt":273.89999997616,"correct":true,"confidence":4},{"trial_n":85,"n_dots":2.75,"target":"right","response":"right","rt":305.30000007153,"correct":true,"confidence":4},{"trial_n":86,"n_dots":2.75,"target":"left","response":"left","rt":652.70000004768,"correct":true,"confidence":3},{"trial_n":87,"n_dots":2.65,"target":"right","response":"left","rt":513.10000002384,"correct":false,"confidence":4},{"trial_n":88,"n_dots":2.75,"target":"right","response":"right","rt":292.79999995232,"correct":true,"confidence":3},{"trial_n":89,"n_dots":2.75,"target":"right","response":"left","rt":669.89999997616,"correct":false,"confidence":4},{"trial_n":90,"n_dots":2.85,"target":"left","response":"left","rt":283.29999995232,"correct":true,"confidence":4},{"trial_n":91,"n_dots":2.85,"target":"left","response":"left","rt":228.19999992847,"correct":true,"confidence":3},{"trial_n":92,"n_dots":2.75,"target":"right","response":"right","rt":348.89999997616,"correct":true,"confidence":4},{"trial_n":93,"n_dots":2.75,"target":"right","response":"left","rt":321.19999992847,"correct":false,"confidence":3},{"trial_n":94,"n_dots":2.85,"target":"right","response":"right","rt":426.79999995232,"correct":true,"confidence":4},{"trial_n":95,"n_dots":2.85,"target":"right","response":"right","rt":330,"correct":true,"confidence":3},{"trial_n":96,"n_dots":2.75,"target":"right","response":"left","rt":903.5,"correct":false,"confidence":2},{"trial_n":97,"n_dots":2.85,"target":"left","response":"left","rt":545.20000004768,"correct":true,"confidence":3},{"trial_n":98,"n_dots":2.85,"target":"left","response":"left","rt":1234,"correct":true,"confidence":2},{"trial_n":99,"n_dots":2.75,"target":"left","response":"right","rt":1118.6000000238,"correct":false,"confidence":1},{"trial_n":100,"n_dots":2.85,"target":"right","response":"right","rt":415.30000007153,"correct":true,"confidence":3},{"trial_n":101,"n_dots":2.85,"target":"right","response":"left","rt":316.89999997616,"correct":false,"confidence":3},{"trial_n":102,"n_dots":2.95,"target":"left","response":"right","rt":336.5,"correct":false,"confidence":4},{"trial_n":103,"n_dots":3.05,"target":"left","response":"left","rt":0.39999997615814,"correct":true,"confidence":3},{"trial_n":104,"n_dots":3.05,"target":"right","response":"right","rt":993.5,"correct":true,"confidence":2},{"trial_n":105,"n_dots":2.95,"target":"right","response":"left","rt":1129.8999999762,"correct":false,"confidence":1},{"trial_n":106,"n_dots":3.05,"target":"left","response":"left","rt":450.29999995232,"correct":true,"confidence":2},{"trial_n":107,"n_dots":3.05,"target":"left","response":"left","rt":427,"correct":true,"confidence":3},{"trial_n":108,"n_dots":2.95,"target":"left","response":"left","rt":339.10000002384,"correct":true,"confidence":3},{"trial_n":109,"n_dots":2.95,"target":"right","response":"left","rt":764.20000004768,"correct":false,"confidence":3},{"trial_n":110,"n_dots":3.05,"target":"left","response":"left","rt":796.79999995232,"correct":true,"confidence":3},{"trial_n":111,"n_dots":3.05,"target":"left","response":"right","rt":679.60000002384,"correct":false,"confidence":3},{"trial_n":112,"n_dots":3.15,"target":"left","response":"left","rt":551.90000009537,"correct":true,"confidence":4},{"trial_n":113,"n_dots":3.15,"target":"left","response":"left","rt":712,"correct":true,"confidence":4},{"trial_n":114,"n_dots":3.05,"target":"left","response":"left","rt":529,"correct":true,"confidence":4},{"trial_n":115,"n_dots":3.05,"target":"right","response":"right","rt":316.09999990463,"correct":true,"confidence":3},{"trial_n":116,"n_dots":2.95,"target":"right","response":"right","rt":483,"correct":true,"confidence":3},{"trial_n":117,"n_dots":2.95,"target":"right","response":"right","rt":1707,"correct":true,"confidence":2},{"trial_n":118,"n_dots":2.85,"target":"left","response":"left","rt":390.89999997616,"correct":true,"confidence":3},{"trial_n":119,"n_dots":2.85,"target":"left","response":"left","rt":354.59999990463,"correct":true,"confidence":4},{"trial_n":120,"n_dots":2.75,"target":"left","response":"right","rt":634.79999995232,"correct":false,"confidence":3}]