[{"trial_n":1,"min":25,"max":230,"target":"present","response":"present","rt":5886.5,"correct":true,"confidence":-1},{"trial_n":2,"min":25,"max":230,"target":"present","response":"present","rt":3128,"correct":true,"confidence":-1},{"trial_n":3,"min":41,"max":214,"target":"absent","response":"absent","rt":1664.6000000015,"correct":true,"confidence":-1},{"trial_n":4,"min":41,"max":214,"target":"absent","response":"absent","rt":967.60000000149,"correct":true,"confidence":-1},{"trial_n":5,"min":57,"max":198,"target":"present","response":"present","rt":1268.099999994,"correct":true,"confidence":-1},{"trial_n":6,"min":57,"max":198,"target":"absent","response":"absent","rt":1070.299999997,"correct":true,"confidence":-1},{"trial_n":7,"min":73,"max":182,"target":"present","response":"absent","rt":949.5,"correct":false,"confidence":-1},{"trial_n":8,"min":57,"max":198,"target":"present","response":"present","rt":779.30000000447,"correct":true,"confidence":-1},{"trial_n":9,"min":57,"max":198,"target":"absent","response":"absent","rt":892.5,"correct":true,"confidence":-1},{"trial_n":10,"min":73,"max":182,"target":"absent","response":"absent","rt":805,"correct":true,"confidence":-1},{"trial_n":11,"min":73,"max":182,"target":"present","response":"present","rt":1019.400000006,"correct":true,"confidence":-1},{"trial_n":12,"min":81,"max":174,"target":"absent","response":"absent","rt":896.70000000298,"correct":true,"confidence":-1},{"trial_n":13,"min":81,"max":174,"target":"present","response":"present","rt":933,"correct":true,"confidence":-1},{"trial_n":14,"min":89,"max":166,"target":"present","response":"present","rt":977.70000000298,"correct":true,"confidence":-1},{"trial_n":15,"min":89,"max":166,"target":"present","response":"present","rt":990.5,"correct":true,"confidence":-1},{"trial_n":16,"min":97,"max":158,"target":"absent","response":"absent","rt":855.20000000298,"correct":true,"confidence":-1},{"trial_n":17,"min":97,"max":158,"target":"absent","response":"absent","rt":891.89999999851,"correct":true,"confidence":-1},{"trial_n":18,"min":105,"max":150,"target":"present","response":"absent","rt":914.59999999404,"correct":false,"confidence":-1},{"trial_n":19,"min":97,"max":158,"target":"absent","response":"absent","rt":664.40000000596,"correct":true,"confidence":-1},{"trial_n":20,"min":97,"max":158,"target":"absent","response":"absent","rt":499.30000000447,"correct":true,"confidence":-1},{"trial_n":21,"min":101,"max":154,"target":"present","response":"absent","rt":1291.900000006,"correct":false,"confidence":3},{"trial_n":22,"min":97,"max":158,"target":"present","response":"absent","rt":1088.200000003,"correct":false,"confidence":3},{"trial_n":23,"min":93,"max":162,"target":"absent","response":"present","rt":750.20000000298,"correct":false,"confidence":4},{"trial_n":24,"min":89,"max":166,"target":"present","response":"present","rt":1318.5,"correct":true,"confidence":3},{"trial_n":25,"min":89,"max":166,"target":"present","response":"present","rt":864.70000000298,"correct":true,"confidence":3},{"trial_n":26,"min":93,"max":162,"target":"absent","response":"absent","rt":1291.1000000015,"correct":true,"confidence":2},{"trial_n":27,"min":93,"max":162,"target":"present","response":"absent","rt":912.60000000149,"correct":false,"confidence":2},{"trial_n":28,"min":89,"max":166,"target":"absent","response":"absent","rt":966.70000000298,"correct":true,"confidence":2},{"trial_n":29,"min":89,"max":166,"target":"present","response":"present","rt":1296.200000003,"correct":true,"confidence":2},{"trial_n":30,"min":93,"max":162,"target":"absent","response":"present","rt":1022.200000003,"correct":false,"confidence":2},{"trial_n":31,"min":91,"max":164,"target":"absent","response":"absent","rt":748.79999999702,"correct":true,"confidence":3},{"trial_n":32,"min":91,"max":164,"target":"absent","response":"absent","rt":940.89999999851,"correct":true,"confidence":3},{"trial_n":33,"min":93,"max":162,"target":"present","response":"present","rt":1517.6000000015,"correct":true,"confidence":2},{"trial_n":34,"min":93,"max":162,"target":"present","response":"present","rt":1250,"correct":true,"confidence":2},{"trial_n":35,"min":95,"max":160,"target":"present","response":"absent","rt":3124.6000000015,"correct":false,"confidence":1},{"trial_n":36,"min":93,"max":162,"target":"present","response":"absent","rt":2323.8000000045,"correct":false,"confidence":3},{"trial_n":37,"min":91,"max":164,"target":"absent","response":"absent","rt":1262.5,"correct":true,"confidence":3},{"trial_n":38,"min":91,"max":164,"target":"absent","response":"present","rt":1497.1999999955,"correct":false,"confidence":3},{"trial_n":39,"min":89,"max":166,"target":"present","response":"present","rt":917.5,"correct":true,"confidence":3},{"trial_n":40,"min":89,"max":166,"target":"present","response":"absent","rt":1872.299999997,"correct":false,"confidence":1},{"trial_n":41,"min":88,"max":167,"target":"absent","response":"absent","rt":1094.700000003,"correct":true,"confidence":1},{"trial_n":42,"min":88,"max":167,"target":"present","response":"present","rt":758.29999999702,"correct":true,"confidence":4},{"trial_n":43,"min":89,"max":166,"target":"absent","response":"absent","rt":1690.6000000015,"correct":true,"confidence":1},{"trial_n":44,"min":89,"max":166,"target":"present","response":"present","rt":971.10000000149,"correct":true,"confidence":1},{"trial_n":45,"min":90,"max":165,"target":"present","response":"present","rt":5503.5,"correct":true,"confidence":4},{"trial_n":46,"min":90,"max":165,"target":"present","response":"present","rt":2324.799999997,"correct":true,"confidence":3},{"trial_n":47,"min":91,"max":164,"target":"absent","response":"absent","rt":961.39999999851,"correct":true,"confidence":1},{"trial_n":48,"min":91,"max":164,"target":"absent","response":"absent","rt":883.60000000149,"correct":true,"confidence":1},{"trial_n":49,"min":92,"max":163,"target":"absent","response":"present","rt":1511.5,"correct":false,"confidence":1},{"trial_n":50,"min":91,"max":164,"target":"present","response":"absent","rt":967.29999999702,"correct":false,"confidence":1},{"trial_n":51,"min":90,"max":165,"target":"present","response":"absent","rt":1420.799999997,"correct":false,"confidence":2},{"trial_n":52,"min":89,"max":166,"target":"present","response":"present","rt":1181.200000003,"correct":true,"confidence":4},{"trial_n":53,"min":89,"max":166,"target":"absent","response":"present","rt":862.79999999702,"correct":false,"confidence":3},{"trial_n":54,"min":88,"max":167,"target":"absent","response":"absent","rt":985.39999999851,"correct":true,"confidence":1},{"trial_n":55,"min":88,"max":167,"target":"present","response":"present","rt":875.59999999404,"correct":true,"confidence":2},{"trial_n":56,"min":89,"max":166,"target":"absent","response":"present","rt":1684.6000000015,"correct":false,"confidence":4},{"trial_n":57,"min":88,"max":167,"target":"absent","response":"absent","rt":1287.200000003,"correct":true,"confidence":1},{"trial_n":58,"min":88,"max":167,"target":"present","response":"present","rt":928.89999999851,"correct":true,"confidence":3},{"trial_n":59,"min":89,"max":166,"target":"present","response":"present","rt":1525.6999999955,"correct":true,"confidence":3},{"trial_n":60,"min":89,"max":166,"target":"absent","response":"present","rt":1237.1000000015,"correct":false,"confidence":2},{"trial_n":61,"min":88,"max":167,"target":"absent","response":"present","rt":2989,"correct":false,"confidence":3},{"trial_n":62,"min":87,"max":168,"target":"absent","response":"absent","rt":3433.3999999985,"correct":true,"confidence":1},{"trial_n":63,"min":87,"max":168,"target":"absent","response":"absent","rt":2279.6000000015,"correct":true,"confidence":3},{"trial_n":64,"min":88,"max":167,"target":"present","response":"present","rt":929,"correct":true,"confidence":4},{"trial_n":65,"min":88,"max":167,"target":"absent","response":"present","rt":1017.8999999985,"correct":false,"confidence":2},{"trial_n":66,"min":87,"max":168,"target":"present","response":"present","rt":1280.6999999955,"correct":true,"confidence":2},{"trial_n":67,"min":87,"max":168,"target":"present","response":"present","rt":1012.3000000045,"correct":true,"confidence":4},{"trial_n":68,"min":88,"max":167,"target":"absent","response":"present","rt":973.89999999851,"correct":false,"confidence":3},{"trial_n":69,"min":87,"max":168,"target":"present","response":"present","rt":765.40000000596,"correct":true,"confidence":3},{"trial_n":70,"min":87,"max":168,"target":"absent","response":"absent","rt":1012.400000006,"correct":true,"confidence":3},{"trial_n":71,"min":41,"max":214,"target":"present","response":"present","rt":5096.6999999955,"correct":true,"confidence":-1},{"trial_n":72,"min":41,"max":214,"target":"present","response":"present","rt":1139.5,"correct":true,"confidence":-1},{"trial_n":73,"min":57,"max":198,"target":"absent","response":"absent","rt":1366.900000006,"correct":true,"confidence":-1},{"trial_n":74,"min":57,"max":198,"target":"absent","response":"absent","rt":644,"correct":true,"confidence":-1},{"trial_n":75,"min":73,"max":182,"target":"present","response":"present","rt":790.60000000149,"correct":true,"confidence":-1},{"trial_n":76,"min":73,"max":182,"target":"absent","response":"absent","rt":975.29999999702,"correct":true,"confidence":-1},{"trial_n":77,"min":89,"max":166,"target":"absent","response":"absent","rt":589.39999999851,"correct":true,"confidence":-1},{"trial_n":78,"min":89,"max":166,"target":"absent","response":"absent","rt":630.39999999851,"correct":true,"confidence":-1},{"trial_n":79,"min":105,"max":150,"target":"absent","response":"present","rt":1342.799999997,"correct":false,"confidence":-1},{"trial_n":80,"min":89,"max":166,"target":"present","response":"absent","rt":2115.700000003,"correct":false,"confidence":-1},{"trial_n":81,"min":81,"max":174,"target":"absent","response":"present","rt":1235.6000000015,"correct":false,"confidence":-1},{"trial_n":82,"min":73,"max":182,"target":"present","response":"present","rt":1159.6999999955,"correct":true,"confidence":-1},{"trial_n":83,"min":73,"max":182,"target":"absent","response":"absent","rt":1257.5,"correct":true,"confidence":-1},{"trial_n":84,"min":81,"max":174,"target":"absent","response":"absent","rt":908.10000000149,"correct":true,"confidence":-1},{"trial_n":85,"min":81,"max":174,"target":"present","response":"present","rt":711.70000000298,"correct":true,"confidence":-1},{"trial_n":86,"min":89,"max":166,"target":"absent","response":"absent","rt":1391.6000000015,"correct":true,"confidence":-1},{"trial_n":87,"min":89,"max":166,"target":"present","response":"present","rt":1150.1000000015,"correct":true,"confidence":-1},{"trial_n":88,"min":97,"max":158,"target":"absent","response":"present","rt":728.60000000149,"correct":false,"confidence":-1},{"trial_n":89,"min":89,"max":166,"target":"present","response":"present","rt":566,"correct":true,"confidence":-1},{"trial_n":90,"min":89,"max":166,"target":"absent","response":"present","rt":659.60000000149,"correct":false,"confidence":-1},{"trial_n":91,"min":85,"max":170,"target":"present","response":"present","rt":1236.1000000015,"correct":true,"confidence":3},{"trial_n":92,"min":85,"max":170,"target":"absent","response":"absent","rt":1229.5,"correct":true,"confidence":3},{"trial_n":93,"min":89,"max":166,"target":"absent","response":"absent","rt":1034.3999999985,"correct":true,"confidence":4},{"trial_n":94,"min":89,"max":166,"target":"present","response":"present","rt":586.30000000447,"correct":true,"confidence":4},{"trial_n":95,"min":93,"max":162,"target":"present","response":"present","rt":676.89999999851,"correct":true,"confidence":5},{"trial_n":96,"min":93,"max":162,"target":"absent","response":"absent","rt":1797.5,"correct":true,"confidence":1},{"trial_n":97,"min":97,"max":158,"target":"absent","response":"absent","rt":1087,"correct":true,"confidence":4},{"trial_n":98,"min":97,"max":158,"target":"present","response":"present","rt":1439.5,"correct":true,"confidence":2},{"trial_n":99,"min":101,"max":154,"target":"present","response":"absent","rt":2672.299999997,"correct":false,"confidence":4},{"trial_n":100,"min":97,"max":158,"target":"absent","response":"present","rt":1466.3999999985,"correct":false,"confidence":1},{"trial_n":101,"min":95,"max":160,"target":"absent","response":"present","rt":1271.700000003,"correct":false,"confidence":1},{"trial_n":102,"min":93,"max":162,"target":"present","response":"absent","rt":2913.8999999985,"correct":false,"confidence":3},{"trial_n":103,"min":91,"max":164,"target":"absent","response":"absent","rt":66577.299999997,"correct":true,"confidence":1},{"trial_n":104,"min":91,"max":164,"target":"present","response":"present","rt":812.89999999851,"correct":true,"confidence":4},{"trial_n":105,"min":93,"max":162,"target":"absent","response":"present","rt":1425.6000000015,"correct":false,"confidence":4},{"trial_n":106,"min":91,"max":164,"target":"present","response":"present","rt":1053.8999999985,"correct":true,"confidence":4},{"trial_n":107,"min":91,"max":164,"target":"present","response":"present","rt":691.19999999553,"correct":true,"confidence":4},{"trial_n":108,"min":93,"max":162,"target":"absent","response":"absent","rt":1412,"correct":true,"confidence":1},{"trial_n":109,"min":93,"max":162,"target":"present","response":"present","rt":608.79999999702,"correct":true,"confidence":4},{"trial_n":110,"min":95,"max":160,"target":"present","response":"present","rt":2458.3999999985,"correct":true,"confidence":4},{"trial_n":111,"min":95,"max":160,"target":"present","response":"present","rt":1298.5,"correct":true,"confidence":1},{"trial_n":112,"min":96,"max":159,"target":"present","response":"present","rt":1343.1999999955,"correct":true,"confidence":3},{"trial_n":113,"min":96,"max":159,"target":"present","response":"present","rt":1016.1000000015,"correct":true,"confidence":1},{"trial_n":114,"min":97,"max":158,"target":"present","response":"present","rt":880,"correct":true,"confidence":1},{"trial_n":115,"min":97,"max":158,"target":"absent","response":"present","rt":1013.400000006,"correct":false,"confidence":1},{"trial_n":116,"min":96,"max":159,"target":"present","response":"absent","rt":1307.900000006,"correct":false,"confidence":1},{"trial_n":117,"min":95,"max":160,"target":"present","response":"absent","rt":983.5,"correct":false,"confidence":2},{"trial_n":118,"min":94,"max":161,"target":"present","response":"present","rt":1466.1000000015,"correct":true,"confidence":4},{"trial_n":119,"min":94,"max":161,"target":"present","response":"present","rt":905.10000000149,"correct":true,"confidence":4},{"trial_n":120,"min":95,"max":160,"target":"absent","response":"present","rt":941.40000000596,"correct":false,"confidence":4},{"trial_n":121,"min":94,"max":161,"target":"absent","response":"present","rt":1480.6000000015,"correct":false,"confidence":4},{"trial_n":122,"min":93,"max":162,"target":"present","response":"absent","rt":684.10000000149,"correct":false,"confidence":2},{"trial_n":123,"min":92,"max":163,"target":"present","response":"present","rt":1171.900000006,"correct":true,"confidence":3},{"trial_n":124,"min":92,"max":163,"target":"present","response":"present","rt":807.80000000447,"correct":true,"confidence":3},{"trial_n":125,"min":93,"max":162,"target":"present","response":"absent","rt":1217.3999999985,"correct":false,"confidence":3},{"trial_n":126,"min":92,"max":163,"target":"present","response":"present","rt":910.20000000298,"correct":true,"confidence":3},{"trial_n":127,"min":92,"max":163,"target":"present","response":"present","rt":624.30000000447,"correct":true,"confidence":4},{"trial_n":128,"min":93,"max":162,"target":"absent","response":"present","rt":1203.5,"correct":false,"confidence":4},{"trial_n":129,"min":92,"max":163,"target":"absent","response":"absent","rt":900.90000000596,"correct":true,"confidence":3},{"trial_n":130,"min":92,"max":163,"target":"present","response":"present","rt":945.89999999851,"correct":true,"confidence":4},{"trial_n":131,"min":93,"max":162,"target":"absent","response":"present","rt":1127.3000000045,"correct":false,"confidence":3},{"trial_n":132,"min":92,"max":163,"target":"absent","response":"absent","rt":1138.3999999985,"correct":true,"confidence":1},{"trial_n":133,"min":92,"max":163,"target":"absent","response":"present","rt":795.39999999851,"correct":false,"confidence":1},{"trial_n":134,"min":91,"max":164,"target":"absent","response":"absent","rt":1148.5,"correct":true,"confidence":1},{"trial_n":135,"min":91,"max":164,"target":"present","response":"present","rt":975.70000000298,"correct":true,"confidence":3},{"trial_n":136,"min":92,"max":163,"target":"absent","response":"present","rt":827.80000000447,"correct":false,"confidence":2},{"trial_n":137,"min":91,"max":164,"target":"absent","response":"present","rt":884,"correct":false,"confidence":2},{"trial_n":138,"min":90,"max":165,"target":"absent","response":"absent","rt":1370.8000000045,"correct":true,"confidence":3},{"trial_n":139,"min":90,"max":165,"target":"present","response":"absent","rt":2373.200000003,"correct":false,"confidence":1},{"trial_n":140,"min":89,"max":166,"target":"absent","response":"absent","rt":1769.5,"correct":true,"confidence":3}]