[{"trial_n":1,"min":25,"max":230,"target":"present","response":"present","rt":6224.7000000477,"correct":true,"confidence":-1},{"trial_n":2,"min":25,"max":230,"target":"present","response":"present","rt":964.80000001192,"correct":true,"confidence":-1},{"trial_n":3,"min":41,"max":214,"target":"absent","response":"absent","rt":432,"correct":true,"confidence":-1},{"trial_n":4,"min":41,"max":214,"target":"absent","response":"absent","rt":306.69999998808,"correct":true,"confidence":-1},{"trial_n":5,"min":57,"max":198,"target":"present","response":"present","rt":199,"correct":true,"confidence":-1},{"trial_n":6,"min":57,"max":198,"target":"present","response":"absent","rt":21.700000047684,"correct":false,"confidence":-1},{"trial_n":7,"min":41,"max":214,"target":"absent","response":"absent","rt":354.19999998808,"correct":true,"confidence":-1},{"trial_n":8,"min":41,"max":214,"target":"absent","response":"absent","rt":350.39999997616,"correct":true,"confidence":-1},{"trial_n":9,"min":57,"max":198,"target":"present","response":"present","rt":314.09999996424,"correct":true,"confidence":-1},{"trial_n":10,"min":57,"max":198,"target":"present","response":"absent","rt":159.5,"correct":false,"confidence":-1},{"trial_n":11,"min":49,"max":206,"target":"absent","response":"absent","rt":275.30000001192,"correct":true,"confidence":-1},{"trial_n":12,"min":49,"max":206,"target":"absent","response":"absent","rt":296.80000001192,"correct":true,"confidence":-1},{"trial_n":13,"min":57,"max":198,"target":"absent","response":"absent","rt":741.40000003576,"correct":true,"confidence":-1},{"trial_n":14,"min":57,"max":198,"target":"present","response":"present","rt":123.90000003576,"correct":true,"confidence":-1},{"trial_n":15,"min":65,"max":190,"target":"present","response":"absent","rt":103.20000004768,"correct":false,"confidence":-1},{"trial_n":16,"min":57,"max":198,"target":"present","response":"present","rt":377.80000001192,"correct":true,"confidence":-1},{"trial_n":17,"min":57,"max":198,"target":"absent","response":"absent","rt":274.5,"correct":true,"confidence":-1},{"trial_n":18,"min":65,"max":190,"target":"present","response":"present","rt":389.40000003576,"correct":true,"confidence":-1},{"trial_n":19,"min":65,"max":190,"target":"present","response":"absent","rt":77.599999964237,"correct":false,"confidence":-1},{"trial_n":20,"min":57,"max":198,"target":"absent","response":"present","rt":98.300000011921,"correct":false,"confidence":-1},{"trial_n":21,"min":53,"max":202,"target":"present","response":"present","rt":310.10000002384,"correct":true,"confidence":1},{"trial_n":22,"min":53,"max":202,"target":"absent","response":"present","rt":2882.2999999523,"correct":false,"confidence":1},{"trial_n":23,"min":49,"max":206,"target":"absent","response":"absent","rt":434.60000002384,"correct":true,"confidence":1},{"trial_n":24,"min":49,"max":206,"target":"present","response":"present","rt":380.40000003576,"correct":true,"confidence":1},{"trial_n":25,"min":53,"max":202,"target":"absent","response":"absent","rt":1062.3000000119,"correct":true,"confidence":1},{"trial_n":26,"min":53,"max":202,"target":"present","response":"present","rt":1059.6000000238,"correct":true,"confidence":1},{"trial_n":27,"min":57,"max":198,"target":"absent","response":"absent","rt":306.80000001192,"correct":true,"confidence":1},{"trial_n":28,"min":57,"max":198,"target":"absent","response":"absent","rt":699.19999998808,"correct":true,"confidence":1},{"trial_n":29,"min":61,"max":194,"target":"present","response":"present","rt":290.80000001192,"correct":true,"confidence":1},{"trial_n":30,"min":61,"max":194,"target":"present","response":"present","rt":528.59999996424,"correct":true,"confidence":1},{"trial_n":31,"min":63,"max":192,"target":"absent","response":"absent","rt":633.80000001192,"correct":true,"confidence":1},{"trial_n":32,"min":63,"max":192,"target":"present","response":"absent","rt":45.5,"correct":false,"confidence":1},{"trial_n":33,"min":61,"max":194,"target":"absent","response":"present","rt":121.89999997616,"correct":false,"confidence":1},{"trial_n":34,"min":59,"max":196,"target":"absent","response":"absent","rt":295.80000001192,"correct":true,"confidence":1},{"trial_n":35,"min":59,"max":196,"target":"absent","response":"absent","rt":83.5,"correct":true,"confidence":1},{"trial_n":36,"min":61,"max":194,"target":"present","response":"present","rt":435,"correct":true,"confidence":1},{"trial_n":37,"min":61,"max":194,"target":"present","response":"present","rt":533.69999998808,"correct":true,"confidence":1},{"trial_n":38,"min":63,"max":192,"target":"absent","response":"absent","rt":390.5,"correct":true,"confidence":1},{"trial_n":39,"min":63,"max":192,"target":"absent","response":"absent","rt":342.19999998808,"correct":true,"confidence":1},{"trial_n":40,"min":65,"max":190,"target":"absent","response":"absent","rt":532.5,"correct":true,"confidence":1},{"trial_n":41,"min":65,"max":190,"target":"present","response":"absent","rt":561.39999997616,"correct":false,"confidence":1},{"trial_n":42,"min":64,"max":191,"target":"absent","response":"absent","rt":39.300000011921,"correct":true,"confidence":1},{"trial_n":43,"min":64,"max":191,"target":"absent","response":"absent","rt":54.799999952316,"correct":true,"confidence":1},{"trial_n":44,"min":65,"max":190,"target":"present","response":"present","rt":388.09999996424,"correct":true,"confidence":1},{"trial_n":45,"min":65,"max":190,"target":"present","response":"absent","rt":81.400000035763,"correct":false,"confidence":1},{"trial_n":46,"min":64,"max":191,"target":"present","response":"present","rt":413.80000001192,"correct":true,"confidence":1},{"trial_n":47,"min":64,"max":191,"target":"present","response":"present","rt":428.60000002384,"correct":true,"confidence":1},{"trial_n":48,"min":65,"max":190,"target":"absent","response":"absent","rt":319.69999998808,"correct":true,"confidence":1},{"trial_n":49,"min":65,"max":190,"target":"present","response":"present","rt":354.10000002384,"correct":true,"confidence":1},{"trial_n":50,"min":66,"max":189,"target":"present","response":"present","rt":589.80000001192,"correct":true,"confidence":1},{"trial_n":51,"min":66,"max":189,"target":"present","response":"present","rt":308.69999998808,"correct":true,"confidence":1},{"trial_n":52,"min":67,"max":188,"target":"absent","response":"absent","rt":269.10000002384,"correct":true,"confidence":1},{"trial_n":53,"min":67,"max":188,"target":"absent","response":"absent","rt":379.19999998808,"correct":true,"confidence":1},{"trial_n":54,"min":68,"max":187,"target":"present","response":"present","rt":227.30000001192,"correct":true,"confidence":1},{"trial_n":55,"min":68,"max":187,"target":"present","response":"present","rt":343.60000002384,"correct":true,"confidence":1},{"trial_n":56,"min":69,"max":186,"target":"absent","response":"absent","rt":392.29999995232,"correct":true,"confidence":1},{"trial_n":57,"min":69,"max":186,"target":"absent","response":"absent","rt":268.30000001192,"correct":true,"confidence":1},{"trial_n":58,"min":70,"max":185,"target":"absent","response":"absent","rt":367.80000001192,"correct":true,"confidence":1},{"trial_n":59,"min":70,"max":185,"target":"absent","response":"absent","rt":359.59999996424,"correct":true,"confidence":1},{"trial_n":60,"min":71,"max":184,"target":"present","response":"present","rt":414.5,"correct":true,"confidence":1},{"trial_n":61,"min":71,"max":184,"target":"present","response":"present","rt":358.80000001192,"correct":true,"confidence":1},{"trial_n":62,"min":72,"max":183,"target":"present","response":"present","rt":264.80000001192,"correct":true,"confidence":1},{"trial_n":63,"min":72,"max":183,"target":"absent","response":"absent","rt":82.399999976158,"correct":true,"confidence":1},{"trial_n":64,"min":73,"max":182,"target":"present","response":"absent","rt":351,"correct":false,"confidence":1},{"trial_n":65,"min":72,"max":183,"target":"absent","response":"absent","rt":292,"correct":true,"confidence":1},{"trial_n":66,"min":72,"max":183,"target":"present","response":"present","rt":362.40000003576,"correct":true,"confidence":1},{"trial_n":67,"min":73,"max":182,"target":"absent","response":"absent","rt":281.20000004768,"correct":true,"confidence":1},{"trial_n":68,"min":73,"max":182,"target":"present","response":"present","rt":411.90000003576,"correct":true,"confidence":1},{"trial_n":69,"min":74,"max":181,"target":"present","response":"present","rt":595.60000002384,"correct":true,"confidence":1},{"trial_n":70,"min":74,"max":181,"target":"absent","response":"absent","rt":286.80000001192,"correct":true,"confidence":1},{"trial_n":71,"min":41,"max":214,"target":"present","response":"present","rt":2841.8999999762,"correct":true,"confidence":-1},{"trial_n":72,"min":41,"max":214,"target":"present","response":"present","rt":1069.5,"correct":true,"confidence":-1},{"trial_n":73,"min":57,"max":198,"target":"absent","response":"absent","rt":463.69999998808,"correct":true,"confidence":-1},{"trial_n":74,"min":57,"max":198,"target":"absent","response":"absent","rt":417.5,"correct":true,"confidence":-1},{"trial_n":75,"min":73,"max":182,"target":"present","response":"present","rt":570.5,"correct":true,"confidence":-1},{"trial_n":76,"min":73,"max":182,"target":"absent","response":"absent","rt":403.89999997616,"correct":true,"confidence":-1},{"trial_n":77,"min":89,"max":166,"target":"present","response":"present","rt":517.19999998808,"correct":true,"confidence":-1},{"trial_n":78,"min":89,"max":166,"target":"absent","response":"absent","rt":473.39999997616,"correct":true,"confidence":-1},{"trial_n":79,"min":105,"max":150,"target":"absent","response":"absent","rt":415.19999998808,"correct":true,"confidence":-1},{"trial_n":80,"min":105,"max":150,"target":"present","response":"absent","rt":514,"correct":false,"confidence":-1},{"trial_n":81,"min":97,"max":158,"target":"absent","response":"present","rt":380.60000002384,"correct":false,"confidence":-1},{"trial_n":82,"min":89,"max":166,"target":"present","response":"absent","rt":447.60000002384,"correct":false,"confidence":-1},{"trial_n":83,"min":81,"max":174,"target":"present","response":"present","rt":568.5,"correct":true,"confidence":-1},{"trial_n":84,"min":81,"max":174,"target":"present","response":"present","rt":305.10000002384,"correct":true,"confidence":-1},{"trial_n":85,"min":89,"max":166,"target":"absent","response":"present","rt":380.39999997616,"correct":false,"confidence":-1},{"trial_n":86,"min":81,"max":174,"target":"present","response":"present","rt":610.10000002384,"correct":true,"confidence":-1},{"trial_n":87,"min":81,"max":174,"target":"absent","response":"absent","rt":412.39999997616,"correct":true,"confidence":-1},{"trial_n":88,"min":89,"max":166,"target":"present","response":"present","rt":655.09999996424,"correct":true,"confidence":-1},{"trial_n":89,"min":89,"max":166,"target":"absent","response":"absent","rt":377.60000002384,"correct":true,"confidence":-1},{"trial_n":90,"min":97,"max":158,"target":"absent","response":"absent","rt":395.09999996424,"correct":true,"confidence":-1},{"trial_n":91,"min":97,"max":158,"target":"absent","response":"absent","rt":928.39999997616,"correct":true,"confidence":1},{"trial_n":92,"min":101,"max":154,"target":"present","response":"absent","rt":92.900000035763,"correct":false,"confidence":1},{"trial_n":93,"min":97,"max":158,"target":"absent","response":"present","rt":166.90000003576,"correct":false,"confidence":1},{"trial_n":94,"min":93,"max":162,"target":"absent","response":"absent","rt":222.19999998808,"correct":true,"confidence":1},{"trial_n":95,"min":93,"max":162,"target":"present","response":"present","rt":538.5,"correct":true,"confidence":1},{"trial_n":96,"min":97,"max":158,"target":"present","response":"present","rt":239.60000002384,"correct":true,"confidence":1},{"trial_n":97,"min":97,"max":158,"target":"absent","response":"absent","rt":145.60000002384,"correct":true,"confidence":1},{"trial_n":98,"min":101,"max":154,"target":"present","response":"absent","rt":145,"correct":false,"confidence":1},{"trial_n":99,"min":97,"max":158,"target":"absent","response":"present","rt":423.80000001192,"correct":false,"confidence":1},{"trial_n":100,"min":93,"max":162,"target":"present","response":"absent","rt":2017.8999999762,"correct":false,"confidence":1},{"trial_n":101,"min":91,"max":164,"target":"absent","response":"absent","rt":166.79999995232,"correct":true,"confidence":1},{"trial_n":102,"min":91,"max":164,"target":"absent","response":"present","rt":256.39999997616,"correct":false,"confidence":1},{"trial_n":103,"min":89,"max":166,"target":"absent","response":"absent","rt":510.60000002384,"correct":true,"confidence":1},{"trial_n":104,"min":89,"max":166,"target":"present","response":"present","rt":232.89999997616,"correct":true,"confidence":1},{"trial_n":105,"min":91,"max":164,"target":"present","response":"absent","rt":313,"correct":false,"confidence":1},{"trial_n":106,"min":89,"max":166,"target":"absent","response":"absent","rt":260.80000001192,"correct":true,"confidence":1},{"trial_n":107,"min":89,"max":166,"target":"present","response":"present","rt":239.59999996424,"correct":true,"confidence":1},{"trial_n":108,"min":91,"max":164,"target":"present","response":"present","rt":351,"correct":true,"confidence":1},{"trial_n":109,"min":91,"max":164,"target":"present","response":"absent","rt":204.30000001192,"correct":false,"confidence":1},{"trial_n":110,"min":89,"max":166,"target":"absent","response":"present","rt":276.40000003576,"correct":false,"confidence":1},{"trial_n":111,"min":88,"max":167,"target":"present","response":"present","rt":154.40000003576,"correct":true,"confidence":1},{"trial_n":112,"min":88,"max":167,"target":"present","response":"absent","rt":502.69999998808,"correct":false,"confidence":1},{"trial_n":113,"min":87,"max":168,"target":"present","response":"present","rt":139.69999998808,"correct":true,"confidence":1},{"trial_n":114,"min":87,"max":168,"target":"present","response":"absent","rt":190.79999995232,"correct":false,"confidence":1},{"trial_n":115,"min":86,"max":169,"target":"absent","response":"present","rt":377,"correct":false,"confidence":1},{"trial_n":116,"min":85,"max":170,"target":"absent","response":"absent","rt":509.80000001192,"correct":true,"confidence":1},{"trial_n":117,"min":85,"max":170,"target":"present","response":"absent","rt":196.39999997616,"correct":false,"confidence":1},{"trial_n":118,"min":84,"max":171,"target":"absent","response":"present","rt":263.70000004768,"correct":false,"confidence":1},{"trial_n":119,"min":83,"max":172,"target":"absent","response":"absent","rt":114.40000003576,"correct":true,"confidence":1},{"trial_n":120,"min":83,"max":172,"target":"present","response":"present","rt":467.10000002384,"correct":true,"confidence":1},{"trial_n":121,"min":84,"max":171,"target":"present","response":"present","rt":275.80000001192,"correct":true,"confidence":1},{"trial_n":122,"min":84,"max":171,"target":"present","response":"absent","rt":195,"correct":false,"confidence":1},{"trial_n":123,"min":83,"max":172,"target":"present","response":"present","rt":135.80000001192,"correct":true,"confidence":1},{"trial_n":124,"min":83,"max":172,"target":"absent","response":"absent","rt":2.4000000357628,"correct":true,"confidence":1},{"trial_n":125,"min":84,"max":171,"target":"absent","response":"present","rt":476.10000002384,"correct":false,"confidence":1},{"trial_n":126,"min":83,"max":172,"target":"absent","response":"absent","rt":302.89999997616,"correct":true,"confidence":1},{"trial_n":127,"min":83,"max":172,"target":"present","response":"present","rt":224.79999995232,"correct":true,"confidence":1},{"trial_n":128,"min":84,"max":171,"target":"present","response":"absent","rt":254.5,"correct":false,"confidence":1},{"trial_n":129,"min":83,"max":172,"target":"absent","response":"absent","rt":123.5,"correct":true,"confidence":1},{"trial_n":130,"min":83,"max":172,"target":"absent","response":"absent","rt":558.29999995232,"correct":true,"confidence":1},{"trial_n":131,"min":84,"max":171,"target":"absent","response":"absent","rt":504.89999997616,"correct":true,"confidence":1},{"trial_n":132,"min":84,"max":171,"target":"present","response":"present","rt":305.59999996424,"correct":true,"confidence":1},{"trial_n":133,"min":85,"max":170,"target":"absent","response":"absent","rt":182.59999996424,"correct":true,"confidence":1},{"trial_n":134,"min":85,"max":170,"target":"present","response":"present","rt":108.39999997616,"correct":true,"confidence":1},{"trial_n":135,"min":86,"max":169,"target":"absent","response":"absent","rt":228.69999998808,"correct":true,"confidence":1},{"trial_n":136,"min":86,"max":169,"target":"present","response":"absent","rt":274.19999998808,"correct":false,"confidence":1},{"trial_n":137,"min":85,"max":170,"target":"present","response":"absent","rt":343.90000003576,"correct":false,"confidence":1},{"trial_n":138,"min":84,"max":171,"target":"absent","response":"absent","rt":404.39999997616,"correct":true,"confidence":1},{"trial_n":139,"min":84,"max":171,"target":"present","response":"absent","rt":421.40000003576,"correct":false,"confidence":1},{"trial_n":140,"min":83,"max":172,"target":"absent","response":"present","rt":440.09999996424,"correct":false,"confidence":1}]