[{"trial_n":1,"n_dots":4.25,"target":"left","response":"left","rt":1556,"correct":true,"confidence":-1},{"trial_n":2,"n_dots":4.25,"target":"left","response":"left","rt":537,"correct":true,"confidence":-1},{"trial_n":3,"n_dots":3.85,"target":"right","response":"right","rt":829.89999999851,"correct":true,"confidence":-1},{"trial_n":4,"n_dots":3.85,"target":"right","response":"right","rt":792.20000000298,"correct":true,"confidence":-1},{"trial_n":5,"n_dots":3.45,"target":"right","response":"right","rt":859.59999999404,"correct":true,"confidence":-1},{"trial_n":6,"n_dots":3.45,"target":"right","response":"left","rt":503.60000000149,"correct":false,"confidence":-1},{"trial_n":7,"n_dots":3.85,"target":"left","response":"left","rt":606.39999999851,"correct":true,"confidence":-1},{"trial_n":8,"n_dots":3.85,"target":"left","response":"left","rt":497.79999999702,"correct":true,"confidence":-1},{"trial_n":9,"n_dots":3.65,"target":"left","response":"right","rt":599.69999999553,"correct":false,"confidence":-1},{"trial_n":10,"n_dots":3.85,"target":"right","response":"left","rt":893.89999999851,"correct":false,"confidence":-1},{"trial_n":11,"n_dots":4.05,"target":"right","response":"right","rt":908,"correct":true,"confidence":-1},{"trial_n":12,"n_dots":4.05,"target":"right","response":"left","rt":626.39999999851,"correct":false,"confidence":-1},{"trial_n":13,"n_dots":4.15,"target":"left","response":"right","rt":2915.5,"correct":false,"confidence":-1},{"trial_n":14,"n_dots":4.25,"target":"left","response":"left","rt":2389.5,"correct":true,"confidence":-1},{"trial_n":15,"n_dots":4.25,"target":"right","response":"left","rt":2165.599999994,"correct":false,"confidence":-1},{"trial_n":16,"n_dots":4.35,"target":"left","response":"left","rt":180.19999999553,"correct":true,"confidence":-1},{"trial_n":17,"n_dots":4.35,"target":"right","response":"right","rt":690.29999999702,"correct":true,"confidence":-1},{"trial_n":18,"n_dots":4.25,"target":"left","response":"left","rt":491.19999999553,"correct":true,"confidence":-1},{"trial_n":19,"n_dots":4.25,"target":"left","response":"left","rt":701,"correct":true,"confidence":-1},{"trial_n":20,"n_dots":4.15,"target":"right","response":"right","rt":343.69999999553,"correct":true,"confidence":-1},{"trial_n":21,"n_dots":4.15,"target":"left","response":"left","rt":583.39999999851,"correct":true,"confidence":3},{"trial_n":22,"n_dots":4.05,"target":"left","response":"left","rt":336.5,"correct":true,"confidence":4},{"trial_n":23,"n_dots":4.05,"target":"right","response":"right","rt":758.10000000149,"correct":true,"confidence":4},{"trial_n":24,"n_dots":3.95,"target":"left","response":"left","rt":452.40000000596,"correct":true,"confidence":4},{"trial_n":25,"n_dots":3.95,"target":"right","response":"right","rt":248,"correct":true,"confidence":1},{"trial_n":26,"n_dots":3.85,"target":"right","response":"right","rt":284.40000000596,"correct":true,"confidence":3},{"trial_n":27,"n_dots":3.85,"target":"left","response":"left","rt":406.19999999553,"correct":true,"confidence":4},{"trial_n":28,"n_dots":3.75,"target":"right","response":"right","rt":438.29999999702,"correct":true,"confidence":4},{"trial_n":29,"n_dots":3.75,"target":"left","response":"left","rt":436.89999999851,"correct":true,"confidence":4},{"trial_n":30,"n_dots":3.65,"target":"left","response":"left","rt":524.10000000149,"correct":true,"confidence":4},{"trial_n":31,"n_dots":3.65,"target":"right","response":"left","rt":872.5,"correct":false,"confidence":3},{"trial_n":32,"n_dots":3.75,"target":"right","response":"right","rt":767.60000000149,"correct":true,"confidence":3},{"trial_n":33,"n_dots":3.75,"target":"left","response":"left","rt":250.70000000298,"correct":true,"confidence":4},{"trial_n":34,"n_dots":3.65,"target":"left","response":"left","rt":598,"correct":true,"confidence":3},{"trial_n":35,"n_dots":3.65,"target":"left","response":"left","rt":317.5,"correct":true,"confidence":3},{"trial_n":36,"n_dots":3.55,"target":"right","response":"left","rt":460.40000000596,"correct":false,"confidence":3},{"trial_n":37,"n_dots":3.65,"target":"right","response":"right","rt":1195,"correct":true,"confidence":2},{"trial_n":38,"n_dots":3.65,"target":"right","response":"right","rt":3615,"correct":true,"confidence":3},{"trial_n":39,"n_dots":3.55,"target":"right","response":"left","rt":713.10000000149,"correct":false,"confidence":3},{"trial_n":40,"n_dots":3.65,"target":"right","response":"left","rt":462.80000000447,"correct":false,"confidence":3},{"trial_n":41,"n_dots":3.75,"target":"left","response":"left","rt":200.30000000447,"correct":true,"confidence":3},{"trial_n":42,"n_dots":3.75,"target":"left","response":"left","rt":107.70000000298,"correct":true,"confidence":4},{"trial_n":43,"n_dots":3.65,"target":"left","response":"left","rt":171.29999999702,"correct":true,"confidence":3},{"trial_n":44,"n_dots":3.65,"target":"right","response":"left","rt":436.10000000149,"correct":false,"confidence":3},{"trial_n":45,"n_dots":3.75,"target":"left","response":"left","rt":380.39999999851,"correct":true,"confidence":3},{"trial_n":46,"n_dots":3.75,"target":"left","response":"left","rt":270.39999999851,"correct":true,"confidence":4},{"trial_n":47,"n_dots":3.65,"target":"left","response":"left","rt":246.10000000149,"correct":true,"confidence":3},{"trial_n":48,"n_dots":3.65,"target":"right","response":"left","rt":363.5,"correct":false,"confidence":2},{"trial_n":49,"n_dots":3.75,"target":"left","response":"left","rt":26.20000000298,"correct":true,"confidence":4},{"trial_n":50,"n_dots":3.75,"target":"right","response":"left","rt":425.39999999851,"correct":false,"confidence":3},{"trial_n":51,"n_dots":3.85,"target":"left","response":"left","rt":79.79999999702,"correct":true,"confidence":3},{"trial_n":52,"n_dots":3.85,"target":"left","response":"left","rt":41.79999999702,"correct":true,"confidence":3},{"trial_n":53,"n_dots":3.75,"target":"left","response":"left","rt":169.60000000149,"correct":true,"confidence":3},{"trial_n":54,"n_dots":3.75,"target":"left","response":"left","rt":105,"correct":true,"confidence":3},{"trial_n":55,"n_dots":3.65,"target":"left","response":"left","rt":42.39999999851,"correct":true,"confidence":3},{"trial_n":56,"n_dots":3.65,"target":"right","response":"right","rt":793.79999999702,"correct":true,"confidence":4},{"trial_n":57,"n_dots":3.55,"target":"left","response":"left","rt":320,"correct":true,"confidence":2},{"trial_n":58,"n_dots":3.55,"target":"left","response":"left","rt":318.79999999702,"correct":true,"confidence":3},{"trial_n":59,"n_dots":3.45,"target":"left","response":"left","rt":53.59999999404,"correct":true,"confidence":3},{"trial_n":60,"n_dots":3.45,"target":"left","response":"left","rt":343.29999999702,"correct":true,"confidence":3},{"trial_n":61,"n_dots":3.35,"target":"left","response":"left","rt":765.39999999851,"correct":true,"confidence":3},{"trial_n":62,"n_dots":3.35,"target":"right","response":"left","rt":545.89999999851,"correct":false,"confidence":3},{"trial_n":63,"n_dots":3.45,"target":"right","response":"left","rt":1183.1999999955,"correct":false,"confidence":3},{"trial_n":64,"n_dots":3.55,"target":"right","response":"left","rt":402.59999999404,"correct":false,"confidence":3},{"trial_n":65,"n_dots":3.65,"target":"left","response":"left","rt":466.59999999404,"correct":true,"confidence":3},{"trial_n":66,"n_dots":3.65,"target":"left","response":"left","rt":596.89999999851,"correct":true,"confidence":3},{"trial_n":67,"n_dots":3.55,"target":"right","response":"left","rt":996,"correct":false,"confidence":3},{"trial_n":68,"n_dots":3.65,"target":"right","response":"right","rt":389.10000000149,"correct":true,"confidence":4},{"trial_n":69,"n_dots":3.65,"target":"right","response":"right","rt":581.19999999553,"correct":true,"confidence":4},{"trial_n":70,"n_dots":3.55,"target":"right","response":"right","rt":940.69999999553,"correct":true,"confidence":3},{"trial_n":71,"n_dots":3.55,"target":"right","response":"left","rt":615.60000000149,"correct":false,"confidence":3},{"trial_n":72,"n_dots":3.65,"target":"left","response":"left","rt":501.20000000298,"correct":true,"confidence":4},{"trial_n":73,"n_dots":3.65,"target":"left","response":"left","rt":504,"correct":true,"confidence":3},{"trial_n":74,"n_dots":3.55,"target":"left","response":"left","rt":449.80000000447,"correct":true,"confidence":3},{"trial_n":75,"n_dots":3.55,"target":"right","response":"left","rt":1007.5,"correct":false,"confidence":3},{"trial_n":76,"n_dots":3.65,"target":"right","response":"left","rt":666,"correct":false,"confidence":3},{"trial_n":77,"n_dots":3.75,"target":"right","response":"left","rt":986.5,"correct":false,"confidence":4},{"trial_n":78,"n_dots":3.85,"target":"right","response":"right","rt":984.80000000447,"correct":true,"confidence":3},{"trial_n":79,"n_dots":3.85,"target":"right","response":"left","rt":704,"correct":false,"confidence":3},{"trial_n":80,"n_dots":3.95,"target":"right","response":"right","rt":1001.3999999985,"correct":true,"confidence":2},{"trial_n":81,"n_dots":3.95,"target":"left","response":"left","rt":515.30000000447,"correct":true,"confidence":3},{"trial_n":82,"n_dots":3.85,"target":"right","response":"left","rt":782.79999999702,"correct":false,"confidence":3},{"trial_n":83,"n_dots":3.95,"target":"right","response":"left","rt":1110.1000000015,"correct":false,"confidence":3},{"trial_n":84,"n_dots":4.05,"target":"left","response":"left","rt":353.39999999851,"correct":true,"confidence":3},{"trial_n":85,"n_dots":4.05,"target":"right","response":"left","rt":520.89999999851,"correct":false,"confidence":4},{"trial_n":86,"n_dots":4.15,"target":"left","response":"left","rt":358.20000000298,"correct":true,"confidence":3},{"trial_n":87,"n_dots":4.15,"target":"left","response":"left","rt":339.60000000149,"correct":true,"confidence":4},{"trial_n":88,"n_dots":4.05,"target":"right","response":"left","rt":331.10000000149,"correct":false,"confidence":3},{"trial_n":89,"n_dots":4.15,"target":"right","response":"right","rt":589.39999999851,"correct":true,"confidence":4},{"trial_n":90,"n_dots":4.15,"target":"right","response":"right","rt":690.5,"correct":true,"confidence":1},{"trial_n":91,"n_dots":4.05,"target":"left","response":"left","rt":295.29999999702,"correct":true,"confidence":5},{"trial_n":92,"n_dots":4.05,"target":"right","response":"right","rt":497.89999999851,"correct":true,"confidence":5},{"trial_n":93,"n_dots":3.95,"target":"left","response":"left","rt":350.29999999702,"correct":true,"confidence":5},{"trial_n":94,"n_dots":3.95,"target":"right","response":"left","rt":1168.8999999985,"correct":false,"confidence":3},{"trial_n":95,"n_dots":4.05,"target":"right","response":"right","rt":1173.3999999985,"correct":true,"confidence":4},{"trial_n":96,"n_dots":4.05,"target":"right","response":"right","rt":518.89999999851,"correct":true,"confidence":3},{"trial_n":97,"n_dots":3.95,"target":"right","response":"right","rt":913.19999999553,"correct":true,"confidence":4},{"trial_n":98,"n_dots":3.95,"target":"right","response":"right","rt":546.5,"correct":true,"confidence":4},{"trial_n":99,"n_dots":3.85,"target":"left","response":"left","rt":693.89999999851,"correct":true,"confidence":3},{"trial_n":100,"n_dots":3.85,"target":"left","response":"left","rt":776.69999999553,"correct":true,"confidence":3},{"trial_n":101,"n_dots":3.75,"target":"right","response":"right","rt":432.5,"correct":true,"confidence":4},{"trial_n":102,"n_dots":3.75,"target":"left","response":"left","rt":720.60000000149,"correct":true,"confidence":3},{"trial_n":103,"n_dots":3.65,"target":"left","response":"left","rt":920.39999999851,"correct":true,"confidence":3},{"trial_n":104,"n_dots":3.65,"target":"left","response":"left","rt":336.5,"correct":true,"confidence":3},{"trial_n":105,"n_dots":3.55,"target":"left","response":"left","rt":1726.299999997,"correct":true,"confidence":3},{"trial_n":106,"n_dots":3.55,"target":"right","response":"right","rt":340.5,"correct":true,"confidence":3},{"trial_n":107,"n_dots":3.45,"target":"left","response":"left","rt":44.39999999851,"correct":true,"confidence":3},{"trial_n":108,"n_dots":3.45,"target":"left","response":"left","rt":115.69999999553,"correct":true,"confidence":4},{"trial_n":109,"n_dots":3.35,"target":"left","response":"left","rt":500.20000000298,"correct":true,"confidence":4},{"trial_n":110,"n_dots":3.35,"target":"left","response":"left","rt":154.60000000149,"correct":true,"confidence":4},{"trial_n":111,"n_dots":3.25,"target":"right","response":"right","rt":359,"correct":true,"confidence":4},{"trial_n":112,"n_dots":3.25,"target":"right","response":"right","rt":644.60000000149,"correct":true,"confidence":3},{"trial_n":113,"n_dots":3.15,"target":"left","response":"left","rt":229.89999999851,"correct":true,"confidence":3},{"trial_n":114,"n_dots":3.15,"target":"right","response":"right","rt":671.20000000298,"correct":true,"confidence":4},{"trial_n":115,"n_dots":3.05,"target":"left","response":"left","rt":864.09999999404,"correct":true,"confidence":3},{"trial_n":116,"n_dots":3.05,"target":"right","response":"left","rt":224.5,"correct":false,"confidence":4},{"trial_n":117,"n_dots":3.15,"target":"right","response":"right","rt":2563.1000000015,"correct":true,"confidence":2},{"trial_n":118,"n_dots":3.15,"target":"right","response":"right","rt":169.10000000149,"correct":true,"confidence":3},{"trial_n":119,"n_dots":3.05,"target":"left","response":"left","rt":122.40000000596,"correct":true,"confidence":3},{"trial_n":120,"n_dots":3.05,"target":"right","response":"right","rt":830.60000000149,"correct":true,"confidence":3}]