[{"trial_n":1,"span":8,"encoder":"61131618","distractor":"61331618","target":"present","response":"present","rt":"2681.7000000477","correct":true,"confidence":-1},{"trial_n":2,"span":8,"encoder":"58971818","distractor":"58971218","target":"present","response":"present","rt":"3172.8999998569","correct":true,"confidence":-1},{"trial_n":3,"span":10,"encoder":"5470276994","distractor":"5470276944","target":"absent","response":"absent","rt":"2187.8999998569","correct":true,"confidence":-1},{"trial_n":4,"span":10,"encoder":"7875221347","distractor":"7875223347","target":"absent","response":"present","rt":"4490.7000000477","correct":false,"confidence":-1},{"trial_n":5,"span":8,"encoder":"20251136","distractor":"20651136","target":"present","response":"present","rt":"3553.9000000954","correct":true,"confidence":-1},{"trial_n":6,"span":8,"encoder":"55442664","distractor":"25442664","target":"present","response":"present","rt":"1945.5999999046","correct":true,"confidence":-1},{"trial_n":7,"span":10,"encoder":"6221381754","distractor":"6221181754","target":"present","response":"absent","rt":"3145.7999999523","correct":false,"confidence":-1},{"trial_n":8,"span":8,"encoder":"55598783","distractor":"55592783","target":"absent","response":"present","rt":"1178.3999998569","correct":false,"confidence":-1},{"trial_n":9,"span":6,"encoder":"392226","distractor":"392626","target":"absent","response":"absent","rt":"2337.7999999523","correct":true,"confidence":-1},{"trial_n":10,"span":6,"encoder":"543932","distractor":"547932","target":"absent","response":"absent","rt":"3986.2000000477","correct":true,"confidence":-1},{"trial_n":11,"span":8,"encoder":"29322025","distractor":"29322625","target":"present","response":"present","rt":"4070.0999999046","correct":true,"confidence":-1},{"trial_n":12,"span":8,"encoder":"62949981","distractor":"62946981","target":"absent","response":"present","rt":"1789.7999999523","correct":false,"confidence":-1},{"trial_n":13,"span":7,"encoder":"9709862","distractor":"9729862","target":"absent","response":"present","rt":"3352.2999999523","correct":false,"confidence":-1},{"trial_n":14,"span":6,"encoder":"934305","distractor":"534305","target":"present","response":"present","rt":"1158.9000000954","correct":true,"confidence":-1},{"trial_n":15,"span":6,"encoder":"573338","distractor":"573398","target":"absent","response":"present","rt":"2802.6000001431","correct":false,"confidence":-1},{"trial_n":16,"span":5,"encoder":"29779","distractor":"99779","target":"present","response":"present","rt":"908.10000014305","correct":true,"confidence":-1},{"trial_n":17,"span":5,"encoder":"31811","distractor":"31011","target":"absent","response":"present","rt":"1120.1000001431","correct":false,"confidence":-1},{"trial_n":18,"span":4,"encoder":"5647","distractor":"2647","target":"absent","response":"present","rt":"933.60000014305","correct":false,"confidence":-1},{"trial_n":19,"span":3,"encoder":"290","distractor":"298","target":"present","response":"present","rt":"1150.9000000954","correct":true,"confidence":-1},{"trial_n":20,"span":3,"encoder":"756","distractor":"751","target":"present","response":"present","rt":"1012.5","correct":true,"confidence":-1},{"trial_n":21,"span":4,"encoder":"9444","distractor":"9454","target":"present","response":"present","rt":"1393.8000001907","correct":true,"confidence":5},{"trial_n":22,"span":4,"encoder":"4431","distractor":"4471","target":"absent","response":"present","rt":"3025.1000001431","correct":false,"confidence":3},{"trial_n":23,"span":3,"encoder":"168","distractor":"166","target":"present","response":"present","rt":"938.89999985695","correct":true,"confidence":5},{"trial_n":24,"span":3,"encoder":"778","distractor":"378","target":"present","response":"present","rt":"825.39999985695","correct":true,"confidence":5},{"trial_n":25,"span":4,"encoder":"2256","distractor":"2254","target":"present","response":"present","rt":"1263.7999999523","correct":true,"confidence":5},{"trial_n":26,"span":4,"encoder":"4006","distractor":"8006","target":"absent","response":"absent","rt":"1454.9000000954","correct":true,"confidence":5},{"trial_n":27,"span":5,"encoder":"40166","distractor":"40167","target":"present","response":"present","rt":"1917.4000000954","correct":true,"confidence":5},{"trial_n":28,"span":5,"encoder":"10641","distractor":"10241","target":"present","response":"present","rt":"2638.6000001431","correct":true,"confidence":5},{"trial_n":29,"span":6,"encoder":"212220","distractor":"212920","target":"present","response":"present","rt":"2569.0999999046","correct":true,"confidence":5},{"trial_n":30,"span":6,"encoder":"849040","distractor":"449040","target":"absent","response":"absent","rt":"2069.6000001431","correct":true,"confidence":5},{"trial_n":31,"span":7,"encoder":"9274181","distractor":"9274191","target":"absent","response":"absent","rt":"4153.0999999046","correct":true,"confidence":3},{"trial_n":32,"span":7,"encoder":"2966753","distractor":"5966753","target":"present","response":"present","rt":"6521.5","correct":true,"confidence":3},{"trial_n":33,"span":8,"encoder":"12041796","distractor":"12041736","target":"present","response":"present","rt":"4788.5999999046","correct":true,"confidence":4},{"trial_n":34,"span":8,"encoder":"77937043","distractor":"74937043","target":"present","response":"present","rt":"6644.5","correct":true,"confidence":3},{"trial_n":35,"span":9,"encoder":"294735854","distractor":"294335854","target":"absent","response":"present","rt":"5180.2000000477","correct":false,"confidence":4},{"trial_n":36,"span":8,"encoder":"53242393","distractor":"53232393","target":"absent","response":"present","rt":"5015.5","correct":false,"confidence":3},{"trial_n":37,"span":7,"encoder":"3089366","distractor":"3089367","target":"absent","response":"absent","rt":"1682.8999998569","correct":true,"confidence":5},{"trial_n":38,"span":7,"encoder":"5458998","distractor":"5458993","target":"present","response":"present","rt":"3028.6999998093","correct":true,"confidence":5},{"trial_n":39,"span":8,"encoder":"81370109","distractor":"61370109","target":"absent","response":"absent","rt":"2747.1000001431","correct":true,"confidence":3},{"trial_n":40,"span":8,"encoder":"09629285","distractor":"09679285","target":"present","response":"present","rt":"1682.5","correct":true,"confidence":3},{"trial_n":41,"span":9,"encoder":"006780667","distractor":"066780667","target":"present","response":"present","rt":"4343.9000000954","correct":true,"confidence":5},{"trial_n":42,"span":9,"encoder":"511740461","distractor":"511760461","target":"absent","response":"present","rt":"2298.2000000477","correct":false,"confidence":3},{"trial_n":43,"span":8,"encoder":"28089973","distractor":"28081973","target":"present","response":"present","rt":"3628.5","correct":true,"confidence":5},{"trial_n":44,"span":8,"encoder":"01359466","distractor":"01059466","target":"present","response":"present","rt":"1014.5999999046","correct":true,"confidence":5},{"trial_n":45,"span":9,"encoder":"541390809","distractor":"541290809","target":"absent","response":"present","rt":"4715.6000001431","correct":false,"confidence":4},{"trial_n":46,"span":8,"encoder":"83329221","distractor":"83329261","target":"present","response":"present","rt":"3046.1000001431","correct":true,"confidence":5},{"trial_n":47,"span":8,"encoder":"52771926","distractor":"22771926","target":"absent","response":"absent","rt":"5353","correct":true,"confidence":3},{"trial_n":48,"span":9,"encoder":"710941312","distractor":"710951312","target":"absent","response":"present","rt":"4911.0999999046","correct":false,"confidence":3},{"trial_n":49,"span":8,"encoder":"85625302","distractor":"15625302","target":"present","response":"present","rt":"1261.6999998093","correct":true,"confidence":4},{"trial_n":50,"span":8,"encoder":"23382301","distractor":"23782301","target":"present","response":"present","rt":"1719.8000001907","correct":true,"confidence":5},{"trial_n":51,"span":9,"encoder":"093947024","distractor":"893947024","target":"absent","response":"present","rt":"3993.5","correct":false,"confidence":3},{"trial_n":52,"span":8,"encoder":"20960539","distractor":"20960533","target":"present","response":"present","rt":"2942.0999999046","correct":true,"confidence":3},{"trial_n":53,"span":8,"encoder":"13559631","distractor":"63559631","target":"absent","response":"absent","rt":"2666.8999998569","correct":true,"confidence":3},{"trial_n":54,"span":9,"encoder":"543503705","distractor":"543533705","target":"absent","response":"absent","rt":"3735.2000000477","correct":true,"confidence":3},{"trial_n":55,"span":9,"encoder":"154937059","distractor":"154937009","target":"absent","response":"absent","rt":"2747.7999999523","correct":true,"confidence":3},{"trial_n":56,"span":10,"encoder":"4358009282","distractor":"4308009282","target":"present","response":"present","rt":"2571.8999998569","correct":true,"confidence":4},{"trial_n":57,"span":10,"encoder":"0133462408","distractor":"0103462408","target":"absent","response":"absent","rt":"3944.0999999046","correct":true,"confidence":4},{"trial_n":58,"span":11,"encoder":"65274138030","distractor":"65274138230","target":"absent","response":"absent","rt":"7525.5999999046","correct":true,"confidence":3},{"trial_n":59,"span":11,"encoder":"34704622580","distractor":"34704692580","target":"present","response":"present","rt":"2727.1000001431","correct":true,"confidence":4},{"trial_n":60,"span":12,"encoder":"466576161886","distractor":"469576161886","target":"absent","response":"present","rt":"1959.0999999046","correct":false,"confidence":3},{"trial_n":61,"span":11,"encoder":"69666759987","distractor":"69666739987","target":"present","response":"present","rt":"1798.9000000954","correct":true,"confidence":4},{"trial_n":62,"span":11,"encoder":"87066695637","distractor":"87066694637","target":"absent","response":"present","rt":"2685.0999999046","correct":false,"confidence":3},{"trial_n":63,"span":10,"encoder":"4459180087","distractor":"4859180087","target":"present","response":"present","rt":"2547.2000000477","correct":true,"confidence":3},{"trial_n":64,"span":10,"encoder":"8250566237","distractor":"8255566237","target":"absent","response":"absent","rt":"3201.8999998569","correct":true,"confidence":3},{"trial_n":65,"span":11,"encoder":"96984949368","distractor":"96984941368","target":"present","response":"present","rt":"2282.5","correct":true,"confidence":3},{"trial_n":66,"span":11,"encoder":"83737407388","distractor":"83767407388","target":"present","response":"present","rt":"6716.9000000954","correct":true,"confidence":4},{"trial_n":67,"span":12,"encoder":"113714869123","distractor":"113114869123","target":"absent","response":"present","rt":"2124","correct":false,"confidence":4},{"trial_n":68,"span":11,"encoder":"13150589163","distractor":"13154589163","target":"absent","response":"absent","rt":"3075.6000001431","correct":true,"confidence":4},{"trial_n":69,"span":11,"encoder":"20509982410","distractor":"20509882410","target":"absent","response":"present","rt":"2715.7000000477","correct":false,"confidence":3},{"trial_n":70,"span":10,"encoder":"5925649411","distractor":"5925609411","target":"present","response":"present","rt":"1190.5","correct":true,"confidence":4},{"trial_n":71,"span":8,"encoder":"52311840","distractor":"57311840","target":"present","response":"present","rt":"3223.0999999046","correct":true,"confidence":-1},{"trial_n":72,"span":8,"encoder":"89194727","distractor":"87194727","target":"present","response":"present","rt":"2526.8000001907","correct":true,"confidence":-1},{"trial_n":73,"span":9,"encoder":"112106117","distractor":"112106317","target":"absent","response":"present","rt":"5057.0999999046","correct":false,"confidence":-1},{"trial_n":74,"span":8,"encoder":"46326849","distractor":"44326849","target":"absent","response":"absent","rt":"4871.6000001431","correct":true,"confidence":-1},{"trial_n":75,"span":8,"encoder":"66419930","distractor":"36419930","target":"present","response":"present","rt":"3624.0999999046","correct":true,"confidence":-1},{"trial_n":76,"span":9,"encoder":"832891754","distractor":"892891754","target":"present","response":"present","rt":"1980.7000000477","correct":true,"confidence":-1},{"trial_n":77,"span":9,"encoder":"173216272","distractor":"173216279","target":"absent","response":"absent","rt":"1643.2000000477","correct":true,"confidence":-1},{"trial_n":78,"span":10,"encoder":"2651898751","distractor":"2651898753","target":"absent","response":"absent","rt":"1694.9000000954","correct":true,"confidence":-1},{"trial_n":79,"span":10,"encoder":"7610110433","distractor":"7680110433","target":"absent","response":"absent","rt":"4347.7000000477","correct":true,"confidence":-1},{"trial_n":80,"span":11,"encoder":"11104547331","distractor":"11104547931","target":"present","response":"absent","rt":"2316.2000000477","correct":false,"confidence":-1},{"trial_n":81,"span":10,"encoder":"1248534422","distractor":"1248534492","target":"present","response":"present","rt":"1370.2000000477","correct":true,"confidence":-1},{"trial_n":82,"span":10,"encoder":"3655890213","distractor":"3625890213","target":"present","response":"present","rt":"3916.2000000477","correct":true,"confidence":-1},{"trial_n":83,"span":11,"encoder":"09127891971","distractor":"09127891974","target":"present","response":"present","rt":"1749.2999999523","correct":true,"confidence":-1},{"trial_n":84,"span":11,"encoder":"70014653840","distractor":"70044653840","target":"present","response":"present","rt":"4758.5","correct":true,"confidence":-1},{"trial_n":85,"span":12,"encoder":"195455180404","distractor":"695455180404","target":"absent","response":"absent","rt":"2950.2999999523","correct":true,"confidence":-1},{"trial_n":86,"span":12,"encoder":"557237813523","distractor":"457237813523","target":"absent","response":"absent","rt":"2566.7000000477","correct":true,"confidence":-1},{"trial_n":87,"span":13,"encoder":"4092228639171","distractor":"4192228639171","target":"present","response":"absent","rt":"4150.1000001431","correct":false,"confidence":-1},{"trial_n":88,"span":12,"encoder":"808862156524","distractor":"808862156521","target":"absent","response":"absent","rt":"1488.7000000477","correct":true,"confidence":-1},{"trial_n":89,"span":12,"encoder":"319674483006","distractor":"339674483006","target":"present","response":"absent","rt":"2806.0999999046","correct":false,"confidence":-1},{"trial_n":90,"span":11,"encoder":"32661197942","distractor":"32661797942","target":"absent","response":"absent","rt":"2275.8999998569","correct":true,"confidence":-1},{"trial_n":91,"span":11,"encoder":"68983047542","distractor":"68983046542","target":"absent","response":"present","rt":"7203.2999999523","correct":false,"confidence":3},{"trial_n":92,"span":10,"encoder":"0943682786","distractor":"0923682786","target":"absent","response":"present","rt":"2849.5","correct":false,"confidence":5},{"trial_n":93,"span":9,"encoder":"761880858","distractor":"761850858","target":"present","response":"present","rt":"3078.5","correct":true,"confidence":5},{"trial_n":94,"span":9,"encoder":"144260987","distractor":"144263987","target":"present","response":"present","rt":"4010.6000001431","correct":true,"confidence":4},{"trial_n":95,"span":10,"encoder":"1029778790","distractor":"1029775790","target":"absent","response":"absent","rt":"5906","correct":true,"confidence":4},{"trial_n":96,"span":10,"encoder":"4932834389","distractor":"4932833389","target":"absent","response":"absent","rt":"4578","correct":true,"confidence":5},{"trial_n":97,"span":11,"encoder":"78421878687","distractor":"78421848687","target":"present","response":"absent","rt":"10268.899999857","correct":false,"confidence":3},{"trial_n":98,"span":10,"encoder":"1163674450","distractor":"1173674450","target":"present","response":"absent","rt":"5176.5","correct":false,"confidence":4},{"trial_n":99,"span":9,"encoder":"901906847","distractor":"901906837","target":"absent","response":"absent","rt":"4941.2000000477","correct":true,"confidence":4},{"trial_n":100,"span":9,"encoder":"706618975","distractor":"706628975","target":"absent","response":"absent","rt":"4264.4000000954","correct":true,"confidence":5},{"trial_n":101,"span":10,"encoder":"1867348352","distractor":"1868348352","target":"present","response":"absent","rt":"12575.5","correct":false,"confidence":2},{"trial_n":102,"span":9,"encoder":"409043168","distractor":"407043168","target":"absent","response":"absent","rt":"4744.5999999046","correct":true,"confidence":3},{"trial_n":103,"span":9,"encoder":"842947995","distractor":"842947965","target":"absent","response":"absent","rt":"3079.3000001907","correct":true,"confidence":4},{"trial_n":104,"span":10,"encoder":"4414489428","distractor":"4514489428","target":"present","response":"present","rt":"1966.1000001431","correct":true,"confidence":5},{"trial_n":105,"span":10,"encoder":"7294057073","distractor":"7294055073","target":"present","response":"absent","rt":"4919.7999999523","correct":false,"confidence":3},{"trial_n":106,"span":9,"encoder":"891139401","distractor":"891139501","target":"absent","response":"absent","rt":"4598.7000000477","correct":true,"confidence":3},{"trial_n":107,"span":9,"encoder":"565286917","distractor":"585286917","target":"present","response":"present","rt":"5388.1000001431","correct":true,"confidence":3},{"trial_n":108,"span":10,"encoder":"5103807122","distractor":"5103807192","target":"absent","response":"absent","rt":"1247.3999998569","correct":true,"confidence":4},{"trial_n":109,"span":10,"encoder":"0451805430","distractor":"0451005430","target":"present","response":"present","rt":"4734.7000000477","correct":true,"confidence":3},{"trial_n":110,"span":11,"encoder":"55825469392","distractor":"55823469392","target":"present","response":"present","rt":"3916","correct":true,"confidence":4},{"trial_n":111,"span":11,"encoder":"69286985838","distractor":"69285985838","target":"present","response":"absent","rt":"6298.7000000477","correct":false,"confidence":2},{"trial_n":112,"span":10,"encoder":"8348415819","distractor":"8348415859","target":"present","response":"absent","rt":"7491.5","correct":false,"confidence":4},{"trial_n":113,"span":9,"encoder":"918445612","distractor":"918425612","target":"absent","response":"absent","rt":"4364.7999999523","correct":true,"confidence":3},{"trial_n":114,"span":9,"encoder":"438062606","distractor":"438062506","target":"absent","response":"absent","rt":"4507.2999999523","correct":true,"confidence":4},{"trial_n":115,"span":10,"encoder":"1489016682","distractor":"1189016682","target":"present","response":"absent","rt":"2096.7000000477","correct":false,"confidence":3},{"trial_n":116,"span":9,"encoder":"471321386","distractor":"471221386","target":"present","response":"absent","rt":"4394.1000001431","correct":false,"confidence":4},{"trial_n":117,"span":8,"encoder":"26534725","distractor":"26530725","target":"present","response":"absent","rt":"5719.9000000954","correct":false,"confidence":3},{"trial_n":118,"span":7,"encoder":"1036453","distractor":"1032453","target":"present","response":"present","rt":"4677.7000000477","correct":true,"confidence":3},{"trial_n":119,"span":7,"encoder":"9538605","distractor":"5538605","target":"present","response":"present","rt":"2787","correct":true,"confidence":4},{"trial_n":120,"span":8,"encoder":"23364859","distractor":"23364856","target":"absent","response":"absent","rt":"8026.6999998093","correct":true,"confidence":3},{"trial_n":121,"span":8,"encoder":"07420808","distractor":"07420803","target":"absent","response":"absent","rt":"5065.7999999523","correct":true,"confidence":3},{"trial_n":122,"span":9,"encoder":"776483596","distractor":"976483596","target":"present","response":"present","rt":"2918.7000000477","correct":true,"confidence":4},{"trial_n":123,"span":9,"encoder":"107195869","distractor":"177195869","target":"absent","response":"present","rt":"6132.7000000477","correct":false,"confidence":4},{"trial_n":124,"span":8,"encoder":"10144151","distractor":"10144751","target":"present","response":"absent","rt":"6240.5999999046","correct":false,"confidence":4},{"trial_n":125,"span":7,"encoder":"2729435","distractor":"2799435","target":"absent","response":"absent","rt":"6551.3999998569","correct":true,"confidence":5},{"trial_n":126,"span":7,"encoder":"3283475","distractor":"3213475","target":"present","response":"present","rt":"4939.7999999523","correct":true,"confidence":3},{"trial_n":127,"span":8,"encoder":"10553437","distractor":"18553437","target":"absent","response":"absent","rt":"5759.5999999046","correct":true,"confidence":3},{"trial_n":128,"span":8,"encoder":"59345794","distractor":"59305794","target":"absent","response":"absent","rt":"3669.2999999523","correct":true,"confidence":4},{"trial_n":129,"span":9,"encoder":"833597515","distractor":"833597565","target":"present","response":"present","rt":"7785","correct":true,"confidence":4},{"trial_n":130,"span":9,"encoder":"826644902","distractor":"828644902","target":"present","response":"present","rt":"3628.2999999523","correct":true,"confidence":5},{"trial_n":131,"span":10,"encoder":"8614410031","distractor":"8614410033","target":"absent","response":"present","rt":"7022.6999998093","correct":false,"confidence":3},{"trial_n":132,"span":9,"encoder":"901327038","distractor":"901327538","target":"present","response":"present","rt":"4866.2999999523","correct":true,"confidence":3},{"trial_n":133,"span":9,"encoder":"193085949","distractor":"163085949","target":"present","response":"present","rt":"2538.0999999046","correct":true,"confidence":4},{"trial_n":134,"span":10,"encoder":"2090497011","distractor":"2097497011","target":"absent","response":"present","rt":"7497.5","correct":false,"confidence":2},{"trial_n":135,"span":9,"encoder":"892297153","distractor":"892297150","target":"absent","response":"absent","rt":"1386.8999998569","correct":true,"confidence":5},{"trial_n":136,"span":9,"encoder":"343698344","distractor":"349698344","target":"absent","response":"present","rt":"6124.5","correct":false,"confidence":4},{"trial_n":137,"span":8,"encoder":"52407493","distractor":"54407493","target":"absent","response":"absent","rt":"3293.6000001431","correct":true,"confidence":5},{"trial_n":138,"span":8,"encoder":"09856449","distractor":"09856549","target":"absent","response":"absent","rt":"2451.6999998093","correct":true,"confidence":5},{"trial_n":139,"span":9,"encoder":"643454507","distractor":"743454507","target":"present","response":"present","rt":"3824.1000001431","correct":true,"confidence":4},{"trial_n":140,"span":9,"encoder":"861565888","distractor":"561565888","target":"absent","response":"absent","rt":"7486","correct":true,"confidence":4}]