[{"trial_n":1,"span":8,"encoder":"51532977","distractor":"51532997","target":"present","response":"present","rt":"3763.200000003","correct":true,"confidence":-1},{"trial_n":2,"span":8,"encoder":"42910238","distractor":"42914238","target":"present","response":"absent","rt":"2022.8000000045","correct":false,"confidence":-1},{"trial_n":3,"span":6,"encoder":"271692","distractor":"271992","target":"absent","response":"present","rt":"1222.900000006","correct":false,"confidence":-1},{"trial_n":4,"span":4,"encoder":"6496","distractor":"9496","target":"absent","response":"present","rt":"2502.8000000045","correct":false,"confidence":-1},{"trial_n":5,"span":2,"encoder":"26","distractor":"76","target":"present","response":"absent","rt":"1180.1000000015","correct":false,"confidence":-1},{"trial_n":6,"span":2,"encoder":"12","distractor":"02","target":"absent","response":"absent","rt":"1720.900000006","correct":true,"confidence":-1},{"trial_n":7,"span":2,"encoder":"76","distractor":"70","target":"absent","response":"absent","rt":"1750.299999997","correct":true,"confidence":-1},{"trial_n":8,"span":4,"encoder":"7128","distractor":"7228","target":"present","response":"present","rt":"2080","correct":true,"confidence":-1},{"trial_n":9,"span":4,"encoder":"5803","distractor":"5303","target":"present","response":"present","rt":"1371.3000000045","correct":true,"confidence":-1},{"trial_n":10,"span":6,"encoder":"623946","distractor":"623146","target":"present","response":"absent","rt":"3517.1000000015","correct":false,"confidence":-1},{"trial_n":11,"span":4,"encoder":"1890","distractor":"1810","target":"absent","response":"absent","rt":"1788.6000000015","correct":true,"confidence":-1},{"trial_n":12,"span":4,"encoder":"0506","distractor":"3506","target":"present","response":"present","rt":"1305.1000000015","correct":true,"confidence":-1},{"trial_n":13,"span":5,"encoder":"46812","distractor":"47812","target":"present","response":"present","rt":"1934.8000000045","correct":true,"confidence":-1},{"trial_n":14,"span":5,"encoder":"06512","distractor":"06012","target":"absent","response":"present","rt":"2449.6000000015","correct":false,"confidence":-1},{"trial_n":15,"span":4,"encoder":"2958","distractor":"5958","target":"present","response":"present","rt":"2219.3999999985","correct":true,"confidence":-1},{"trial_n":16,"span":4,"encoder":"3796","distractor":"3896","target":"absent","response":"absent","rt":"1806.6000000015","correct":true,"confidence":-1},{"trial_n":17,"span":5,"encoder":"30568","distractor":"30588","target":"absent","response":"absent","rt":"2129.1000000015","correct":true,"confidence":-1},{"trial_n":18,"span":5,"encoder":"67385","distractor":"47385","target":"absent","response":"absent","rt":"1182.299999997","correct":true,"confidence":-1},{"trial_n":19,"span":6,"encoder":"244441","distractor":"244461","target":"absent","response":"absent","rt":"1375.8999999985","correct":true,"confidence":-1},{"trial_n":20,"span":6,"encoder":"055925","distractor":"055915","target":"present","response":"present","rt":"2379.5","correct":true,"confidence":-1},{"trial_n":21,"span":7,"encoder":"5083484","distractor":"5083487","target":"absent","response":"present","rt":"1653.200000003","correct":false,"confidence":2},{"trial_n":22,"span":6,"encoder":"310750","distractor":"010750","target":"absent","response":"absent","rt":"1862.6000000015","correct":true,"confidence":4},{"trial_n":23,"span":6,"encoder":"881071","distractor":"883071","target":"absent","response":"absent","rt":"1847.1000000015","correct":true,"confidence":4},{"trial_n":24,"span":7,"encoder":"7095976","distractor":"7095972","target":"present","response":"present","rt":"2570.299999997","correct":true,"confidence":3},{"trial_n":25,"span":7,"encoder":"4115291","distractor":"2115291","target":"absent","response":"absent","rt":"1823.5","correct":true,"confidence":5},{"trial_n":26,"span":8,"encoder":"82741391","distractor":"80741391","target":"absent","response":"absent","rt":"2212","correct":true,"confidence":4},{"trial_n":27,"span":8,"encoder":"18828186","distractor":"18820186","target":"absent","response":"present","rt":"7101.1999999955","correct":false,"confidence":3},{"trial_n":28,"span":7,"encoder":"8505224","distractor":"8205224","target":"present","response":"present","rt":"3669.799999997","correct":true,"confidence":3},{"trial_n":29,"span":7,"encoder":"3987535","distractor":"3187535","target":"present","response":"absent","rt":"3196.5","correct":false,"confidence":2},{"trial_n":30,"span":6,"encoder":"809038","distractor":"809238","target":"absent","response":"absent","rt":"1810.6999999955","correct":true,"confidence":5},{"trial_n":31,"span":6,"encoder":"702881","distractor":"702811","target":"present","response":"present","rt":"1688.6000000015","correct":true,"confidence":5},{"trial_n":32,"span":7,"encoder":"7488998","distractor":"7488298","target":"absent","response":"absent","rt":"3104.8000000045","correct":true,"confidence":4},{"trial_n":33,"span":7,"encoder":"2731517","distractor":"2739517","target":"present","response":"present","rt":"2805.8000000045","correct":true,"confidence":2},{"trial_n":34,"span":8,"encoder":"95667829","distractor":"95662829","target":"present","response":"present","rt":"3358.700000003","correct":true,"confidence":2},{"trial_n":35,"span":8,"encoder":"08427303","distractor":"08427308","target":"present","response":"present","rt":"5008.6999999955","correct":true,"confidence":2},{"trial_n":36,"span":9,"encoder":"292571235","distractor":"292571234","target":"absent","response":"absent","rt":"2491.6000000015","correct":true,"confidence":3},{"trial_n":37,"span":9,"encoder":"966196618","distractor":"966196608","target":"present","response":"present","rt":"2167.1000000015","correct":true,"confidence":4},{"trial_n":38,"span":10,"encoder":"6138395754","distractor":"6138395254","target":"present","response":"absent","rt":"3015.8999999985","correct":false,"confidence":3},{"trial_n":39,"span":9,"encoder":"207451884","distractor":"007451884","target":"absent","response":"absent","rt":"3032.700000003","correct":true,"confidence":2},{"trial_n":40,"span":9,"encoder":"088617316","distractor":"088687316","target":"absent","response":"absent","rt":"2274.799999997","correct":true,"confidence":3},{"trial_n":41,"span":10,"encoder":"0893754422","distractor":"0893754423","target":"present","response":"absent","rt":"3089.799999997","correct":false,"confidence":2},{"trial_n":42,"span":9,"encoder":"636741644","distractor":"636741634","target":"absent","response":"absent","rt":"1407","correct":true,"confidence":4},{"trial_n":43,"span":9,"encoder":"996848053","distractor":"596848053","target":"present","response":"present","rt":"3745.299999997","correct":true,"confidence":3},{"trial_n":44,"span":10,"encoder":"3342931042","distractor":"3842931042","target":"absent","response":"absent","rt":"12663.100000001","correct":true,"confidence":1},{"trial_n":45,"span":10,"encoder":"5695862484","distractor":"5695662484","target":"present","response":"present","rt":"4622.8999999985","correct":true,"confidence":2},{"trial_n":46,"span":11,"encoder":"05324915496","distractor":"05324615496","target":"absent","response":"absent","rt":"5596.599999994","correct":true,"confidence":4},{"trial_n":47,"span":11,"encoder":"39768130182","distractor":"99768130182","target":"absent","response":"absent","rt":"3871.200000003","correct":true,"confidence":4},{"trial_n":48,"span":12,"encoder":"338954576073","distractor":"338954571073","target":"present","response":"present","rt":"7412.1000000015","correct":true,"confidence":5},{"trial_n":49,"span":12,"encoder":"356551327267","distractor":"356851327267","target":"absent","response":"absent","rt":"4677.3999999985","correct":true,"confidence":4},{"trial_n":50,"span":13,"encoder":"0550162353071","distractor":"0550162353072","target":"present","response":"present","rt":"8999.8999999985","correct":true,"confidence":2},{"trial_n":51,"span":13,"encoder":"9290238777907","distractor":"9290238747907","target":"present","response":"present","rt":"2990.1000000015","correct":true,"confidence":3},{"trial_n":52,"span":14,"encoder":"37077462096261","distractor":"37077472096261","target":"present","response":"absent","rt":"2345.6000000015","correct":false,"confidence":3},{"trial_n":53,"span":13,"encoder":"0516932502736","distractor":"0516922502736","target":"absent","response":"present","rt":"2846.8999999985","correct":false,"confidence":2},{"trial_n":54,"span":12,"encoder":"410226257740","distractor":"410226757740","target":"present","response":"present","rt":"1919.200000003","correct":true,"confidence":3},{"trial_n":55,"span":12,"encoder":"470361747615","distractor":"470361747645","target":"present","response":"present","rt":"3156.8999999985","correct":true,"confidence":1},{"trial_n":56,"span":13,"encoder":"3712471223696","distractor":"3712473223696","target":"absent","response":"present","rt":"3493.3000000045","correct":false,"confidence":1},{"trial_n":57,"span":12,"encoder":"179341211710","distractor":"179341211711","target":"absent","response":"absent","rt":"1746.200000003","correct":true,"confidence":5},{"trial_n":58,"span":12,"encoder":"070235591196","distractor":"270235591196","target":"absent","response":"present","rt":"3316.6000000015","correct":false,"confidence":3},{"trial_n":59,"span":11,"encoder":"53105493392","distractor":"53105493342","target":"present","response":"present","rt":"2883.1000000015","correct":true,"confidence":1},{"trial_n":60,"span":11,"encoder":"92736469079","distractor":"92536469079","target":"present","response":"absent","rt":"4050.799999997","correct":false,"confidence":1},{"trial_n":61,"span":10,"encoder":"4911981063","distractor":"4912981063","target":"absent","response":"absent","rt":"3390.299999997","correct":true,"confidence":2},{"trial_n":62,"span":10,"encoder":"4664005982","distractor":"4644005982","target":"present","response":"absent","rt":"11253.199999996","correct":false,"confidence":1},{"trial_n":63,"span":9,"encoder":"390693424","distractor":"390693024","target":"absent","response":"absent","rt":"4755.5","correct":true,"confidence":1},{"trial_n":64,"span":9,"encoder":"857387052","distractor":"857487052","target":"absent","response":"absent","rt":"2733.599999994","correct":true,"confidence":3},{"trial_n":65,"span":10,"encoder":"3841244830","distractor":"5841244830","target":"absent","response":"present","rt":"4969.700000003","correct":false,"confidence":1},{"trial_n":66,"span":9,"encoder":"696169230","distractor":"696169730","target":"present","response":"absent","rt":"2034.6000000015","correct":false,"confidence":1},{"trial_n":67,"span":8,"encoder":"24857917","distractor":"24357917","target":"present","response":"absent","rt":"3066.700000003","correct":false,"confidence":3},{"trial_n":68,"span":7,"encoder":"8555703","distractor":"8555803","target":"present","response":"present","rt":"4728.200000003","correct":true,"confidence":3},{"trial_n":69,"span":7,"encoder":"5516456","distractor":"6516456","target":"present","response":"absent","rt":"3067.5","correct":false,"confidence":2},{"trial_n":70,"span":6,"encoder":"550208","distractor":"550202","target":"present","response":"absent","rt":"6355.3000000045","correct":false,"confidence":2},{"trial_n":71,"span":8,"encoder":"27369373","distractor":"27369773","target":"present","response":"present","rt":"7569.3999999985","correct":true,"confidence":-1},{"trial_n":72,"span":8,"encoder":"38195243","distractor":"38195343","target":"present","response":"absent","rt":"3991.700000003","correct":false,"confidence":-1},{"trial_n":73,"span":7,"encoder":"9979571","distractor":"9971571","target":"absent","response":"absent","rt":"2304.700000003","correct":true,"confidence":-1},{"trial_n":74,"span":7,"encoder":"9934451","distractor":"9904451","target":"absent","response":"absent","rt":"2635.1000000015","correct":true,"confidence":-1},{"trial_n":75,"span":8,"encoder":"91825723","distractor":"91825721","target":"present","response":"present","rt":"2064.3999999985","correct":true,"confidence":-1},{"trial_n":76,"span":8,"encoder":"29633477","distractor":"29433477","target":"present","response":"absent","rt":"5012.099999994","correct":false,"confidence":-1},{"trial_n":77,"span":7,"encoder":"1687717","distractor":"1987717","target":"absent","response":"present","rt":"3586.099999994","correct":false,"confidence":-1},{"trial_n":78,"span":6,"encoder":"013373","distractor":"713373","target":"absent","response":"absent","rt":"3288.8999999985","correct":true,"confidence":-1},{"trial_n":79,"span":6,"encoder":"612053","distractor":"602053","target":"absent","response":"present","rt":"4177.5","correct":false,"confidence":-1},{"trial_n":80,"span":5,"encoder":"88570","distractor":"48570","target":"absent","response":"present","rt":"4025.099999994","correct":false,"confidence":-1},{"trial_n":81,"span":4,"encoder":"3573","distractor":"3473","target":"present","response":"present","rt":"2339.3999999985","correct":true,"confidence":-1},{"trial_n":82,"span":4,"encoder":"8821","distractor":"8831","target":"present","response":"present","rt":"1507.1000000015","correct":true,"confidence":-1},{"trial_n":83,"span":5,"encoder":"87575","distractor":"87579","target":"absent","response":"absent","rt":"1701.299999997","correct":true,"confidence":-1},{"trial_n":84,"span":5,"encoder":"33404","distractor":"32404","target":"present","response":"absent","rt":"4258.3999999985","correct":false,"confidence":-1},{"trial_n":85,"span":4,"encoder":"7882","distractor":"7887","target":"absent","response":"absent","rt":"1738.400000006","correct":true,"confidence":-1},{"trial_n":86,"span":4,"encoder":"0920","distractor":"8920","target":"absent","response":"absent","rt":"1631.299999997","correct":true,"confidence":-1},{"trial_n":87,"span":5,"encoder":"84161","distractor":"84164","target":"present","response":"absent","rt":"1825.099999994","correct":false,"confidence":-1},{"trial_n":88,"span":4,"encoder":"8074","distractor":"8071","target":"absent","response":"absent","rt":"1182.6999999955","correct":true,"confidence":-1},{"trial_n":89,"span":4,"encoder":"6435","distractor":"7435","target":"absent","response":"absent","rt":"1342.799999997","correct":true,"confidence":-1},{"trial_n":90,"span":5,"encoder":"68866","distractor":"65866","target":"present","response":"present","rt":"1803.200000003","correct":true,"confidence":-1},{"trial_n":91,"span":5,"encoder":"94732","distractor":"94632","target":"present","response":"present","rt":"2473.200000003","correct":true,"confidence":3},{"trial_n":92,"span":6,"encoder":"630237","distractor":"638237","target":"present","response":"present","rt":"6396.8000000045","correct":true,"confidence":3},{"trial_n":93,"span":6,"encoder":"557742","distractor":"537742","target":"absent","response":"absent","rt":"2684.900000006","correct":true,"confidence":5},{"trial_n":94,"span":7,"encoder":"2574909","distractor":"2514909","target":"present","response":"present","rt":"4064.1000000015","correct":true,"confidence":4},{"trial_n":95,"span":7,"encoder":"0317912","distractor":"0417912","target":"absent","response":"absent","rt":"3450.200000003","correct":true,"confidence":3},{"trial_n":96,"span":8,"encoder":"85692115","distractor":"85612115","target":"present","response":"present","rt":"6245.8999999985","correct":true,"confidence":3},{"trial_n":97,"span":8,"encoder":"45356420","distractor":"40356420","target":"present","response":"present","rt":"5052","correct":true,"confidence":3},{"trial_n":98,"span":9,"encoder":"073703583","distractor":"073903583","target":"present","response":"present","rt":"5666.6000000015","correct":true,"confidence":4},{"trial_n":99,"span":9,"encoder":"431155857","distractor":"431555857","target":"present","response":"present","rt":"5541.1000000015","correct":true,"confidence":2},{"trial_n":100,"span":10,"encoder":"9286652143","distractor":"9286622143","target":"absent","response":"absent","rt":"5715.299999997","correct":true,"confidence":4},{"trial_n":101,"span":10,"encoder":"4898861769","distractor":"0898861769","target":"absent","response":"absent","rt":"3232","correct":true,"confidence":3},{"trial_n":102,"span":11,"encoder":"36818728824","distractor":"36818728874","target":"absent","response":"absent","rt":"6468.5","correct":true,"confidence":1},{"trial_n":103,"span":11,"encoder":"53272654043","distractor":"53272654023","target":"absent","response":"absent","rt":"7401.900000006","correct":true,"confidence":4},{"trial_n":104,"span":12,"encoder":"250529512546","distractor":"259529512546","target":"absent","response":"absent","rt":"6221.3000000045","correct":true,"confidence":4},{"trial_n":105,"span":12,"encoder":"911891143947","distractor":"921891143947","target":"present","response":"present","rt":"13017.099999994","correct":true,"confidence":4},{"trial_n":106,"span":13,"encoder":"9894692158451","distractor":"9894792158451","target":"present","response":"present","rt":"13586.899999999","correct":true,"confidence":3},{"trial_n":107,"span":13,"encoder":"2079783910398","distractor":"2079783910338","target":"absent","response":"absent","rt":"10104.099999994","correct":true,"confidence":5},{"trial_n":108,"span":14,"encoder":"37038918174623","distractor":"34038918174623","target":"present","response":"present","rt":"3908.599999994","correct":true,"confidence":4},{"trial_n":109,"span":14,"encoder":"19115727149969","distractor":"19175727149969","target":"present","response":"present","rt":"12126.399999999","correct":true,"confidence":3},{"trial_n":110,"span":15,"encoder":"132151667758190","distractor":"132151667752190","target":"present","response":"present","rt":"7947.8999999985","correct":true,"confidence":3},{"trial_n":111,"span":15,"encoder":"500725873156101","distractor":"500725879156101","target":"present","response":"present","rt":"8060.5","correct":true,"confidence":3},{"trial_n":112,"span":16,"encoder":"0119380599192111","distractor":"0119380599192171","target":"absent","response":"absent","rt":"6278.8000000045","correct":true,"confidence":5},{"trial_n":113,"span":16,"encoder":"0821024042283345","distractor":"0829024042283345","target":"absent","response":"present","rt":"9098.700000003","correct":false,"confidence":5},{"trial_n":114,"span":15,"encoder":"789557196058139","distractor":"789557116058139","target":"present","response":"present","rt":"8607.5","correct":true,"confidence":1},{"trial_n":115,"span":15,"encoder":"661107176765402","distractor":"661107176765404","target":"absent","response":"absent","rt":"5791.3999999985","correct":true,"confidence":5},{"trial_n":116,"span":16,"encoder":"5736471913464250","distractor":"5736472913464250","target":"present","response":"present","rt":"15904.5","correct":true,"confidence":3},{"trial_n":117,"span":16,"encoder":"9325067819670629","distractor":"9325067819670529","target":"present","response":"present","rt":"28248","correct":true,"confidence":1},{"trial_n":118,"span":17,"encoder":"94953326713658241","distractor":"94953426713658241","target":"present","response":"present","rt":"22802.5","correct":true,"confidence":4},{"trial_n":119,"span":17,"encoder":"37930220736362959","distractor":"37930240736362959","target":"present","response":"present","rt":"6686.099999994","correct":true,"confidence":5},{"trial_n":120,"span":18,"encoder":"728518325018515152","distractor":"728518325018575152","target":"present","response":"present","rt":"14996.5","correct":true,"confidence":5},{"trial_n":121,"span":18,"encoder":"791264195572333249","distractor":"791264195572343249","target":"present","response":"present","rt":"1793.200000003","correct":true,"confidence":5},{"trial_n":122,"span":19,"encoder":"2047695007350980178","distractor":"2047691007350980178","target":"absent","response":"absent","rt":"11395.799999997","correct":true,"confidence":3},{"trial_n":123,"span":19,"encoder":"1376790963124968491","distractor":"1376290963124968491","target":"absent","response":"absent","rt":"6866","correct":true,"confidence":3},{"trial_n":124,"span":20,"encoder":"25765820396029331553","distractor":"25865820396029331553","target":"absent","response":"absent","rt":"7651.8999999985","correct":true,"confidence":1},{"trial_n":125,"span":20,"encoder":"60220779001622849406","distractor":"60220779021622849406","target":"absent","response":"present","rt":"61225","correct":false,"confidence":1},{"trial_n":126,"span":19,"encoder":"2291077429845259903","distractor":"2291057429845259903","target":"absent","response":"absent","rt":"8064.8000000045","correct":true,"confidence":5},{"trial_n":127,"span":19,"encoder":"2694292101354232873","distractor":"2694292101357232873","target":"absent","response":"present","rt":"3590.1000000015","correct":false,"confidence":1},{"trial_n":128,"span":18,"encoder":"566458709783837885","distractor":"566458705783837885","target":"present","response":"present","rt":"6903.900000006","correct":true,"confidence":1},{"trial_n":129,"span":18,"encoder":"774732431920586122","distractor":"774732431927586122","target":"present","response":"present","rt":"143316.2","correct":true,"confidence":2},{"trial_n":130,"span":19,"encoder":"6293194973185406501","distractor":"9293194973185406501","target":"present","response":"absent","rt":"32758.899999999","correct":false,"confidence":4},{"trial_n":131,"span":18,"encoder":"707701652231643487","distractor":"707701652231643787","target":"present","response":"absent","rt":"7903.8000000045","correct":false,"confidence":1},{"trial_n":132,"span":17,"encoder":"23695089295762297","distractor":"23699089295762297","target":"absent","response":"present","rt":"4787.700000003","correct":false,"confidence":1},{"trial_n":133,"span":16,"encoder":"0072117232568827","distractor":"0072517232568827","target":"present","response":"absent","rt":"4007.8000000045","correct":false,"confidence":3},{"trial_n":134,"span":15,"encoder":"705927897110120","distractor":"705987897110120","target":"absent","response":"absent","rt":"3706.6000000015","correct":true,"confidence":3},{"trial_n":135,"span":15,"encoder":"424597529928083","distractor":"424597529928783","target":"absent","response":"absent","rt":"4656.200000003","correct":true,"confidence":2},{"trial_n":136,"span":16,"encoder":"3311041879437483","distractor":"3311041579437483","target":"present","response":"present","rt":"9762.1000000015","correct":true,"confidence":2},{"trial_n":137,"span":16,"encoder":"6235883638402023","distractor":"6235843638402023","target":"absent","response":"present","rt":"6203.200000003","correct":false,"confidence":2},{"trial_n":138,"span":15,"encoder":"858736727044009","distractor":"858736727044099","target":"absent","response":"absent","rt":"2231.1000000015","correct":true,"confidence":3},{"trial_n":139,"span":15,"encoder":"653100733426612","distractor":"653100733426614","target":"present","response":"absent","rt":"3492.6000000015","correct":false,"confidence":2},{"trial_n":140,"span":14,"encoder":"78164274026601","distractor":"78164274066601","target":"absent","response":"absent","rt":"2093.799999997","correct":true,"confidence":1}]