[{"trial_n":1,"n_dots":4.25,"target":"right","response":"left","rt":4321.7000000477,"correct":false,"confidence":-1},{"trial_n":2,"n_dots":4.25,"target":"left","response":"left","rt":970.79999995232,"correct":true,"confidence":-1},{"trial_n":3,"n_dots":4.25,"target":"right","response":"right","rt":739.39999985695,"correct":true,"confidence":-1},{"trial_n":4,"n_dots":3.85,"target":"left","response":"left","rt":327,"correct":true,"confidence":-1},{"trial_n":5,"n_dots":3.85,"target":"right","response":"right","rt":756.5,"correct":true,"confidence":-1},{"trial_n":6,"n_dots":3.45,"target":"left","response":"left","rt":336,"correct":true,"confidence":-1},{"trial_n":7,"n_dots":3.45,"target":"left","response":"right","rt":867.5,"correct":false,"confidence":-1},{"trial_n":8,"n_dots":3.65,"target":"right","response":"left","rt":352.60000014305,"correct":false,"confidence":-1},{"trial_n":9,"n_dots":3.85,"target":"left","response":"left","rt":245,"correct":true,"confidence":-1},{"trial_n":10,"n_dots":3.85,"target":"right","response":"right","rt":835.09999990463,"correct":true,"confidence":-1},{"trial_n":11,"n_dots":3.65,"target":"left","response":"left","rt":310.39999985695,"correct":true,"confidence":-1},{"trial_n":12,"n_dots":3.65,"target":"left","response":"left","rt":483.60000014305,"correct":true,"confidence":-1},{"trial_n":13,"n_dots":3.55,"target":"left","response":"left","rt":298,"correct":true,"confidence":-1},{"trial_n":14,"n_dots":3.55,"target":"left","response":"left","rt":291,"correct":true,"confidence":-1},{"trial_n":15,"n_dots":3.45,"target":"left","response":"left","rt":256.10000014305,"correct":true,"confidence":-1},{"trial_n":16,"n_dots":3.45,"target":"left","response":"left","rt":393.60000014305,"correct":true,"confidence":-1},{"trial_n":17,"n_dots":3.35,"target":"left","response":"left","rt":295.20000004768,"correct":true,"confidence":-1},{"trial_n":18,"n_dots":3.35,"target":"left","response":"right","rt":749.20000004768,"correct":false,"confidence":-1},{"trial_n":19,"n_dots":3.45,"target":"left","response":"left","rt":909.5,"correct":true,"confidence":-1},{"trial_n":20,"n_dots":3.45,"target":"right","response":"right","rt":449.80000019073,"correct":true,"confidence":-1},{"trial_n":21,"n_dots":3.35,"target":"left","response":"left","rt":418.30000019073,"correct":true,"confidence":5},{"trial_n":22,"n_dots":3.35,"target":"left","response":"left","rt":704.39999985695,"correct":true,"confidence":4},{"trial_n":23,"n_dots":3.25,"target":"right","response":"left","rt":1346.6999998093,"correct":false,"confidence":3},{"trial_n":24,"n_dots":3.35,"target":"left","response":"left","rt":796.40000009537,"correct":true,"confidence":4},{"trial_n":25,"n_dots":3.35,"target":"left","response":"left","rt":875.10000014305,"correct":true,"confidence":3},{"trial_n":26,"n_dots":3.25,"target":"right","response":"right","rt":1387.5,"correct":true,"confidence":3},{"trial_n":27,"n_dots":3.25,"target":"right","response":"right","rt":1211.8999998569,"correct":true,"confidence":3},{"trial_n":28,"n_dots":3.15,"target":"left","response":"left","rt":521.09999990463,"correct":true,"confidence":3},{"trial_n":29,"n_dots":3.15,"target":"right","response":"left","rt":815.29999995232,"correct":false,"confidence":3},{"trial_n":30,"n_dots":3.25,"target":"right","response":"right","rt":695.29999995232,"correct":true,"confidence":3},{"trial_n":31,"n_dots":3.25,"target":"right","response":"right","rt":324.09999990463,"correct":true,"confidence":4},{"trial_n":32,"n_dots":3.15,"target":"right","response":"right","rt":933.20000004768,"correct":true,"confidence":3},{"trial_n":33,"n_dots":3.15,"target":"right","response":"left","rt":578.09999990463,"correct":false,"confidence":4},{"trial_n":34,"n_dots":3.25,"target":"left","response":"left","rt":723.39999985695,"correct":true,"confidence":3},{"trial_n":35,"n_dots":3.25,"target":"right","response":"right","rt":322.5,"correct":true,"confidence":5},{"trial_n":36,"n_dots":3.15,"target":"right","response":"right","rt":681.90000009537,"correct":true,"confidence":4},{"trial_n":37,"n_dots":3.15,"target":"right","response":"left","rt":1050.9000000954,"correct":false,"confidence":3},{"trial_n":38,"n_dots":3.25,"target":"left","response":"left","rt":685.40000009537,"correct":true,"confidence":3},{"trial_n":39,"n_dots":3.25,"target":"left","response":"left","rt":1531,"correct":true,"confidence":2},{"trial_n":40,"n_dots":3.15,"target":"left","response":"left","rt":766.69999980927,"correct":true,"confidence":3},{"trial_n":41,"n_dots":3.15,"target":"left","response":"left","rt":582,"correct":true,"confidence":3},{"trial_n":42,"n_dots":3.05,"target":"right","response":"right","rt":615.59999990463,"correct":true,"confidence":3},{"trial_n":43,"n_dots":3.05,"target":"right","response":"right","rt":635.59999990463,"correct":true,"confidence":3},{"trial_n":44,"n_dots":2.95,"target":"right","response":"right","rt":839.40000009537,"correct":true,"confidence":3},{"trial_n":45,"n_dots":2.95,"target":"right","response":"right","rt":1451.5,"correct":true,"confidence":2},{"trial_n":46,"n_dots":2.85,"target":"left","response":"right","rt":639.20000004768,"correct":false,"confidence":3},{"trial_n":47,"n_dots":2.95,"target":"right","response":"left","rt":744.70000004768,"correct":false,"confidence":3},{"trial_n":48,"n_dots":3.05,"target":"right","response":"right","rt":303.09999990463,"correct":true,"confidence":4},{"trial_n":49,"n_dots":3.05,"target":"left","response":"right","rt":1326.6000001431,"correct":false,"confidence":4},{"trial_n":50,"n_dots":3.15,"target":"right","response":"right","rt":971.5,"correct":true,"confidence":4},{"trial_n":51,"n_dots":3.15,"target":"right","response":"right","rt":1865.2000000477,"correct":true,"confidence":3},{"trial_n":52,"n_dots":3.05,"target":"right","response":"right","rt":627.80000019073,"correct":true,"confidence":4},{"trial_n":53,"n_dots":3.05,"target":"right","response":"right","rt":292.59999990463,"correct":true,"confidence":4},{"trial_n":54,"n_dots":2.95,"target":"right","response":"right","rt":580.5,"correct":true,"confidence":4},{"trial_n":55,"n_dots":2.95,"target":"right","response":"right","rt":318.59999990463,"correct":true,"confidence":4},{"trial_n":56,"n_dots":2.85,"target":"right","response":"right","rt":435.20000004768,"correct":true,"confidence":3},{"trial_n":57,"n_dots":2.85,"target":"right","response":"right","rt":622.29999995232,"correct":true,"confidence":3},{"trial_n":58,"n_dots":2.75,"target":"right","response":"right","rt":1586.9000000954,"correct":true,"confidence":2},{"trial_n":59,"n_dots":2.75,"target":"left","response":"left","rt":1001,"correct":true,"confidence":3},{"trial_n":60,"n_dots":2.65,"target":"left","response":"right","rt":821.70000004768,"correct":false,"confidence":3},{"trial_n":61,"n_dots":2.75,"target":"right","response":"right","rt":272,"correct":true,"confidence":5},{"trial_n":62,"n_dots":2.75,"target":"left","response":"left","rt":423.79999995232,"correct":true,"confidence":4},{"trial_n":63,"n_dots":2.65,"target":"left","response":"left","rt":340.29999995232,"correct":true,"confidence":3},{"trial_n":64,"n_dots":2.65,"target":"right","response":"left","rt":761.10000014305,"correct":false,"confidence":3},{"trial_n":65,"n_dots":2.75,"target":"left","response":"left","rt":631.60000014305,"correct":true,"confidence":4},{"trial_n":66,"n_dots":2.75,"target":"left","response":"left","rt":399.5,"correct":true,"confidence":4},{"trial_n":67,"n_dots":2.65,"target":"left","response":"right","rt":2441,"correct":false,"confidence":3},{"trial_n":68,"n_dots":2.75,"target":"right","response":"left","rt":1224.2000000477,"correct":false,"confidence":3},{"trial_n":69,"n_dots":2.85,"target":"left","response":"left","rt":338.09999990463,"correct":true,"confidence":4},{"trial_n":70,"n_dots":2.85,"target":"right","response":"left","rt":409.20000004768,"correct":false,"confidence":4},{"trial_n":71,"n_dots":2.95,"target":"left","response":"right","rt":2083.7999999523,"correct":false,"confidence":3},{"trial_n":72,"n_dots":3.05,"target":"left","response":"right","rt":1036.8999998569,"correct":false,"confidence":3},{"trial_n":73,"n_dots":3.15,"target":"right","response":"left","rt":338.5,"correct":false,"confidence":3},{"trial_n":74,"n_dots":3.25,"target":"left","response":"left","rt":392.59999990463,"correct":true,"confidence":4},{"trial_n":75,"n_dots":3.25,"target":"left","response":"left","rt":815.20000004768,"correct":true,"confidence":3},{"trial_n":76,"n_dots":3.15,"target":"left","response":"left","rt":332.60000014305,"correct":true,"confidence":4},{"trial_n":77,"n_dots":3.15,"target":"right","response":"right","rt":662.20000004768,"correct":true,"confidence":3},{"trial_n":78,"n_dots":3.05,"target":"left","response":"left","rt":325.79999995232,"correct":true,"confidence":2},{"trial_n":79,"n_dots":3.05,"target":"left","response":"left","rt":1030.0999999046,"correct":true,"confidence":2},{"trial_n":80,"n_dots":2.95,"target":"left","response":"right","rt":584,"correct":false,"confidence":3},{"trial_n":81,"n_dots":3.05,"target":"left","response":"left","rt":282.90000009537,"correct":true,"confidence":3},{"trial_n":82,"n_dots":3.05,"target":"left","response":"left","rt":286.40000009537,"correct":true,"confidence":3},{"trial_n":83,"n_dots":2.95,"target":"left","response":"left","rt":302.40000009537,"correct":true,"confidence":4},{"trial_n":84,"n_dots":2.95,"target":"left","response":"right","rt":726.29999995232,"correct":false,"confidence":4},{"trial_n":85,"n_dots":3.05,"target":"left","response":"left","rt":298.09999990463,"correct":true,"confidence":4},{"trial_n":86,"n_dots":3.05,"target":"right","response":"right","rt":180.19999980927,"correct":true,"confidence":3},{"trial_n":87,"n_dots":2.95,"target":"left","response":"left","rt":341.5,"correct":true,"confidence":2},{"trial_n":88,"n_dots":2.95,"target":"right","response":"right","rt":298.39999985695,"correct":true,"confidence":4},{"trial_n":89,"n_dots":2.85,"target":"left","response":"left","rt":349.10000014305,"correct":true,"confidence":4},{"trial_n":90,"n_dots":2.85,"target":"right","response":"right","rt":3298.6000001431,"correct":true,"confidence":1},{"trial_n":91,"n_dots":2.75,"target":"left","response":"left","rt":1181.3000001907,"correct":true,"confidence":3},{"trial_n":92,"n_dots":2.75,"target":"left","response":"left","rt":1421.5,"correct":true,"confidence":2},{"trial_n":93,"n_dots":2.65,"target":"left","response":"left","rt":661.29999995232,"correct":true,"confidence":4},{"trial_n":94,"n_dots":2.65,"target":"left","response":"left","rt":975,"correct":true,"confidence":2},{"trial_n":95,"n_dots":2.55,"target":"right","response":"right","rt":1549.4000000954,"correct":true,"confidence":3},{"trial_n":96,"n_dots":2.55,"target":"right","response":"right","rt":225.79999995232,"correct":true,"confidence":4},{"trial_n":97,"n_dots":2.45,"target":"right","response":"right","rt":793.20000004768,"correct":true,"confidence":2},{"trial_n":98,"n_dots":2.45,"target":"right","response":"left","rt":526.70000004768,"correct":false,"confidence":3},{"trial_n":99,"n_dots":2.55,"target":"right","response":"right","rt":801.30000019073,"correct":true,"confidence":2},{"trial_n":100,"n_dots":2.55,"target":"right","response":"right","rt":868.29999995232,"correct":true,"confidence":3},{"trial_n":101,"n_dots":2.45,"target":"right","response":"left","rt":443.09999990463,"correct":false,"confidence":3},{"trial_n":102,"n_dots":2.55,"target":"right","response":"left","rt":1362.6000001431,"correct":false,"confidence":3},{"trial_n":103,"n_dots":2.65,"target":"left","response":"left","rt":566.40000009537,"correct":true,"confidence":3},{"trial_n":104,"n_dots":2.65,"target":"left","response":"right","rt":462,"correct":false,"confidence":3},{"trial_n":105,"n_dots":2.75,"target":"right","response":"right","rt":326.40000009537,"correct":true,"confidence":3},{"trial_n":106,"n_dots":2.75,"target":"right","response":"right","rt":638.89999985695,"correct":true,"confidence":3},{"trial_n":107,"n_dots":2.65,"target":"right","response":"right","rt":2035.5999999046,"correct":true,"confidence":3},{"trial_n":108,"n_dots":2.65,"target":"right","response":"right","rt":583.89999985695,"correct":true,"confidence":3},{"trial_n":109,"n_dots":2.55,"target":"left","response":"left","rt":3088.7999999523,"correct":true,"confidence":2},{"trial_n":110,"n_dots":2.55,"target":"left","response":"left","rt":993.5,"correct":true,"confidence":2},{"trial_n":111,"n_dots":2.45,"target":"right","response":"right","rt":680.29999995232,"correct":true,"confidence":3},{"trial_n":112,"n_dots":2.45,"target":"left","response":"left","rt":872,"correct":true,"confidence":2},{"trial_n":113,"n_dots":2.35,"target":"left","response":"left","rt":2549.3000001907,"correct":true,"confidence":1},{"trial_n":114,"n_dots":2.35,"target":"right","response":"right","rt":642.39999985695,"correct":true,"confidence":3},{"trial_n":115,"n_dots":2.25,"target":"right","response":"right","rt":637.70000004768,"correct":true,"confidence":2},{"trial_n":116,"n_dots":2.25,"target":"left","response":"left","rt":811.09999990463,"correct":true,"confidence":2},{"trial_n":117,"n_dots":2.15,"target":"right","response":"right","rt":644.89999985695,"correct":true,"confidence":3},{"trial_n":118,"n_dots":2.15,"target":"right","response":"right","rt":453.10000014305,"correct":true,"confidence":2},{"trial_n":119,"n_dots":2.05,"target":"right","response":"right","rt":610.5,"correct":true,"confidence":3},{"trial_n":120,"n_dots":2.05,"target":"right","response":"right","rt":1307.9000000954,"correct":true,"confidence":2}]