[{"trial_n":1,"min":25,"max":230,"target":"present","response":"present","rt":10808.100000143,"correct":true,"confidence":-1},{"trial_n":2,"min":25,"max":230,"target":"present","response":"absent","rt":4536,"correct":false,"confidence":-1},{"trial_n":3,"min":9,"max":246,"target":"absent","response":"present","rt":2301.7999999523,"correct":false,"confidence":-1},{"trial_n":4,"min":0,"max":255,"target":"absent","response":"absent","rt":1931.5,"correct":true,"confidence":-1},{"trial_n":5,"min":0,"max":255,"target":"present","response":"present","rt":959,"correct":true,"confidence":-1},{"trial_n":6,"min":16,"max":239,"target":"absent","response":"absent","rt":606.19999980927,"correct":true,"confidence":-1},{"trial_n":7,"min":16,"max":239,"target":"present","response":"present","rt":433.5,"correct":true,"confidence":-1},{"trial_n":8,"min":32,"max":223,"target":"absent","response":"absent","rt":437,"correct":true,"confidence":-1},{"trial_n":9,"min":32,"max":223,"target":"present","response":"present","rt":427.39999985695,"correct":true,"confidence":-1},{"trial_n":10,"min":48,"max":207,"target":"present","response":"absent","rt":354.90000009537,"correct":false,"confidence":-1},{"trial_n":11,"min":40,"max":215,"target":"present","response":"present","rt":632.70000004768,"correct":true,"confidence":-1},{"trial_n":12,"min":40,"max":215,"target":"present","response":"present","rt":504.70000004768,"correct":true,"confidence":-1},{"trial_n":13,"min":48,"max":207,"target":"absent","response":"absent","rt":432.79999995232,"correct":true,"confidence":-1},{"trial_n":14,"min":48,"max":207,"target":"present","response":"present","rt":365,"correct":true,"confidence":-1},{"trial_n":15,"min":56,"max":199,"target":"present","response":"present","rt":525.79999995232,"correct":true,"confidence":-1},{"trial_n":16,"min":56,"max":199,"target":"absent","response":"absent","rt":425.89999985695,"correct":true,"confidence":-1},{"trial_n":17,"min":64,"max":191,"target":"absent","response":"absent","rt":483.30000019073,"correct":true,"confidence":-1},{"trial_n":18,"min":64,"max":191,"target":"present","response":"present","rt":755.5,"correct":true,"confidence":-1},{"trial_n":19,"min":72,"max":183,"target":"absent","response":"absent","rt":449.20000004768,"correct":true,"confidence":-1},{"trial_n":20,"min":72,"max":183,"target":"present","response":"absent","rt":495.20000004768,"correct":false,"confidence":-1},{"trial_n":21,"min":68,"max":187,"target":"present","response":"present","rt":765.29999995232,"correct":true,"confidence":5},{"trial_n":22,"min":68,"max":187,"target":"present","response":"present","rt":1578.2999999523,"correct":true,"confidence":3},{"trial_n":23,"min":72,"max":183,"target":"absent","response":"absent","rt":781.59999990463,"correct":true,"confidence":5},{"trial_n":24,"min":72,"max":183,"target":"absent","response":"absent","rt":1904.1000001431,"correct":true,"confidence":5},{"trial_n":25,"min":76,"max":179,"target":"present","response":"present","rt":1041.3000001907,"correct":true,"confidence":3},{"trial_n":26,"min":76,"max":179,"target":"present","response":"present","rt":1243.9000000954,"correct":true,"confidence":3},{"trial_n":27,"min":80,"max":175,"target":"absent","response":"absent","rt":519,"correct":true,"confidence":4},{"trial_n":28,"min":80,"max":175,"target":"present","response":"absent","rt":3029.5999999046,"correct":false,"confidence":3},{"trial_n":29,"min":76,"max":179,"target":"absent","response":"present","rt":5022.0999999046,"correct":false,"confidence":3},{"trial_n":30,"min":72,"max":183,"target":"present","response":"present","rt":969.69999980927,"correct":true,"confidence":4},{"trial_n":31,"min":72,"max":183,"target":"absent","response":"absent","rt":661.70000004768,"correct":true,"confidence":4},{"trial_n":32,"min":74,"max":181,"target":"absent","response":"absent","rt":2217.9000000954,"correct":true,"confidence":4},{"trial_n":33,"min":74,"max":181,"target":"present","response":"present","rt":639.29999995232,"correct":true,"confidence":3},{"trial_n":34,"min":76,"max":179,"target":"absent","response":"absent","rt":1177.4000000954,"correct":true,"confidence":3},{"trial_n":35,"min":76,"max":179,"target":"present","response":"present","rt":663.70000004768,"correct":true,"confidence":4},{"trial_n":36,"min":78,"max":177,"target":"absent","response":"absent","rt":1271.5999999046,"correct":true,"confidence":3},{"trial_n":37,"min":78,"max":177,"target":"present","response":"present","rt":1111.2999999523,"correct":true,"confidence":4},{"trial_n":38,"min":80,"max":175,"target":"present","response":"present","rt":727.5,"correct":true,"confidence":4},{"trial_n":39,"min":80,"max":175,"target":"absent","response":"absent","rt":1057.7000000477,"correct":true,"confidence":4},{"trial_n":40,"min":82,"max":173,"target":"absent","response":"absent","rt":1281.2999999523,"correct":true,"confidence":5},{"trial_n":41,"min":82,"max":173,"target":"absent","response":"absent","rt":805.10000014305,"correct":true,"confidence":4},{"trial_n":42,"min":83,"max":172,"target":"absent","response":"absent","rt":299.79999995232,"correct":true,"confidence":4},{"trial_n":43,"min":83,"max":172,"target":"absent","response":"absent","rt":2011.2000000477,"correct":true,"confidence":3},{"trial_n":44,"min":84,"max":171,"target":"present","response":"present","rt":714.89999985695,"correct":true,"confidence":4},{"trial_n":45,"min":84,"max":171,"target":"absent","response":"absent","rt":2127.2999999523,"correct":true,"confidence":3},{"trial_n":46,"min":85,"max":170,"target":"absent","response":"present","rt":2017.7999999523,"correct":false,"confidence":2},{"trial_n":47,"min":84,"max":171,"target":"present","response":"present","rt":1548.5,"correct":true,"confidence":3},{"trial_n":48,"min":84,"max":171,"target":"absent","response":"absent","rt":1890.2999999523,"correct":true,"confidence":3},{"trial_n":49,"min":85,"max":170,"target":"present","response":"present","rt":692.29999995232,"correct":true,"confidence":3},{"trial_n":50,"min":85,"max":170,"target":"absent","response":"absent","rt":731.39999985695,"correct":true,"confidence":4},{"trial_n":51,"min":86,"max":169,"target":"absent","response":"absent","rt":540.90000009537,"correct":true,"confidence":4},{"trial_n":52,"min":86,"max":169,"target":"present","response":"present","rt":1744.7999999523,"correct":true,"confidence":3},{"trial_n":53,"min":87,"max":168,"target":"absent","response":"absent","rt":5400.5,"correct":true,"confidence":3},{"trial_n":54,"min":87,"max":168,"target":"present","response":"present","rt":584.89999985695,"correct":true,"confidence":4},{"trial_n":55,"min":88,"max":167,"target":"present","response":"present","rt":719,"correct":true,"confidence":5},{"trial_n":56,"min":88,"max":167,"target":"absent","response":"absent","rt":487.59999990463,"correct":true,"confidence":4},{"trial_n":57,"min":89,"max":166,"target":"present","response":"present","rt":622.29999995232,"correct":true,"confidence":5},{"trial_n":58,"min":89,"max":166,"target":"present","response":"present","rt":1706,"correct":true,"confidence":3},{"trial_n":59,"min":90,"max":165,"target":"absent","response":"present","rt":3074.0999999046,"correct":false,"confidence":3},{"trial_n":60,"min":89,"max":166,"target":"present","response":"absent","rt":3105.3000001907,"correct":false,"confidence":3},{"trial_n":61,"min":88,"max":167,"target":"absent","response":"absent","rt":640.5,"correct":true,"confidence":3},{"trial_n":62,"min":88,"max":167,"target":"present","response":"absent","rt":637.40000009537,"correct":false,"confidence":4},{"trial_n":63,"min":87,"max":168,"target":"present","response":"present","rt":592.59999990463,"correct":true,"confidence":4},{"trial_n":64,"min":87,"max":168,"target":"absent","response":"absent","rt":1218.8999998569,"correct":true,"confidence":4},{"trial_n":65,"min":88,"max":167,"target":"present","response":"present","rt":448.09999990463,"correct":true,"confidence":5},{"trial_n":66,"min":88,"max":167,"target":"absent","response":"absent","rt":1490.5,"correct":true,"confidence":3},{"trial_n":67,"min":89,"max":166,"target":"present","response":"absent","rt":888.09999990463,"correct":false,"confidence":3},{"trial_n":68,"min":88,"max":167,"target":"present","response":"present","rt":2339.8000001907,"correct":true,"confidence":2},{"trial_n":69,"min":88,"max":167,"target":"absent","response":"absent","rt":651.5,"correct":true,"confidence":3},{"trial_n":70,"min":89,"max":166,"target":"absent","response":"absent","rt":4052.5,"correct":true,"confidence":3},{"trial_n":71,"min":41,"max":214,"target":"present","response":"present","rt":1403.9000000954,"correct":true,"confidence":-1},{"trial_n":72,"min":41,"max":214,"target":"present","response":"present","rt":493.10000014305,"correct":true,"confidence":-1},{"trial_n":73,"min":57,"max":198,"target":"absent","response":"absent","rt":1112.4000000954,"correct":true,"confidence":-1},{"trial_n":74,"min":57,"max":198,"target":"absent","response":"absent","rt":545.79999995232,"correct":true,"confidence":-1},{"trial_n":75,"min":73,"max":182,"target":"present","response":"present","rt":413.29999995232,"correct":true,"confidence":-1},{"trial_n":76,"min":73,"max":182,"target":"present","response":"present","rt":432.29999995232,"correct":true,"confidence":-1},{"trial_n":77,"min":89,"max":166,"target":"present","response":"present","rt":846.80000019073,"correct":true,"confidence":-1},{"trial_n":78,"min":89,"max":166,"target":"present","response":"present","rt":710.39999985695,"correct":true,"confidence":-1},{"trial_n":79,"min":105,"max":150,"target":"present","response":"present","rt":701.09999990463,"correct":true,"confidence":-1},{"trial_n":80,"min":105,"max":150,"target":"present","response":"present","rt":530.5,"correct":true,"confidence":-1},{"trial_n":81,"min":113,"max":142,"target":"absent","response":"present","rt":1426,"correct":false,"confidence":-1},{"trial_n":82,"min":105,"max":150,"target":"absent","response":"present","rt":903.59999990463,"correct":false,"confidence":-1},{"trial_n":83,"min":97,"max":158,"target":"present","response":"absent","rt":417.90000009537,"correct":false,"confidence":-1},{"trial_n":84,"min":89,"max":166,"target":"absent","response":"present","rt":587,"correct":false,"confidence":-1},{"trial_n":85,"min":81,"max":174,"target":"present","response":"absent","rt":470,"correct":false,"confidence":-1},{"trial_n":86,"min":73,"max":182,"target":"absent","response":"absent","rt":1510.7000000477,"correct":true,"confidence":-1},{"trial_n":87,"min":73,"max":182,"target":"present","response":"present","rt":639,"correct":true,"confidence":-1},{"trial_n":88,"min":81,"max":174,"target":"present","response":"absent","rt":1347.3999998569,"correct":false,"confidence":-1},{"trial_n":89,"min":73,"max":182,"target":"absent","response":"present","rt":657.69999980927,"correct":false,"confidence":-1},{"trial_n":90,"min":65,"max":190,"target":"absent","response":"absent","rt":673,"correct":true,"confidence":-1},{"trial_n":91,"min":65,"max":190,"target":"present","response":"present","rt":439.40000009537,"correct":true,"confidence":5},{"trial_n":92,"min":69,"max":186,"target":"absent","response":"absent","rt":979.29999995232,"correct":true,"confidence":4},{"trial_n":93,"min":69,"max":186,"target":"absent","response":"absent","rt":1011.7999999523,"correct":true,"confidence":5},{"trial_n":94,"min":73,"max":182,"target":"present","response":"present","rt":797.10000014305,"correct":true,"confidence":3},{"trial_n":95,"min":73,"max":182,"target":"absent","response":"present","rt":1083.5,"correct":false,"confidence":3},{"trial_n":96,"min":69,"max":186,"target":"present","response":"present","rt":352.5,"correct":true,"confidence":5},{"trial_n":97,"min":69,"max":186,"target":"absent","response":"absent","rt":643.5,"correct":true,"confidence":5},{"trial_n":98,"min":73,"max":182,"target":"present","response":"present","rt":286.19999980927,"correct":true,"confidence":5},{"trial_n":99,"min":73,"max":182,"target":"present","response":"present","rt":446.90000009537,"correct":true,"confidence":5},{"trial_n":100,"min":77,"max":178,"target":"absent","response":"absent","rt":2649.5999999046,"correct":true,"confidence":3},{"trial_n":101,"min":77,"max":178,"target":"present","response":"present","rt":727.5,"correct":true,"confidence":4},{"trial_n":102,"min":79,"max":176,"target":"absent","response":"present","rt":2420.7000000477,"correct":false,"confidence":2},{"trial_n":103,"min":77,"max":178,"target":"present","response":"present","rt":715.69999980927,"correct":true,"confidence":4},{"trial_n":104,"min":77,"max":178,"target":"present","response":"present","rt":267.20000004768,"correct":true,"confidence":5},{"trial_n":105,"min":79,"max":176,"target":"present","response":"present","rt":317.70000004768,"correct":true,"confidence":5},{"trial_n":106,"min":79,"max":176,"target":"present","response":"present","rt":225,"correct":true,"confidence":5},{"trial_n":107,"min":81,"max":174,"target":"absent","response":"absent","rt":763.09999990463,"correct":true,"confidence":4},{"trial_n":108,"min":81,"max":174,"target":"present","response":"present","rt":575.5,"correct":true,"confidence":4},{"trial_n":109,"min":83,"max":172,"target":"absent","response":"absent","rt":897,"correct":true,"confidence":4},{"trial_n":110,"min":83,"max":172,"target":"absent","response":"absent","rt":1275,"correct":true,"confidence":3},{"trial_n":111,"min":84,"max":171,"target":"absent","response":"present","rt":1191.7999999523,"correct":false,"confidence":3},{"trial_n":112,"min":83,"max":172,"target":"absent","response":"present","rt":2342.0999999046,"correct":false,"confidence":2},{"trial_n":113,"min":82,"max":173,"target":"present","response":"present","rt":226.5,"correct":true,"confidence":5},{"trial_n":114,"min":82,"max":173,"target":"absent","response":"present","rt":1272,"correct":false,"confidence":3},{"trial_n":115,"min":81,"max":174,"target":"present","response":"present","rt":910.39999985695,"correct":true,"confidence":3},{"trial_n":116,"min":81,"max":174,"target":"present","response":"present","rt":374.90000009537,"correct":true,"confidence":4},{"trial_n":117,"min":82,"max":173,"target":"present","response":"present","rt":797.10000014305,"correct":true,"confidence":2},{"trial_n":118,"min":82,"max":173,"target":"present","response":"present","rt":717,"correct":true,"confidence":2},{"trial_n":119,"min":83,"max":172,"target":"absent","response":"absent","rt":2415.7000000477,"correct":true,"confidence":1},{"trial_n":120,"min":83,"max":172,"target":"absent","response":"present","rt":2119.8999998569,"correct":false,"confidence":2},{"trial_n":121,"min":82,"max":173,"target":"present","response":"present","rt":276.80000019073,"correct":true,"confidence":5},{"trial_n":122,"min":82,"max":173,"target":"present","response":"present","rt":395.5,"correct":true,"confidence":5},{"trial_n":123,"min":83,"max":172,"target":"absent","response":"absent","rt":3129.1000001431,"correct":true,"confidence":1},{"trial_n":124,"min":83,"max":172,"target":"absent","response":"present","rt":717,"correct":false,"confidence":3},{"trial_n":125,"min":82,"max":173,"target":"absent","response":"present","rt":692.20000004768,"correct":false,"confidence":2},{"trial_n":126,"min":81,"max":174,"target":"absent","response":"present","rt":1856.8999998569,"correct":false,"confidence":1},{"trial_n":127,"min":80,"max":175,"target":"absent","response":"present","rt":862,"correct":false,"confidence":3},{"trial_n":128,"min":79,"max":176,"target":"absent","response":"present","rt":5314.4000000954,"correct":false,"confidence":1},{"trial_n":129,"min":78,"max":177,"target":"present","response":"present","rt":267.09999990463,"correct":true,"confidence":3},{"trial_n":130,"min":78,"max":177,"target":"present","response":"present","rt":623.20000004768,"correct":true,"confidence":3},{"trial_n":131,"min":79,"max":176,"target":"absent","response":"present","rt":962.90000009537,"correct":false,"confidence":3},{"trial_n":132,"min":78,"max":177,"target":"absent","response":"present","rt":908.29999995232,"correct":false,"confidence":3},{"trial_n":133,"min":77,"max":178,"target":"absent","response":"absent","rt":3867.5,"correct":true,"confidence":2},{"trial_n":134,"min":77,"max":178,"target":"present","response":"present","rt":207.5,"correct":true,"confidence":4},{"trial_n":135,"min":78,"max":177,"target":"absent","response":"present","rt":2374.2999999523,"correct":false,"confidence":2},{"trial_n":136,"min":77,"max":178,"target":"present","response":"present","rt":259.10000014305,"correct":true,"confidence":5},{"trial_n":137,"min":77,"max":178,"target":"present","response":"present","rt":1633.2999999523,"correct":true,"confidence":5},{"trial_n":138,"min":78,"max":177,"target":"absent","response":"absent","rt":803.20000004768,"correct":true,"confidence":3},{"trial_n":139,"min":78,"max":177,"target":"present","response":"present","rt":243.09999990463,"correct":true,"confidence":5},{"trial_n":140,"min":79,"max":176,"target":"absent","response":"absent","rt":752.5,"correct":true,"confidence":3}]