[{"trial_n":1,"span":8,"encoder":"21696753","distractor":"21686753","target":"present","response":"present","rt":"8262.6000000238","correct":true,"confidence":-1},{"trial_n":2,"span":8,"encoder":"30885580","distractor":"30885587","target":"present","response":"present","rt":"1405.3999999762","correct":true,"confidence":-1},{"trial_n":3,"span":10,"encoder":"7315383480","distractor":"7315383488","target":"absent","response":"absent","rt":"848.59999996424","correct":true,"confidence":-1},{"trial_n":4,"span":10,"encoder":"8992132470","distractor":"8492132470","target":"absent","response":"present","rt":"1406.1999999881","correct":false,"confidence":-1},{"trial_n":5,"span":8,"encoder":"22488804","distractor":"22488104","target":"present","response":"absent","rt":"629.19999998808","correct":false,"confidence":-1},{"trial_n":6,"span":6,"encoder":"606918","distractor":"666918","target":"absent","response":"absent","rt":"441","correct":true,"confidence":-1},{"trial_n":7,"span":6,"encoder":"430991","distractor":"730991","target":"absent","response":"present","rt":"1326.5","correct":false,"confidence":-1},{"trial_n":8,"span":4,"encoder":"5308","distractor":"5309","target":"present","response":"present","rt":"1191.5","correct":true,"confidence":-1},{"trial_n":9,"span":4,"encoder":"6495","distractor":"6795","target":"absent","response":"present","rt":"989.80000001192","correct":false,"confidence":-1},{"trial_n":10,"span":2,"encoder":"20","distractor":"23","target":"present","response":"present","rt":"798.5","correct":true,"confidence":-1},{"trial_n":11,"span":2,"encoder":"20","distractor":"60","target":"absent","response":"absent","rt":"901.40000003576","correct":true,"confidence":-1},{"trial_n":12,"span":3,"encoder":"182","distractor":"382","target":"present","response":"absent","rt":"899.19999998808","correct":false,"confidence":-1},{"trial_n":13,"span":2,"encoder":"34","distractor":"74","target":"absent","response":"present","rt":"721.80000001192","correct":false,"confidence":-1},{"trial_n":14,"span":2,"encoder":"21","distractor":"41","target":"absent","response":"absent","rt":"776","correct":true,"confidence":-1},{"trial_n":15,"span":2,"encoder":"90","distractor":"97","target":"present","response":"present","rt":"830.80000001192","correct":true,"confidence":-1},{"trial_n":16,"span":3,"encoder":"512","distractor":"542","target":"present","response":"present","rt":"1328.7999999523","correct":true,"confidence":-1},{"trial_n":17,"span":3,"encoder":"499","distractor":"495","target":"present","response":"present","rt":"3397.5","correct":true,"confidence":-1},{"trial_n":18,"span":4,"encoder":"3269","distractor":"9269","target":"present","response":"present","rt":"1187.1000000238","correct":true,"confidence":-1},{"trial_n":19,"span":4,"encoder":"3193","distractor":"3198","target":"present","response":"present","rt":"1209.8000000119","correct":true,"confidence":-1},{"trial_n":20,"span":5,"encoder":"38286","distractor":"38226","target":"absent","response":"present","rt":"1216.6000000238","correct":false,"confidence":-1},{"trial_n":21,"span":4,"encoder":"6953","distractor":"6951","target":"present","response":"present","rt":"701.10000002384","correct":true,"confidence":1},{"trial_n":22,"span":4,"encoder":"2732","distractor":"0732","target":"present","response":"present","rt":"625.20000004768","correct":true,"confidence":1},{"trial_n":23,"span":5,"encoder":"16964","distractor":"16944","target":"absent","response":"absent","rt":"1144.1000000238","correct":true,"confidence":1},{"trial_n":24,"span":5,"encoder":"30052","distractor":"30552","target":"present","response":"present","rt":"1038","correct":true,"confidence":1},{"trial_n":25,"span":6,"encoder":"515771","distractor":"515271","target":"present","response":"present","rt":"1166.6999999881","correct":true,"confidence":1},{"trial_n":26,"span":6,"encoder":"848552","distractor":"548552","target":"present","response":"present","rt":"543.79999995232","correct":true,"confidence":1},{"trial_n":27,"span":7,"encoder":"0526357","distractor":"0026357","target":"present","response":"absent","rt":"1116.0999999642","correct":false,"confidence":1},{"trial_n":28,"span":6,"encoder":"279229","distractor":"279929","target":"absent","response":"present","rt":"558.59999996424","correct":false,"confidence":1},{"trial_n":29,"span":5,"encoder":"45560","distractor":"43560","target":"absent","response":"absent","rt":"2455.1999999881","correct":true,"confidence":1},{"trial_n":30,"span":5,"encoder":"00327","distractor":"00325","target":"present","response":"present","rt":"728.30000001192","correct":true,"confidence":1},{"trial_n":31,"span":6,"encoder":"320455","distractor":"320465","target":"absent","response":"absent","rt":"1739.6999999881","correct":true,"confidence":1},{"trial_n":32,"span":6,"encoder":"926219","distractor":"906219","target":"present","response":"absent","rt":"707.10000002384","correct":false,"confidence":1},{"trial_n":33,"span":5,"encoder":"51484","distractor":"81484","target":"absent","response":"absent","rt":"2769.9000000358","correct":true,"confidence":1},{"trial_n":34,"span":5,"encoder":"34802","distractor":"54802","target":"present","response":"present","rt":"3473","correct":true,"confidence":1},{"trial_n":35,"span":6,"encoder":"825829","distractor":"925829","target":"absent","response":"absent","rt":"459","correct":true,"confidence":1},{"trial_n":36,"span":6,"encoder":"662257","distractor":"662297","target":"present","response":"present","rt":"463.89999997616","correct":true,"confidence":1},{"trial_n":37,"span":7,"encoder":"0278317","distractor":"0275317","target":"absent","response":"present","rt":"679.19999998808","correct":false,"confidence":1},{"trial_n":38,"span":6,"encoder":"966702","distractor":"986702","target":"absent","response":"absent","rt":"1484.2000000477","correct":true,"confidence":1},{"trial_n":39,"span":6,"encoder":"118230","distractor":"113230","target":"absent","response":"absent","rt":"1637.3000000119","correct":true,"confidence":1},{"trial_n":40,"span":7,"encoder":"7571177","distractor":"0571177","target":"present","response":"present","rt":"1904.7000000477","correct":true,"confidence":1},{"trial_n":41,"span":7,"encoder":"8776553","distractor":"9776553","target":"present","response":"absent","rt":"372.30000001192","correct":false,"confidence":1},{"trial_n":42,"span":6,"encoder":"525750","distractor":"525753","target":"absent","response":"present","rt":"444.5","correct":false,"confidence":1},{"trial_n":43,"span":5,"encoder":"19496","distractor":"19796","target":"present","response":"absent","rt":"372.69999998808","correct":false,"confidence":1},{"trial_n":44,"span":4,"encoder":"1762","distractor":"1760","target":"absent","response":"present","rt":"569.39999997616","correct":false,"confidence":1},{"trial_n":45,"span":3,"encoder":"371","distractor":"271","target":"absent","response":"absent","rt":"381.40000003576","correct":true,"confidence":1},{"trial_n":46,"span":3,"encoder":"449","distractor":"440","target":"absent","response":"absent","rt":"931.19999998808","correct":true,"confidence":1},{"trial_n":47,"span":4,"encoder":"2818","distractor":"2118","target":"present","response":"present","rt":"740.60000002384","correct":true,"confidence":1},{"trial_n":48,"span":4,"encoder":"6301","distractor":"6501","target":"absent","response":"absent","rt":"1322","correct":true,"confidence":1},{"trial_n":49,"span":5,"encoder":"49515","distractor":"49535","target":"absent","response":"absent","rt":"1146.3999999762","correct":true,"confidence":1},{"trial_n":50,"span":5,"encoder":"80294","distractor":"20294","target":"absent","response":"present","rt":"670.5","correct":false,"confidence":1},{"trial_n":51,"span":4,"encoder":"3044","distractor":"1044","target":"absent","response":"absent","rt":"426.30000001192","correct":true,"confidence":1},{"trial_n":52,"span":4,"encoder":"6161","distractor":"6151","target":"present","response":"present","rt":"595.69999998808","correct":true,"confidence":1},{"trial_n":53,"span":5,"encoder":"25375","distractor":"25175","target":"absent","response":"absent","rt":"1332.0999999642","correct":true,"confidence":1},{"trial_n":54,"span":5,"encoder":"80343","distractor":"80383","target":"present","response":"present","rt":"1096","correct":true,"confidence":1},{"trial_n":55,"span":6,"encoder":"360098","distractor":"360048","target":"present","response":"present","rt":"861.5","correct":true,"confidence":1},{"trial_n":56,"span":6,"encoder":"478820","distractor":"458820","target":"present","response":"absent","rt":"2382.8000000119","correct":false,"confidence":1},{"trial_n":57,"span":5,"encoder":"14868","distractor":"14863","target":"absent","response":"present","rt":"1053.7999999523","correct":false,"confidence":1},{"trial_n":58,"span":4,"encoder":"6454","distractor":"6854","target":"absent","response":"present","rt":"889.70000004768","correct":false,"confidence":1},{"trial_n":59,"span":3,"encoder":"258","distractor":"958","target":"present","response":"present","rt":"1521","correct":true,"confidence":1},{"trial_n":60,"span":3,"encoder":"265","distractor":"275","target":"absent","response":"present","rt":"661.89999997616","correct":false,"confidence":1},{"trial_n":61,"span":2,"encoder":"24","distractor":"74","target":"present","response":"present","rt":"670.19999998808","correct":true,"confidence":1},{"trial_n":62,"span":2,"encoder":"92","distractor":"72","target":"absent","response":"absent","rt":"956.30000001192","correct":true,"confidence":1},{"trial_n":63,"span":3,"encoder":"323","distractor":"325","target":"absent","response":"absent","rt":"1413.8999999762","correct":true,"confidence":1},{"trial_n":64,"span":3,"encoder":"364","distractor":"324","target":"present","response":"present","rt":"876.80000001192","correct":true,"confidence":1},{"trial_n":65,"span":4,"encoder":"1423","distractor":"1493","target":"present","response":"present","rt":"936.20000004768","correct":true,"confidence":1},{"trial_n":66,"span":4,"encoder":"3818","distractor":"3218","target":"present","response":"present","rt":"3438.1000000238","correct":true,"confidence":1},{"trial_n":67,"span":5,"encoder":"71938","distractor":"61938","target":"absent","response":"absent","rt":"896.80000001192","correct":true,"confidence":1},{"trial_n":68,"span":5,"encoder":"86493","distractor":"86893","target":"present","response":"present","rt":"1765.6999999881","correct":true,"confidence":1},{"trial_n":69,"span":6,"encoder":"412103","distractor":"442103","target":"present","response":"present","rt":"1690.1000000238","correct":true,"confidence":1},{"trial_n":70,"span":6,"encoder":"441547","distractor":"341547","target":"absent","response":"absent","rt":"2020.1000000238","correct":true,"confidence":1},{"trial_n":71,"span":8,"encoder":"36035015","distractor":"16035015","target":"present","response":"present","rt":"6887.8999999762","correct":true,"confidence":-1},{"trial_n":72,"span":8,"encoder":"80918953","distractor":"80917953","target":"present","response":"absent","rt":"1273.1999999881","correct":false,"confidence":-1},{"trial_n":73,"span":7,"encoder":"9644639","distractor":"1644639","target":"absent","response":"present","rt":"2331.3999999762","correct":false,"confidence":-1},{"trial_n":74,"span":6,"encoder":"240648","distractor":"210648","target":"absent","response":"present","rt":"473","correct":false,"confidence":-1},{"trial_n":75,"span":5,"encoder":"55131","distractor":"59131","target":"present","response":"absent","rt":"643.09999996424","correct":false,"confidence":-1},{"trial_n":76,"span":4,"encoder":"9568","distractor":"9569","target":"absent","response":"absent","rt":"252.69999998808","correct":true,"confidence":-1},{"trial_n":77,"span":4,"encoder":"3901","distractor":"3941","target":"present","response":"present","rt":"1195.9000000358","correct":true,"confidence":-1},{"trial_n":78,"span":5,"encoder":"84674","distractor":"84974","target":"absent","response":"present","rt":"1751.1999999881","correct":false,"confidence":-1},{"trial_n":79,"span":4,"encoder":"1877","distractor":"0877","target":"absent","response":"absent","rt":"1579.2000000477","correct":true,"confidence":-1},{"trial_n":80,"span":4,"encoder":"0757","distractor":"0657","target":"present","response":"present","rt":"2564.5","correct":true,"confidence":-1},{"trial_n":81,"span":5,"encoder":"98038","distractor":"58038","target":"present","response":"present","rt":"1176.2999999523","correct":true,"confidence":-1},{"trial_n":82,"span":5,"encoder":"62597","distractor":"62797","target":"present","response":"present","rt":"1392.6000000238","correct":true,"confidence":-1},{"trial_n":83,"span":6,"encoder":"687644","distractor":"787644","target":"absent","response":"present","rt":"1000.1000000238","correct":false,"confidence":-1},{"trial_n":84,"span":5,"encoder":"96406","distractor":"98406","target":"present","response":"present","rt":"1404.8999999762","correct":true,"confidence":-1},{"trial_n":85,"span":5,"encoder":"74422","distractor":"44422","target":"absent","response":"absent","rt":"2378","correct":true,"confidence":-1},{"trial_n":86,"span":6,"encoder":"167964","distractor":"166964","target":"present","response":"present","rt":"1641.8999999762","correct":true,"confidence":-1},{"trial_n":87,"span":6,"encoder":"817430","distractor":"819430","target":"absent","response":"present","rt":"232.60000002384","correct":false,"confidence":-1},{"trial_n":88,"span":5,"encoder":"87619","distractor":"87609","target":"present","response":"present","rt":"1521.1999999881","correct":true,"confidence":-1},{"trial_n":89,"span":5,"encoder":"70977","distractor":"70777","target":"present","response":"present","rt":"1977.6999999881","correct":true,"confidence":-1},{"trial_n":90,"span":6,"encoder":"419048","distractor":"419044","target":"absent","response":"absent","rt":"1910.1999999881","correct":true,"confidence":-1},{"trial_n":91,"span":6,"encoder":"852902","distractor":"852992","target":"present","response":"present","rt":"1922.6999999881","correct":true,"confidence":1},{"trial_n":92,"span":7,"encoder":"2043991","distractor":"2043091","target":"absent","response":"absent","rt":"924.60000002384","correct":true,"confidence":1},{"trial_n":93,"span":7,"encoder":"0488425","distractor":"6488425","target":"absent","response":"absent","rt":"420.19999998808","correct":true,"confidence":1},{"trial_n":94,"span":8,"encoder":"74876458","distractor":"14876458","target":"absent","response":"present","rt":"2385.3999999762","correct":false,"confidence":1},{"trial_n":95,"span":7,"encoder":"9091541","distractor":"4091541","target":"present","response":"absent","rt":"2047.6000000238","correct":false,"confidence":1},{"trial_n":96,"span":6,"encoder":"043841","distractor":"043821","target":"absent","response":"present","rt":"4147.5","correct":false,"confidence":1},{"trial_n":97,"span":5,"encoder":"02241","distractor":"02221","target":"present","response":"present","rt":"1929.5","correct":true,"confidence":1},{"trial_n":98,"span":5,"encoder":"28825","distractor":"21825","target":"absent","response":"absent","rt":"2156","correct":true,"confidence":1},{"trial_n":99,"span":6,"encoder":"239627","distractor":"239647","target":"absent","response":"absent","rt":"4881.6999999881","correct":true,"confidence":1},{"trial_n":100,"span":6,"encoder":"801032","distractor":"802032","target":"absent","response":"present","rt":"2284.1000000238","correct":false,"confidence":1},{"trial_n":101,"span":5,"encoder":"18169","distractor":"58169","target":"absent","response":"absent","rt":"4443.3000000119","correct":true,"confidence":1},{"trial_n":102,"span":5,"encoder":"64515","distractor":"64518","target":"present","response":"present","rt":"1047.8000000119","correct":true,"confidence":1},{"trial_n":103,"span":6,"encoder":"697597","distractor":"797597","target":"absent","response":"absent","rt":"985.10000002384","correct":true,"confidence":1},{"trial_n":104,"span":6,"encoder":"515644","distractor":"515344","target":"absent","response":"absent","rt":"1080.5","correct":true,"confidence":1},{"trial_n":105,"span":7,"encoder":"0262495","distractor":"0264495","target":"present","response":"absent","rt":"2270.3000000119","correct":false,"confidence":1},{"trial_n":106,"span":6,"encoder":"364732","distractor":"364738","target":"present","response":"present","rt":"2369","correct":true,"confidence":1},{"trial_n":107,"span":6,"encoder":"990209","distractor":"990201","target":"absent","response":"present","rt":"4567.5","correct":false,"confidence":1},{"trial_n":108,"span":5,"encoder":"73991","distractor":"73911","target":"absent","response":"absent","rt":"369.29999995232","correct":true,"confidence":1},{"trial_n":109,"span":5,"encoder":"67207","distractor":"69207","target":"present","response":"absent","rt":"419","correct":false,"confidence":1},{"trial_n":110,"span":4,"encoder":"2097","distractor":"2087","target":"present","response":"absent","rt":"7419.8999999762","correct":false,"confidence":1},{"trial_n":111,"span":3,"encoder":"147","distractor":"167","target":"absent","response":"present","rt":"1174.1999999881","correct":false,"confidence":1},{"trial_n":112,"span":2,"encoder":"22","distractor":"28","target":"present","response":"absent","rt":"1285.5","correct":false,"confidence":1},{"trial_n":113,"span":2,"encoder":"67","distractor":"57","target":"present","response":"present","rt":"752.30000001192","correct":true,"confidence":1},{"trial_n":114,"span":2,"encoder":"61","distractor":"63","target":"present","response":"absent","rt":"1142.6999999881","correct":false,"confidence":1},{"trial_n":115,"span":2,"encoder":"14","distractor":"84","target":"present","response":"absent","rt":"607.30000001192","correct":false,"confidence":1},{"trial_n":116,"span":2,"encoder":"43","distractor":"46","target":"present","response":"absent","rt":"642.59999996424","correct":false,"confidence":1},{"trial_n":117,"span":2,"encoder":"70","distractor":"75","target":"present","response":"present","rt":"921.5","correct":true,"confidence":1},{"trial_n":118,"span":2,"encoder":"16","distractor":"26","target":"present","response":"present","rt":"1469.6999999881","correct":true,"confidence":2},{"trial_n":119,"span":3,"encoder":"539","distractor":"530","target":"present","response":"present","rt":"1001.3999999762","correct":true,"confidence":1},{"trial_n":120,"span":3,"encoder":"127","distractor":"167","target":"absent","response":"absent","rt":"728.89999997616","correct":true,"confidence":1},{"trial_n":121,"span":4,"encoder":"5754","distractor":"5954","target":"absent","response":"present","rt":"1277.9000000358","correct":false,"confidence":1},{"trial_n":122,"span":3,"encoder":"689","distractor":"681","target":"present","response":"present","rt":"1117.8999999762","correct":true,"confidence":1},{"trial_n":123,"span":3,"encoder":"488","distractor":"448","target":"absent","response":"absent","rt":"1467.5","correct":true,"confidence":1},{"trial_n":124,"span":4,"encoder":"0647","distractor":"0687","target":"absent","response":"present","rt":"1356.5","correct":false,"confidence":1},{"trial_n":125,"span":3,"encoder":"128","distractor":"168","target":"present","response":"present","rt":"771","correct":true,"confidence":1},{"trial_n":126,"span":3,"encoder":"148","distractor":"142","target":"absent","response":"absent","rt":"728.89999997616","correct":true,"confidence":1},{"trial_n":127,"span":4,"encoder":"0977","distractor":"0177","target":"present","response":"present","rt":"1178.5","correct":true,"confidence":1},{"trial_n":128,"span":4,"encoder":"3906","distractor":"9906","target":"absent","response":"absent","rt":"1373.3000000119","correct":true,"confidence":1},{"trial_n":129,"span":5,"encoder":"37803","distractor":"39803","target":"absent","response":"absent","rt":"1296.1000000238","correct":true,"confidence":1},{"trial_n":130,"span":5,"encoder":"45734","distractor":"44734","target":"present","response":"present","rt":"1137.3999999762","correct":true,"confidence":1},{"trial_n":131,"span":6,"encoder":"644952","distractor":"644972","target":"absent","response":"absent","rt":"1601.6999999881","correct":true,"confidence":1},{"trial_n":132,"span":6,"encoder":"938703","distractor":"938702","target":"present","response":"absent","rt":"2509","correct":false,"confidence":1},{"trial_n":133,"span":5,"encoder":"60488","distractor":"60485","target":"absent","response":"absent","rt":"913.19999998808","correct":true,"confidence":1},{"trial_n":134,"span":5,"encoder":"92883","distractor":"82883","target":"absent","response":"absent","rt":"1239.6000000238","correct":true,"confidence":1},{"trial_n":135,"span":6,"encoder":"267167","distractor":"267157","target":"present","response":"present","rt":"1085.3999999762","correct":true,"confidence":1},{"trial_n":136,"span":6,"encoder":"631718","distractor":"231718","target":"present","response":"present","rt":"2041.6999999881","correct":true,"confidence":1},{"trial_n":137,"span":7,"encoder":"5918111","distractor":"5618111","target":"present","response":"present","rt":"3479","correct":true,"confidence":1},{"trial_n":138,"span":7,"encoder":"4135904","distractor":"4139904","target":"absent","response":"absent","rt":"3248.8000000119","correct":true,"confidence":1},{"trial_n":139,"span":8,"encoder":"20900394","distractor":"50900394","target":"absent","response":"absent","rt":"1931.8000000119","correct":true,"confidence":1},{"trial_n":140,"span":8,"encoder":"46987425","distractor":"45987425","target":"present","response":"present","rt":"868.60000002384","correct":true,"confidence":1}]