[{"trial_n":1,"n_dots":4.25,"target":"right","response":"left","rt":5955.7999999523,"correct":false,"confidence":-1},{"trial_n":2,"n_dots":4.25,"target":"right","response":"right","rt":3296.8000000119,"correct":true,"confidence":-1},{"trial_n":3,"n_dots":4.25,"target":"right","response":"right","rt":609.59999996424,"correct":true,"confidence":-1},{"trial_n":4,"n_dots":3.85,"target":"right","response":"right","rt":556.30000001192,"correct":true,"confidence":-1},{"trial_n":5,"n_dots":3.85,"target":"right","response":"right","rt":438.19999998808,"correct":true,"confidence":-1},{"trial_n":6,"n_dots":3.45,"target":"left","response":"right","rt":308.29999995232,"correct":false,"confidence":-1},{"trial_n":7,"n_dots":3.85,"target":"right","response":"left","rt":359.5,"correct":false,"confidence":-1},{"trial_n":8,"n_dots":4.05,"target":"left","response":"right","rt":372.80000001192,"correct":false,"confidence":-1},{"trial_n":9,"n_dots":4.25,"target":"left","response":"left","rt":285.5,"correct":true,"confidence":-1},{"trial_n":10,"n_dots":4.25,"target":"left","response":"left","rt":310.5,"correct":true,"confidence":-1},{"trial_n":11,"n_dots":4.05,"target":"left","response":"left","rt":519.10000002384,"correct":true,"confidence":-1},{"trial_n":12,"n_dots":4.05,"target":"right","response":"right","rt":260.89999997616,"correct":true,"confidence":-1},{"trial_n":13,"n_dots":3.95,"target":"left","response":"left","rt":364.40000003576,"correct":true,"confidence":-1},{"trial_n":14,"n_dots":3.95,"target":"left","response":"right","rt":610.40000003576,"correct":false,"confidence":-1},{"trial_n":15,"n_dots":4.05,"target":"right","response":"right","rt":282.59999996424,"correct":true,"confidence":-1},{"trial_n":16,"n_dots":4.05,"target":"left","response":"left","rt":253.59999996424,"correct":true,"confidence":-1},{"trial_n":17,"n_dots":3.95,"target":"left","response":"left","rt":353.40000003576,"correct":true,"confidence":-1},{"trial_n":18,"n_dots":3.95,"target":"left","response":"left","rt":610.5,"correct":true,"confidence":-1},{"trial_n":19,"n_dots":3.85,"target":"right","response":"right","rt":526.10000002384,"correct":true,"confidence":-1},{"trial_n":20,"n_dots":3.85,"target":"right","response":"right","rt":397.10000002384,"correct":true,"confidence":-1},{"trial_n":21,"n_dots":3.75,"target":"left","response":"left","rt":194.39999997616,"correct":true,"confidence":1},{"trial_n":22,"n_dots":3.75,"target":"right","response":"right","rt":285.79999995232,"correct":true,"confidence":1},{"trial_n":23,"n_dots":3.65,"target":"left","response":"left","rt":410.5,"correct":true,"confidence":1},{"trial_n":24,"n_dots":3.65,"target":"left","response":"left","rt":483,"correct":true,"confidence":3},{"trial_n":25,"n_dots":3.55,"target":"right","response":"right","rt":134.69999998808,"correct":true,"confidence":1},{"trial_n":26,"n_dots":3.55,"target":"right","response":"left","rt":156,"correct":false,"confidence":1},{"trial_n":27,"n_dots":3.65,"target":"left","response":"left","rt":55.800000011921,"correct":true,"confidence":1},{"trial_n":28,"n_dots":3.65,"target":"left","response":"right","rt":312,"correct":false,"confidence":1},{"trial_n":29,"n_dots":3.75,"target":"right","response":"left","rt":314.30000001192,"correct":false,"confidence":1},{"trial_n":30,"n_dots":3.85,"target":"left","response":"left","rt":279.40000003576,"correct":true,"confidence":1},{"trial_n":31,"n_dots":3.85,"target":"right","response":"left","rt":638.30000001192,"correct":false,"confidence":1},{"trial_n":32,"n_dots":3.95,"target":"left","response":"left","rt":336.69999998808,"correct":true,"confidence":1},{"trial_n":33,"n_dots":3.95,"target":"left","response":"left","rt":434.69999998808,"correct":true,"confidence":1},{"trial_n":34,"n_dots":3.85,"target":"right","response":"right","rt":383.19999998808,"correct":true,"confidence":1},{"trial_n":35,"n_dots":3.85,"target":"left","response":"left","rt":345.09999996424,"correct":true,"confidence":1},{"trial_n":36,"n_dots":3.75,"target":"right","response":"right","rt":307.40000003576,"correct":true,"confidence":1},{"trial_n":37,"n_dots":3.75,"target":"right","response":"right","rt":233.30000001192,"correct":true,"confidence":1},{"trial_n":38,"n_dots":3.65,"target":"right","response":"left","rt":329.09999996424,"correct":false,"confidence":1},{"trial_n":39,"n_dots":3.75,"target":"right","response":"right","rt":441.40000003576,"correct":true,"confidence":1},{"trial_n":40,"n_dots":3.75,"target":"left","response":"left","rt":453.80000001192,"correct":true,"confidence":1},{"trial_n":41,"n_dots":3.65,"target":"right","response":"right","rt":266.19999998808,"correct":true,"confidence":1},{"trial_n":42,"n_dots":3.65,"target":"left","response":"left","rt":421.10000002384,"correct":true,"confidence":1},{"trial_n":43,"n_dots":3.55,"target":"right","response":"right","rt":374.69999998808,"correct":true,"confidence":1},{"trial_n":44,"n_dots":3.55,"target":"left","response":"left","rt":281.19999998808,"correct":true,"confidence":1},{"trial_n":45,"n_dots":3.45,"target":"right","response":"right","rt":410.60000002384,"correct":true,"confidence":1},{"trial_n":46,"n_dots":3.45,"target":"left","response":"left","rt":373.19999998808,"correct":true,"confidence":1},{"trial_n":47,"n_dots":3.35,"target":"right","response":"right","rt":424,"correct":true,"confidence":1},{"trial_n":48,"n_dots":3.35,"target":"right","response":"right","rt":397.39999997616,"correct":true,"confidence":1},{"trial_n":49,"n_dots":3.25,"target":"left","response":"left","rt":415.90000003576,"correct":true,"confidence":1},{"trial_n":50,"n_dots":3.25,"target":"right","response":"left","rt":287.40000003576,"correct":false,"confidence":1},{"trial_n":51,"n_dots":3.35,"target":"left","response":"left","rt":429.89999997616,"correct":true,"confidence":1},{"trial_n":52,"n_dots":3.35,"target":"left","response":"left","rt":534.19999998808,"correct":true,"confidence":1},{"trial_n":53,"n_dots":3.25,"target":"left","response":"right","rt":519.89999997616,"correct":false,"confidence":1},{"trial_n":54,"n_dots":3.35,"target":"right","response":"left","rt":437.40000003576,"correct":false,"confidence":1},{"trial_n":55,"n_dots":3.45,"target":"left","response":"left","rt":524.30000001192,"correct":true,"confidence":1},{"trial_n":56,"n_dots":3.45,"target":"left","response":"right","rt":450,"correct":false,"confidence":1},{"trial_n":57,"n_dots":3.55,"target":"right","response":"left","rt":343.59999996424,"correct":false,"confidence":1},{"trial_n":58,"n_dots":3.65,"target":"left","response":"left","rt":314.79999995232,"correct":true,"confidence":1},{"trial_n":59,"n_dots":3.65,"target":"left","response":"right","rt":260.80000001192,"correct":false,"confidence":1},{"trial_n":60,"n_dots":3.75,"target":"left","response":"left","rt":249,"correct":true,"confidence":1},{"trial_n":61,"n_dots":3.75,"target":"right","response":"right","rt":571,"correct":true,"confidence":1},{"trial_n":62,"n_dots":3.65,"target":"left","response":"left","rt":1307,"correct":true,"confidence":1},{"trial_n":63,"n_dots":3.65,"target":"right","response":"left","rt":320,"correct":false,"confidence":1},{"trial_n":64,"n_dots":3.75,"target":"left","response":"left","rt":407.80000001192,"correct":true,"confidence":1},{"trial_n":65,"n_dots":3.75,"target":"left","response":"left","rt":687.10000002384,"correct":true,"confidence":1},{"trial_n":66,"n_dots":3.65,"target":"right","response":"left","rt":386.5,"correct":false,"confidence":1},{"trial_n":67,"n_dots":3.75,"target":"left","response":"left","rt":326.30000001192,"correct":true,"confidence":1},{"trial_n":68,"n_dots":3.75,"target":"right","response":"left","rt":412.30000001192,"correct":false,"confidence":1},{"trial_n":69,"n_dots":3.85,"target":"left","response":"left","rt":362.5,"correct":true,"confidence":1},{"trial_n":70,"n_dots":3.85,"target":"left","response":"left","rt":271.60000002384,"correct":true,"confidence":1},{"trial_n":71,"n_dots":3.75,"target":"right","response":"right","rt":364.80000001192,"correct":true,"confidence":1},{"trial_n":72,"n_dots":3.75,"target":"left","response":"left","rt":245.30000001192,"correct":true,"confidence":1},{"trial_n":73,"n_dots":3.65,"target":"left","response":"right","rt":292,"correct":false,"confidence":1},{"trial_n":74,"n_dots":3.75,"target":"left","response":"left","rt":322.19999998808,"correct":true,"confidence":1},{"trial_n":75,"n_dots":3.75,"target":"right","response":"right","rt":327.59999996424,"correct":true,"confidence":1},{"trial_n":76,"n_dots":3.65,"target":"right","response":"left","rt":328.29999995232,"correct":false,"confidence":1},{"trial_n":77,"n_dots":3.75,"target":"right","response":"left","rt":320.80000001192,"correct":false,"confidence":1},{"trial_n":78,"n_dots":3.85,"target":"right","response":"right","rt":705.89999997616,"correct":true,"confidence":1},{"trial_n":79,"n_dots":3.85,"target":"right","response":"left","rt":238,"correct":false,"confidence":1},{"trial_n":80,"n_dots":3.95,"target":"right","response":"right","rt":335.09999996424,"correct":true,"confidence":1},{"trial_n":81,"n_dots":3.95,"target":"right","response":"right","rt":335.69999998808,"correct":true,"confidence":1},{"trial_n":82,"n_dots":3.85,"target":"right","response":"right","rt":336,"correct":true,"confidence":1},{"trial_n":83,"n_dots":3.85,"target":"left","response":"left","rt":399.60000002384,"correct":true,"confidence":1},{"trial_n":84,"n_dots":3.75,"target":"left","response":"left","rt":1231.6000000238,"correct":true,"confidence":1},{"trial_n":85,"n_dots":3.75,"target":"right","response":"right","rt":361.5,"correct":true,"confidence":1},{"trial_n":86,"n_dots":3.65,"target":"left","response":"left","rt":313.80000001192,"correct":true,"confidence":1},{"trial_n":87,"n_dots":3.65,"target":"left","response":"left","rt":609.69999998808,"correct":true,"confidence":1},{"trial_n":88,"n_dots":3.55,"target":"left","response":"left","rt":351.39999997616,"correct":true,"confidence":1},{"trial_n":89,"n_dots":3.55,"target":"right","response":"right","rt":338,"correct":true,"confidence":1},{"trial_n":90,"n_dots":3.45,"target":"right","response":"left","rt":277,"correct":false,"confidence":1},{"trial_n":91,"n_dots":3.55,"target":"right","response":"left","rt":272,"correct":false,"confidence":1},{"trial_n":92,"n_dots":3.65,"target":"right","response":"right","rt":325.60000002384,"correct":true,"confidence":1},{"trial_n":93,"n_dots":3.65,"target":"left","response":"left","rt":454.10000002384,"correct":true,"confidence":1},{"trial_n":94,"n_dots":3.55,"target":"right","response":"right","rt":828.30000001192,"correct":true,"confidence":1},{"trial_n":95,"n_dots":3.55,"target":"right","response":"right","rt":642.89999997616,"correct":true,"confidence":1},{"trial_n":96,"n_dots":3.45,"target":"left","response":"left","rt":522.60000002384,"correct":true,"confidence":1},{"trial_n":97,"n_dots":3.45,"target":"left","response":"right","rt":731.39999997616,"correct":false,"confidence":1},{"trial_n":98,"n_dots":3.55,"target":"right","response":"left","rt":623.60000002384,"correct":false,"confidence":1},{"trial_n":99,"n_dots":3.65,"target":"left","response":"left","rt":336,"correct":true,"confidence":1},{"trial_n":100,"n_dots":3.65,"target":"left","response":"left","rt":241.39999997616,"correct":true,"confidence":1},{"trial_n":101,"n_dots":3.55,"target":"right","response":"left","rt":394.70000004768,"correct":false,"confidence":1},{"trial_n":102,"n_dots":3.65,"target":"left","response":"left","rt":2225.5,"correct":true,"confidence":1},{"trial_n":103,"n_dots":3.65,"target":"right","response":"right","rt":337.70000004768,"correct":true,"confidence":1},{"trial_n":104,"n_dots":3.55,"target":"left","response":"left","rt":370.19999998808,"correct":true,"confidence":1},{"trial_n":105,"n_dots":3.55,"target":"right","response":"right","rt":497.5,"correct":true,"confidence":1},{"trial_n":106,"n_dots":3.45,"target":"right","response":"right","rt":455.89999997616,"correct":true,"confidence":1},{"trial_n":107,"n_dots":3.45,"target":"left","response":"left","rt":1842.1000000238,"correct":true,"confidence":1},{"trial_n":108,"n_dots":3.35,"target":"right","response":"right","rt":141.30000001192,"correct":true,"confidence":1},{"trial_n":109,"n_dots":3.35,"target":"right","response":"left","rt":296.40000003576,"correct":false,"confidence":1},{"trial_n":110,"n_dots":3.45,"target":"right","response":"left","rt":374.19999998808,"correct":false,"confidence":1},{"trial_n":111,"n_dots":3.55,"target":"right","response":"left","rt":210,"correct":false,"confidence":1},{"trial_n":112,"n_dots":3.65,"target":"left","response":"left","rt":338.39999997616,"correct":true,"confidence":1},{"trial_n":113,"n_dots":3.65,"target":"left","response":"left","rt":191.30000001192,"correct":true,"confidence":1},{"trial_n":114,"n_dots":3.55,"target":"right","response":"right","rt":287.80000001192,"correct":true,"confidence":1},{"trial_n":115,"n_dots":3.55,"target":"left","response":"left","rt":241.59999996424,"correct":true,"confidence":1},{"trial_n":116,"n_dots":3.45,"target":"right","response":"left","rt":265.40000003576,"correct":false,"confidence":1},{"trial_n":117,"n_dots":3.55,"target":"left","response":"left","rt":342.89999997616,"correct":true,"confidence":1},{"trial_n":118,"n_dots":3.55,"target":"left","response":"left","rt":377.39999997616,"correct":true,"confidence":1},{"trial_n":119,"n_dots":3.45,"target":"left","response":"right","rt":256.30000001192,"correct":false,"confidence":1},{"trial_n":120,"n_dots":3.55,"target":"right","response":"left","rt":263.40000003576,"correct":false,"confidence":1}]