[{"trial_n":1,"min":25,"max":230,"target":"present","response":"present","rt":9055.299999997,"correct":true,"confidence":-1},{"trial_n":2,"min":25,"max":230,"target":"present","response":"present","rt":4692.8999999911,"correct":true,"confidence":-1},{"trial_n":3,"min":41,"max":214,"target":"absent","response":"present","rt":2143,"correct":false,"confidence":-1},{"trial_n":4,"min":25,"max":230,"target":"absent","response":"absent","rt":6403.400000006,"correct":true,"confidence":-1},{"trial_n":5,"min":25,"max":230,"target":"present","response":"present","rt":3974.6000000089,"correct":true,"confidence":-1},{"trial_n":6,"min":41,"max":214,"target":"absent","response":"absent","rt":1254.900000006,"correct":true,"confidence":-1},{"trial_n":7,"min":41,"max":214,"target":"present","response":"present","rt":3196.5,"correct":true,"confidence":-1},{"trial_n":8,"min":57,"max":198,"target":"absent","response":"absent","rt":1346,"correct":true,"confidence":-1},{"trial_n":9,"min":57,"max":198,"target":"absent","response":"absent","rt":4426,"correct":true,"confidence":-1},{"trial_n":10,"min":73,"max":182,"target":"absent","response":"absent","rt":2862.5,"correct":true,"confidence":-1},{"trial_n":11,"min":73,"max":182,"target":"present","response":"present","rt":433.29999999702,"correct":true,"confidence":-1},{"trial_n":12,"min":81,"max":174,"target":"absent","response":"present","rt":915.89999999106,"correct":false,"confidence":-1},{"trial_n":13,"min":73,"max":182,"target":"present","response":"present","rt":766.10000000894,"correct":true,"confidence":-1},{"trial_n":14,"min":73,"max":182,"target":"absent","response":"absent","rt":673.20000000298,"correct":true,"confidence":-1},{"trial_n":15,"min":81,"max":174,"target":"present","response":"absent","rt":1091.700000003,"correct":false,"confidence":-1},{"trial_n":16,"min":73,"max":182,"target":"absent","response":"present","rt":1465.900000006,"correct":false,"confidence":-1},{"trial_n":17,"min":65,"max":190,"target":"absent","response":"absent","rt":649.30000001192,"correct":true,"confidence":-1},{"trial_n":18,"min":65,"max":190,"target":"present","response":"absent","rt":1167.700000003,"correct":false,"confidence":-1},{"trial_n":19,"min":57,"max":198,"target":"present","response":"absent","rt":856.5,"correct":false,"confidence":-1},{"trial_n":20,"min":49,"max":206,"target":"absent","response":"present","rt":1293.6000000089,"correct":false,"confidence":-1},{"trial_n":21,"min":45,"max":210,"target":"absent","response":"absent","rt":1629.1000000089,"correct":true,"confidence":2},{"trial_n":22,"min":45,"max":210,"target":"absent","response":"present","rt":1110.799999997,"correct":false,"confidence":3},{"trial_n":23,"min":41,"max":214,"target":"present","response":"present","rt":1027.799999997,"correct":true,"confidence":4},{"trial_n":24,"min":41,"max":214,"target":"present","response":"present","rt":989.40000000596,"correct":true,"confidence":4},{"trial_n":25,"min":45,"max":210,"target":"present","response":"present","rt":1138.900000006,"correct":true,"confidence":2},{"trial_n":26,"min":45,"max":210,"target":"absent","response":"absent","rt":764.30000001192,"correct":true,"confidence":2},{"trial_n":27,"min":49,"max":206,"target":"present","response":"present","rt":1172.8999999911,"correct":true,"confidence":3},{"trial_n":28,"min":49,"max":206,"target":"absent","response":"absent","rt":878.59999999404,"correct":true,"confidence":2},{"trial_n":29,"min":53,"max":202,"target":"present","response":"absent","rt":1202.5,"correct":false,"confidence":2},{"trial_n":30,"min":49,"max":206,"target":"absent","response":"absent","rt":1132.1000000089,"correct":true,"confidence":2},{"trial_n":31,"min":49,"max":206,"target":"absent","response":"absent","rt":2897.1000000089,"correct":true,"confidence":3},{"trial_n":32,"min":51,"max":204,"target":"absent","response":"present","rt":1005.099999994,"correct":false,"confidence":4},{"trial_n":33,"min":49,"max":206,"target":"present","response":"present","rt":919,"correct":true,"confidence":3},{"trial_n":34,"min":49,"max":206,"target":"absent","response":"present","rt":1368,"correct":false,"confidence":1},{"trial_n":35,"min":47,"max":208,"target":"present","response":"present","rt":1062.6000000089,"correct":true,"confidence":2},{"trial_n":36,"min":47,"max":208,"target":"present","response":"present","rt":1140.799999997,"correct":true,"confidence":4},{"trial_n":37,"min":49,"max":206,"target":"present","response":"absent","rt":1689.400000006,"correct":false,"confidence":3},{"trial_n":38,"min":47,"max":208,"target":"absent","response":"absent","rt":2256.6000000089,"correct":true,"confidence":2},{"trial_n":39,"min":47,"max":208,"target":"present","response":"absent","rt":913.29999999702,"correct":false,"confidence":4},{"trial_n":40,"min":45,"max":210,"target":"present","response":"absent","rt":1479,"correct":false,"confidence":2},{"trial_n":41,"min":44,"max":211,"target":"present","response":"present","rt":2805.700000003,"correct":true,"confidence":3},{"trial_n":42,"min":44,"max":211,"target":"present","response":"present","rt":3522.700000003,"correct":true,"confidence":3},{"trial_n":43,"min":45,"max":210,"target":"absent","response":"absent","rt":1445,"correct":true,"confidence":3},{"trial_n":44,"min":45,"max":210,"target":"absent","response":"present","rt":1381.5,"correct":false,"confidence":2},{"trial_n":45,"min":44,"max":211,"target":"present","response":"present","rt":4763.900000006,"correct":true,"confidence":4},{"trial_n":46,"min":44,"max":211,"target":"absent","response":"absent","rt":1348,"correct":true,"confidence":3},{"trial_n":47,"min":45,"max":210,"target":"present","response":"present","rt":2020.900000006,"correct":true,"confidence":5},{"trial_n":48,"min":45,"max":210,"target":"absent","response":"absent","rt":1315,"correct":true,"confidence":2},{"trial_n":49,"min":46,"max":209,"target":"absent","response":"absent","rt":2243.6000000089,"correct":true,"confidence":2},{"trial_n":50,"min":46,"max":209,"target":"present","response":"present","rt":1750.700000003,"correct":true,"confidence":5},{"trial_n":51,"min":47,"max":208,"target":"present","response":"present","rt":1294.5,"correct":true,"confidence":5},{"trial_n":52,"min":47,"max":208,"target":"present","response":"present","rt":1080.299999997,"correct":true,"confidence":5},{"trial_n":53,"min":48,"max":207,"target":"present","response":"present","rt":1299.299999997,"correct":true,"confidence":4},{"trial_n":54,"min":48,"max":207,"target":"absent","response":"absent","rt":1129.299999997,"correct":true,"confidence":2},{"trial_n":55,"min":49,"max":206,"target":"absent","response":"absent","rt":1067.799999997,"correct":true,"confidence":2},{"trial_n":56,"min":49,"max":206,"target":"absent","response":"absent","rt":978.10000000894,"correct":true,"confidence":3},{"trial_n":57,"min":50,"max":205,"target":"present","response":"present","rt":915.59999999404,"correct":true,"confidence":4},{"trial_n":58,"min":50,"max":205,"target":"absent","response":"absent","rt":1270.900000006,"correct":true,"confidence":2},{"trial_n":59,"min":51,"max":204,"target":"present","response":"present","rt":1016.8999999911,"correct":true,"confidence":5},{"trial_n":60,"min":51,"max":204,"target":"present","response":"present","rt":2433.700000003,"correct":true,"confidence":5},{"trial_n":61,"min":52,"max":203,"target":"absent","response":"absent","rt":950.70000000298,"correct":true,"confidence":2},{"trial_n":62,"min":52,"max":203,"target":"present","response":"present","rt":1538.5,"correct":true,"confidence":4},{"trial_n":63,"min":53,"max":202,"target":"present","response":"present","rt":6502.5,"correct":true,"confidence":3},{"trial_n":64,"min":53,"max":202,"target":"absent","response":"absent","rt":1088.1000000089,"correct":true,"confidence":2},{"trial_n":65,"min":54,"max":201,"target":"present","response":"present","rt":2183.799999997,"correct":true,"confidence":4},{"trial_n":66,"min":54,"max":201,"target":"present","response":"present","rt":957.59999999404,"correct":true,"confidence":4},{"trial_n":67,"min":55,"max":200,"target":"absent","response":"absent","rt":1217.400000006,"correct":true,"confidence":2},{"trial_n":68,"min":55,"max":200,"target":"present","response":"present","rt":1261,"correct":true,"confidence":2},{"trial_n":69,"min":56,"max":199,"target":"absent","response":"absent","rt":1112.6000000089,"correct":true,"confidence":5},{"trial_n":70,"min":56,"max":199,"target":"absent","response":"absent","rt":900.5,"correct":true,"confidence":2},{"trial_n":71,"min":41,"max":214,"target":"present","response":"absent","rt":11588.099999994,"correct":false,"confidence":-1},{"trial_n":72,"min":41,"max":214,"target":"present","response":"present","rt":6617.799999997,"correct":true,"confidence":-1},{"trial_n":73,"min":41,"max":214,"target":"absent","response":"present","rt":4108.299999997,"correct":false,"confidence":-1},{"trial_n":74,"min":25,"max":230,"target":"absent","response":"absent","rt":1250.900000006,"correct":true,"confidence":-1},{"trial_n":75,"min":25,"max":230,"target":"present","response":"present","rt":939.09999999404,"correct":true,"confidence":-1},{"trial_n":76,"min":41,"max":214,"target":"absent","response":"absent","rt":960.79999999702,"correct":true,"confidence":-1},{"trial_n":77,"min":41,"max":214,"target":"absent","response":"absent","rt":1472.6000000089,"correct":true,"confidence":-1},{"trial_n":78,"min":57,"max":198,"target":"present","response":"absent","rt":737.59999999404,"correct":false,"confidence":-1},{"trial_n":79,"min":41,"max":214,"target":"present","response":"present","rt":890.89999999106,"correct":true,"confidence":-1},{"trial_n":80,"min":41,"max":214,"target":"absent","response":"absent","rt":3260.799999997,"correct":true,"confidence":-1},{"trial_n":81,"min":49,"max":206,"target":"absent","response":"absent","rt":2066.299999997,"correct":true,"confidence":-1},{"trial_n":82,"min":49,"max":206,"target":"absent","response":"absent","rt":1432.1000000089,"correct":true,"confidence":-1},{"trial_n":83,"min":57,"max":198,"target":"absent","response":"absent","rt":1106.700000003,"correct":true,"confidence":-1},{"trial_n":84,"min":57,"max":198,"target":"present","response":"present","rt":666.89999999106,"correct":true,"confidence":-1},{"trial_n":85,"min":65,"max":190,"target":"present","response":"absent","rt":1143,"correct":false,"confidence":-1},{"trial_n":86,"min":57,"max":198,"target":"absent","response":"absent","rt":661.79999999702,"correct":true,"confidence":-1},{"trial_n":87,"min":57,"max":198,"target":"present","response":"absent","rt":3007.200000003,"correct":false,"confidence":-1},{"trial_n":88,"min":49,"max":206,"target":"present","response":"absent","rt":9542.200000003,"correct":false,"confidence":-1},{"trial_n":89,"min":41,"max":214,"target":"present","response":"present","rt":632.40000000596,"correct":true,"confidence":-1},{"trial_n":90,"min":41,"max":214,"target":"absent","response":"absent","rt":1097.700000003,"correct":true,"confidence":-1},{"trial_n":91,"min":45,"max":210,"target":"absent","response":"absent","rt":1281.400000006,"correct":true,"confidence":2},{"trial_n":92,"min":45,"max":210,"target":"present","response":"present","rt":1352,"correct":true,"confidence":5},{"trial_n":93,"min":49,"max":206,"target":"absent","response":"absent","rt":852.40000000596,"correct":true,"confidence":3},{"trial_n":94,"min":49,"max":206,"target":"present","response":"absent","rt":1875.3999999911,"correct":false,"confidence":3},{"trial_n":95,"min":45,"max":210,"target":"present","response":"present","rt":686.79999999702,"correct":true,"confidence":5},{"trial_n":96,"min":45,"max":210,"target":"absent","response":"absent","rt":1519.099999994,"correct":true,"confidence":4},{"trial_n":97,"min":49,"max":206,"target":"absent","response":"absent","rt":919,"correct":true,"confidence":2},{"trial_n":98,"min":49,"max":206,"target":"present","response":"absent","rt":2318.400000006,"correct":false,"confidence":1},{"trial_n":99,"min":45,"max":210,"target":"present","response":"present","rt":590.09999999404,"correct":true,"confidence":1},{"trial_n":100,"min":45,"max":210,"target":"present","response":"present","rt":1020.3999999911,"correct":true,"confidence":3},{"trial_n":101,"min":47,"max":208,"target":"present","response":"present","rt":809.39999999106,"correct":true,"confidence":4},{"trial_n":102,"min":47,"max":208,"target":"absent","response":"absent","rt":1790.8999999911,"correct":true,"confidence":2},{"trial_n":103,"min":49,"max":206,"target":"absent","response":"absent","rt":734.60000000894,"correct":true,"confidence":4},{"trial_n":104,"min":49,"max":206,"target":"present","response":"absent","rt":772.5,"correct":false,"confidence":4},{"trial_n":105,"min":47,"max":208,"target":"absent","response":"absent","rt":894.39999999106,"correct":true,"confidence":1},{"trial_n":106,"min":47,"max":208,"target":"present","response":"present","rt":720.39999999106,"correct":true,"confidence":1},{"trial_n":107,"min":49,"max":206,"target":"present","response":"present","rt":683.69999998808,"correct":true,"confidence":1},{"trial_n":108,"min":49,"max":206,"target":"present","response":"absent","rt":3468.900000006,"correct":false,"confidence":1},{"trial_n":109,"min":47,"max":208,"target":"absent","response":"absent","rt":900.09999999404,"correct":true,"confidence":2},{"trial_n":110,"min":47,"max":208,"target":"absent","response":"absent","rt":6441.799999997,"correct":true,"confidence":2},{"trial_n":111,"min":48,"max":207,"target":"present","response":"present","rt":517.40000000596,"correct":true,"confidence":5},{"trial_n":112,"min":48,"max":207,"target":"present","response":"absent","rt":1172.200000003,"correct":false,"confidence":1},{"trial_n":113,"min":47,"max":208,"target":"absent","response":"absent","rt":905,"correct":true,"confidence":3},{"trial_n":114,"min":47,"max":208,"target":"present","response":"present","rt":1344.1999999881,"correct":true,"confidence":2},{"trial_n":115,"min":48,"max":207,"target":"present","response":"present","rt":770,"correct":true,"confidence":4},{"trial_n":116,"min":48,"max":207,"target":"absent","response":"absent","rt":1148.799999997,"correct":true,"confidence":2},{"trial_n":117,"min":49,"max":206,"target":"absent","response":"absent","rt":1055.6000000089,"correct":true,"confidence":4},{"trial_n":118,"min":49,"max":206,"target":"present","response":"present","rt":598.89999999106,"correct":true,"confidence":3},{"trial_n":119,"min":50,"max":205,"target":"present","response":"present","rt":851.29999999702,"correct":true,"confidence":2},{"trial_n":120,"min":50,"max":205,"target":"absent","response":"absent","rt":934.79999999702,"correct":true,"confidence":3},{"trial_n":121,"min":51,"max":204,"target":"absent","response":"absent","rt":985.60000000894,"correct":true,"confidence":2},{"trial_n":122,"min":51,"max":204,"target":"absent","response":"absent","rt":1368.799999997,"correct":true,"confidence":1},{"trial_n":123,"min":52,"max":203,"target":"present","response":"present","rt":268.5,"correct":true,"confidence":4},{"trial_n":124,"min":52,"max":203,"target":"absent","response":"absent","rt":2776.3000000119,"correct":true,"confidence":3},{"trial_n":125,"min":53,"max":202,"target":"present","response":"present","rt":365.59999999404,"correct":true,"confidence":4},{"trial_n":126,"min":53,"max":202,"target":"absent","response":"absent","rt":885.60000000894,"correct":true,"confidence":3},{"trial_n":127,"min":54,"max":201,"target":"absent","response":"absent","rt":879.29999999702,"correct":true,"confidence":1},{"trial_n":128,"min":54,"max":201,"target":"present","response":"present","rt":2729.200000003,"correct":true,"confidence":3},{"trial_n":129,"min":55,"max":200,"target":"absent","response":"absent","rt":2193.8999999911,"correct":true,"confidence":1},{"trial_n":130,"min":55,"max":200,"target":"absent","response":"present","rt":838.20000000298,"correct":false,"confidence":2},{"trial_n":131,"min":54,"max":201,"target":"present","response":"present","rt":539.40000000596,"correct":true,"confidence":3},{"trial_n":132,"min":54,"max":201,"target":"present","response":"absent","rt":1433.900000006,"correct":false,"confidence":3},{"trial_n":133,"min":53,"max":202,"target":"absent","response":"absent","rt":1418.3000000119,"correct":true,"confidence":4},{"trial_n":134,"min":53,"max":202,"target":"absent","response":"present","rt":1505.900000006,"correct":false,"confidence":1},{"trial_n":135,"min":52,"max":203,"target":"absent","response":"absent","rt":886.09999999404,"correct":true,"confidence":1},{"trial_n":136,"min":52,"max":203,"target":"present","response":"absent","rt":2799.8999999911,"correct":false,"confidence":1},{"trial_n":137,"min":51,"max":204,"target":"present","response":"absent","rt":1773.099999994,"correct":false,"confidence":2},{"trial_n":138,"min":50,"max":205,"target":"absent","response":"absent","rt":4923.5,"correct":true,"confidence":3},{"trial_n":139,"min":50,"max":205,"target":"present","response":"absent","rt":1264.6999999881,"correct":false,"confidence":4},{"trial_n":140,"min":49,"max":206,"target":"present","response":"present","rt":894.10000000894,"correct":true,"confidence":4}]