[{"trial_n":1,"span":8,"encoder":"62240190","distractor":"62200190","target":"present","response":"present","rt":"6049.5","correct":true,"confidence":-1},{"trial_n":2,"span":8,"encoder":"75229267","distractor":"75529267","target":"present","response":"absent","rt":"2927.200000003","correct":false,"confidence":-1},{"trial_n":3,"span":6,"encoder":"886258","distractor":"886228","target":"absent","response":"present","rt":"2533.700000003","correct":false,"confidence":-1},{"trial_n":4,"span":4,"encoder":"8493","distractor":"8293","target":"absent","response":"absent","rt":"2094.1000000089","correct":true,"confidence":-1},{"trial_n":5,"span":4,"encoder":"7668","distractor":"7669","target":"present","response":"present","rt":"1451.799999997","correct":true,"confidence":-1},{"trial_n":6,"span":6,"encoder":"259712","distractor":"229712","target":"present","response":"present","rt":"3488.8000000119","correct":true,"confidence":-1},{"trial_n":7,"span":6,"encoder":"719824","distractor":"715824","target":"present","response":"present","rt":"1810.099999994","correct":true,"confidence":-1},{"trial_n":8,"span":8,"encoder":"77352250","distractor":"72352250","target":"present","response":"present","rt":"2786.3000000119","correct":true,"confidence":-1},{"trial_n":9,"span":8,"encoder":"76423301","distractor":"76403301","target":"absent","response":"absent","rt":"2950.8000000119","correct":true,"confidence":-1},{"trial_n":10,"span":10,"encoder":"6904787172","distractor":"6905787172","target":"absent","response":"absent","rt":"4247.5","correct":true,"confidence":-1},{"trial_n":11,"span":10,"encoder":"4284097383","distractor":"4284097384","target":"present","response":"present","rt":"3526.900000006","correct":true,"confidence":-1},{"trial_n":12,"span":11,"encoder":"85186275326","distractor":"85186375326","target":"absent","response":"absent","rt":"2869.099999994","correct":true,"confidence":-1},{"trial_n":13,"span":11,"encoder":"55390725644","distractor":"55390725664","target":"present","response":"present","rt":"2393","correct":true,"confidence":-1},{"trial_n":14,"span":12,"encoder":"564689514282","distractor":"564689514262","target":"absent","response":"present","rt":"1535.6000000089","correct":false,"confidence":-1},{"trial_n":15,"span":11,"encoder":"79918058158","distractor":"79918058358","target":"absent","response":"present","rt":"1690.099999994","correct":false,"confidence":-1},{"trial_n":16,"span":10,"encoder":"8239969318","distractor":"8239969218","target":"present","response":"present","rt":"1380.599999994","correct":true,"confidence":-1},{"trial_n":17,"span":10,"encoder":"9935402211","distractor":"9935402214","target":"present","response":"present","rt":"2852.5","correct":true,"confidence":-1},{"trial_n":18,"span":11,"encoder":"53718904962","distractor":"53718904972","target":"present","response":"absent","rt":"2801.599999994","correct":false,"confidence":-1},{"trial_n":19,"span":10,"encoder":"6159164541","distractor":"6159164521","target":"present","response":"present","rt":"3069.5","correct":true,"confidence":-1},{"trial_n":20,"span":10,"encoder":"8730649039","distractor":"8700649039","target":"absent","response":"absent","rt":"2781.8000000119","correct":true,"confidence":-1},{"trial_n":21,"span":11,"encoder":"68550687680","distractor":"68550687681","target":"absent","response":"absent","rt":"3644.900000006","correct":true,"confidence":4},{"trial_n":22,"span":11,"encoder":"15155716493","distractor":"15155716403","target":"absent","response":"present","rt":"8633.1999999881","correct":false,"confidence":2},{"trial_n":23,"span":10,"encoder":"5645477596","distractor":"5649477596","target":"absent","response":"present","rt":"2608.599999994","correct":false,"confidence":3},{"trial_n":24,"span":9,"encoder":"053742696","distractor":"003742696","target":"present","response":"present","rt":"4010.6000000089","correct":true,"confidence":3},{"trial_n":25,"span":9,"encoder":"245011441","distractor":"245016441","target":"absent","response":"present","rt":"2148.700000003","correct":false,"confidence":2},{"trial_n":26,"span":8,"encoder":"16972954","distractor":"16972554","target":"present","response":"present","rt":"3139.799999997","correct":true,"confidence":4},{"trial_n":27,"span":8,"encoder":"95969050","distractor":"95966050","target":"absent","response":"absent","rt":"2897.400000006","correct":true,"confidence":4},{"trial_n":28,"span":9,"encoder":"485201863","distractor":"435201863","target":"absent","response":"present","rt":"4602.900000006","correct":false,"confidence":3},{"trial_n":29,"span":8,"encoder":"91815331","distractor":"91895331","target":"absent","response":"present","rt":"3533.299999997","correct":false,"confidence":5},{"trial_n":30,"span":7,"encoder":"9174598","distractor":"9474598","target":"absent","response":"present","rt":"3832.700000003","correct":false,"confidence":3},{"trial_n":31,"span":6,"encoder":"202474","distractor":"502474","target":"present","response":"present","rt":"1974","correct":true,"confidence":5},{"trial_n":32,"span":6,"encoder":"955615","distractor":"945615","target":"absent","response":"absent","rt":"1778.1999999881","correct":true,"confidence":5},{"trial_n":33,"span":7,"encoder":"5662133","distractor":"5662833","target":"absent","response":"absent","rt":"2554.3000000119","correct":true,"confidence":5},{"trial_n":34,"span":7,"encoder":"3900947","distractor":"3940947","target":"present","response":"present","rt":"2732.6000000089","correct":true,"confidence":5},{"trial_n":35,"span":8,"encoder":"01346570","distractor":"01346574","target":"present","response":"present","rt":"3922.200000003","correct":true,"confidence":2},{"trial_n":36,"span":8,"encoder":"63537869","distractor":"63537069","target":"present","response":"absent","rt":"3406.700000003","correct":false,"confidence":3},{"trial_n":37,"span":7,"encoder":"0784585","distractor":"0788585","target":"present","response":"present","rt":"2877.700000003","correct":true,"confidence":4},{"trial_n":38,"span":7,"encoder":"2150423","distractor":"2150422","target":"present","response":"present","rt":"4108.099999994","correct":true,"confidence":2},{"trial_n":39,"span":8,"encoder":"97547686","distractor":"97547606","target":"absent","response":"present","rt":"3319","correct":false,"confidence":3},{"trial_n":40,"span":7,"encoder":"0396092","distractor":"7396092","target":"absent","response":"present","rt":"2713.5","correct":false,"confidence":5},{"trial_n":41,"span":6,"encoder":"877430","distractor":"847430","target":"absent","response":"absent","rt":"3293","correct":true,"confidence":3},{"trial_n":42,"span":6,"encoder":"949654","distractor":"949254","target":"absent","response":"absent","rt":"2873.5","correct":true,"confidence":4},{"trial_n":43,"span":7,"encoder":"4360772","distractor":"4360732","target":"absent","response":"absent","rt":"4940.1000000089","correct":true,"confidence":4},{"trial_n":44,"span":7,"encoder":"9578895","distractor":"9570895","target":"absent","response":"present","rt":"5361.900000006","correct":false,"confidence":2},{"trial_n":45,"span":6,"encoder":"481838","distractor":"487838","target":"present","response":"present","rt":"4618.3000000119","correct":true,"confidence":4},{"trial_n":46,"span":6,"encoder":"038045","distractor":"036045","target":"absent","response":"absent","rt":"2436.8000000119","correct":true,"confidence":3},{"trial_n":47,"span":7,"encoder":"6058089","distractor":"6050089","target":"present","response":"present","rt":"3255.3999999911","correct":true,"confidence":4},{"trial_n":48,"span":7,"encoder":"8509810","distractor":"8509710","target":"present","response":"present","rt":"2729.3999999911","correct":true,"confidence":4},{"trial_n":49,"span":8,"encoder":"52451615","distractor":"52455615","target":"present","response":"present","rt":"5248.3000000119","correct":true,"confidence":5},{"trial_n":50,"span":8,"encoder":"51111649","distractor":"51111643","target":"absent","response":"present","rt":"4681.400000006","correct":false,"confidence":2},{"trial_n":51,"span":7,"encoder":"4257462","distractor":"1257462","target":"present","response":"present","rt":"3671.6000000089","correct":true,"confidence":5},{"trial_n":52,"span":7,"encoder":"3536944","distractor":"3536904","target":"absent","response":"absent","rt":"2164.5","correct":true,"confidence":5},{"trial_n":53,"span":8,"encoder":"52678479","distractor":"52978479","target":"absent","response":"absent","rt":"2571.400000006","correct":true,"confidence":3},{"trial_n":54,"span":8,"encoder":"41455534","distractor":"41495534","target":"present","response":"present","rt":"3418.5","correct":true,"confidence":5},{"trial_n":55,"span":9,"encoder":"089269141","distractor":"089369141","target":"present","response":"present","rt":"3828.6000000089","correct":true,"confidence":3},{"trial_n":56,"span":9,"encoder":"035403795","distractor":"135403795","target":"present","response":"present","rt":"3812","correct":true,"confidence":2},{"trial_n":57,"span":10,"encoder":"4029869516","distractor":"4029819516","target":"present","response":"absent","rt":"5503.6000000089","correct":false,"confidence":3},{"trial_n":58,"span":9,"encoder":"829767117","distractor":"829767157","target":"absent","response":"absent","rt":"1552.200000003","correct":true,"confidence":5},{"trial_n":59,"span":9,"encoder":"299100187","distractor":"299107187","target":"present","response":"present","rt":"2888.1000000089","correct":true,"confidence":3},{"trial_n":60,"span":10,"encoder":"3308985030","distractor":"3108985030","target":"absent","response":"present","rt":"15862.200000003","correct":false,"confidence":2},{"trial_n":61,"span":9,"encoder":"203179676","distractor":"203170676","target":"absent","response":"present","rt":"5353.599999994","correct":false,"confidence":3},{"trial_n":62,"span":8,"encoder":"96205095","distractor":"66205095","target":"present","response":"absent","rt":"4635.200000003","correct":false,"confidence":2},{"trial_n":63,"span":7,"encoder":"3371197","distractor":"3371107","target":"present","response":"present","rt":"2846.5","correct":true,"confidence":4},{"trial_n":64,"span":7,"encoder":"1168922","distractor":"5168922","target":"present","response":"present","rt":"2567.5","correct":true,"confidence":5},{"trial_n":65,"span":8,"encoder":"82230863","distractor":"82830863","target":"absent","response":"absent","rt":"3337.400000006","correct":true,"confidence":5},{"trial_n":66,"span":8,"encoder":"29041496","distractor":"29041446","target":"present","response":"present","rt":"3477","correct":true,"confidence":4},{"trial_n":67,"span":9,"encoder":"482131193","distractor":"482161193","target":"present","response":"present","rt":"2239.299999997","correct":true,"confidence":3},{"trial_n":68,"span":9,"encoder":"721488095","distractor":"728488095","target":"absent","response":"absent","rt":"3509.599999994","correct":true,"confidence":2},{"trial_n":69,"span":10,"encoder":"9170363246","distractor":"9160363246","target":"present","response":"present","rt":"4720.8000000119","correct":true,"confidence":2},{"trial_n":70,"span":10,"encoder":"3613204185","distractor":"3613304185","target":"absent","response":"absent","rt":"3457.900000006","correct":true,"confidence":4},{"trial_n":71,"span":8,"encoder":"75915586","distractor":"75945586","target":"present","response":"present","rt":"6838.799999997","correct":true,"confidence":-1},{"trial_n":72,"span":8,"encoder":"58393498","distractor":"58393490","target":"present","response":"present","rt":"2207.599999994","correct":true,"confidence":-1},{"trial_n":73,"span":9,"encoder":"887865104","distractor":"887866104","target":"absent","response":"absent","rt":"6058.400000006","correct":true,"confidence":-1},{"trial_n":74,"span":9,"encoder":"671002559","distractor":"671002553","target":"absent","response":"present","rt":"5040.099999994","correct":false,"confidence":-1},{"trial_n":75,"span":8,"encoder":"25881731","distractor":"25881531","target":"present","response":"present","rt":"5047.599999994","correct":true,"confidence":-1},{"trial_n":76,"span":8,"encoder":"05542993","distractor":"05542193","target":"absent","response":"absent","rt":"2598.099999994","correct":true,"confidence":-1},{"trial_n":77,"span":9,"encoder":"747683165","distractor":"747683162","target":"present","response":"present","rt":"2347.299999997","correct":true,"confidence":-1},{"trial_n":78,"span":9,"encoder":"119723033","distractor":"109723033","target":"present","response":"absent","rt":"3554","correct":false,"confidence":-1},{"trial_n":79,"span":8,"encoder":"95884301","distractor":"95889301","target":"present","response":"absent","rt":"4568.1000000089","correct":false,"confidence":-1},{"trial_n":80,"span":7,"encoder":"2696170","distractor":"2696120","target":"absent","response":"absent","rt":"2835.200000003","correct":true,"confidence":-1},{"trial_n":81,"span":7,"encoder":"5438439","distractor":"5038439","target":"present","response":"absent","rt":"6100.6999999881","correct":false,"confidence":-1},{"trial_n":82,"span":6,"encoder":"145874","distractor":"145674","target":"absent","response":"absent","rt":"5212.6000000089","correct":true,"confidence":-1},{"trial_n":83,"span":6,"encoder":"854216","distractor":"854286","target":"present","response":"present","rt":"2808.3000000119","correct":true,"confidence":-1},{"trial_n":84,"span":7,"encoder":"7574807","distractor":"7274807","target":"present","response":"present","rt":"3531.700000003","correct":true,"confidence":-1},{"trial_n":85,"span":7,"encoder":"9929099","distractor":"9928099","target":"present","response":"present","rt":"5054.200000003","correct":true,"confidence":-1},{"trial_n":86,"span":8,"encoder":"57939950","distractor":"77939950","target":"absent","response":"absent","rt":"5093.6000000089","correct":true,"confidence":-1},{"trial_n":87,"span":8,"encoder":"46059849","distractor":"46159849","target":"absent","response":"absent","rt":"3079.1000000089","correct":true,"confidence":-1},{"trial_n":88,"span":9,"encoder":"229466439","distractor":"229466499","target":"absent","response":"present","rt":"4831.3999999911","correct":false,"confidence":-1},{"trial_n":89,"span":8,"encoder":"80151184","distractor":"80151164","target":"absent","response":"present","rt":"8203.5","correct":false,"confidence":-1},{"trial_n":90,"span":7,"encoder":"6812894","distractor":"6882894","target":"absent","response":"absent","rt":"3867","correct":true,"confidence":-1},{"trial_n":91,"span":7,"encoder":"5189783","distractor":"5183783","target":"present","response":"present","rt":"4269.599999994","correct":true,"confidence":5},{"trial_n":92,"span":8,"encoder":"66251839","distractor":"66255839","target":"absent","response":"absent","rt":"3773.200000003","correct":true,"confidence":5},{"trial_n":93,"span":8,"encoder":"19359286","distractor":"19379286","target":"absent","response":"absent","rt":"2891.799999997","correct":true,"confidence":5},{"trial_n":94,"span":9,"encoder":"340842403","distractor":"240842403","target":"present","response":"absent","rt":"6016.6000000089","correct":false,"confidence":3},{"trial_n":95,"span":8,"encoder":"63854993","distractor":"63854943","target":"absent","response":"absent","rt":"3055.400000006","correct":true,"confidence":4},{"trial_n":96,"span":8,"encoder":"30529976","distractor":"30529176","target":"absent","response":"absent","rt":"2727.799999997","correct":true,"confidence":5},{"trial_n":97,"span":9,"encoder":"481506952","distractor":"491506952","target":"absent","response":"absent","rt":"5880.6000000089","correct":true,"confidence":2},{"trial_n":98,"span":9,"encoder":"710583547","distractor":"710581547","target":"absent","response":"absent","rt":"3622.3000000119","correct":true,"confidence":3},{"trial_n":99,"span":10,"encoder":"1939224466","distractor":"1939264466","target":"present","response":"present","rt":"2675.6000000089","correct":true,"confidence":5},{"trial_n":100,"span":10,"encoder":"3490874276","distractor":"3490874256","target":"absent","response":"absent","rt":"4350.400000006","correct":true,"confidence":4},{"trial_n":101,"span":11,"encoder":"72953675351","distractor":"72933675351","target":"absent","response":"absent","rt":"5508.700000003","correct":true,"confidence":1},{"trial_n":102,"span":11,"encoder":"95136735714","distractor":"45136735714","target":"present","response":"absent","rt":"2916.3999999911","correct":false,"confidence":1},{"trial_n":103,"span":10,"encoder":"9057061100","distractor":"9097061100","target":"present","response":"present","rt":"7746.5","correct":true,"confidence":2},{"trial_n":104,"span":10,"encoder":"8110149011","distractor":"8810149011","target":"present","response":"absent","rt":"4276","correct":false,"confidence":5},{"trial_n":105,"span":9,"encoder":"017545297","distractor":"017595297","target":"present","response":"present","rt":"7261.1000000089","correct":true,"confidence":2},{"trial_n":106,"span":9,"encoder":"406555806","distractor":"406550806","target":"absent","response":"absent","rt":"6858.599999994","correct":true,"confidence":3},{"trial_n":107,"span":10,"encoder":"7547724866","distractor":"7547724846","target":"absent","response":"absent","rt":"6009.400000006","correct":true,"confidence":5},{"trial_n":108,"span":10,"encoder":"3453996211","distractor":"3653996211","target":"present","response":"present","rt":"3297.400000006","correct":true,"confidence":4},{"trial_n":109,"span":11,"encoder":"61514393573","distractor":"61584393573","target":"absent","response":"absent","rt":"4734.299999997","correct":true,"confidence":4},{"trial_n":110,"span":11,"encoder":"31956430180","distractor":"37956430180","target":"present","response":"present","rt":"7657.400000006","correct":true,"confidence":3},{"trial_n":111,"span":12,"encoder":"708708489936","distractor":"708704489936","target":"present","response":"present","rt":"4964.8000000119","correct":true,"confidence":5},{"trial_n":112,"span":12,"encoder":"162924412659","distractor":"132924412659","target":"present","response":"present","rt":"6834.200000003","correct":true,"confidence":1},{"trial_n":113,"span":13,"encoder":"1359774098275","distractor":"1359774598275","target":"absent","response":"present","rt":"10996.200000003","correct":false,"confidence":2},{"trial_n":114,"span":12,"encoder":"327292366693","distractor":"327292363693","target":"present","response":"present","rt":"2980.900000006","correct":true,"confidence":5},{"trial_n":115,"span":12,"encoder":"650348749871","distractor":"650348799871","target":"absent","response":"absent","rt":"4447","correct":true,"confidence":4},{"trial_n":116,"span":13,"encoder":"3784785624256","distractor":"3781785624256","target":"present","response":"present","rt":"11133.099999994","correct":true,"confidence":1},{"trial_n":117,"span":13,"encoder":"1156323380432","distractor":"1156325380432","target":"absent","response":"absent","rt":"2250.8999999911","correct":true,"confidence":3},{"trial_n":118,"span":14,"encoder":"61989164613307","distractor":"61989164615307","target":"absent","response":"absent","rt":"2842.299999997","correct":true,"confidence":5},{"trial_n":119,"span":14,"encoder":"59068981086726","distractor":"59088981086726","target":"present","response":"present","rt":"7575.099999994","correct":true,"confidence":3},{"trial_n":120,"span":15,"encoder":"321686419093044","distractor":"321686719093044","target":"absent","response":"present","rt":"6854.8000000119","correct":false,"confidence":3},{"trial_n":121,"span":14,"encoder":"82505161003373","distractor":"82505261003373","target":"absent","response":"present","rt":"8609.900000006","correct":false,"confidence":2},{"trial_n":122,"span":13,"encoder":"5107650405561","distractor":"5100650405561","target":"present","response":"absent","rt":"4096.599999994","correct":false,"confidence":4},{"trial_n":123,"span":12,"encoder":"268542101932","distractor":"268542141932","target":"present","response":"present","rt":"4594.3999999911","correct":true,"confidence":5},{"trial_n":124,"span":12,"encoder":"225982594779","distractor":"225982594279","target":"absent","response":"absent","rt":"6516.6000000089","correct":true,"confidence":5},{"trial_n":125,"span":13,"encoder":"8698014731797","distractor":"8698014731497","target":"present","response":"absent","rt":"3044.900000006","correct":false,"confidence":2},{"trial_n":126,"span":12,"encoder":"035973929774","distractor":"095973929774","target":"absent","response":"present","rt":"4532.5","correct":false,"confidence":2},{"trial_n":127,"span":11,"encoder":"49972548211","distractor":"29972548211","target":"absent","response":"absent","rt":"12740.800000012","correct":true,"confidence":3},{"trial_n":128,"span":11,"encoder":"64294805157","distractor":"64994805157","target":"absent","response":"absent","rt":"15623.900000006","correct":true,"confidence":3},{"trial_n":129,"span":12,"encoder":"543719468780","distractor":"743719468780","target":"present","response":"present","rt":"5551.6000000089","correct":true,"confidence":5},{"trial_n":130,"span":12,"encoder":"968112904830","distractor":"968112901830","target":"absent","response":"present","rt":"10924.199999988","correct":false,"confidence":2},{"trial_n":131,"span":11,"encoder":"23993007197","distractor":"23994007197","target":"present","response":"absent","rt":"7987.200000003","correct":false,"confidence":1},{"trial_n":132,"span":10,"encoder":"1262099022","distractor":"1262999022","target":"present","response":"present","rt":"6658.299999997","correct":true,"confidence":3},{"trial_n":133,"span":10,"encoder":"5302988834","distractor":"5002988834","target":"present","response":"absent","rt":"10344.399999991","correct":false,"confidence":3},{"trial_n":134,"span":9,"encoder":"922771591","distractor":"922721591","target":"present","response":"present","rt":"2461.099999994","correct":true,"confidence":5},{"trial_n":135,"span":9,"encoder":"586535716","distractor":"587535716","target":"absent","response":"absent","rt":"5505.3000000119","correct":true,"confidence":4},{"trial_n":136,"span":10,"encoder":"3593157359","distractor":"3593757359","target":"present","response":"absent","rt":"9527.900000006","correct":false,"confidence":4},{"trial_n":137,"span":9,"encoder":"266191109","distractor":"266161109","target":"present","response":"present","rt":"5693.700000003","correct":true,"confidence":3},{"trial_n":138,"span":9,"encoder":"846693461","distractor":"846693441","target":"present","response":"absent","rt":"2900.5","correct":false,"confidence":1},{"trial_n":139,"span":8,"encoder":"32548655","distractor":"32548455","target":"present","response":"present","rt":"5890.900000006","correct":true,"confidence":2},{"trial_n":140,"span":8,"encoder":"68342569","distractor":"68346569","target":"absent","response":"absent","rt":"4238.5","correct":true,"confidence":4}]