[{"trial_n":1,"span":8,"encoder":"48294651","distractor":"48294652","target":"present","response":"present","rt":"10914.900000006","correct":true,"confidence":-1},{"trial_n":2,"span":8,"encoder":"15001253","distractor":"15006253","target":"present","response":"absent","rt":"2279.400000006","correct":false,"confidence":-1},{"trial_n":3,"span":6,"encoder":"353113","distractor":"853113","target":"absent","response":"present","rt":"3520.599999994","correct":false,"confidence":-1},{"trial_n":4,"span":4,"encoder":"5723","distractor":"5223","target":"absent","response":"absent","rt":"2886.799999997","correct":true,"confidence":-1},{"trial_n":5,"span":4,"encoder":"5277","distractor":"5977","target":"present","response":"present","rt":"1751.299999997","correct":true,"confidence":-1},{"trial_n":6,"span":6,"encoder":"197883","distractor":"197833","target":"present","response":"present","rt":"2214.6000000089","correct":true,"confidence":-1},{"trial_n":7,"span":6,"encoder":"011422","distractor":"021422","target":"absent","response":"present","rt":"1831.599999994","correct":false,"confidence":-1},{"trial_n":8,"span":4,"encoder":"7831","distractor":"7631","target":"present","response":"present","rt":"2213.1000000089","correct":true,"confidence":-1},{"trial_n":9,"span":4,"encoder":"4385","distractor":"4375","target":"present","response":"present","rt":"2981.3999999911","correct":true,"confidence":-1},{"trial_n":10,"span":6,"encoder":"742005","distractor":"742505","target":"absent","response":"absent","rt":"2851.700000003","correct":true,"confidence":-1},{"trial_n":11,"span":6,"encoder":"811779","distractor":"811789","target":"present","response":"present","rt":"4352.6999999881","correct":true,"confidence":-1},{"trial_n":12,"span":7,"encoder":"7310090","distractor":"7310020","target":"present","response":"absent","rt":"3910.3000000119","correct":false,"confidence":-1},{"trial_n":13,"span":6,"encoder":"433541","distractor":"733541","target":"present","response":"present","rt":"2035.799999997","correct":true,"confidence":-1},{"trial_n":14,"span":6,"encoder":"601931","distractor":"601131","target":"present","response":"present","rt":"2910.099999994","correct":true,"confidence":-1},{"trial_n":15,"span":7,"encoder":"1532102","distractor":"1532202","target":"absent","response":"absent","rt":"3479.6000000089","correct":true,"confidence":-1},{"trial_n":16,"span":7,"encoder":"7244990","distractor":"7244090","target":"present","response":"present","rt":"1631.400000006","correct":true,"confidence":-1},{"trial_n":17,"span":8,"encoder":"21397137","distractor":"01397137","target":"absent","response":"present","rt":"3926.700000003","correct":false,"confidence":-1},{"trial_n":18,"span":7,"encoder":"6842213","distractor":"6842218","target":"present","response":"present","rt":"2312.200000003","correct":true,"confidence":-1},{"trial_n":19,"span":7,"encoder":"2730464","distractor":"2730764","target":"present","response":"absent","rt":"5332.400000006","correct":false,"confidence":-1},{"trial_n":20,"span":6,"encoder":"259287","distractor":"229287","target":"absent","response":"present","rt":"1951.6999999881","correct":false,"confidence":-1},{"trial_n":21,"span":5,"encoder":"66370","distractor":"62370","target":"present","response":"present","rt":"7858.299999997","correct":true,"confidence":3},{"trial_n":22,"span":5,"encoder":"69850","distractor":"69859","target":"absent","response":"absent","rt":"3655.400000006","correct":true,"confidence":4},{"trial_n":23,"span":6,"encoder":"741622","distractor":"741522","target":"absent","response":"absent","rt":"3163.8999999911","correct":true,"confidence":4},{"trial_n":24,"span":6,"encoder":"689747","distractor":"189747","target":"present","response":"present","rt":"2995.6000000089","correct":true,"confidence":3},{"trial_n":25,"span":7,"encoder":"8331546","distractor":"8731546","target":"absent","response":"absent","rt":"3342.200000003","correct":true,"confidence":5},{"trial_n":26,"span":7,"encoder":"3996668","distractor":"3986668","target":"absent","response":"absent","rt":"9701.6999999881","correct":true,"confidence":2},{"trial_n":27,"span":8,"encoder":"78454775","distractor":"78454745","target":"present","response":"present","rt":"4557.8999999911","correct":true,"confidence":2},{"trial_n":28,"span":8,"encoder":"15707661","distractor":"95707661","target":"absent","response":"absent","rt":"3366.299999997","correct":true,"confidence":3},{"trial_n":29,"span":9,"encoder":"309331698","distractor":"359331698","target":"present","response":"present","rt":"5826.799999997","correct":true,"confidence":3},{"trial_n":30,"span":9,"encoder":"069420827","distractor":"069420828","target":"present","response":"present","rt":"6475.400000006","correct":true,"confidence":3},{"trial_n":31,"span":10,"encoder":"1565102790","distractor":"1565105790","target":"present","response":"present","rt":"3419.900000006","correct":true,"confidence":2},{"trial_n":32,"span":10,"encoder":"3028207090","distractor":"3028207096","target":"present","response":"absent","rt":"4614.400000006","correct":false,"confidence":2},{"trial_n":33,"span":9,"encoder":"458183837","distractor":"428183837","target":"absent","response":"present","rt":"5633.900000006","correct":false,"confidence":3},{"trial_n":34,"span":8,"encoder":"76592361","distractor":"76595361","target":"present","response":"present","rt":"5239.1999999881","correct":true,"confidence":4},{"trial_n":35,"span":8,"encoder":"76634152","distractor":"76639152","target":"absent","response":"absent","rt":"3795.700000003","correct":true,"confidence":3},{"trial_n":36,"span":9,"encoder":"240721288","distractor":"240721218","target":"absent","response":"absent","rt":"10141.099999994","correct":true,"confidence":1},{"trial_n":37,"span":9,"encoder":"360553161","distractor":"360553171","target":"absent","response":"absent","rt":"4236.400000006","correct":true,"confidence":4},{"trial_n":38,"span":10,"encoder":"8857227831","distractor":"8857327831","target":"present","response":"present","rt":"5093.599999994","correct":true,"confidence":3},{"trial_n":39,"span":10,"encoder":"7056985301","distractor":"7054985301","target":"present","response":"present","rt":"8244","correct":true,"confidence":2},{"trial_n":40,"span":11,"encoder":"26091498105","distractor":"26011498105","target":"absent","response":"present","rt":"2764.900000006","correct":false,"confidence":3},{"trial_n":41,"span":10,"encoder":"5353595998","distractor":"5353591998","target":"absent","response":"absent","rt":"5752.8999999911","correct":true,"confidence":5},{"trial_n":42,"span":10,"encoder":"1247911643","distractor":"5247911643","target":"present","response":"absent","rt":"3056.799999997","correct":false,"confidence":4},{"trial_n":43,"span":9,"encoder":"053819161","distractor":"053879161","target":"absent","response":"absent","rt":"6237","correct":true,"confidence":3},{"trial_n":44,"span":9,"encoder":"353521083","distractor":"353524083","target":"present","response":"absent","rt":"3136.700000003","correct":false,"confidence":3},{"trial_n":45,"span":8,"encoder":"14849304","distractor":"14849302","target":"present","response":"present","rt":"4015.099999994","correct":true,"confidence":1},{"trial_n":46,"span":8,"encoder":"86944393","distractor":"86944399","target":"present","response":"absent","rt":"7151.5","correct":false,"confidence":4},{"trial_n":47,"span":7,"encoder":"2902131","distractor":"2902141","target":"absent","response":"absent","rt":"3439.799999997","correct":true,"confidence":1},{"trial_n":48,"span":7,"encoder":"1527932","distractor":"1528932","target":"present","response":"present","rt":"6335.3999999911","correct":true,"confidence":3},{"trial_n":49,"span":8,"encoder":"16091956","distractor":"16091952","target":"present","response":"present","rt":"5126.799999997","correct":true,"confidence":2},{"trial_n":50,"span":8,"encoder":"56914278","distractor":"76914278","target":"absent","response":"present","rt":"5023.799999997","correct":false,"confidence":2},{"trial_n":51,"span":7,"encoder":"9958430","distractor":"9957430","target":"absent","response":"absent","rt":"4740.299999997","correct":true,"confidence":4},{"trial_n":52,"span":7,"encoder":"6787208","distractor":"6987208","target":"absent","response":"present","rt":"2513.700000003","correct":false,"confidence":1},{"trial_n":53,"span":6,"encoder":"326225","distractor":"726225","target":"absent","response":"absent","rt":"5809.1000000089","correct":true,"confidence":2},{"trial_n":54,"span":6,"encoder":"564452","distractor":"561452","target":"present","response":"present","rt":"13509","correct":true,"confidence":3},{"trial_n":55,"span":7,"encoder":"1728452","distractor":"1728402","target":"absent","response":"absent","rt":"4555.700000003","correct":true,"confidence":4},{"trial_n":56,"span":7,"encoder":"4925994","distractor":"4923994","target":"absent","response":"absent","rt":"3917.200000003","correct":true,"confidence":4},{"trial_n":57,"span":8,"encoder":"06729274","distractor":"06729574","target":"absent","response":"present","rt":"6825.900000006","correct":false,"confidence":1},{"trial_n":58,"span":7,"encoder":"6472567","distractor":"6476567","target":"absent","response":"absent","rt":"4105.200000003","correct":true,"confidence":5},{"trial_n":59,"span":7,"encoder":"3092548","distractor":"3092543","target":"absent","response":"absent","rt":"2149.8000000119","correct":true,"confidence":5},{"trial_n":60,"span":8,"encoder":"33847397","distractor":"33847357","target":"present","response":"present","rt":"4938.200000003","correct":true,"confidence":5},{"trial_n":61,"span":8,"encoder":"03869860","distractor":"03869864","target":"present","response":"present","rt":"3516.799999997","correct":true,"confidence":3},{"trial_n":62,"span":9,"encoder":"317060704","distractor":"317060004","target":"present","response":"present","rt":"2262.799999997","correct":true,"confidence":2},{"trial_n":63,"span":9,"encoder":"620260471","distractor":"600260471","target":"absent","response":"present","rt":"6857.200000003","correct":false,"confidence":3},{"trial_n":64,"span":8,"encoder":"86145673","distractor":"86845673","target":"present","response":"present","rt":"2042.6999999881","correct":true,"confidence":2},{"trial_n":65,"span":8,"encoder":"96735856","distractor":"96736856","target":"absent","response":"present","rt":"12090.700000003","correct":false,"confidence":1},{"trial_n":66,"span":7,"encoder":"4336532","distractor":"1336532","target":"absent","response":"absent","rt":"1895.6999999881","correct":true,"confidence":4},{"trial_n":67,"span":7,"encoder":"0537581","distractor":"2537581","target":"absent","response":"present","rt":"2268.5","correct":false,"confidence":2},{"trial_n":68,"span":6,"encoder":"608688","distractor":"628688","target":"present","response":"present","rt":"1913.5","correct":true,"confidence":2},{"trial_n":69,"span":6,"encoder":"772694","distractor":"772634","target":"present","response":"present","rt":"2793.8000000119","correct":true,"confidence":5},{"trial_n":70,"span":7,"encoder":"6058775","distractor":"6358775","target":"absent","response":"present","rt":"4284.900000006","correct":false,"confidence":3},{"trial_n":71,"span":8,"encoder":"63177707","distractor":"63877707","target":"present","response":"present","rt":"5378.599999994","correct":true,"confidence":-1},{"trial_n":72,"span":8,"encoder":"72123219","distractor":"72123279","target":"present","response":"present","rt":"13320","correct":true,"confidence":-1},{"trial_n":73,"span":9,"encoder":"607920065","distractor":"607920865","target":"absent","response":"absent","rt":"3963.8000000119","correct":true,"confidence":-1},{"trial_n":74,"span":9,"encoder":"917738195","distractor":"917736195","target":"absent","response":"absent","rt":"5261.400000006","correct":true,"confidence":-1},{"trial_n":75,"span":10,"encoder":"3503730661","distractor":"3503730663","target":"present","response":"present","rt":"2510.599999994","correct":true,"confidence":-1},{"trial_n":76,"span":10,"encoder":"3840085842","distractor":"3844085842","target":"absent","response":"absent","rt":"8959.8999999911","correct":true,"confidence":-1},{"trial_n":77,"span":11,"encoder":"13415021578","distractor":"13415081578","target":"present","response":"present","rt":"12173.299999997","correct":true,"confidence":-1},{"trial_n":78,"span":11,"encoder":"11278246878","distractor":"61278246878","target":"absent","response":"present","rt":"8573.8999999911","correct":false,"confidence":-1},{"trial_n":79,"span":10,"encoder":"2869990365","distractor":"2869990366","target":"absent","response":"absent","rt":"2496.1999999881","correct":true,"confidence":-1},{"trial_n":80,"span":10,"encoder":"8137635594","distractor":"8437635594","target":"present","response":"absent","rt":"6396.1000000089","correct":false,"confidence":-1},{"trial_n":81,"span":9,"encoder":"928494648","distractor":"923494648","target":"absent","response":"absent","rt":"15046.299999997","correct":true,"confidence":-1},{"trial_n":82,"span":9,"encoder":"511413872","distractor":"511414872","target":"absent","response":"present","rt":"11943.599999994","correct":false,"confidence":-1},{"trial_n":83,"span":8,"encoder":"70156705","distractor":"70956705","target":"absent","response":"absent","rt":"6972.299999997","correct":true,"confidence":-1},{"trial_n":84,"span":8,"encoder":"47978278","distractor":"47978276","target":"present","response":"present","rt":"2360.099999994","correct":true,"confidence":-1},{"trial_n":85,"span":9,"encoder":"850330372","distractor":"850230372","target":"absent","response":"absent","rt":"3088.700000003","correct":true,"confidence":-1},{"trial_n":86,"span":9,"encoder":"960121304","distractor":"960121394","target":"absent","response":"absent","rt":"3050.1999999881","correct":true,"confidence":-1},{"trial_n":87,"span":10,"encoder":"4239883774","distractor":"3239883774","target":"present","response":"absent","rt":"7031.1000000089","correct":false,"confidence":-1},{"trial_n":88,"span":9,"encoder":"374358145","distractor":"373358145","target":"present","response":"absent","rt":"6992.200000003","correct":false,"confidence":-1},{"trial_n":89,"span":8,"encoder":"05068700","distractor":"05068800","target":"present","response":"present","rt":"8435.6000000089","correct":true,"confidence":-1},{"trial_n":90,"span":8,"encoder":"84334051","distractor":"84334021","target":"absent","response":"absent","rt":"2629.8999999911","correct":true,"confidence":-1},{"trial_n":91,"span":9,"encoder":"636905648","distractor":"636505648","target":"absent","response":"absent","rt":"6631.400000006","correct":true,"confidence":3},{"trial_n":92,"span":9,"encoder":"364215429","distractor":"964215429","target":"absent","response":"absent","rt":"11466.700000003","correct":true,"confidence":2},{"trial_n":93,"span":10,"encoder":"1281947151","distractor":"1281947251","target":"absent","response":"absent","rt":"7826.700000003","correct":true,"confidence":3},{"trial_n":94,"span":10,"encoder":"8542578599","distractor":"8542576599","target":"present","response":"present","rt":"10338.299999997","correct":true,"confidence":4},{"trial_n":95,"span":11,"encoder":"88956039376","distractor":"88916039376","target":"absent","response":"absent","rt":"11278.799999997","correct":true,"confidence":4},{"trial_n":96,"span":11,"encoder":"35248543450","distractor":"35246543450","target":"present","response":"present","rt":"14481.200000003","correct":true,"confidence":1},{"trial_n":97,"span":12,"encoder":"258293895738","distractor":"258298895738","target":"present","response":"present","rt":"20034.5","correct":true,"confidence":3},{"trial_n":98,"span":12,"encoder":"830652927321","distractor":"860652927321","target":"present","response":"absent","rt":"9768.1999999881","correct":false,"confidence":1},{"trial_n":99,"span":11,"encoder":"15351851498","distractor":"15351891498","target":"absent","response":"absent","rt":"7078.200000003","correct":true,"confidence":2},{"trial_n":100,"span":11,"encoder":"99543089244","distractor":"99543089044","target":"present","response":"absent","rt":"25216.399999991","correct":false,"confidence":4},{"trial_n":101,"span":10,"encoder":"7481777592","distractor":"3481777592","target":"present","response":"present","rt":"7393.3000000119","correct":true,"confidence":2},{"trial_n":102,"span":10,"encoder":"5517436289","distractor":"5517466289","target":"present","response":"absent","rt":"8606.799999997","correct":false,"confidence":3},{"trial_n":103,"span":9,"encoder":"483968010","distractor":"483908010","target":"absent","response":"absent","rt":"10980.099999994","correct":true,"confidence":2},{"trial_n":104,"span":9,"encoder":"312974529","distractor":"312974519","target":"present","response":"present","rt":"5731.400000006","correct":true,"confidence":3},{"trial_n":105,"span":10,"encoder":"1610302414","distractor":"1630302414","target":"present","response":"absent","rt":"18913.900000006","correct":false,"confidence":2},{"trial_n":106,"span":9,"encoder":"687810525","distractor":"667810525","target":"present","response":"present","rt":"9224.5","correct":true,"confidence":4},{"trial_n":107,"span":9,"encoder":"222571898","distractor":"222511898","target":"present","response":"present","rt":"5485.299999997","correct":true,"confidence":2},{"trial_n":108,"span":10,"encoder":"1820634620","distractor":"1820639620","target":"present","response":"present","rt":"3086.3999999911","correct":true,"confidence":5},{"trial_n":109,"span":10,"encoder":"5401835055","distractor":"6401835055","target":"present","response":"present","rt":"10769.699999988","correct":true,"confidence":2},{"trial_n":110,"span":11,"encoder":"21999699329","distractor":"11999699329","target":"absent","response":"absent","rt":"10449.299999997","correct":true,"confidence":3},{"trial_n":111,"span":11,"encoder":"65195270779","distractor":"65115270779","target":"present","response":"present","rt":"4283.099999994","correct":true,"confidence":2},{"trial_n":112,"span":12,"encoder":"290649391517","distractor":"295649391517","target":"present","response":"absent","rt":"3812","correct":false,"confidence":2},{"trial_n":113,"span":11,"encoder":"50192659056","distractor":"54192659056","target":"absent","response":"present","rt":"7057.299999997","correct":false,"confidence":3},{"trial_n":114,"span":10,"encoder":"7863898422","distractor":"7863898428","target":"present","response":"present","rt":"3575.5","correct":true,"confidence":5},{"trial_n":115,"span":10,"encoder":"7372815000","distractor":"7352815000","target":"absent","response":"present","rt":"11189.599999994","correct":false,"confidence":3},{"trial_n":116,"span":9,"encoder":"625343152","distractor":"628343152","target":"absent","response":"absent","rt":"8761","correct":true,"confidence":3},{"trial_n":117,"span":9,"encoder":"191547944","distractor":"191527944","target":"absent","response":"absent","rt":"5401.900000006","correct":true,"confidence":2},{"trial_n":118,"span":10,"encoder":"9785778399","distractor":"9785778369","target":"absent","response":"absent","rt":"4357.799999997","correct":true,"confidence":5},{"trial_n":119,"span":10,"encoder":"5183444646","distractor":"5183444641","target":"absent","response":"absent","rt":"3200.299999997","correct":true,"confidence":5},{"trial_n":120,"span":11,"encoder":"22407198326","distractor":"42407198326","target":"present","response":"present","rt":"12707.900000006","correct":true,"confidence":1},{"trial_n":121,"span":11,"encoder":"01396796816","distractor":"01796796816","target":"present","response":"present","rt":"5870.1000000089","correct":true,"confidence":2},{"trial_n":122,"span":12,"encoder":"485822155609","distractor":"445822155609","target":"absent","response":"absent","rt":"8193.1999999881","correct":true,"confidence":4},{"trial_n":123,"span":12,"encoder":"580192944280","distractor":"580122944280","target":"absent","response":"present","rt":"5721.799999997","correct":false,"confidence":2},{"trial_n":124,"span":11,"encoder":"29754978919","distractor":"29714978919","target":"absent","response":"absent","rt":"12417","correct":true,"confidence":3},{"trial_n":125,"span":11,"encoder":"69938964395","distractor":"69931964395","target":"present","response":"absent","rt":"5986.299999997","correct":false,"confidence":1},{"trial_n":126,"span":10,"encoder":"8287092117","distractor":"8287092113","target":"absent","response":"absent","rt":"5035.5","correct":true,"confidence":5},{"trial_n":127,"span":10,"encoder":"3728984267","distractor":"3728984265","target":"absent","response":"absent","rt":"3306.1000000089","correct":true,"confidence":5},{"trial_n":128,"span":11,"encoder":"17348786689","distractor":"17348786639","target":"present","response":"present","rt":"4253.3999999911","correct":true,"confidence":5},{"trial_n":129,"span":11,"encoder":"59709163580","distractor":"59709363580","target":"absent","response":"absent","rt":"12931.900000006","correct":true,"confidence":2},{"trial_n":130,"span":12,"encoder":"850169998510","distractor":"850161998510","target":"present","response":"absent","rt":"9498.1999999881","correct":false,"confidence":2},{"trial_n":131,"span":11,"encoder":"45505193390","distractor":"45505196390","target":"absent","response":"absent","rt":"10583.800000012","correct":true,"confidence":2},{"trial_n":132,"span":11,"encoder":"20384394964","distractor":"20584394964","target":"present","response":"present","rt":"26292","correct":true,"confidence":1},{"trial_n":133,"span":12,"encoder":"859346797000","distractor":"559346797000","target":"present","response":"present","rt":"8886.599999994","correct":true,"confidence":2},{"trial_n":134,"span":12,"encoder":"376388859086","distractor":"376388859084","target":"absent","response":"absent","rt":"7527.299999997","correct":true,"confidence":4},{"trial_n":135,"span":13,"encoder":"7038371930992","distractor":"3038371930992","target":"present","response":"absent","rt":"9604.299999997","correct":false,"confidence":1},{"trial_n":136,"span":12,"encoder":"703968805690","distractor":"703768805690","target":"present","response":"present","rt":"13059.299999997","correct":true,"confidence":1},{"trial_n":137,"span":12,"encoder":"819497417188","distractor":"819697417188","target":"absent","response":"absent","rt":"14397.299999997","correct":true,"confidence":2},{"trial_n":138,"span":13,"encoder":"6422771026651","distractor":"6422771026851","target":"present","response":"present","rt":"3175.799999997","correct":true,"confidence":5},{"trial_n":139,"span":13,"encoder":"0469389851111","distractor":"0469381851111","target":"absent","response":"absent","rt":"9510.900000006","correct":true,"confidence":1},{"trial_n":140,"span":14,"encoder":"59334440363517","distractor":"59334440360517","target":"present","response":"present","rt":"11179","correct":true,"confidence":1}]