[{"trial_n":1,"n_dots":4.25,"target":"left","response":"right","rt":3292.3000000119,"correct":false,"confidence":-1},{"trial_n":2,"n_dots":4.25,"target":"right","response":"right","rt":678.20000000298,"correct":true,"confidence":-1},{"trial_n":3,"n_dots":4.25,"target":"left","response":"left","rt":691.5,"correct":true,"confidence":-1},{"trial_n":4,"n_dots":3.85,"target":"right","response":"right","rt":483.89999999106,"correct":true,"confidence":-1},{"trial_n":5,"n_dots":3.85,"target":"right","response":"right","rt":447.90000000596,"correct":true,"confidence":-1},{"trial_n":6,"n_dots":3.45,"target":"right","response":"right","rt":422.5,"correct":true,"confidence":-1},{"trial_n":7,"n_dots":3.45,"target":"left","response":"left","rt":512.29999999702,"correct":true,"confidence":-1},{"trial_n":8,"n_dots":3.25,"target":"right","response":"right","rt":553.70000000298,"correct":true,"confidence":-1},{"trial_n":9,"n_dots":3.25,"target":"left","response":"left","rt":314.20000000298,"correct":true,"confidence":-1},{"trial_n":10,"n_dots":3.05,"target":"right","response":"right","rt":457,"correct":true,"confidence":-1},{"trial_n":11,"n_dots":3.05,"target":"right","response":"right","rt":343,"correct":true,"confidence":-1},{"trial_n":12,"n_dots":2.85,"target":"left","response":"left","rt":115.59999999404,"correct":true,"confidence":-1},{"trial_n":13,"n_dots":2.85,"target":"left","response":"left","rt":1476.599999994,"correct":true,"confidence":-1},{"trial_n":14,"n_dots":2.75,"target":"left","response":"right","rt":791.79999999702,"correct":false,"confidence":-1},{"trial_n":15,"n_dots":2.85,"target":"right","response":"right","rt":432.79999999702,"correct":true,"confidence":-1},{"trial_n":16,"n_dots":2.85,"target":"left","response":"left","rt":375.70000000298,"correct":true,"confidence":-1},{"trial_n":17,"n_dots":2.75,"target":"left","response":"left","rt":246.60000000894,"correct":true,"confidence":-1},{"trial_n":18,"n_dots":2.75,"target":"left","response":"right","rt":460.40000000596,"correct":false,"confidence":-1},{"trial_n":19,"n_dots":2.85,"target":"left","response":"right","rt":992.39999999106,"correct":false,"confidence":-1},{"trial_n":20,"n_dots":2.95,"target":"left","response":"right","rt":372.09999999404,"correct":false,"confidence":-1},{"trial_n":21,"n_dots":3.05,"target":"left","response":"right","rt":413.89999999106,"correct":false,"confidence":2},{"trial_n":22,"n_dots":3.15,"target":"right","response":"right","rt":510.70000000298,"correct":true,"confidence":3},{"trial_n":23,"n_dots":3.15,"target":"right","response":"right","rt":1553.599999994,"correct":true,"confidence":3},{"trial_n":24,"n_dots":3.05,"target":"right","response":"right","rt":740,"correct":true,"confidence":4},{"trial_n":25,"n_dots":3.05,"target":"right","response":"left","rt":1226.3999999911,"correct":false,"confidence":2},{"trial_n":26,"n_dots":3.15,"target":"right","response":"right","rt":1226.400000006,"correct":true,"confidence":3},{"trial_n":27,"n_dots":3.15,"target":"right","response":"right","rt":1429.400000006,"correct":true,"confidence":2},{"trial_n":28,"n_dots":3.05,"target":"right","response":"right","rt":1704.099999994,"correct":true,"confidence":2},{"trial_n":29,"n_dots":3.05,"target":"right","response":"right","rt":1215.700000003,"correct":true,"confidence":3},{"trial_n":30,"n_dots":2.95,"target":"left","response":"right","rt":1071.599999994,"correct":false,"confidence":2},{"trial_n":31,"n_dots":3.05,"target":"right","response":"left","rt":598.90000000596,"correct":false,"confidence":3},{"trial_n":32,"n_dots":3.15,"target":"left","response":"left","rt":2135.799999997,"correct":true,"confidence":4},{"trial_n":33,"n_dots":3.15,"target":"left","response":"left","rt":1940.700000003,"correct":true,"confidence":3},{"trial_n":34,"n_dots":3.05,"target":"right","response":"right","rt":1401.8999999911,"correct":true,"confidence":3},{"trial_n":35,"n_dots":3.05,"target":"left","response":"right","rt":39.100000008941,"correct":false,"confidence":3},{"trial_n":36,"n_dots":3.15,"target":"left","response":"right","rt":524,"correct":false,"confidence":2},{"trial_n":37,"n_dots":3.25,"target":"left","response":"right","rt":977.29999999702,"correct":false,"confidence":4},{"trial_n":38,"n_dots":3.35,"target":"left","response":"right","rt":896.40000000596,"correct":false,"confidence":4},{"trial_n":39,"n_dots":3.45,"target":"left","response":"right","rt":912.19999998808,"correct":false,"confidence":3},{"trial_n":40,"n_dots":3.55,"target":"left","response":"left","rt":1205.6999999881,"correct":true,"confidence":2},{"trial_n":41,"n_dots":3.55,"target":"left","response":"left","rt":1300.6000000089,"correct":true,"confidence":4},{"trial_n":42,"n_dots":3.45,"target":"left","response":"right","rt":696.70000000298,"correct":false,"confidence":4},{"trial_n":43,"n_dots":3.55,"target":"right","response":"right","rt":1423.8999999911,"correct":true,"confidence":2},{"trial_n":44,"n_dots":3.55,"target":"right","response":"right","rt":411.29999999702,"correct":true,"confidence":4},{"trial_n":45,"n_dots":3.45,"target":"left","response":"right","rt":1536.099999994,"correct":false,"confidence":4},{"trial_n":46,"n_dots":3.55,"target":"left","response":"right","rt":1360.299999997,"correct":false,"confidence":3},{"trial_n":47,"n_dots":3.65,"target":"right","response":"right","rt":1004.299999997,"correct":true,"confidence":3},{"trial_n":48,"n_dots":3.65,"target":"left","response":"left","rt":965.09999999404,"correct":true,"confidence":4},{"trial_n":49,"n_dots":3.55,"target":"left","response":"left","rt":1188.400000006,"correct":true,"confidence":3},{"trial_n":50,"n_dots":3.55,"target":"right","response":"right","rt":1258.1999999881,"correct":true,"confidence":3},{"trial_n":51,"n_dots":3.45,"target":"left","response":"left","rt":829.70000000298,"correct":true,"confidence":4},{"trial_n":52,"n_dots":3.45,"target":"right","response":"left","rt":6753.900000006,"correct":false,"confidence":2},{"trial_n":53,"n_dots":3.55,"target":"right","response":"right","rt":1097.200000003,"correct":true,"confidence":2},{"trial_n":54,"n_dots":3.55,"target":"right","response":"right","rt":955.89999999106,"correct":true,"confidence":3},{"trial_n":55,"n_dots":3.45,"target":"right","response":"right","rt":1110.900000006,"correct":true,"confidence":4},{"trial_n":56,"n_dots":3.45,"target":"right","response":"right","rt":2219.1999999881,"correct":true,"confidence":2},{"trial_n":57,"n_dots":3.35,"target":"right","response":"right","rt":836,"correct":true,"confidence":4},{"trial_n":58,"n_dots":3.35,"target":"right","response":"left","rt":1677.5,"correct":false,"confidence":1},{"trial_n":59,"n_dots":3.45,"target":"right","response":"right","rt":462.20000000298,"correct":true,"confidence":4},{"trial_n":60,"n_dots":3.45,"target":"left","response":"left","rt":1829.1999999881,"correct":true,"confidence":3},{"trial_n":61,"n_dots":3.35,"target":"left","response":"left","rt":1249.099999994,"correct":true,"confidence":2},{"trial_n":62,"n_dots":3.35,"target":"right","response":"left","rt":2447.799999997,"correct":false,"confidence":3},{"trial_n":63,"n_dots":3.45,"target":"right","response":"right","rt":1097.5,"correct":true,"confidence":2},{"trial_n":64,"n_dots":3.45,"target":"right","response":"left","rt":1293.5,"correct":false,"confidence":2},{"trial_n":65,"n_dots":3.55,"target":"right","response":"right","rt":855.29999999702,"correct":true,"confidence":3},{"trial_n":66,"n_dots":3.55,"target":"left","response":"left","rt":1331.6999999881,"correct":true,"confidence":4},{"trial_n":67,"n_dots":3.45,"target":"left","response":"left","rt":1136.200000003,"correct":true,"confidence":4},{"trial_n":68,"n_dots":3.45,"target":"left","response":"left","rt":1456.5,"correct":true,"confidence":3},{"trial_n":69,"n_dots":3.35,"target":"right","response":"right","rt":530.29999999702,"correct":true,"confidence":2},{"trial_n":70,"n_dots":3.35,"target":"left","response":"left","rt":792.5,"correct":true,"confidence":4},{"trial_n":71,"n_dots":3.25,"target":"right","response":"right","rt":165.09999999404,"correct":true,"confidence":4},{"trial_n":72,"n_dots":3.25,"target":"right","response":"right","rt":477.40000000596,"correct":true,"confidence":3},{"trial_n":73,"n_dots":3.15,"target":"right","response":"right","rt":1223.799999997,"correct":true,"confidence":2},{"trial_n":74,"n_dots":3.15,"target":"left","response":"right","rt":499.90000000596,"correct":false,"confidence":1},{"trial_n":75,"n_dots":3.25,"target":"left","response":"left","rt":1995.299999997,"correct":true,"confidence":3},{"trial_n":76,"n_dots":3.25,"target":"left","response":"left","rt":852.90000000596,"correct":true,"confidence":3},{"trial_n":77,"n_dots":3.15,"target":"left","response":"left","rt":963.40000000596,"correct":true,"confidence":4},{"trial_n":78,"n_dots":3.15,"target":"right","response":"right","rt":2058,"correct":true,"confidence":3},{"trial_n":79,"n_dots":3.05,"target":"right","response":"right","rt":2001.599999994,"correct":true,"confidence":3},{"trial_n":80,"n_dots":3.05,"target":"left","response":"left","rt":2171.299999997,"correct":true,"confidence":2},{"trial_n":81,"n_dots":2.95,"target":"left","response":"right","rt":1236.1000000089,"correct":false,"confidence":3},{"trial_n":82,"n_dots":3.05,"target":"left","response":"left","rt":783.29999999702,"correct":true,"confidence":4},{"trial_n":83,"n_dots":3.05,"target":"left","response":"left","rt":1060.299999997,"correct":true,"confidence":2},{"trial_n":84,"n_dots":2.95,"target":"left","response":"left","rt":370.29999999702,"correct":true,"confidence":3},{"trial_n":85,"n_dots":2.95,"target":"left","response":"left","rt":549.29999999702,"correct":true,"confidence":2},{"trial_n":86,"n_dots":2.85,"target":"right","response":"right","rt":935.09999999404,"correct":true,"confidence":3},{"trial_n":87,"n_dots":2.85,"target":"left","response":"right","rt":694.89999999106,"correct":false,"confidence":2},{"trial_n":88,"n_dots":2.95,"target":"left","response":"right","rt":1354.6999999881,"correct":false,"confidence":3},{"trial_n":89,"n_dots":3.05,"target":"left","response":"left","rt":1833.5,"correct":true,"confidence":2},{"trial_n":90,"n_dots":3.05,"target":"right","response":"right","rt":1242.6999999881,"correct":true,"confidence":3},{"trial_n":91,"n_dots":2.95,"target":"right","response":"right","rt":1046.900000006,"correct":true,"confidence":3},{"trial_n":92,"n_dots":2.95,"target":"left","response":"left","rt":1106.599999994,"correct":true,"confidence":4},{"trial_n":93,"n_dots":2.85,"target":"right","response":"right","rt":1205.299999997,"correct":true,"confidence":3},{"trial_n":94,"n_dots":2.85,"target":"right","response":"left","rt":1109.5,"correct":false,"confidence":1},{"trial_n":95,"n_dots":2.95,"target":"right","response":"right","rt":851.39999999106,"correct":true,"confidence":3},{"trial_n":96,"n_dots":2.95,"target":"right","response":"right","rt":778.09999999404,"correct":true,"confidence":4},{"trial_n":97,"n_dots":2.85,"target":"right","response":"right","rt":981.79999999702,"correct":true,"confidence":3},{"trial_n":98,"n_dots":2.85,"target":"left","response":"right","rt":731.89999999106,"correct":false,"confidence":3},{"trial_n":99,"n_dots":2.95,"target":"left","response":"left","rt":1403.200000003,"correct":true,"confidence":2},{"trial_n":100,"n_dots":2.95,"target":"right","response":"right","rt":411.60000000894,"correct":true,"confidence":4},{"trial_n":101,"n_dots":2.85,"target":"right","response":"right","rt":771.29999999702,"correct":true,"confidence":4},{"trial_n":102,"n_dots":2.85,"target":"right","response":"right","rt":831.70000000298,"correct":true,"confidence":4},{"trial_n":103,"n_dots":2.75,"target":"right","response":"right","rt":2366.099999994,"correct":true,"confidence":3},{"trial_n":104,"n_dots":2.75,"target":"right","response":"left","rt":753.5,"correct":false,"confidence":2},{"trial_n":105,"n_dots":2.85,"target":"left","response":"left","rt":1031.3000000119,"correct":true,"confidence":3},{"trial_n":106,"n_dots":2.85,"target":"right","response":"right","rt":734.10000000894,"correct":true,"confidence":3},{"trial_n":107,"n_dots":2.75,"target":"left","response":"left","rt":733.29999999702,"correct":true,"confidence":2},{"trial_n":108,"n_dots":2.75,"target":"left","response":"left","rt":2222.8999999911,"correct":true,"confidence":3},{"trial_n":109,"n_dots":2.65,"target":"right","response":"right","rt":2218.6999999881,"correct":true,"confidence":2},{"trial_n":110,"n_dots":2.65,"target":"right","response":"right","rt":1015,"correct":true,"confidence":3},{"trial_n":111,"n_dots":2.55,"target":"left","response":"left","rt":984.59999999404,"correct":true,"confidence":1},{"trial_n":112,"n_dots":2.55,"target":"left","response":"right","rt":1434,"correct":false,"confidence":2},{"trial_n":113,"n_dots":2.65,"target":"left","response":"left","rt":1133.900000006,"correct":true,"confidence":2},{"trial_n":114,"n_dots":2.65,"target":"left","response":"right","rt":680.59999999404,"correct":false,"confidence":2},{"trial_n":115,"n_dots":2.75,"target":"left","response":"right","rt":1016.6999999881,"correct":false,"confidence":1},{"trial_n":116,"n_dots":2.85,"target":"right","response":"right","rt":1103.3999999911,"correct":true,"confidence":3},{"trial_n":117,"n_dots":2.85,"target":"right","response":"left","rt":2224.1999999881,"correct":false,"confidence":1},{"trial_n":118,"n_dots":2.95,"target":"right","response":"right","rt":978.70000000298,"correct":true,"confidence":2},{"trial_n":119,"n_dots":2.95,"target":"right","response":"left","rt":1618.599999994,"correct":false,"confidence":2},{"trial_n":120,"n_dots":3.05,"target":"left","response":"right","rt":1677.099999994,"correct":false,"confidence":2}]