[{"trial_n":1,"min":25,"max":230,"target":"present","response":"absent","rt":4054.799999997,"correct":false,"confidence":-1},{"trial_n":2,"min":25,"max":230,"target":"present","response":"present","rt":1655.900000006,"correct":true,"confidence":-1},{"trial_n":3,"min":25,"max":230,"target":"absent","response":"absent","rt":805.90000000596,"correct":true,"confidence":-1},{"trial_n":4,"min":41,"max":214,"target":"absent","response":"present","rt":755.39999999106,"correct":false,"confidence":-1},{"trial_n":5,"min":25,"max":230,"target":"present","response":"present","rt":549.90000000596,"correct":true,"confidence":-1},{"trial_n":6,"min":25,"max":230,"target":"absent","response":"absent","rt":616.5,"correct":true,"confidence":-1},{"trial_n":7,"min":41,"max":214,"target":"absent","response":"absent","rt":646.09999999404,"correct":true,"confidence":-1},{"trial_n":8,"min":41,"max":214,"target":"absent","response":"absent","rt":472.80000001192,"correct":true,"confidence":-1},{"trial_n":9,"min":57,"max":198,"target":"absent","response":"absent","rt":552.70000000298,"correct":true,"confidence":-1},{"trial_n":10,"min":57,"max":198,"target":"present","response":"present","rt":525,"correct":true,"confidence":-1},{"trial_n":11,"min":65,"max":190,"target":"absent","response":"absent","rt":705.20000000298,"correct":true,"confidence":-1},{"trial_n":12,"min":65,"max":190,"target":"absent","response":"absent","rt":370.90000000596,"correct":true,"confidence":-1},{"trial_n":13,"min":73,"max":182,"target":"present","response":"absent","rt":319.90000000596,"correct":false,"confidence":-1},{"trial_n":14,"min":65,"max":190,"target":"present","response":"present","rt":601,"correct":true,"confidence":-1},{"trial_n":15,"min":65,"max":190,"target":"present","response":"present","rt":544.5,"correct":true,"confidence":-1},{"trial_n":16,"min":73,"max":182,"target":"present","response":"present","rt":500.5,"correct":true,"confidence":-1},{"trial_n":17,"min":73,"max":182,"target":"absent","response":"absent","rt":501,"correct":true,"confidence":-1},{"trial_n":18,"min":81,"max":174,"target":"absent","response":"absent","rt":627.70000000298,"correct":true,"confidence":-1},{"trial_n":19,"min":81,"max":174,"target":"present","response":"present","rt":575.79999999702,"correct":true,"confidence":-1},{"trial_n":20,"min":89,"max":166,"target":"present","response":"absent","rt":514.59999999404,"correct":false,"confidence":-1},{"trial_n":21,"min":85,"max":170,"target":"absent","response":"absent","rt":1016.3000000119,"correct":true,"confidence":2},{"trial_n":22,"min":85,"max":170,"target":"present","response":"present","rt":5829,"correct":true,"confidence":2},{"trial_n":23,"min":89,"max":166,"target":"absent","response":"absent","rt":2357.900000006,"correct":true,"confidence":3},{"trial_n":24,"min":89,"max":166,"target":"present","response":"absent","rt":1391.299999997,"correct":false,"confidence":4},{"trial_n":25,"min":85,"max":170,"target":"absent","response":"absent","rt":991.89999999106,"correct":true,"confidence":3},{"trial_n":26,"min":85,"max":170,"target":"absent","response":"present","rt":3048.700000003,"correct":false,"confidence":2},{"trial_n":27,"min":81,"max":174,"target":"present","response":"present","rt":2693.799999997,"correct":true,"confidence":2},{"trial_n":28,"min":81,"max":174,"target":"present","response":"present","rt":1922,"correct":true,"confidence":3},{"trial_n":29,"min":85,"max":170,"target":"present","response":"absent","rt":1139.900000006,"correct":false,"confidence":4},{"trial_n":30,"min":81,"max":174,"target":"present","response":"present","rt":729,"correct":true,"confidence":5},{"trial_n":31,"min":81,"max":174,"target":"absent","response":"absent","rt":1208.5,"correct":true,"confidence":3},{"trial_n":32,"min":83,"max":172,"target":"absent","response":"absent","rt":1520.299999997,"correct":true,"confidence":4},{"trial_n":33,"min":83,"max":172,"target":"absent","response":"absent","rt":1098.8000000119,"correct":true,"confidence":3},{"trial_n":34,"min":85,"max":170,"target":"absent","response":"absent","rt":988.5,"correct":true,"confidence":3},{"trial_n":35,"min":85,"max":170,"target":"present","response":"absent","rt":769.29999999702,"correct":false,"confidence":3},{"trial_n":36,"min":83,"max":172,"target":"absent","response":"absent","rt":1127.1000000089,"correct":true,"confidence":2},{"trial_n":37,"min":83,"max":172,"target":"present","response":"absent","rt":990,"correct":false,"confidence":4},{"trial_n":38,"min":81,"max":174,"target":"present","response":"present","rt":1491.599999994,"correct":true,"confidence":2},{"trial_n":39,"min":81,"max":174,"target":"absent","response":"absent","rt":1061.599999994,"correct":true,"confidence":4},{"trial_n":40,"min":83,"max":172,"target":"present","response":"present","rt":2030.299999997,"correct":true,"confidence":4},{"trial_n":41,"min":83,"max":172,"target":"present","response":"present","rt":1308.3999999911,"correct":true,"confidence":4},{"trial_n":42,"min":84,"max":171,"target":"absent","response":"absent","rt":848.69999998808,"correct":true,"confidence":3},{"trial_n":43,"min":84,"max":171,"target":"absent","response":"absent","rt":952.29999999702,"correct":true,"confidence":4},{"trial_n":44,"min":85,"max":170,"target":"present","response":"present","rt":800.09999999404,"correct":true,"confidence":4},{"trial_n":45,"min":85,"max":170,"target":"absent","response":"absent","rt":900.20000000298,"correct":true,"confidence":3},{"trial_n":46,"min":86,"max":169,"target":"present","response":"present","rt":542.20000000298,"correct":true,"confidence":4},{"trial_n":47,"min":86,"max":169,"target":"absent","response":"absent","rt":581.39999999106,"correct":true,"confidence":3},{"trial_n":48,"min":87,"max":168,"target":"absent","response":"absent","rt":1014.799999997,"correct":true,"confidence":2},{"trial_n":49,"min":87,"max":168,"target":"present","response":"present","rt":1157.099999994,"correct":true,"confidence":3},{"trial_n":50,"min":88,"max":167,"target":"absent","response":"absent","rt":791.79999999702,"correct":true,"confidence":2},{"trial_n":51,"min":88,"max":167,"target":"present","response":"present","rt":972.40000000596,"correct":true,"confidence":5},{"trial_n":52,"min":89,"max":166,"target":"present","response":"present","rt":1061.8999999911,"correct":true,"confidence":4},{"trial_n":53,"min":89,"max":166,"target":"present","response":"present","rt":604.10000000894,"correct":true,"confidence":5},{"trial_n":54,"min":90,"max":165,"target":"absent","response":"present","rt":2919.200000003,"correct":false,"confidence":2},{"trial_n":55,"min":89,"max":166,"target":"absent","response":"present","rt":906.90000000596,"correct":false,"confidence":2},{"trial_n":56,"min":88,"max":167,"target":"absent","response":"absent","rt":1078.8000000119,"correct":true,"confidence":4},{"trial_n":57,"min":88,"max":167,"target":"present","response":"absent","rt":1657.099999994,"correct":false,"confidence":2},{"trial_n":58,"min":87,"max":168,"target":"absent","response":"absent","rt":2318.900000006,"correct":true,"confidence":2},{"trial_n":59,"min":87,"max":168,"target":"present","response":"absent","rt":1205.599999994,"correct":false,"confidence":3},{"trial_n":60,"min":86,"max":169,"target":"present","response":"present","rt":663,"correct":true,"confidence":3},{"trial_n":61,"min":86,"max":169,"target":"present","response":"present","rt":930.40000000596,"correct":true,"confidence":5},{"trial_n":62,"min":87,"max":168,"target":"absent","response":"absent","rt":741.60000000894,"correct":true,"confidence":4},{"trial_n":63,"min":87,"max":168,"target":"present","response":"present","rt":817.39999999106,"correct":true,"confidence":3},{"trial_n":64,"min":88,"max":167,"target":"present","response":"present","rt":669.39999999106,"correct":true,"confidence":3},{"trial_n":65,"min":88,"max":167,"target":"absent","response":"present","rt":855.59999999404,"correct":false,"confidence":2},{"trial_n":66,"min":87,"max":168,"target":"present","response":"present","rt":1577.1000000089,"correct":true,"confidence":4},{"trial_n":67,"min":87,"max":168,"target":"present","response":"present","rt":797.40000000596,"correct":true,"confidence":4},{"trial_n":68,"min":88,"max":167,"target":"absent","response":"absent","rt":906.5,"correct":true,"confidence":3},{"trial_n":69,"min":88,"max":167,"target":"absent","response":"absent","rt":863.39999999106,"correct":true,"confidence":4},{"trial_n":70,"min":89,"max":166,"target":"present","response":"present","rt":1104.700000003,"correct":true,"confidence":2},{"trial_n":71,"min":41,"max":214,"target":"present","response":"present","rt":7279.900000006,"correct":true,"confidence":-1},{"trial_n":72,"min":41,"max":214,"target":"present","response":"present","rt":944.40000000596,"correct":true,"confidence":-1},{"trial_n":73,"min":57,"max":198,"target":"absent","response":"absent","rt":994.40000000596,"correct":true,"confidence":-1},{"trial_n":74,"min":57,"max":198,"target":"absent","response":"absent","rt":809.40000000596,"correct":true,"confidence":-1},{"trial_n":75,"min":73,"max":182,"target":"present","response":"present","rt":446.69999998808,"correct":true,"confidence":-1},{"trial_n":76,"min":73,"max":182,"target":"present","response":"present","rt":572.79999999702,"correct":true,"confidence":-1},{"trial_n":77,"min":89,"max":166,"target":"present","response":"absent","rt":1854.299999997,"correct":false,"confidence":-1},{"trial_n":78,"min":73,"max":182,"target":"present","response":"present","rt":2114.700000003,"correct":true,"confidence":-1},{"trial_n":79,"min":73,"max":182,"target":"absent","response":"present","rt":1290.900000006,"correct":false,"confidence":-1},{"trial_n":80,"min":57,"max":198,"target":"absent","response":"absent","rt":814.70000000298,"correct":true,"confidence":-1},{"trial_n":81,"min":57,"max":198,"target":"absent","response":"absent","rt":739.79999999702,"correct":true,"confidence":-1},{"trial_n":82,"min":65,"max":190,"target":"present","response":"present","rt":796.90000000596,"correct":true,"confidence":-1},{"trial_n":83,"min":65,"max":190,"target":"absent","response":"absent","rt":790.5,"correct":true,"confidence":-1},{"trial_n":84,"min":73,"max":182,"target":"present","response":"present","rt":790.80000001192,"correct":true,"confidence":-1},{"trial_n":85,"min":73,"max":182,"target":"absent","response":"absent","rt":1683.700000003,"correct":true,"confidence":-1},{"trial_n":86,"min":81,"max":174,"target":"absent","response":"absent","rt":810.5,"correct":true,"confidence":-1},{"trial_n":87,"min":81,"max":174,"target":"present","response":"present","rt":574.79999999702,"correct":true,"confidence":-1},{"trial_n":88,"min":89,"max":166,"target":"absent","response":"present","rt":1294.599999994,"correct":false,"confidence":-1},{"trial_n":89,"min":81,"max":174,"target":"absent","response":"absent","rt":880.70000000298,"correct":true,"confidence":-1},{"trial_n":90,"min":81,"max":174,"target":"absent","response":"present","rt":741.29999999702,"correct":false,"confidence":-1},{"trial_n":91,"min":77,"max":178,"target":"absent","response":"absent","rt":796.79999999702,"correct":true,"confidence":3},{"trial_n":92,"min":77,"max":178,"target":"absent","response":"absent","rt":2519.700000003,"correct":true,"confidence":3},{"trial_n":93,"min":81,"max":174,"target":"present","response":"present","rt":994.40000000596,"correct":true,"confidence":5},{"trial_n":94,"min":81,"max":174,"target":"absent","response":"absent","rt":2073.900000006,"correct":true,"confidence":3},{"trial_n":95,"min":85,"max":170,"target":"absent","response":"absent","rt":765.40000000596,"correct":true,"confidence":4},{"trial_n":96,"min":85,"max":170,"target":"absent","response":"present","rt":464.19999998808,"correct":false,"confidence":5},{"trial_n":97,"min":81,"max":174,"target":"absent","response":"present","rt":494,"correct":false,"confidence":3},{"trial_n":98,"min":77,"max":178,"target":"absent","response":"present","rt":2023.5,"correct":false,"confidence":3},{"trial_n":99,"min":73,"max":182,"target":"present","response":"present","rt":426.5,"correct":true,"confidence":5},{"trial_n":100,"min":73,"max":182,"target":"present","response":"present","rt":342.89999999106,"correct":true,"confidence":5},{"trial_n":101,"min":75,"max":180,"target":"present","response":"present","rt":332.80000001192,"correct":true,"confidence":5},{"trial_n":102,"min":75,"max":180,"target":"present","response":"present","rt":348.10000000894,"correct":true,"confidence":5},{"trial_n":103,"min":77,"max":178,"target":"present","response":"present","rt":2557,"correct":true,"confidence":5},{"trial_n":104,"min":77,"max":178,"target":"present","response":"present","rt":729.40000000596,"correct":true,"confidence":5},{"trial_n":105,"min":79,"max":176,"target":"absent","response":"absent","rt":998.29999999702,"correct":true,"confidence":2},{"trial_n":106,"min":79,"max":176,"target":"present","response":"present","rt":378.10000000894,"correct":true,"confidence":5},{"trial_n":107,"min":81,"max":174,"target":"absent","response":"absent","rt":781.40000000596,"correct":true,"confidence":5},{"trial_n":108,"min":81,"max":174,"target":"present","response":"present","rt":793.5,"correct":true,"confidence":3},{"trial_n":109,"min":83,"max":172,"target":"absent","response":"present","rt":549.90000000596,"correct":false,"confidence":2},{"trial_n":110,"min":81,"max":174,"target":"absent","response":"present","rt":1106.799999997,"correct":false,"confidence":1},{"trial_n":111,"min":80,"max":175,"target":"present","response":"present","rt":319.70000000298,"correct":true,"confidence":5},{"trial_n":112,"min":80,"max":175,"target":"absent","response":"absent","rt":666.89999999106,"correct":true,"confidence":5},{"trial_n":113,"min":81,"max":174,"target":"present","response":"present","rt":264.30000001192,"correct":true,"confidence":5},{"trial_n":114,"min":81,"max":174,"target":"present","response":"present","rt":509.40000000596,"correct":true,"confidence":5},{"trial_n":115,"min":82,"max":173,"target":"absent","response":"present","rt":1030.200000003,"correct":false,"confidence":2},{"trial_n":116,"min":81,"max":174,"target":"present","response":"present","rt":418.59999999404,"correct":true,"confidence":5},{"trial_n":117,"min":81,"max":174,"target":"absent","response":"absent","rt":839,"correct":true,"confidence":3},{"trial_n":118,"min":82,"max":173,"target":"present","response":"present","rt":124.59999999404,"correct":true,"confidence":5},{"trial_n":119,"min":82,"max":173,"target":"absent","response":"absent","rt":710.10000000894,"correct":true,"confidence":4},{"trial_n":120,"min":83,"max":172,"target":"absent","response":"absent","rt":1069.299999997,"correct":true,"confidence":2},{"trial_n":121,"min":83,"max":172,"target":"present","response":"present","rt":556.5,"correct":true,"confidence":3},{"trial_n":122,"min":84,"max":171,"target":"absent","response":"present","rt":731.29999999702,"correct":false,"confidence":2},{"trial_n":123,"min":83,"max":172,"target":"present","response":"present","rt":350.89999999106,"correct":true,"confidence":5},{"trial_n":124,"min":83,"max":172,"target":"present","response":"present","rt":478.40000000596,"correct":true,"confidence":2},{"trial_n":125,"min":84,"max":171,"target":"present","response":"present","rt":524,"correct":true,"confidence":5},{"trial_n":126,"min":84,"max":171,"target":"absent","response":"present","rt":903.89999999106,"correct":false,"confidence":3},{"trial_n":127,"min":83,"max":172,"target":"absent","response":"absent","rt":1340.700000003,"correct":true,"confidence":4},{"trial_n":128,"min":83,"max":172,"target":"present","response":"present","rt":382,"correct":true,"confidence":5},{"trial_n":129,"min":84,"max":171,"target":"present","response":"present","rt":4060.5,"correct":true,"confidence":3},{"trial_n":130,"min":84,"max":171,"target":"absent","response":"absent","rt":831.40000000596,"correct":true,"confidence":3},{"trial_n":131,"min":85,"max":170,"target":"present","response":"present","rt":500.70000000298,"correct":true,"confidence":5},{"trial_n":132,"min":85,"max":170,"target":"present","response":"present","rt":362.69999998808,"correct":true,"confidence":5},{"trial_n":133,"min":86,"max":169,"target":"present","response":"present","rt":638.29999999702,"correct":true,"confidence":5},{"trial_n":134,"min":86,"max":169,"target":"present","response":"present","rt":541.20000000298,"correct":true,"confidence":5},{"trial_n":135,"min":87,"max":168,"target":"absent","response":"present","rt":738.39999999106,"correct":false,"confidence":2},{"trial_n":136,"min":86,"max":169,"target":"absent","response":"present","rt":929.79999999702,"correct":false,"confidence":1},{"trial_n":137,"min":85,"max":170,"target":"absent","response":"present","rt":601.29999999702,"correct":false,"confidence":1},{"trial_n":138,"min":84,"max":171,"target":"present","response":"present","rt":1388.299999997,"correct":true,"confidence":5},{"trial_n":139,"min":84,"max":171,"target":"present","response":"present","rt":712.60000000894,"correct":true,"confidence":5},{"trial_n":140,"min":85,"max":170,"target":"present","response":"present","rt":1883.400000006,"correct":true,"confidence":5}]