[{"trial_n":1,"n_dots":4.25,"target":"right","response":"left","rt":12308.5,"correct":false,"confidence":-1},{"trial_n":2,"n_dots":4.25,"target":"left","response":"left","rt":4233.400000006,"correct":true,"confidence":-1},{"trial_n":3,"n_dots":4.25,"target":"left","response":"left","rt":485.10000000894,"correct":true,"confidence":-1},{"trial_n":4,"n_dots":3.85,"target":"right","response":"right","rt":477.5,"correct":true,"confidence":-1},{"trial_n":5,"n_dots":3.85,"target":"right","response":"left","rt":993.5,"correct":false,"confidence":-1},{"trial_n":6,"n_dots":4.25,"target":"right","response":"right","rt":2036.200000003,"correct":true,"confidence":-1},{"trial_n":7,"n_dots":4.25,"target":"right","response":"right","rt":649.10000000894,"correct":true,"confidence":-1},{"trial_n":8,"n_dots":4.05,"target":"right","response":"right","rt":53,"correct":true,"confidence":-1},{"trial_n":9,"n_dots":4.05,"target":"right","response":"right","rt":696.10000000894,"correct":true,"confidence":-1},{"trial_n":10,"n_dots":3.85,"target":"left","response":"left","rt":418.89999999106,"correct":true,"confidence":-1},{"trial_n":11,"n_dots":3.85,"target":"left","response":"left","rt":343.69999998808,"correct":true,"confidence":-1},{"trial_n":12,"n_dots":3.65,"target":"right","response":"right","rt":429.70000000298,"correct":true,"confidence":-1},{"trial_n":13,"n_dots":3.65,"target":"left","response":"right","rt":4994.5,"correct":false,"confidence":-1},{"trial_n":14,"n_dots":3.75,"target":"right","response":"left","rt":1542.400000006,"correct":false,"confidence":-1},{"trial_n":15,"n_dots":3.85,"target":"right","response":"right","rt":23.29999999702,"correct":true,"confidence":-1},{"trial_n":16,"n_dots":3.85,"target":"right","response":"right","rt":-2.8000000119209,"correct":true,"confidence":-1},{"trial_n":17,"n_dots":3.75,"target":"left","response":"left","rt":530.29999999702,"correct":true,"confidence":-1},{"trial_n":18,"n_dots":3.75,"target":"left","response":"right","rt":19.100000008941,"correct":false,"confidence":-1},{"trial_n":19,"n_dots":3.85,"target":"left","response":"left","rt":2119.1000000089,"correct":true,"confidence":-1},{"trial_n":20,"n_dots":3.85,"target":"left","response":"left","rt":496.79999999702,"correct":true,"confidence":-1},{"trial_n":21,"n_dots":3.75,"target":"right","response":"right","rt":96.79999999702,"correct":true,"confidence":2},{"trial_n":22,"n_dots":3.75,"target":"right","response":"right","rt":1243.6000000089,"correct":true,"confidence":2},{"trial_n":23,"n_dots":3.65,"target":"right","response":"right","rt":438.59999999404,"correct":true,"confidence":4},{"trial_n":24,"n_dots":3.65,"target":"right","response":"right","rt":256.09999999404,"correct":true,"confidence":3},{"trial_n":25,"n_dots":3.55,"target":"left","response":"left","rt":2670.5,"correct":true,"confidence":2},{"trial_n":26,"n_dots":3.55,"target":"right","response":"right","rt":56457.700000003,"correct":true,"confidence":1},{"trial_n":27,"n_dots":3.45,"target":"left","response":"right","rt":1182.799999997,"correct":false,"confidence":2},{"trial_n":28,"n_dots":3.55,"target":"right","response":"right","rt":1000.700000003,"correct":true,"confidence":2},{"trial_n":29,"n_dots":3.55,"target":"left","response":"left","rt":1226.799999997,"correct":true,"confidence":3},{"trial_n":30,"n_dots":3.45,"target":"right","response":"right","rt":66.5,"correct":true,"confidence":4},{"trial_n":31,"n_dots":3.45,"target":"right","response":"left","rt":1480.599999994,"correct":false,"confidence":3},{"trial_n":32,"n_dots":3.55,"target":"right","response":"right","rt":1314.1000000089,"correct":true,"confidence":2},{"trial_n":33,"n_dots":3.55,"target":"right","response":"right","rt":500.79999999702,"correct":true,"confidence":2},{"trial_n":34,"n_dots":3.45,"target":"right","response":"left","rt":190.09999999404,"correct":false,"confidence":3},{"trial_n":35,"n_dots":3.55,"target":"left","response":"left","rt":813.89999999106,"correct":true,"confidence":3},{"trial_n":36,"n_dots":3.55,"target":"left","response":"left","rt":1475.3999999911,"correct":true,"confidence":1},{"trial_n":37,"n_dots":3.45,"target":"left","response":"left","rt":56526.700000003,"correct":true,"confidence":1},{"trial_n":38,"n_dots":3.45,"target":"left","response":"left","rt":936.09999999404,"correct":true,"confidence":3},{"trial_n":39,"n_dots":3.35,"target":"left","response":"left","rt":585,"correct":true,"confidence":3},{"trial_n":40,"n_dots":3.35,"target":"right","response":"left","rt":260.10000000894,"correct":false,"confidence":4},{"trial_n":41,"n_dots":3.45,"target":"right","response":"right","rt":5796.700000003,"correct":true,"confidence":3},{"trial_n":42,"n_dots":3.45,"target":"left","response":"right","rt":144.60000000894,"correct":false,"confidence":2},{"trial_n":43,"n_dots":3.55,"target":"left","response":"left","rt":3893.200000003,"correct":true,"confidence":2},{"trial_n":44,"n_dots":3.55,"target":"left","response":"left","rt":1366.299999997,"correct":true,"confidence":3},{"trial_n":45,"n_dots":3.45,"target":"left","response":"left","rt":966,"correct":true,"confidence":4},{"trial_n":46,"n_dots":3.45,"target":"left","response":"left","rt":1453.099999994,"correct":true,"confidence":2},{"trial_n":47,"n_dots":3.35,"target":"right","response":"right","rt":1395.799999997,"correct":true,"confidence":4},{"trial_n":48,"n_dots":3.35,"target":"left","response":"left","rt":1134.799999997,"correct":true,"confidence":3},{"trial_n":49,"n_dots":3.25,"target":"left","response":"right","rt":1513.700000003,"correct":false,"confidence":5},{"trial_n":50,"n_dots":3.35,"target":"right","response":"right","rt":2256.200000003,"correct":true,"confidence":3},{"trial_n":51,"n_dots":3.35,"target":"left","response":"left","rt":1016.400000006,"correct":true,"confidence":2},{"trial_n":52,"n_dots":3.25,"target":"left","response":"right","rt":2205.299999997,"correct":false,"confidence":2},{"trial_n":53,"n_dots":3.35,"target":"left","response":"left","rt":94,"correct":true,"confidence":2},{"trial_n":54,"n_dots":3.35,"target":"left","response":"left","rt":1638,"correct":true,"confidence":3},{"trial_n":55,"n_dots":3.25,"target":"right","response":"right","rt":519.20000000298,"correct":true,"confidence":4},{"trial_n":56,"n_dots":3.25,"target":"right","response":"right","rt":1373.099999994,"correct":true,"confidence":3},{"trial_n":57,"n_dots":3.15,"target":"right","response":"left","rt":1077.6000000089,"correct":false,"confidence":2},{"trial_n":58,"n_dots":3.25,"target":"left","response":"left","rt":1829.1000000089,"correct":true,"confidence":2},{"trial_n":59,"n_dots":3.25,"target":"left","response":"left","rt":273.29999999702,"correct":true,"confidence":1},{"trial_n":60,"n_dots":3.15,"target":"right","response":"right","rt":1893,"correct":true,"confidence":4},{"trial_n":61,"n_dots":3.15,"target":"left","response":"left","rt":1138.799999997,"correct":true,"confidence":3},{"trial_n":62,"n_dots":3.05,"target":"right","response":"left","rt":51.29999999702,"correct":false,"confidence":1},{"trial_n":63,"n_dots":3.15,"target":"right","response":"right","rt":47221.200000003,"correct":true,"confidence":1},{"trial_n":64,"n_dots":3.15,"target":"left","response":"left","rt":1366.200000003,"correct":true,"confidence":5},{"trial_n":65,"n_dots":3.05,"target":"left","response":"right","rt":1132.700000003,"correct":false,"confidence":2},{"trial_n":66,"n_dots":3.15,"target":"right","response":"right","rt":716.79999999702,"correct":true,"confidence":3},{"trial_n":67,"n_dots":3.15,"target":"left","response":"left","rt":1039.299999997,"correct":true,"confidence":5},{"trial_n":68,"n_dots":3.05,"target":"left","response":"left","rt":1003.200000003,"correct":true,"confidence":3},{"trial_n":69,"n_dots":3.05,"target":"left","response":"left","rt":505.29999999702,"correct":true,"confidence":2},{"trial_n":70,"n_dots":2.95,"target":"right","response":"right","rt":1195.400000006,"correct":true,"confidence":3},{"trial_n":71,"n_dots":2.95,"target":"left","response":"right","rt":1490.299999997,"correct":false,"confidence":1},{"trial_n":72,"n_dots":3.05,"target":"left","response":"left","rt":746.90000000596,"correct":true,"confidence":4},{"trial_n":73,"n_dots":3.05,"target":"right","response":"left","rt":898.90000000596,"correct":false,"confidence":3},{"trial_n":74,"n_dots":3.15,"target":"right","response":"left","rt":1606.1000000089,"correct":false,"confidence":2},{"trial_n":75,"n_dots":3.25,"target":"left","response":"right","rt":4386.5,"correct":false,"confidence":2},{"trial_n":76,"n_dots":3.35,"target":"right","response":"right","rt":980.5,"correct":true,"confidence":3},{"trial_n":77,"n_dots":3.35,"target":"left","response":"left","rt":1148.700000003,"correct":true,"confidence":2},{"trial_n":78,"n_dots":3.25,"target":"right","response":"right","rt":2772.299999997,"correct":true,"confidence":4},{"trial_n":79,"n_dots":3.25,"target":"right","response":"left","rt":2103.6000000089,"correct":false,"confidence":4},{"trial_n":80,"n_dots":3.35,"target":"left","response":"left","rt":3847.6000000089,"correct":true,"confidence":3},{"trial_n":81,"n_dots":3.35,"target":"left","response":"left","rt":1725.1000000089,"correct":true,"confidence":3},{"trial_n":82,"n_dots":3.25,"target":"right","response":"right","rt":827.70000000298,"correct":true,"confidence":4},{"trial_n":83,"n_dots":3.25,"target":"left","response":"left","rt":274.89999999106,"correct":true,"confidence":2},{"trial_n":84,"n_dots":3.15,"target":"left","response":"left","rt":677.70000000298,"correct":true,"confidence":4},{"trial_n":85,"n_dots":3.15,"target":"left","response":"left","rt":766.5,"correct":true,"confidence":2},{"trial_n":86,"n_dots":3.05,"target":"left","response":"left","rt":658.39999999106,"correct":true,"confidence":3},{"trial_n":87,"n_dots":3.05,"target":"left","response":"left","rt":2041.1000000089,"correct":true,"confidence":3},{"trial_n":88,"n_dots":2.95,"target":"right","response":"right","rt":1068,"correct":true,"confidence":5},{"trial_n":89,"n_dots":2.95,"target":"right","response":"left","rt":1274.799999997,"correct":false,"confidence":1},{"trial_n":90,"n_dots":3.05,"target":"right","response":"left","rt":880.79999999702,"correct":false,"confidence":2},{"trial_n":91,"n_dots":3.15,"target":"left","response":"left","rt":435.5,"correct":true,"confidence":2},{"trial_n":92,"n_dots":3.15,"target":"right","response":"right","rt":290.29999999702,"correct":true,"confidence":4},{"trial_n":93,"n_dots":3.05,"target":"right","response":"right","rt":495.29999999702,"correct":true,"confidence":2},{"trial_n":94,"n_dots":3.05,"target":"right","response":"right","rt":71,"correct":true,"confidence":2},{"trial_n":95,"n_dots":2.95,"target":"right","response":"right","rt":1228.900000006,"correct":true,"confidence":3},{"trial_n":96,"n_dots":2.95,"target":"right","response":"right","rt":881.90000000596,"correct":true,"confidence":2},{"trial_n":97,"n_dots":2.85,"target":"right","response":"left","rt":2562.200000003,"correct":false,"confidence":3},{"trial_n":98,"n_dots":2.95,"target":"left","response":"left","rt":826,"correct":true,"confidence":2},{"trial_n":99,"n_dots":2.95,"target":"left","response":"right","rt":1279.3000000119,"correct":false,"confidence":3},{"trial_n":100,"n_dots":3.05,"target":"left","response":"left","rt":697.70000000298,"correct":true,"confidence":2},{"trial_n":101,"n_dots":3.05,"target":"left","response":"left","rt":1205,"correct":true,"confidence":3},{"trial_n":102,"n_dots":2.95,"target":"right","response":"right","rt":574.20000000298,"correct":true,"confidence":2},{"trial_n":103,"n_dots":2.95,"target":"left","response":"left","rt":1129.5,"correct":true,"confidence":4},{"trial_n":104,"n_dots":2.85,"target":"right","response":"right","rt":588,"correct":true,"confidence":4},{"trial_n":105,"n_dots":2.85,"target":"left","response":"left","rt":824,"correct":true,"confidence":3},{"trial_n":106,"n_dots":2.75,"target":"left","response":"left","rt":714,"correct":true,"confidence":2},{"trial_n":107,"n_dots":2.75,"target":"right","response":"right","rt":3459.799999997,"correct":true,"confidence":1},{"trial_n":108,"n_dots":2.65,"target":"left","response":"right","rt":1815.3999999911,"correct":false,"confidence":2},{"trial_n":109,"n_dots":2.75,"target":"left","response":"left","rt":17185.900000006,"correct":true,"confidence":2},{"trial_n":110,"n_dots":2.75,"target":"left","response":"left","rt":373.40000000596,"correct":true,"confidence":3},{"trial_n":111,"n_dots":2.65,"target":"right","response":"right","rt":1549.299999997,"correct":true,"confidence":3},{"trial_n":112,"n_dots":2.65,"target":"left","response":"left","rt":647,"correct":true,"confidence":2},{"trial_n":113,"n_dots":2.55,"target":"right","response":"left","rt":1915.1999999881,"correct":false,"confidence":2},{"trial_n":114,"n_dots":2.65,"target":"left","response":"left","rt":1216,"correct":true,"confidence":3},{"trial_n":115,"n_dots":2.65,"target":"right","response":"right","rt":1069.700000003,"correct":true,"confidence":2},{"trial_n":116,"n_dots":2.55,"target":"right","response":"left","rt":879.5,"correct":false,"confidence":1},{"trial_n":117,"n_dots":2.65,"target":"right","response":"right","rt":549.70000000298,"correct":true,"confidence":2},{"trial_n":118,"n_dots":2.65,"target":"right","response":"left","rt":395.40000000596,"correct":false,"confidence":2},{"trial_n":119,"n_dots":2.75,"target":"right","response":"right","rt":270.29999999702,"correct":true,"confidence":3},{"trial_n":120,"n_dots":2.75,"target":"right","response":"right","rt":316.20000000298,"correct":true,"confidence":2}]