[{"trial_n":1,"min":25,"max":230,"target":"present","response":"absent","rt":8180.400000006,"correct":false,"confidence":-1},{"trial_n":2,"min":25,"max":230,"target":"present","response":"present","rt":1417.599999994,"correct":true,"confidence":-1},{"trial_n":3,"min":25,"max":230,"target":"absent","response":"absent","rt":934,"correct":true,"confidence":-1},{"trial_n":4,"min":41,"max":214,"target":"absent","response":"absent","rt":963.90000000596,"correct":true,"confidence":-1},{"trial_n":5,"min":41,"max":214,"target":"present","response":"present","rt":851,"correct":true,"confidence":-1},{"trial_n":6,"min":57,"max":198,"target":"absent","response":"absent","rt":955.79999999702,"correct":true,"confidence":-1},{"trial_n":7,"min":57,"max":198,"target":"present","response":"present","rt":895.59999999404,"correct":true,"confidence":-1},{"trial_n":8,"min":73,"max":182,"target":"absent","response":"absent","rt":891.70000000298,"correct":true,"confidence":-1},{"trial_n":9,"min":73,"max":182,"target":"present","response":"present","rt":1288.5,"correct":true,"confidence":-1},{"trial_n":10,"min":89,"max":166,"target":"present","response":"present","rt":1030.8999999911,"correct":true,"confidence":-1},{"trial_n":11,"min":89,"max":166,"target":"absent","response":"absent","rt":1151.900000006,"correct":true,"confidence":-1},{"trial_n":12,"min":97,"max":158,"target":"present","response":"absent","rt":850.60000000894,"correct":false,"confidence":-1},{"trial_n":13,"min":89,"max":166,"target":"absent","response":"absent","rt":1152.799999997,"correct":true,"confidence":-1},{"trial_n":14,"min":89,"max":166,"target":"absent","response":"absent","rt":813.10000000894,"correct":true,"confidence":-1},{"trial_n":15,"min":97,"max":158,"target":"present","response":"absent","rt":1028.3000000119,"correct":false,"confidence":-1},{"trial_n":16,"min":89,"max":166,"target":"present","response":"present","rt":1234.599999994,"correct":true,"confidence":-1},{"trial_n":17,"min":89,"max":166,"target":"present","response":"present","rt":919.20000000298,"correct":true,"confidence":-1},{"trial_n":18,"min":97,"max":158,"target":"present","response":"absent","rt":1418.400000006,"correct":false,"confidence":-1},{"trial_n":19,"min":89,"max":166,"target":"absent","response":"present","rt":1101.900000006,"correct":false,"confidence":-1},{"trial_n":20,"min":81,"max":174,"target":"present","response":"present","rt":1052.700000003,"correct":true,"confidence":-1},{"trial_n":21,"min":81,"max":174,"target":"present","response":"present","rt":1057,"correct":true,"confidence":5},{"trial_n":22,"min":85,"max":170,"target":"present","response":"present","rt":929.90000000596,"correct":true,"confidence":5},{"trial_n":23,"min":85,"max":170,"target":"present","response":"absent","rt":1011.299999997,"correct":false,"confidence":3},{"trial_n":24,"min":81,"max":174,"target":"present","response":"present","rt":1149.700000003,"correct":true,"confidence":5},{"trial_n":25,"min":81,"max":174,"target":"absent","response":"present","rt":1059.299999997,"correct":false,"confidence":3},{"trial_n":26,"min":77,"max":178,"target":"absent","response":"present","rt":1951.5,"correct":false,"confidence":3},{"trial_n":27,"min":73,"max":182,"target":"absent","response":"absent","rt":1184.700000003,"correct":true,"confidence":4},{"trial_n":28,"min":73,"max":182,"target":"absent","response":"absent","rt":1203.799999997,"correct":true,"confidence":3},{"trial_n":29,"min":77,"max":178,"target":"absent","response":"absent","rt":3210.400000006,"correct":true,"confidence":3},{"trial_n":30,"min":77,"max":178,"target":"present","response":"present","rt":1096.6000000089,"correct":true,"confidence":5},{"trial_n":31,"min":79,"max":176,"target":"absent","response":"absent","rt":1768.3999999911,"correct":true,"confidence":3},{"trial_n":32,"min":79,"max":176,"target":"absent","response":"absent","rt":1295.099999994,"correct":true,"confidence":2},{"trial_n":33,"min":81,"max":174,"target":"present","response":"present","rt":1129.8999999911,"correct":true,"confidence":5},{"trial_n":34,"min":81,"max":174,"target":"absent","response":"present","rt":1724.799999997,"correct":false,"confidence":3},{"trial_n":35,"min":79,"max":176,"target":"absent","response":"present","rt":1552.900000006,"correct":false,"confidence":3},{"trial_n":36,"min":77,"max":178,"target":"absent","response":"present","rt":1332.099999994,"correct":false,"confidence":4},{"trial_n":37,"min":75,"max":180,"target":"present","response":"present","rt":945.09999999404,"correct":true,"confidence":5},{"trial_n":38,"min":75,"max":180,"target":"present","response":"present","rt":1191,"correct":true,"confidence":4},{"trial_n":39,"min":77,"max":178,"target":"present","response":"present","rt":1096.400000006,"correct":true,"confidence":5},{"trial_n":40,"min":77,"max":178,"target":"present","response":"present","rt":1003.099999994,"correct":true,"confidence":5},{"trial_n":41,"min":78,"max":177,"target":"absent","response":"absent","rt":944.40000000596,"correct":true,"confidence":4},{"trial_n":42,"min":78,"max":177,"target":"present","response":"present","rt":966.20000000298,"correct":true,"confidence":5},{"trial_n":43,"min":79,"max":176,"target":"absent","response":"absent","rt":940.19999998808,"correct":true,"confidence":4},{"trial_n":44,"min":79,"max":176,"target":"present","response":"present","rt":944.39999999106,"correct":true,"confidence":3},{"trial_n":45,"min":80,"max":175,"target":"absent","response":"present","rt":1802.1999999881,"correct":false,"confidence":2},{"trial_n":46,"min":79,"max":176,"target":"present","response":"present","rt":877.09999999404,"correct":true,"confidence":5},{"trial_n":47,"min":79,"max":176,"target":"absent","response":"absent","rt":1652.599999994,"correct":true,"confidence":3},{"trial_n":48,"min":80,"max":175,"target":"absent","response":"present","rt":1556.200000003,"correct":false,"confidence":4},{"trial_n":49,"min":79,"max":176,"target":"absent","response":"absent","rt":959.09999999404,"correct":true,"confidence":4},{"trial_n":50,"min":79,"max":176,"target":"present","response":"present","rt":816.60000000894,"correct":true,"confidence":5},{"trial_n":51,"min":80,"max":175,"target":"absent","response":"present","rt":1612,"correct":false,"confidence":3},{"trial_n":52,"min":79,"max":176,"target":"absent","response":"present","rt":1093.200000003,"correct":false,"confidence":4},{"trial_n":53,"min":78,"max":177,"target":"absent","response":"present","rt":936,"correct":false,"confidence":2},{"trial_n":54,"min":77,"max":178,"target":"absent","response":"present","rt":1414.299999997,"correct":false,"confidence":4},{"trial_n":55,"min":76,"max":179,"target":"absent","response":"absent","rt":1125.3000000119,"correct":true,"confidence":4},{"trial_n":56,"min":76,"max":179,"target":"present","response":"absent","rt":1663.8000000119,"correct":false,"confidence":4},{"trial_n":57,"min":75,"max":180,"target":"present","response":"present","rt":1075.3999999911,"correct":true,"confidence":5},{"trial_n":58,"min":75,"max":180,"target":"present","response":"present","rt":821.5,"correct":true,"confidence":5},{"trial_n":59,"min":76,"max":179,"target":"absent","response":"present","rt":1174.099999994,"correct":false,"confidence":3},{"trial_n":60,"min":75,"max":180,"target":"present","response":"present","rt":795.19999998808,"correct":true,"confidence":4},{"trial_n":61,"min":75,"max":180,"target":"absent","response":"absent","rt":1090.1999999881,"correct":true,"confidence":4},{"trial_n":62,"min":76,"max":179,"target":"absent","response":"absent","rt":1243.700000003,"correct":true,"confidence":3},{"trial_n":63,"min":76,"max":179,"target":"absent","response":"absent","rt":953.5,"correct":true,"confidence":3},{"trial_n":64,"min":77,"max":178,"target":"present","response":"present","rt":1218.799999997,"correct":true,"confidence":4},{"trial_n":65,"min":77,"max":178,"target":"present","response":"present","rt":823.5,"correct":true,"confidence":5},{"trial_n":66,"min":78,"max":177,"target":"present","response":"present","rt":1015,"correct":true,"confidence":5},{"trial_n":67,"min":78,"max":177,"target":"present","response":"present","rt":965.19999998808,"correct":true,"confidence":5},{"trial_n":68,"min":79,"max":176,"target":"absent","response":"present","rt":1096.3000000119,"correct":false,"confidence":4},{"trial_n":69,"min":78,"max":177,"target":"present","response":"present","rt":903.10000000894,"correct":true,"confidence":5},{"trial_n":70,"min":78,"max":177,"target":"present","response":"present","rt":772.90000000596,"correct":true,"confidence":5},{"trial_n":71,"min":41,"max":214,"target":"present","response":"present","rt":5124.299999997,"correct":true,"confidence":-1},{"trial_n":72,"min":41,"max":214,"target":"present","response":"present","rt":993.80000001192,"correct":true,"confidence":-1},{"trial_n":73,"min":57,"max":198,"target":"absent","response":"absent","rt":1252.3999999911,"correct":true,"confidence":-1},{"trial_n":74,"min":57,"max":198,"target":"absent","response":"absent","rt":937,"correct":true,"confidence":-1},{"trial_n":75,"min":73,"max":182,"target":"present","response":"present","rt":932.30000001192,"correct":true,"confidence":-1},{"trial_n":76,"min":73,"max":182,"target":"present","response":"present","rt":1091.799999997,"correct":true,"confidence":-1},{"trial_n":77,"min":89,"max":166,"target":"absent","response":"absent","rt":1984.799999997,"correct":true,"confidence":-1},{"trial_n":78,"min":89,"max":166,"target":"present","response":"present","rt":922.5,"correct":true,"confidence":-1},{"trial_n":79,"min":105,"max":150,"target":"present","response":"present","rt":1198.299999997,"correct":true,"confidence":-1},{"trial_n":80,"min":105,"max":150,"target":"present","response":"present","rt":1225.3999999911,"correct":true,"confidence":-1},{"trial_n":81,"min":113,"max":142,"target":"present","response":"absent","rt":1664.6000000089,"correct":false,"confidence":-1},{"trial_n":82,"min":105,"max":150,"target":"absent","response":"present","rt":1599.6999999881,"correct":false,"confidence":-1},{"trial_n":83,"min":97,"max":158,"target":"present","response":"absent","rt":1137.700000003,"correct":false,"confidence":-1},{"trial_n":84,"min":89,"max":166,"target":"absent","response":"present","rt":1580.6000000089,"correct":false,"confidence":-1},{"trial_n":85,"min":81,"max":174,"target":"absent","response":"present","rt":810.60000000894,"correct":false,"confidence":-1},{"trial_n":86,"min":73,"max":182,"target":"present","response":"present","rt":1233.900000006,"correct":true,"confidence":-1},{"trial_n":87,"min":73,"max":182,"target":"present","response":"present","rt":543.70000000298,"correct":true,"confidence":-1},{"trial_n":88,"min":81,"max":174,"target":"absent","response":"absent","rt":1201.700000003,"correct":true,"confidence":-1},{"trial_n":89,"min":81,"max":174,"target":"present","response":"present","rt":1062.5,"correct":true,"confidence":-1},{"trial_n":90,"min":89,"max":166,"target":"absent","response":"absent","rt":1571.599999994,"correct":true,"confidence":-1},{"trial_n":91,"min":89,"max":166,"target":"present","response":"present","rt":1038.6000000089,"correct":true,"confidence":5},{"trial_n":92,"min":93,"max":162,"target":"present","response":"absent","rt":1271.299999997,"correct":false,"confidence":2},{"trial_n":93,"min":89,"max":166,"target":"present","response":"present","rt":913.5,"correct":true,"confidence":4},{"trial_n":94,"min":89,"max":166,"target":"present","response":"present","rt":970.89999999106,"correct":true,"confidence":4},{"trial_n":95,"min":93,"max":162,"target":"absent","response":"present","rt":1970.5,"correct":false,"confidence":3},{"trial_n":96,"min":89,"max":166,"target":"present","response":"present","rt":1121.1000000089,"correct":true,"confidence":3},{"trial_n":97,"min":89,"max":166,"target":"present","response":"present","rt":983.80000001192,"correct":true,"confidence":3},{"trial_n":98,"min":93,"max":162,"target":"present","response":"present","rt":1225.799999997,"correct":true,"confidence":4},{"trial_n":99,"min":93,"max":162,"target":"absent","response":"present","rt":1160.8000000119,"correct":false,"confidence":2},{"trial_n":100,"min":89,"max":166,"target":"absent","response":"present","rt":1250.200000003,"correct":false,"confidence":3},{"trial_n":101,"min":87,"max":168,"target":"absent","response":"absent","rt":1984.400000006,"correct":true,"confidence":3},{"trial_n":102,"min":87,"max":168,"target":"absent","response":"present","rt":985.60000000894,"correct":false,"confidence":2},{"trial_n":103,"min":85,"max":170,"target":"absent","response":"present","rt":1077,"correct":false,"confidence":2},{"trial_n":104,"min":83,"max":172,"target":"absent","response":"present","rt":778.90000000596,"correct":false,"confidence":2},{"trial_n":105,"min":81,"max":174,"target":"present","response":"present","rt":1055.900000006,"correct":true,"confidence":5},{"trial_n":106,"min":81,"max":174,"target":"absent","response":"present","rt":1142.900000006,"correct":false,"confidence":3},{"trial_n":107,"min":79,"max":176,"target":"present","response":"present","rt":1434.5,"correct":true,"confidence":5},{"trial_n":108,"min":79,"max":176,"target":"absent","response":"absent","rt":1398,"correct":true,"confidence":4},{"trial_n":109,"min":81,"max":174,"target":"present","response":"present","rt":1469.8999999911,"correct":true,"confidence":5},{"trial_n":110,"min":81,"max":174,"target":"present","response":"absent","rt":2135.700000003,"correct":false,"confidence":4},{"trial_n":111,"min":80,"max":175,"target":"present","response":"present","rt":978.70000000298,"correct":true,"confidence":5},{"trial_n":112,"min":80,"max":175,"target":"absent","response":"absent","rt":1786.3999999911,"correct":true,"confidence":4},{"trial_n":113,"min":81,"max":174,"target":"absent","response":"absent","rt":1503.1000000089,"correct":true,"confidence":5},{"trial_n":114,"min":81,"max":174,"target":"absent","response":"absent","rt":1418.5,"correct":true,"confidence":5},{"trial_n":115,"min":82,"max":173,"target":"absent","response":"absent","rt":1738.599999994,"correct":true,"confidence":4},{"trial_n":116,"min":82,"max":173,"target":"present","response":"present","rt":2107.1000000089,"correct":true,"confidence":4},{"trial_n":117,"min":83,"max":172,"target":"absent","response":"absent","rt":1578.5,"correct":true,"confidence":4},{"trial_n":118,"min":83,"max":172,"target":"present","response":"present","rt":970.59999999404,"correct":true,"confidence":4},{"trial_n":119,"min":84,"max":171,"target":"absent","response":"absent","rt":1842.799999997,"correct":true,"confidence":5},{"trial_n":120,"min":84,"max":171,"target":"absent","response":"absent","rt":1514.3000000119,"correct":true,"confidence":4},{"trial_n":121,"min":85,"max":170,"target":"absent","response":"present","rt":1174.099999994,"correct":false,"confidence":3},{"trial_n":122,"min":84,"max":171,"target":"present","response":"present","rt":1196.299999997,"correct":true,"confidence":4},{"trial_n":123,"min":84,"max":171,"target":"present","response":"present","rt":1133,"correct":true,"confidence":4},{"trial_n":124,"min":85,"max":170,"target":"absent","response":"absent","rt":1238.5,"correct":true,"confidence":4},{"trial_n":125,"min":85,"max":170,"target":"present","response":"present","rt":1200.200000003,"correct":true,"confidence":4},{"trial_n":126,"min":86,"max":169,"target":"present","response":"present","rt":984.39999999106,"correct":true,"confidence":4},{"trial_n":127,"min":86,"max":169,"target":"present","response":"present","rt":1206.1000000089,"correct":true,"confidence":4},{"trial_n":128,"min":87,"max":168,"target":"present","response":"present","rt":1111.799999997,"correct":true,"confidence":4},{"trial_n":129,"min":87,"max":168,"target":"absent","response":"absent","rt":973.5,"correct":true,"confidence":4},{"trial_n":130,"min":88,"max":167,"target":"absent","response":"present","rt":1436.599999994,"correct":false,"confidence":3},{"trial_n":131,"min":87,"max":168,"target":"absent","response":"present","rt":1635.700000003,"correct":false,"confidence":3},{"trial_n":132,"min":86,"max":169,"target":"absent","response":"absent","rt":1356.6000000089,"correct":true,"confidence":3},{"trial_n":133,"min":86,"max":169,"target":"absent","response":"absent","rt":1833.6000000089,"correct":true,"confidence":4},{"trial_n":134,"min":87,"max":168,"target":"present","response":"present","rt":1196.599999994,"correct":true,"confidence":4},{"trial_n":135,"min":87,"max":168,"target":"present","response":"present","rt":1185.8000000119,"correct":true,"confidence":4},{"trial_n":136,"min":88,"max":167,"target":"absent","response":"absent","rt":1565.400000006,"correct":true,"confidence":4},{"trial_n":137,"min":88,"max":167,"target":"absent","response":"present","rt":1128.400000006,"correct":false,"confidence":4},{"trial_n":138,"min":87,"max":168,"target":"absent","response":"absent","rt":1252.8999999911,"correct":true,"confidence":4},{"trial_n":139,"min":87,"max":168,"target":"present","response":"present","rt":1048,"correct":true,"confidence":4},{"trial_n":140,"min":88,"max":167,"target":"present","response":"present","rt":1021.700000003,"correct":true,"confidence":4}]