[{"trial_n":1,"span":8,"encoder":"07125073","distractor":"07625073","target":"present","response":"present","rt":"9001","correct":true,"confidence":-1},{"trial_n":2,"span":8,"encoder":"08402950","distractor":"08432950","target":"present","response":"present","rt":"3132.700000003","correct":true,"confidence":-1},{"trial_n":3,"span":10,"encoder":"5228325246","distractor":"5225325246","target":"absent","response":"absent","rt":"5112.5","correct":true,"confidence":-1},{"trial_n":4,"span":10,"encoder":"9795935003","distractor":"9795937003","target":"absent","response":"present","rt":"5038.799999997","correct":false,"confidence":-1},{"trial_n":5,"span":8,"encoder":"19518431","distractor":"19528431","target":"present","response":"present","rt":"3830.3000000119","correct":true,"confidence":-1},{"trial_n":6,"span":8,"encoder":"70584152","distractor":"50584152","target":"present","response":"present","rt":"3156.299999997","correct":true,"confidence":-1},{"trial_n":7,"span":10,"encoder":"2747909771","distractor":"9747909771","target":"absent","response":"present","rt":"3109.099999994","correct":false,"confidence":-1},{"trial_n":8,"span":8,"encoder":"54778958","distractor":"54778950","target":"absent","response":"absent","rt":"4990.6000000089","correct":true,"confidence":-1},{"trial_n":9,"span":8,"encoder":"33318209","distractor":"33318259","target":"present","response":"present","rt":"3599.299999997","correct":true,"confidence":-1},{"trial_n":10,"span":10,"encoder":"0593486755","distractor":"0593486055","target":"present","response":"present","rt":"2713.599999994","correct":true,"confidence":-1},{"trial_n":11,"span":10,"encoder":"3518263328","distractor":"3513263328","target":"absent","response":"present","rt":"2480.900000006","correct":false,"confidence":-1},{"trial_n":12,"span":9,"encoder":"902743380","distractor":"702743380","target":"present","response":"absent","rt":"4284","correct":false,"confidence":-1},{"trial_n":13,"span":8,"encoder":"38265938","distractor":"38245938","target":"absent","response":"absent","rt":"5515.700000003","correct":true,"confidence":-1},{"trial_n":14,"span":8,"encoder":"78270808","distractor":"73270808","target":"present","response":"present","rt":"2060.3999999911","correct":true,"confidence":-1},{"trial_n":15,"span":9,"encoder":"439898478","distractor":"436898478","target":"present","response":"present","rt":"4011.700000003","correct":true,"confidence":-1},{"trial_n":16,"span":9,"encoder":"774835910","distractor":"774835912","target":"present","response":"present","rt":"4461.5","correct":true,"confidence":-1},{"trial_n":17,"span":10,"encoder":"5466889267","distractor":"5566889267","target":"present","response":"present","rt":"2946.200000003","correct":true,"confidence":-1},{"trial_n":18,"span":10,"encoder":"5182103146","distractor":"5182103546","target":"absent","response":"absent","rt":"1958.700000003","correct":true,"confidence":-1},{"trial_n":19,"span":11,"encoder":"48058069731","distractor":"46058069731","target":"absent","response":"present","rt":"3582.8999999911","correct":false,"confidence":-1},{"trial_n":20,"span":10,"encoder":"8496105920","distractor":"8096105920","target":"absent","response":"present","rt":"3576.5","correct":false,"confidence":-1},{"trial_n":21,"span":9,"encoder":"484864818","distractor":"784864818","target":"absent","response":"absent","rt":"3104.599999994","correct":true,"confidence":3},{"trial_n":22,"span":9,"encoder":"412285350","distractor":"412285351","target":"absent","response":"absent","rt":"2155.400000006","correct":true,"confidence":5},{"trial_n":23,"span":10,"encoder":"8905964317","distractor":"6905964317","target":"absent","response":"present","rt":"5133.5","correct":false,"confidence":4},{"trial_n":24,"span":9,"encoder":"717335550","distractor":"717535550","target":"present","response":"absent","rt":"3706.1000000089","correct":false,"confidence":3},{"trial_n":25,"span":8,"encoder":"47355074","distractor":"47356074","target":"absent","response":"present","rt":"2882.799999997","correct":false,"confidence":3},{"trial_n":26,"span":7,"encoder":"0778226","distractor":"0778225","target":"present","response":"present","rt":"2412.799999997","correct":true,"confidence":5},{"trial_n":27,"span":7,"encoder":"2441547","distractor":"2441447","target":"absent","response":"absent","rt":"8216.200000003","correct":true,"confidence":2},{"trial_n":28,"span":8,"encoder":"58141840","distractor":"51141840","target":"absent","response":"present","rt":"13100.699999988","correct":false,"confidence":3},{"trial_n":29,"span":7,"encoder":"8628049","distractor":"8628149","target":"present","response":"present","rt":"3885.099999994","correct":true,"confidence":5},{"trial_n":30,"span":7,"encoder":"7843015","distractor":"7843085","target":"absent","response":"absent","rt":"4233.5","correct":true,"confidence":5},{"trial_n":31,"span":8,"encoder":"57984161","distractor":"57934161","target":"present","response":"present","rt":"5156.700000003","correct":true,"confidence":5},{"trial_n":32,"span":8,"encoder":"02593216","distractor":"42593216","target":"present","response":"present","rt":"4138.6999999881","correct":true,"confidence":5},{"trial_n":33,"span":9,"encoder":"195561983","distractor":"195568983","target":"absent","response":"present","rt":"6374.599999994","correct":false,"confidence":4},{"trial_n":34,"span":8,"encoder":"22070083","distractor":"22079083","target":"present","response":"present","rt":"3214.6000000089","correct":true,"confidence":5},{"trial_n":35,"span":8,"encoder":"18515269","distractor":"18315269","target":"absent","response":"absent","rt":"4207.400000006","correct":true,"confidence":2},{"trial_n":36,"span":9,"encoder":"794634519","distractor":"794634539","target":"absent","response":"present","rt":"5785.700000003","correct":false,"confidence":3},{"trial_n":37,"span":8,"encoder":"42230040","distractor":"43230040","target":"absent","response":"absent","rt":"4549.3999999911","correct":true,"confidence":2},{"trial_n":38,"span":8,"encoder":"97831128","distractor":"97831328","target":"absent","response":"absent","rt":"3234.599999994","correct":true,"confidence":5},{"trial_n":39,"span":9,"encoder":"230773874","distractor":"230073874","target":"present","response":"absent","rt":"6619","correct":false,"confidence":4},{"trial_n":40,"span":8,"encoder":"71402395","distractor":"71102395","target":"present","response":"absent","rt":"2394.5","correct":false,"confidence":5},{"trial_n":41,"span":7,"encoder":"4003127","distractor":"3003127","target":"present","response":"present","rt":"3484.599999994","correct":true,"confidence":5},{"trial_n":42,"span":7,"encoder":"9208230","distractor":"9200230","target":"absent","response":"absent","rt":"2678.599999994","correct":true,"confidence":5},{"trial_n":43,"span":8,"encoder":"98351909","distractor":"98361909","target":"absent","response":"absent","rt":"3921.799999997","correct":true,"confidence":5},{"trial_n":44,"span":8,"encoder":"80308014","distractor":"80308094","target":"present","response":"present","rt":"4855.5","correct":true,"confidence":3},{"trial_n":45,"span":9,"encoder":"765748511","distractor":"765748581","target":"present","response":"present","rt":"8806.6000000089","correct":true,"confidence":4},{"trial_n":46,"span":9,"encoder":"176793538","distractor":"176793532","target":"present","response":"present","rt":"4469.6000000089","correct":true,"confidence":3},{"trial_n":47,"span":10,"encoder":"5490954288","distractor":"3490954288","target":"present","response":"present","rt":"4825.8000000119","correct":true,"confidence":2},{"trial_n":48,"span":10,"encoder":"2031749298","distractor":"2031749238","target":"present","response":"absent","rt":"5449.6999999881","correct":false,"confidence":2},{"trial_n":49,"span":9,"encoder":"642681500","distractor":"442681500","target":"absent","response":"present","rt":"5923.5","correct":false,"confidence":3},{"trial_n":50,"span":8,"encoder":"66271457","distractor":"66271857","target":"present","response":"absent","rt":"4023.400000006","correct":false,"confidence":3},{"trial_n":51,"span":7,"encoder":"8409948","distractor":"8459948","target":"present","response":"present","rt":"2507.799999997","correct":true,"confidence":5},{"trial_n":52,"span":7,"encoder":"6281314","distractor":"6081314","target":"absent","response":"absent","rt":"4173.400000006","correct":true,"confidence":4},{"trial_n":53,"span":8,"encoder":"16821211","distractor":"16841211","target":"present","response":"present","rt":"4005.599999994","correct":true,"confidence":4},{"trial_n":54,"span":8,"encoder":"07417958","distractor":"07417953","target":"absent","response":"absent","rt":"4608","correct":true,"confidence":3},{"trial_n":55,"span":9,"encoder":"455144608","distractor":"455141608","target":"absent","response":"present","rt":"6178.299999997","correct":false,"confidence":3},{"trial_n":56,"span":8,"encoder":"82553178","distractor":"92553178","target":"present","response":"present","rt":"3889.200000003","correct":true,"confidence":3},{"trial_n":57,"span":8,"encoder":"87761669","distractor":"17761669","target":"present","response":"absent","rt":"4789.400000006","correct":false,"confidence":4},{"trial_n":58,"span":7,"encoder":"3672520","distractor":"3672522","target":"present","response":"present","rt":"3261.5","correct":true,"confidence":5},{"trial_n":59,"span":7,"encoder":"9791771","distractor":"9792771","target":"absent","response":"absent","rt":"4985.700000003","correct":true,"confidence":4},{"trial_n":60,"span":8,"encoder":"63548328","distractor":"63538328","target":"present","response":"present","rt":"5397.299999997","correct":true,"confidence":3},{"trial_n":61,"span":8,"encoder":"21006151","distractor":"21026151","target":"absent","response":"absent","rt":"2013.6999999881","correct":true,"confidence":3},{"trial_n":62,"span":9,"encoder":"021740234","distractor":"031740234","target":"present","response":"present","rt":"4785.3000000119","correct":true,"confidence":4},{"trial_n":63,"span":9,"encoder":"917176733","distractor":"917176737","target":"present","response":"present","rt":"4223.6999999881","correct":true,"confidence":4},{"trial_n":64,"span":10,"encoder":"5935564774","distractor":"7935564774","target":"absent","response":"present","rt":"3382.700000003","correct":false,"confidence":3},{"trial_n":65,"span":9,"encoder":"379976192","distractor":"379976196","target":"absent","response":"absent","rt":"2180","correct":true,"confidence":2},{"trial_n":66,"span":9,"encoder":"994961106","distractor":"994968106","target":"present","response":"present","rt":"4417.8000000119","correct":true,"confidence":2},{"trial_n":67,"span":10,"encoder":"9621370177","distractor":"9611370177","target":"present","response":"present","rt":"4889.5","correct":true,"confidence":3},{"trial_n":68,"span":10,"encoder":"9493168198","distractor":"9493161198","target":"absent","response":"absent","rt":"3536.599999994","correct":true,"confidence":2},{"trial_n":69,"span":11,"encoder":"74085509848","distractor":"74685509848","target":"absent","response":"present","rt":"4880.6999999881","correct":false,"confidence":2},{"trial_n":70,"span":10,"encoder":"4807947525","distractor":"4817947525","target":"absent","response":"absent","rt":"3444.799999997","correct":true,"confidence":3},{"trial_n":71,"span":8,"encoder":"63712385","distractor":"63012385","target":"present","response":"present","rt":"5151.799999997","correct":true,"confidence":-1},{"trial_n":72,"span":8,"encoder":"22613356","distractor":"22673356","target":"present","response":"absent","rt":"4508.799999997","correct":false,"confidence":-1},{"trial_n":73,"span":7,"encoder":"4432945","distractor":"8432945","target":"absent","response":"present","rt":"5949.700000003","correct":false,"confidence":-1},{"trial_n":74,"span":6,"encoder":"723241","distractor":"923241","target":"absent","response":"absent","rt":"5437.900000006","correct":true,"confidence":-1},{"trial_n":75,"span":6,"encoder":"233298","distractor":"233268","target":"present","response":"present","rt":"5760","correct":true,"confidence":-1},{"trial_n":76,"span":7,"encoder":"4932643","distractor":"4932693","target":"present","response":"present","rt":"4757.1999999881","correct":true,"confidence":-1},{"trial_n":77,"span":7,"encoder":"1312224","distractor":"1712224","target":"absent","response":"absent","rt":"3401.400000006","correct":true,"confidence":-1},{"trial_n":78,"span":8,"encoder":"18544930","distractor":"18544330","target":"present","response":"absent","rt":"4025.099999994","correct":false,"confidence":-1},{"trial_n":79,"span":7,"encoder":"9155570","distractor":"9154570","target":"present","response":"present","rt":"2321.200000003","correct":true,"confidence":-1},{"trial_n":80,"span":7,"encoder":"3785609","distractor":"3782609","target":"absent","response":"present","rt":"1357.6999999881","correct":false,"confidence":-1},{"trial_n":81,"span":6,"encoder":"958363","distractor":"928363","target":"absent","response":"absent","rt":"5557.299999997","correct":true,"confidence":-1},{"trial_n":82,"span":6,"encoder":"446411","distractor":"416411","target":"present","response":"present","rt":"1708.299999997","correct":true,"confidence":-1},{"trial_n":83,"span":7,"encoder":"2900780","distractor":"2940780","target":"absent","response":"absent","rt":"2406.400000006","correct":true,"confidence":-1},{"trial_n":84,"span":7,"encoder":"0699036","distractor":"0199036","target":"absent","response":"absent","rt":"2735.799999997","correct":true,"confidence":-1},{"trial_n":85,"span":8,"encoder":"58507958","distractor":"58503958","target":"present","response":"present","rt":"3682.099999994","correct":true,"confidence":-1},{"trial_n":86,"span":8,"encoder":"99453314","distractor":"19453314","target":"present","response":"present","rt":"7086.5","correct":true,"confidence":-1},{"trial_n":87,"span":9,"encoder":"511007800","distractor":"571007800","target":"present","response":"present","rt":"7864.5","correct":true,"confidence":-1},{"trial_n":88,"span":9,"encoder":"506953609","distractor":"506953604","target":"present","response":"present","rt":"5371.400000006","correct":true,"confidence":-1},{"trial_n":89,"span":10,"encoder":"6762393848","distractor":"6262393848","target":"present","response":"present","rt":"9912","correct":true,"confidence":-1},{"trial_n":90,"span":10,"encoder":"2242075365","distractor":"2242075362","target":"present","response":"present","rt":"7025.700000003","correct":true,"confidence":-1},{"trial_n":91,"span":11,"encoder":"26565732927","distractor":"26665732927","target":"absent","response":"present","rt":"5069","correct":false,"confidence":3},{"trial_n":92,"span":10,"encoder":"1586974479","distractor":"1586874479","target":"present","response":"present","rt":"5786.900000006","correct":true,"confidence":5},{"trial_n":93,"span":10,"encoder":"4122074282","distractor":"4122074281","target":"absent","response":"absent","rt":"8279.5","correct":true,"confidence":3},{"trial_n":94,"span":11,"encoder":"13948514339","distractor":"13948814339","target":"absent","response":"absent","rt":"10265.400000006","correct":true,"confidence":2},{"trial_n":95,"span":11,"encoder":"34970406561","distractor":"34670406561","target":"absent","response":"absent","rt":"4243.1000000089","correct":true,"confidence":5},{"trial_n":96,"span":12,"encoder":"268478250304","distractor":"268478200304","target":"absent","response":"present","rt":"6023","correct":false,"confidence":4},{"trial_n":97,"span":11,"encoder":"83884886124","distractor":"83888886124","target":"absent","response":"absent","rt":"3806.200000003","correct":true,"confidence":5},{"trial_n":98,"span":11,"encoder":"30902480178","distractor":"30942480178","target":"absent","response":"absent","rt":"9921.400000006","correct":true,"confidence":3},{"trial_n":99,"span":12,"encoder":"580618092136","distractor":"580218092136","target":"absent","response":"absent","rt":"17671","correct":true,"confidence":3},{"trial_n":100,"span":12,"encoder":"028926469141","distractor":"028926459141","target":"present","response":"absent","rt":"8081.299999997","correct":false,"confidence":2},{"trial_n":101,"span":11,"encoder":"44791274426","distractor":"44741274426","target":"absent","response":"absent","rt":"5480.299999997","correct":true,"confidence":5},{"trial_n":102,"span":11,"encoder":"75273562622","distractor":"75273552622","target":"absent","response":"absent","rt":"11816.700000003","correct":true,"confidence":3},{"trial_n":103,"span":12,"encoder":"594489969721","distractor":"594489969729","target":"absent","response":"absent","rt":"4112.3999999911","correct":true,"confidence":5},{"trial_n":104,"span":12,"encoder":"754136859455","distractor":"754138859455","target":"present","response":"present","rt":"5703.099999994","correct":true,"confidence":5},{"trial_n":105,"span":13,"encoder":"9452227382864","distractor":"9452227322864","target":"present","response":"absent","rt":"16867.700000003","correct":false,"confidence":3},{"trial_n":106,"span":12,"encoder":"969004973987","distractor":"969304973987","target":"present","response":"present","rt":"9803.8000000119","correct":true,"confidence":2},{"trial_n":107,"span":12,"encoder":"809325725039","distractor":"809325729039","target":"present","response":"present","rt":"4089.5","correct":true,"confidence":5},{"trial_n":108,"span":13,"encoder":"8284011343305","distractor":"8284511343305","target":"absent","response":"absent","rt":"8905.5","correct":true,"confidence":3},{"trial_n":109,"span":13,"encoder":"3772265425442","distractor":"3772265025442","target":"absent","response":"absent","rt":"4986.400000006","correct":true,"confidence":4},{"trial_n":110,"span":14,"encoder":"19834637311727","distractor":"19884637311727","target":"absent","response":"absent","rt":"9122.6000000089","correct":true,"confidence":3},{"trial_n":111,"span":14,"encoder":"21883611722661","distractor":"21883611722631","target":"present","response":"present","rt":"2311.599999994","correct":true,"confidence":5},{"trial_n":112,"span":15,"encoder":"838524345116898","distractor":"830524345116898","target":"absent","response":"present","rt":"28598","correct":false,"confidence":2},{"trial_n":113,"span":14,"encoder":"78718844922465","distractor":"78718844922464","target":"present","response":"absent","rt":"6629.400000006","correct":false,"confidence":3},{"trial_n":114,"span":13,"encoder":"8617658339275","distractor":"8617358339275","target":"absent","response":"present","rt":"8590.599999994","correct":false,"confidence":3},{"trial_n":115,"span":12,"encoder":"577658855251","distractor":"577658854251","target":"present","response":"present","rt":"5322.6000000089","correct":true,"confidence":3},{"trial_n":116,"span":12,"encoder":"283077900752","distractor":"283077900652","target":"present","response":"present","rt":"10129.799999997","correct":true,"confidence":3},{"trial_n":117,"span":13,"encoder":"6184534532363","distractor":"6184534531363","target":"absent","response":"absent","rt":"7640.400000006","correct":true,"confidence":4},{"trial_n":118,"span":13,"encoder":"2035269784431","distractor":"2035269784439","target":"present","response":"present","rt":"2945","correct":true,"confidence":5},{"trial_n":119,"span":14,"encoder":"73989162205403","distractor":"73989162205303","target":"absent","response":"present","rt":"10370.299999997","correct":false,"confidence":2},{"trial_n":120,"span":13,"encoder":"6502992394892","distractor":"6522992394892","target":"present","response":"absent","rt":"12594.900000006","correct":false,"confidence":1},{"trial_n":121,"span":12,"encoder":"169353256884","distractor":"169253256884","target":"present","response":"absent","rt":"15063.899999991","correct":false,"confidence":2},{"trial_n":122,"span":11,"encoder":"96519044753","distractor":"96569044753","target":"present","response":"present","rt":"8836.200000003","correct":true,"confidence":2},{"trial_n":123,"span":11,"encoder":"41985222436","distractor":"41925222436","target":"absent","response":"present","rt":"5317.299999997","correct":false,"confidence":2},{"trial_n":124,"span":10,"encoder":"2389233326","distractor":"2384233326","target":"present","response":"present","rt":"2972.6999999881","correct":true,"confidence":5},{"trial_n":125,"span":10,"encoder":"1709712284","distractor":"1709752284","target":"present","response":"present","rt":"6354.900000006","correct":true,"confidence":4},{"trial_n":126,"span":11,"encoder":"26774378980","distractor":"26774358980","target":"present","response":"present","rt":"6002.5","correct":true,"confidence":3},{"trial_n":127,"span":11,"encoder":"28454306538","distractor":"28454306532","target":"absent","response":"absent","rt":"5425","correct":true,"confidence":2},{"trial_n":128,"span":12,"encoder":"516269934603","distractor":"516269934703","target":"absent","response":"absent","rt":"4893.599999994","correct":true,"confidence":5},{"trial_n":129,"span":12,"encoder":"114895432352","distractor":"116895432352","target":"absent","response":"present","rt":"10198.799999997","correct":false,"confidence":2},{"trial_n":130,"span":11,"encoder":"16214927777","distractor":"16214923777","target":"present","response":"present","rt":"6766.1999999881","correct":true,"confidence":4},{"trial_n":131,"span":11,"encoder":"05799148385","distractor":"25799148385","target":"present","response":"present","rt":"9734.799999997","correct":true,"confidence":2},{"trial_n":132,"span":12,"encoder":"257567113408","distractor":"257667113408","target":"present","response":"present","rt":"6942.299999997","correct":true,"confidence":2},{"trial_n":133,"span":12,"encoder":"750193700280","distractor":"550193700280","target":"absent","response":"present","rt":"8665.099999994","correct":false,"confidence":2},{"trial_n":134,"span":11,"encoder":"00947978761","distractor":"00946978761","target":"absent","response":"absent","rt":"8893.200000003","correct":true,"confidence":5},{"trial_n":135,"span":11,"encoder":"03750644318","distractor":"03750644317","target":"present","response":"present","rt":"5170","correct":true,"confidence":5},{"trial_n":136,"span":12,"encoder":"554204074103","distractor":"554204004103","target":"absent","response":"absent","rt":"5302.299999997","correct":true,"confidence":5},{"trial_n":137,"span":12,"encoder":"675701119318","distractor":"665701119318","target":"present","response":"present","rt":"7234.6000000089","correct":true,"confidence":3},{"trial_n":138,"span":13,"encoder":"8721337442558","distractor":"8711337442558","target":"present","response":"absent","rt":"11423.899999991","correct":false,"confidence":2},{"trial_n":139,"span":12,"encoder":"739013146691","distractor":"739013126691","target":"absent","response":"absent","rt":"3742.6000000089","correct":true,"confidence":4},{"trial_n":140,"span":12,"encoder":"017828227191","distractor":"017828027191","target":"absent","response":"absent","rt":"4556","correct":true,"confidence":4}]