[{"trial_n":1,"n_dots":4.25,"target":"left","response":"left","rt":4405,"correct":true,"confidence":-1},{"trial_n":2,"n_dots":4.25,"target":"right","response":"right","rt":893.59999999404,"correct":true,"confidence":-1},{"trial_n":3,"n_dots":3.85,"target":"left","response":"left","rt":1374.6999999881,"correct":true,"confidence":-1},{"trial_n":4,"n_dots":3.85,"target":"left","response":"right","rt":523.5,"correct":false,"confidence":-1},{"trial_n":5,"n_dots":4.25,"target":"left","response":"right","rt":737.29999999702,"correct":false,"confidence":-1},{"trial_n":6,"n_dots":4.65,"target":"left","response":"left","rt":596.5,"correct":true,"confidence":-1},{"trial_n":7,"n_dots":4.65,"target":"right","response":"right","rt":417.29999999702,"correct":true,"confidence":-1},{"trial_n":8,"n_dots":4.45,"target":"right","response":"right","rt":446.5,"correct":true,"confidence":-1},{"trial_n":9,"n_dots":4.45,"target":"left","response":"right","rt":683.79999999702,"correct":false,"confidence":-1},{"trial_n":10,"n_dots":4.65,"target":"left","response":"right","rt":1134.599999994,"correct":false,"confidence":-1},{"trial_n":11,"n_dots":4.85,"target":"right","response":"right","rt":277.39999999106,"correct":true,"confidence":-1},{"trial_n":12,"n_dots":4.85,"target":"right","response":"right","rt":669.20000000298,"correct":true,"confidence":-1},{"trial_n":13,"n_dots":4.75,"target":"left","response":"left","rt":434.60000000894,"correct":true,"confidence":-1},{"trial_n":14,"n_dots":4.75,"target":"right","response":"right","rt":275.19999998808,"correct":true,"confidence":-1},{"trial_n":15,"n_dots":4.65,"target":"left","response":"left","rt":487.29999999702,"correct":true,"confidence":-1},{"trial_n":16,"n_dots":4.65,"target":"right","response":"right","rt":273.29999999702,"correct":true,"confidence":-1},{"trial_n":17,"n_dots":4.55,"target":"left","response":"left","rt":541.59999999404,"correct":true,"confidence":-1},{"trial_n":18,"n_dots":4.55,"target":"left","response":"left","rt":423.70000000298,"correct":true,"confidence":-1},{"trial_n":19,"n_dots":4.45,"target":"right","response":"right","rt":208.39999999106,"correct":true,"confidence":-1},{"trial_n":20,"n_dots":4.45,"target":"right","response":"right","rt":359.40000000596,"correct":true,"confidence":-1},{"trial_n":21,"n_dots":4.35,"target":"left","response":"left","rt":553.5,"correct":true,"confidence":3},{"trial_n":22,"n_dots":4.35,"target":"right","response":"right","rt":401.79999999702,"correct":true,"confidence":5},{"trial_n":23,"n_dots":4.25,"target":"left","response":"left","rt":520.20000000298,"correct":true,"confidence":4},{"trial_n":24,"n_dots":4.25,"target":"left","response":"left","rt":403.79999999702,"correct":true,"confidence":4},{"trial_n":25,"n_dots":4.15,"target":"left","response":"left","rt":890.20000000298,"correct":true,"confidence":4},{"trial_n":26,"n_dots":4.15,"target":"left","response":"left","rt":879.40000000596,"correct":true,"confidence":3},{"trial_n":27,"n_dots":4.05,"target":"right","response":"right","rt":484.79999999702,"correct":true,"confidence":5},{"trial_n":28,"n_dots":4.05,"target":"right","response":"right","rt":1231.3999999911,"correct":true,"confidence":3},{"trial_n":29,"n_dots":3.95,"target":"left","response":"left","rt":1740.6999999881,"correct":true,"confidence":3},{"trial_n":30,"n_dots":3.95,"target":"right","response":"left","rt":1297.299999997,"correct":false,"confidence":2},{"trial_n":31,"n_dots":4.05,"target":"right","response":"right","rt":1124.299999997,"correct":true,"confidence":4},{"trial_n":32,"n_dots":4.05,"target":"right","response":"right","rt":1624.099999994,"correct":true,"confidence":4},{"trial_n":33,"n_dots":3.95,"target":"left","response":"left","rt":916.20000000298,"correct":true,"confidence":3},{"trial_n":34,"n_dots":3.95,"target":"left","response":"left","rt":894.5,"correct":true,"confidence":3},{"trial_n":35,"n_dots":3.85,"target":"left","response":"left","rt":928.79999999702,"correct":true,"confidence":2},{"trial_n":36,"n_dots":3.85,"target":"right","response":"right","rt":326.90000000596,"correct":true,"confidence":4},{"trial_n":37,"n_dots":3.75,"target":"right","response":"right","rt":1101.900000006,"correct":true,"confidence":4},{"trial_n":38,"n_dots":3.75,"target":"right","response":"right","rt":804.80000001192,"correct":true,"confidence":4},{"trial_n":39,"n_dots":3.65,"target":"right","response":"right","rt":1655,"correct":true,"confidence":4},{"trial_n":40,"n_dots":3.65,"target":"right","response":"right","rt":913.40000000596,"correct":true,"confidence":4},{"trial_n":41,"n_dots":3.55,"target":"right","response":"right","rt":669.79999999702,"correct":true,"confidence":4},{"trial_n":42,"n_dots":3.55,"target":"right","response":"right","rt":691.40000000596,"correct":true,"confidence":3},{"trial_n":43,"n_dots":3.45,"target":"right","response":"right","rt":698.19999998808,"correct":true,"confidence":5},{"trial_n":44,"n_dots":3.45,"target":"right","response":"right","rt":798.30000001192,"correct":true,"confidence":5},{"trial_n":45,"n_dots":3.35,"target":"right","response":"left","rt":1144.3999999911,"correct":false,"confidence":3},{"trial_n":46,"n_dots":3.45,"target":"left","response":"left","rt":920.40000000596,"correct":true,"confidence":3},{"trial_n":47,"n_dots":3.45,"target":"left","response":"left","rt":729.09999999404,"correct":true,"confidence":3},{"trial_n":48,"n_dots":3.35,"target":"right","response":"right","rt":914,"correct":true,"confidence":4},{"trial_n":49,"n_dots":3.35,"target":"right","response":"right","rt":478.69999998808,"correct":true,"confidence":4},{"trial_n":50,"n_dots":3.25,"target":"right","response":"right","rt":582.5,"correct":true,"confidence":4},{"trial_n":51,"n_dots":3.25,"target":"right","response":"right","rt":860.59999999404,"correct":true,"confidence":4},{"trial_n":52,"n_dots":3.15,"target":"left","response":"right","rt":626.59999999404,"correct":false,"confidence":3},{"trial_n":53,"n_dots":3.25,"target":"right","response":"right","rt":551.69999998808,"correct":true,"confidence":4},{"trial_n":54,"n_dots":3.25,"target":"left","response":"left","rt":433.70000000298,"correct":true,"confidence":2},{"trial_n":55,"n_dots":3.15,"target":"right","response":"right","rt":639,"correct":true,"confidence":3},{"trial_n":56,"n_dots":3.15,"target":"left","response":"left","rt":672.30000001192,"correct":true,"confidence":3},{"trial_n":57,"n_dots":3.05,"target":"left","response":"right","rt":501.90000000596,"correct":false,"confidence":4},{"trial_n":58,"n_dots":3.15,"target":"left","response":"left","rt":813.60000000894,"correct":true,"confidence":3},{"trial_n":59,"n_dots":3.15,"target":"left","response":"right","rt":412.59999999404,"correct":false,"confidence":4},{"trial_n":60,"n_dots":3.25,"target":"right","response":"right","rt":563.5,"correct":true,"confidence":4},{"trial_n":61,"n_dots":3.25,"target":"right","response":"right","rt":1675.900000006,"correct":true,"confidence":3},{"trial_n":62,"n_dots":3.15,"target":"right","response":"right","rt":722.90000000596,"correct":true,"confidence":4},{"trial_n":63,"n_dots":3.15,"target":"left","response":"right","rt":792.40000000596,"correct":false,"confidence":4},{"trial_n":64,"n_dots":3.25,"target":"left","response":"left","rt":1203.700000003,"correct":true,"confidence":2},{"trial_n":65,"n_dots":3.25,"target":"right","response":"left","rt":226.90000000596,"correct":false,"confidence":3},{"trial_n":66,"n_dots":3.35,"target":"left","response":"left","rt":369.39999999106,"correct":true,"confidence":4},{"trial_n":67,"n_dots":3.35,"target":"right","response":"left","rt":252.59999999404,"correct":false,"confidence":3},{"trial_n":68,"n_dots":3.45,"target":"right","response":"right","rt":574.70000000298,"correct":true,"confidence":4},{"trial_n":69,"n_dots":3.45,"target":"left","response":"left","rt":488.70000000298,"correct":true,"confidence":4},{"trial_n":70,"n_dots":3.35,"target":"left","response":"left","rt":895.60000000894,"correct":true,"confidence":2},{"trial_n":71,"n_dots":3.35,"target":"right","response":"right","rt":744.89999999106,"correct":true,"confidence":4},{"trial_n":72,"n_dots":3.25,"target":"left","response":"left","rt":621.39999999106,"correct":true,"confidence":4},{"trial_n":73,"n_dots":3.25,"target":"right","response":"left","rt":834.60000000894,"correct":false,"confidence":2},{"trial_n":74,"n_dots":3.35,"target":"right","response":"left","rt":531.70000000298,"correct":false,"confidence":4},{"trial_n":75,"n_dots":3.45,"target":"left","response":"left","rt":410,"correct":true,"confidence":3},{"trial_n":76,"n_dots":3.45,"target":"left","response":"left","rt":588.59999999404,"correct":true,"confidence":3},{"trial_n":77,"n_dots":3.35,"target":"left","response":"left","rt":495.40000000596,"correct":true,"confidence":3},{"trial_n":78,"n_dots":3.35,"target":"left","response":"left","rt":726,"correct":true,"confidence":3},{"trial_n":79,"n_dots":3.25,"target":"right","response":"left","rt":652.89999999106,"correct":false,"confidence":4},{"trial_n":80,"n_dots":3.35,"target":"right","response":"right","rt":963.29999999702,"correct":true,"confidence":3},{"trial_n":81,"n_dots":3.35,"target":"left","response":"left","rt":487.79999999702,"correct":true,"confidence":2},{"trial_n":82,"n_dots":3.25,"target":"left","response":"left","rt":475.5,"correct":true,"confidence":4},{"trial_n":83,"n_dots":3.25,"target":"right","response":"right","rt":752.40000000596,"correct":true,"confidence":4},{"trial_n":84,"n_dots":3.15,"target":"right","response":"right","rt":565.79999999702,"correct":true,"confidence":4},{"trial_n":85,"n_dots":3.15,"target":"right","response":"left","rt":460.29999999702,"correct":false,"confidence":3},{"trial_n":86,"n_dots":3.25,"target":"left","response":"left","rt":467.40000000596,"correct":true,"confidence":4},{"trial_n":87,"n_dots":3.25,"target":"right","response":"right","rt":771.09999999404,"correct":true,"confidence":3},{"trial_n":88,"n_dots":3.15,"target":"left","response":"left","rt":395,"correct":true,"confidence":3},{"trial_n":89,"n_dots":3.15,"target":"left","response":"left","rt":378.79999999702,"correct":true,"confidence":3},{"trial_n":90,"n_dots":3.05,"target":"right","response":"right","rt":720.89999999106,"correct":true,"confidence":3},{"trial_n":91,"n_dots":3.05,"target":"right","response":"right","rt":1050.8999999911,"correct":true,"confidence":3},{"trial_n":92,"n_dots":2.95,"target":"right","response":"left","rt":456.89999999106,"correct":false,"confidence":2},{"trial_n":93,"n_dots":3.05,"target":"right","response":"left","rt":400.59999999404,"correct":false,"confidence":3},{"trial_n":94,"n_dots":3.15,"target":"left","response":"left","rt":531,"correct":true,"confidence":3},{"trial_n":95,"n_dots":3.15,"target":"left","response":"left","rt":420.90000000596,"correct":true,"confidence":2},{"trial_n":96,"n_dots":3.05,"target":"right","response":"right","rt":198.90000000596,"correct":true,"confidence":3},{"trial_n":97,"n_dots":3.05,"target":"left","response":"left","rt":275,"correct":true,"confidence":2},{"trial_n":98,"n_dots":2.95,"target":"right","response":"right","rt":801.19999998808,"correct":true,"confidence":4},{"trial_n":99,"n_dots":2.95,"target":"left","response":"left","rt":223,"correct":true,"confidence":3},{"trial_n":100,"n_dots":2.85,"target":"left","response":"left","rt":236.40000000596,"correct":true,"confidence":4},{"trial_n":101,"n_dots":2.85,"target":"right","response":"right","rt":969.20000000298,"correct":true,"confidence":4},{"trial_n":102,"n_dots":2.75,"target":"left","response":"left","rt":269.70000000298,"correct":true,"confidence":3},{"trial_n":103,"n_dots":2.75,"target":"right","response":"right","rt":461.39999999106,"correct":true,"confidence":4},{"trial_n":104,"n_dots":2.65,"target":"left","response":"left","rt":298.70000000298,"correct":true,"confidence":3},{"trial_n":105,"n_dots":2.65,"target":"left","response":"left","rt":321.70000000298,"correct":true,"confidence":3},{"trial_n":106,"n_dots":2.55,"target":"left","response":"left","rt":338.40000000596,"correct":true,"confidence":3},{"trial_n":107,"n_dots":2.55,"target":"right","response":"right","rt":326.20000000298,"correct":true,"confidence":3},{"trial_n":108,"n_dots":2.45,"target":"right","response":"left","rt":219.29999999702,"correct":false,"confidence":2},{"trial_n":109,"n_dots":2.55,"target":"left","response":"right","rt":312.70000000298,"correct":false,"confidence":4},{"trial_n":110,"n_dots":2.65,"target":"right","response":"left","rt":270.20000000298,"correct":false,"confidence":3},{"trial_n":111,"n_dots":2.75,"target":"left","response":"left","rt":231.09999999404,"correct":true,"confidence":3},{"trial_n":112,"n_dots":2.75,"target":"left","response":"right","rt":213.80000001192,"correct":false,"confidence":4},{"trial_n":113,"n_dots":2.85,"target":"left","response":"right","rt":516.90000000596,"correct":false,"confidence":2},{"trial_n":114,"n_dots":2.95,"target":"right","response":"right","rt":538.29999999702,"correct":true,"confidence":2},{"trial_n":115,"n_dots":2.95,"target":"left","response":"right","rt":969.90000000596,"correct":false,"confidence":3},{"trial_n":116,"n_dots":3.05,"target":"right","response":"right","rt":344.10000000894,"correct":true,"confidence":4},{"trial_n":117,"n_dots":3.05,"target":"right","response":"right","rt":545.79999999702,"correct":true,"confidence":4},{"trial_n":118,"n_dots":2.95,"target":"left","response":"left","rt":1139.6999999881,"correct":true,"confidence":3},{"trial_n":119,"n_dots":2.95,"target":"left","response":"left","rt":612.70000000298,"correct":true,"confidence":3},{"trial_n":120,"n_dots":2.85,"target":"left","response":"right","rt":509.70000000298,"correct":false,"confidence":4}]