[{"trial_n":1,"min":25,"max":230,"target":"present","response":"absent","rt":4563.9000000004,"correct":false,"confidence":-1},{"trial_n":2,"min":25,"max":230,"target":"present","response":"present","rt":1094.8000000007,"correct":true,"confidence":-1},{"trial_n":3,"min":25,"max":230,"target":"absent","response":"absent","rt":1031,"correct":true,"confidence":-1},{"trial_n":4,"min":41,"max":214,"target":"absent","response":"present","rt":1004.9000000004,"correct":false,"confidence":-1},{"trial_n":5,"min":25,"max":230,"target":"present","response":"present","rt":706,"correct":true,"confidence":-1},{"trial_n":6,"min":25,"max":230,"target":"present","response":"present","rt":942.90000000037,"correct":true,"confidence":-1},{"trial_n":7,"min":41,"max":214,"target":"present","response":"present","rt":809,"correct":true,"confidence":-1},{"trial_n":8,"min":41,"max":214,"target":"absent","response":"absent","rt":1060.0999999996,"correct":true,"confidence":-1},{"trial_n":9,"min":57,"max":198,"target":"absent","response":"absent","rt":875.40000000037,"correct":true,"confidence":-1},{"trial_n":10,"min":57,"max":198,"target":"present","response":"present","rt":664.80000000075,"correct":true,"confidence":-1},{"trial_n":11,"min":65,"max":190,"target":"absent","response":"absent","rt":789.90000000037,"correct":true,"confidence":-1},{"trial_n":12,"min":65,"max":190,"target":"present","response":"absent","rt":856.70000000112,"correct":false,"confidence":-1},{"trial_n":13,"min":57,"max":198,"target":"present","response":"absent","rt":732.80000000075,"correct":false,"confidence":-1},{"trial_n":14,"min":49,"max":206,"target":"present","response":"present","rt":672.80000000075,"correct":true,"confidence":-1},{"trial_n":15,"min":49,"max":206,"target":"present","response":"present","rt":748.30000000075,"correct":true,"confidence":-1},{"trial_n":16,"min":57,"max":198,"target":"present","response":"present","rt":605.90000000037,"correct":true,"confidence":-1},{"trial_n":17,"min":57,"max":198,"target":"present","response":"present","rt":700.90000000037,"correct":true,"confidence":-1},{"trial_n":18,"min":65,"max":190,"target":"present","response":"absent","rt":660.80000000075,"correct":false,"confidence":-1},{"trial_n":19,"min":57,"max":198,"target":"present","response":"present","rt":595.90000000037,"correct":true,"confidence":-1},{"trial_n":20,"min":57,"max":198,"target":"present","response":"present","rt":778.80000000075,"correct":true,"confidence":-1},{"trial_n":21,"min":61,"max":194,"target":"present","response":"present","rt":1883.7000000011,"correct":true,"confidence":3},{"trial_n":22,"min":61,"max":194,"target":"absent","response":"present","rt":1601.5999999996,"correct":false,"confidence":2},{"trial_n":23,"min":57,"max":198,"target":"absent","response":"present","rt":861.60000000149,"correct":false,"confidence":3},{"trial_n":24,"min":53,"max":202,"target":"absent","response":"present","rt":639.80000000075,"correct":false,"confidence":3},{"trial_n":25,"min":49,"max":206,"target":"absent","response":"absent","rt":634.70000000112,"correct":true,"confidence":4},{"trial_n":26,"min":49,"max":206,"target":"absent","response":"absent","rt":846.59999999963,"correct":true,"confidence":3},{"trial_n":27,"min":53,"max":202,"target":"absent","response":"present","rt":690.70000000112,"correct":false,"confidence":2},{"trial_n":28,"min":49,"max":206,"target":"present","response":"present","rt":627.69999999925,"correct":true,"confidence":4},{"trial_n":29,"min":49,"max":206,"target":"present","response":"present","rt":648.40000000037,"correct":true,"confidence":5},{"trial_n":30,"min":53,"max":202,"target":"absent","response":"absent","rt":791.59999999963,"correct":true,"confidence":3},{"trial_n":31,"min":53,"max":202,"target":"present","response":"present","rt":567.80000000075,"correct":true,"confidence":3},{"trial_n":32,"min":55,"max":200,"target":"present","response":"present","rt":660.59999999963,"correct":true,"confidence":4},{"trial_n":33,"min":55,"max":200,"target":"present","response":"present","rt":633.20000000112,"correct":true,"confidence":5},{"trial_n":34,"min":57,"max":198,"target":"absent","response":"absent","rt":666.59999999963,"correct":true,"confidence":4},{"trial_n":35,"min":57,"max":198,"target":"absent","response":"absent","rt":680.5,"correct":true,"confidence":3},{"trial_n":36,"min":59,"max":196,"target":"present","response":"present","rt":555.59999999963,"correct":true,"confidence":3},{"trial_n":37,"min":59,"max":196,"target":"present","response":"present","rt":689.5,"correct":true,"confidence":3},{"trial_n":38,"min":61,"max":194,"target":"present","response":"present","rt":540.5,"correct":true,"confidence":3},{"trial_n":39,"min":61,"max":194,"target":"absent","response":"absent","rt":558.59999999963,"correct":true,"confidence":4},{"trial_n":40,"min":63,"max":192,"target":"absent","response":"absent","rt":743.69999999925,"correct":true,"confidence":2},{"trial_n":41,"min":63,"max":192,"target":"present","response":"present","rt":590.09999999963,"correct":true,"confidence":3},{"trial_n":42,"min":64,"max":191,"target":"absent","response":"absent","rt":600.30000000075,"correct":true,"confidence":3},{"trial_n":43,"min":64,"max":191,"target":"absent","response":"absent","rt":670.59999999963,"correct":true,"confidence":2},{"trial_n":44,"min":65,"max":190,"target":"absent","response":"absent","rt":880.59999999963,"correct":true,"confidence":3},{"trial_n":45,"min":65,"max":190,"target":"absent","response":"absent","rt":712.69999999925,"correct":true,"confidence":3},{"trial_n":46,"min":66,"max":189,"target":"present","response":"present","rt":561.59999999963,"correct":true,"confidence":4},{"trial_n":47,"min":66,"max":189,"target":"absent","response":"present","rt":631.90000000037,"correct":false,"confidence":3},{"trial_n":48,"min":65,"max":190,"target":"absent","response":"present","rt":630.30000000075,"correct":false,"confidence":2},{"trial_n":49,"min":64,"max":191,"target":"absent","response":"absent","rt":765.69999999925,"correct":true,"confidence":3},{"trial_n":50,"min":64,"max":191,"target":"present","response":"present","rt":521.40000000037,"correct":true,"confidence":3},{"trial_n":51,"min":65,"max":190,"target":"present","response":"present","rt":597.19999999925,"correct":true,"confidence":3},{"trial_n":52,"min":65,"max":190,"target":"present","response":"present","rt":621.30000000075,"correct":true,"confidence":4},{"trial_n":53,"min":66,"max":189,"target":"absent","response":"present","rt":1320.5,"correct":false,"confidence":2},{"trial_n":54,"min":65,"max":190,"target":"absent","response":"absent","rt":1255.7000000011,"correct":true,"confidence":4},{"trial_n":55,"min":65,"max":190,"target":"present","response":"present","rt":540.5,"correct":true,"confidence":3},{"trial_n":56,"min":66,"max":189,"target":"present","response":"present","rt":651.90000000037,"correct":true,"confidence":4},{"trial_n":57,"min":66,"max":189,"target":"present","response":"present","rt":933.59999999963,"correct":true,"confidence":3},{"trial_n":58,"min":67,"max":188,"target":"absent","response":"absent","rt":558,"correct":true,"confidence":2},{"trial_n":59,"min":67,"max":188,"target":"present","response":"present","rt":565.40000000037,"correct":true,"confidence":3},{"trial_n":60,"min":68,"max":187,"target":"absent","response":"absent","rt":627.70000000112,"correct":true,"confidence":3},{"trial_n":61,"min":68,"max":187,"target":"absent","response":"absent","rt":562.5,"correct":true,"confidence":3},{"trial_n":62,"min":69,"max":186,"target":"absent","response":"absent","rt":577.40000000037,"correct":true,"confidence":3},{"trial_n":63,"min":69,"max":186,"target":"absent","response":"absent","rt":635.59999999963,"correct":true,"confidence":2},{"trial_n":64,"min":70,"max":185,"target":"present","response":"present","rt":445.30000000075,"correct":true,"confidence":4},{"trial_n":65,"min":70,"max":185,"target":"absent","response":"absent","rt":827.09999999963,"correct":true,"confidence":3},{"trial_n":66,"min":71,"max":184,"target":"present","response":"present","rt":494.40000000037,"correct":true,"confidence":3},{"trial_n":67,"min":71,"max":184,"target":"absent","response":"absent","rt":551.5,"correct":true,"confidence":3},{"trial_n":68,"min":72,"max":183,"target":"absent","response":"absent","rt":470,"correct":true,"confidence":4},{"trial_n":69,"min":72,"max":183,"target":"present","response":"present","rt":457.40000000037,"correct":true,"confidence":3},{"trial_n":70,"min":73,"max":182,"target":"absent","response":"present","rt":1270.8000000007,"correct":false,"confidence":2},{"trial_n":71,"min":41,"max":214,"target":"present","response":"present","rt":4694.5,"correct":true,"confidence":-1},{"trial_n":72,"min":41,"max":214,"target":"present","response":"present","rt":1096.0999999996,"correct":true,"confidence":-1},{"trial_n":73,"min":57,"max":198,"target":"absent","response":"absent","rt":1451.5,"correct":true,"confidence":-1},{"trial_n":74,"min":57,"max":198,"target":"absent","response":"absent","rt":825.90000000037,"correct":true,"confidence":-1},{"trial_n":75,"min":73,"max":182,"target":"present","response":"present","rt":933,"correct":true,"confidence":-1},{"trial_n":76,"min":73,"max":182,"target":"present","response":"present","rt":884.59999999963,"correct":true,"confidence":-1},{"trial_n":77,"min":89,"max":166,"target":"present","response":"absent","rt":1406.5999999996,"correct":false,"confidence":-1},{"trial_n":78,"min":73,"max":182,"target":"present","response":"present","rt":884.40000000037,"correct":true,"confidence":-1},{"trial_n":79,"min":73,"max":182,"target":"present","response":"present","rt":646.10000000149,"correct":true,"confidence":-1},{"trial_n":80,"min":89,"max":166,"target":"absent","response":"absent","rt":1281.3000000007,"correct":true,"confidence":-1},{"trial_n":81,"min":89,"max":166,"target":"absent","response":"absent","rt":845.40000000037,"correct":true,"confidence":-1},{"trial_n":82,"min":97,"max":158,"target":"absent","response":"present","rt":690.09999999963,"correct":false,"confidence":-1},{"trial_n":83,"min":89,"max":166,"target":"present","response":"present","rt":610.40000000037,"correct":true,"confidence":-1},{"trial_n":84,"min":89,"max":166,"target":"absent","response":"absent","rt":547.30000000075,"correct":true,"confidence":-1},{"trial_n":85,"min":97,"max":158,"target":"absent","response":"absent","rt":873.5,"correct":true,"confidence":-1},{"trial_n":86,"min":97,"max":158,"target":"present","response":"absent","rt":615.70000000112,"correct":false,"confidence":-1},{"trial_n":87,"min":89,"max":166,"target":"present","response":"present","rt":617.40000000037,"correct":true,"confidence":-1},{"trial_n":88,"min":89,"max":166,"target":"present","response":"absent","rt":580.40000000037,"correct":false,"confidence":-1},{"trial_n":89,"min":81,"max":174,"target":"absent","response":"absent","rt":720.80000000075,"correct":true,"confidence":-1},{"trial_n":90,"min":81,"max":174,"target":"absent","response":"present","rt":644.40000000037,"correct":false,"confidence":-1},{"trial_n":91,"min":77,"max":178,"target":"present","response":"present","rt":592.30000000075,"correct":true,"confidence":3},{"trial_n":92,"min":77,"max":178,"target":"present","response":"present","rt":628.40000000037,"correct":true,"confidence":4},{"trial_n":93,"min":81,"max":174,"target":"present","response":"present","rt":700.30000000075,"correct":true,"confidence":3},{"trial_n":94,"min":81,"max":174,"target":"absent","response":"absent","rt":709.30000000075,"correct":true,"confidence":3},{"trial_n":95,"min":85,"max":170,"target":"present","response":"present","rt":688.90000000037,"correct":true,"confidence":3},{"trial_n":96,"min":85,"max":170,"target":"absent","response":"present","rt":957.30000000075,"correct":false,"confidence":2},{"trial_n":97,"min":81,"max":174,"target":"present","response":"present","rt":781.30000000075,"correct":true,"confidence":3},{"trial_n":98,"min":81,"max":174,"target":"present","response":"present","rt":677.20000000112,"correct":true,"confidence":4},{"trial_n":99,"min":85,"max":170,"target":"present","response":"present","rt":701.19999999925,"correct":true,"confidence":3},{"trial_n":100,"min":85,"max":170,"target":"present","response":"present","rt":610.59999999963,"correct":true,"confidence":3},{"trial_n":101,"min":87,"max":168,"target":"present","response":"present","rt":618.19999999925,"correct":true,"confidence":3},{"trial_n":102,"min":87,"max":168,"target":"present","response":"present","rt":578.19999999925,"correct":true,"confidence":3},{"trial_n":103,"min":89,"max":166,"target":"absent","response":"absent","rt":741.79999999888,"correct":true,"confidence":2},{"trial_n":104,"min":89,"max":166,"target":"absent","response":"present","rt":1137.0999999996,"correct":false,"confidence":2},{"trial_n":105,"min":87,"max":168,"target":"present","response":"present","rt":893.90000000037,"correct":true,"confidence":3},{"trial_n":106,"min":87,"max":168,"target":"present","response":"present","rt":865.90000000037,"correct":true,"confidence":2},{"trial_n":107,"min":89,"max":166,"target":"absent","response":"absent","rt":601.20000000112,"correct":true,"confidence":3},{"trial_n":108,"min":89,"max":166,"target":"absent","response":"absent","rt":557.20000000112,"correct":true,"confidence":3},{"trial_n":109,"min":91,"max":164,"target":"present","response":"present","rt":573.79999999888,"correct":true,"confidence":3},{"trial_n":110,"min":91,"max":164,"target":"absent","response":"absent","rt":549.09999999963,"correct":true,"confidence":2},{"trial_n":111,"min":92,"max":163,"target":"present","response":"present","rt":542.40000000037,"correct":true,"confidence":3},{"trial_n":112,"min":92,"max":163,"target":"absent","response":"present","rt":1064.5,"correct":false,"confidence":2},{"trial_n":113,"min":91,"max":164,"target":"absent","response":"present","rt":1103.0999999996,"correct":false,"confidence":2},{"trial_n":114,"min":90,"max":165,"target":"absent","response":"present","rt":1046.1999999993,"correct":false,"confidence":2},{"trial_n":115,"min":89,"max":166,"target":"present","response":"present","rt":523,"correct":true,"confidence":4},{"trial_n":116,"min":89,"max":166,"target":"absent","response":"absent","rt":768.90000000037,"correct":true,"confidence":2},{"trial_n":117,"min":90,"max":165,"target":"present","response":"absent","rt":638.90000000037,"correct":false,"confidence":2},{"trial_n":118,"min":89,"max":166,"target":"absent","response":"present","rt":810.10000000149,"correct":false,"confidence":1},{"trial_n":119,"min":88,"max":167,"target":"present","response":"present","rt":545.30000000075,"correct":true,"confidence":3},{"trial_n":120,"min":88,"max":167,"target":"present","response":"present","rt":801,"correct":true,"confidence":4},{"trial_n":121,"min":89,"max":166,"target":"absent","response":"absent","rt":884.19999999925,"correct":true,"confidence":3},{"trial_n":122,"min":89,"max":166,"target":"absent","response":"absent","rt":645.40000000037,"correct":true,"confidence":3},{"trial_n":123,"min":90,"max":165,"target":"absent","response":"present","rt":613.90000000037,"correct":false,"confidence":3},{"trial_n":124,"min":89,"max":166,"target":"present","response":"present","rt":1272.9000000004,"correct":true,"confidence":1},{"trial_n":125,"min":89,"max":166,"target":"absent","response":"absent","rt":604.70000000112,"correct":true,"confidence":2},{"trial_n":126,"min":90,"max":165,"target":"absent","response":"absent","rt":679.90000000037,"correct":true,"confidence":2},{"trial_n":127,"min":90,"max":165,"target":"present","response":"present","rt":1299.2000000011,"correct":true,"confidence":2},{"trial_n":128,"min":91,"max":164,"target":"absent","response":"present","rt":768.09999999963,"correct":false,"confidence":4},{"trial_n":129,"min":90,"max":165,"target":"absent","response":"absent","rt":908,"correct":true,"confidence":3},{"trial_n":130,"min":90,"max":165,"target":"absent","response":"present","rt":625.80000000075,"correct":false,"confidence":3},{"trial_n":131,"min":89,"max":166,"target":"absent","response":"present","rt":746.59999999963,"correct":false,"confidence":2},{"trial_n":132,"min":88,"max":167,"target":"present","response":"absent","rt":1698.9000000004,"correct":false,"confidence":2},{"trial_n":133,"min":87,"max":168,"target":"present","response":"present","rt":700.69999999925,"correct":true,"confidence":2},{"trial_n":134,"min":87,"max":168,"target":"absent","response":"absent","rt":847,"correct":true,"confidence":3},{"trial_n":135,"min":88,"max":167,"target":"present","response":"present","rt":703,"correct":true,"confidence":2},{"trial_n":136,"min":88,"max":167,"target":"absent","response":"absent","rt":1174.8000000007,"correct":true,"confidence":3},{"trial_n":137,"min":89,"max":166,"target":"absent","response":"absent","rt":1161.3999999985,"correct":true,"confidence":2},{"trial_n":138,"min":89,"max":166,"target":"present","response":"present","rt":554.09999999963,"correct":true,"confidence":4},{"trial_n":139,"min":90,"max":165,"target":"present","response":"present","rt":640.19999999925,"correct":true,"confidence":3},{"trial_n":140,"min":90,"max":165,"target":"absent","response":"present","rt":611.5,"correct":false,"confidence":3}]