[{"trial_n":1,"span":8,"encoder":"26665571","distractor":"26765571","target":"present","response":"present","rt":"2938","correct":true,"confidence":-1},{"trial_n":2,"span":8,"encoder":"75575604","distractor":"76575604","target":"present","response":"present","rt":"1672.5","correct":true,"confidence":-1},{"trial_n":3,"span":10,"encoder":"8089712065","distractor":"8089712063","target":"absent","response":"absent","rt":"1914.5999999996","correct":true,"confidence":-1},{"trial_n":4,"span":10,"encoder":"9192055714","distractor":"9192058714","target":"absent","response":"absent","rt":"1543.5999999996","correct":true,"confidence":-1},{"trial_n":5,"span":12,"encoder":"973973377971","distractor":"073973377971","target":"present","response":"present","rt":"21858.600000001","correct":true,"confidence":-1},{"trial_n":6,"span":12,"encoder":"883489075843","distractor":"883489975843","target":"present","response":"present","rt":"2199.2000000011","correct":true,"confidence":-1},{"trial_n":7,"span":14,"encoder":"91117217701190","distractor":"91117217781190","target":"absent","response":"present","rt":"2138.4000000004","correct":false,"confidence":-1},{"trial_n":8,"span":12,"encoder":"479012712276","distractor":"479012712216","target":"present","response":"present","rt":"1661.5","correct":true,"confidence":-1},{"trial_n":9,"span":12,"encoder":"375692872940","distractor":"375892872940","target":"absent","response":"present","rt":"1421.8000000007","correct":false,"confidence":-1},{"trial_n":10,"span":10,"encoder":"9405774777","distractor":"9405784777","target":"absent","response":"present","rt":"216754.3","correct":false,"confidence":-1},{"trial_n":11,"span":8,"encoder":"48061368","distractor":"48061318","target":"absent","response":"present","rt":"1636.8000000007","correct":false,"confidence":-1},{"trial_n":12,"span":7,"encoder":"2279790","distractor":"0279790","target":"present","response":"present","rt":"1438.1999999993","correct":true,"confidence":-1},{"trial_n":13,"span":7,"encoder":"5209765","distractor":"5609765","target":"present","response":"present","rt":"1495.9000000004","correct":true,"confidence":-1},{"trial_n":14,"span":8,"encoder":"19662750","distractor":"19602750","target":"absent","response":"absent","rt":"1658.4000000004","correct":true,"confidence":-1},{"trial_n":15,"span":8,"encoder":"67290911","distractor":"67290991","target":"present","response":"present","rt":"2163.5999999996","correct":true,"confidence":-1},{"trial_n":16,"span":9,"encoder":"930233140","distractor":"930533140","target":"absent","response":"absent","rt":"2958.5","correct":true,"confidence":-1},{"trial_n":17,"span":9,"encoder":"565074209","distractor":"565074200","target":"present","response":"present","rt":"2559.0999999996","correct":true,"confidence":-1},{"trial_n":18,"span":10,"encoder":"0916969277","distractor":"0916969877","target":"present","response":"present","rt":"2162.5999999996","correct":true,"confidence":-1},{"trial_n":19,"span":10,"encoder":"3959900383","distractor":"3959906383","target":"absent","response":"present","rt":"3047","correct":false,"confidence":-1},{"trial_n":20,"span":9,"encoder":"380810235","distractor":"385810235","target":"present","response":"absent","rt":"4464.5","correct":false,"confidence":-1},{"trial_n":21,"span":8,"encoder":"42977947","distractor":"42977247","target":"present","response":"present","rt":"1622.4000000004","correct":true,"confidence":4},{"trial_n":22,"span":8,"encoder":"13543865","distractor":"13943865","target":"present","response":"present","rt":"3956.5999999996","correct":true,"confidence":3},{"trial_n":23,"span":9,"encoder":"457886334","distractor":"857886334","target":"absent","response":"present","rt":"2871","correct":false,"confidence":5},{"trial_n":24,"span":8,"encoder":"68956430","distractor":"68956460","target":"absent","response":"present","rt":"2185.0999999996","correct":false,"confidence":3},{"trial_n":25,"span":7,"encoder":"8102714","distractor":"8102715","target":"present","response":"present","rt":"1011.1999999993","correct":true,"confidence":3},{"trial_n":26,"span":7,"encoder":"2948186","distractor":"2978186","target":"absent","response":"present","rt":"1136.6999999993","correct":false,"confidence":4},{"trial_n":27,"span":6,"encoder":"908925","distractor":"908225","target":"present","response":"present","rt":"824.40000000037","correct":true,"confidence":3},{"trial_n":28,"span":6,"encoder":"734971","distractor":"732971","target":"absent","response":"present","rt":"731.40000000037","correct":false,"confidence":2},{"trial_n":29,"span":5,"encoder":"47791","distractor":"47991","target":"absent","response":"present","rt":"452.40000000037","correct":false,"confidence":4},{"trial_n":30,"span":4,"encoder":"9809","distractor":"9209","target":"absent","response":"present","rt":"452.09999999963","correct":false,"confidence":4},{"trial_n":31,"span":3,"encoder":"180","distractor":"280","target":"absent","response":"absent","rt":"1542.0999999996","correct":true,"confidence":5},{"trial_n":32,"span":3,"encoder":"712","distractor":"702","target":"present","response":"present","rt":"1019.1999999993","correct":true,"confidence":5},{"trial_n":33,"span":4,"encoder":"9554","distractor":"9514","target":"present","response":"present","rt":"1029.3000000007","correct":true,"confidence":5},{"trial_n":34,"span":4,"encoder":"7538","distractor":"7638","target":"absent","response":"absent","rt":"2621.5","correct":true,"confidence":3},{"trial_n":35,"span":5,"encoder":"32529","distractor":"35529","target":"absent","response":"absent","rt":"1519.1999999993","correct":true,"confidence":5},{"trial_n":36,"span":5,"encoder":"82432","distractor":"83432","target":"absent","response":"present","rt":"2107.4000000004","correct":false,"confidence":5},{"trial_n":37,"span":4,"encoder":"3142","distractor":"3122","target":"present","response":"present","rt":"1158.4000000004","correct":true,"confidence":5},{"trial_n":38,"span":4,"encoder":"2580","distractor":"8580","target":"present","response":"present","rt":"731.19999999925","correct":true,"confidence":5},{"trial_n":39,"span":5,"encoder":"41142","distractor":"71142","target":"absent","response":"absent","rt":"3426.5","correct":true,"confidence":5},{"trial_n":40,"span":5,"encoder":"37406","distractor":"37466","target":"present","response":"present","rt":"1218.5","correct":true,"confidence":5},{"trial_n":41,"span":6,"encoder":"080593","distractor":"082593","target":"absent","response":"present","rt":"2262.0999999996","correct":false,"confidence":5},{"trial_n":42,"span":5,"encoder":"87599","distractor":"87999","target":"present","response":"present","rt":"2022.0999999996","correct":true,"confidence":5},{"trial_n":43,"span":5,"encoder":"12139","distractor":"16139","target":"absent","response":"absent","rt":"1575.4000000004","correct":true,"confidence":5},{"trial_n":44,"span":6,"encoder":"240218","distractor":"240118","target":"absent","response":"absent","rt":"3145.5","correct":true,"confidence":3},{"trial_n":45,"span":6,"encoder":"413007","distractor":"413006","target":"absent","response":"absent","rt":"3471.5","correct":true,"confidence":1},{"trial_n":46,"span":7,"encoder":"8966986","distractor":"8996986","target":"absent","response":"present","rt":"3531.6999999993","correct":false,"confidence":5},{"trial_n":47,"span":6,"encoder":"271790","distractor":"271760","target":"present","response":"present","rt":"3472.6999999993","correct":true,"confidence":3},{"trial_n":48,"span":6,"encoder":"454817","distractor":"455817","target":"present","response":"present","rt":"938.19999999925","correct":true,"confidence":4},{"trial_n":49,"span":7,"encoder":"2026962","distractor":"2026922","target":"present","response":"present","rt":"1428","correct":true,"confidence":3},{"trial_n":50,"span":7,"encoder":"7555125","distractor":"7551125","target":"absent","response":"present","rt":"1060.6999999993","correct":false,"confidence":5},{"trial_n":51,"span":6,"encoder":"443098","distractor":"443798","target":"absent","response":"present","rt":"1819.5","correct":false,"confidence":4},{"trial_n":52,"span":5,"encoder":"25105","distractor":"75105","target":"present","response":"present","rt":"1051.9000000004","correct":true,"confidence":5},{"trial_n":53,"span":5,"encoder":"44413","distractor":"44410","target":"absent","response":"present","rt":"1177.8000000007","correct":false,"confidence":4},{"trial_n":54,"span":4,"encoder":"4322","distractor":"4329","target":"present","response":"present","rt":"1059.0999999996","correct":true,"confidence":4},{"trial_n":55,"span":4,"encoder":"0049","distractor":"0079","target":"present","response":"present","rt":"790.69999999925","correct":true,"confidence":4},{"trial_n":56,"span":5,"encoder":"12461","distractor":"32461","target":"absent","response":"absent","rt":"3515.4000000004","correct":true,"confidence":1},{"trial_n":57,"span":5,"encoder":"27872","distractor":"27870","target":"present","response":"present","rt":"777.09999999963","correct":true,"confidence":4},{"trial_n":58,"span":6,"encoder":"758179","distractor":"858179","target":"absent","response":"present","rt":"1010.8000000007","correct":false,"confidence":4},{"trial_n":59,"span":5,"encoder":"13640","distractor":"13680","target":"absent","response":"present","rt":"974.5","correct":false,"confidence":3},{"trial_n":60,"span":4,"encoder":"2179","distractor":"6179","target":"absent","response":"absent","rt":"1305.4000000004","correct":true,"confidence":2},{"trial_n":61,"span":4,"encoder":"7490","distractor":"1490","target":"absent","response":"absent","rt":"1133","correct":true,"confidence":5},{"trial_n":62,"span":5,"encoder":"98629","distractor":"95629","target":"present","response":"present","rt":"1758.4000000004","correct":true,"confidence":5},{"trial_n":63,"span":5,"encoder":"49680","distractor":"29680","target":"absent","response":"absent","rt":"1343.4000000004","correct":true,"confidence":5},{"trial_n":64,"span":6,"encoder":"027799","distractor":"021799","target":"present","response":"present","rt":"767","correct":true,"confidence":5},{"trial_n":65,"span":6,"encoder":"552554","distractor":"552254","target":"present","response":"present","rt":"946.29999999888","correct":true,"confidence":5},{"trial_n":66,"span":7,"encoder":"4727737","distractor":"4727137","target":"present","response":"present","rt":"881.90000000037","correct":true,"confidence":5},{"trial_n":67,"span":7,"encoder":"5887189","distractor":"5886189","target":"present","response":"present","rt":"1375.4000000004","correct":true,"confidence":5},{"trial_n":68,"span":8,"encoder":"32871721","distractor":"92871721","target":"present","response":"present","rt":"835.09999999963","correct":true,"confidence":5},{"trial_n":69,"span":8,"encoder":"79957255","distractor":"79957225","target":"present","response":"present","rt":"871.5","correct":true,"confidence":5},{"trial_n":70,"span":9,"encoder":"768978715","distractor":"760978715","target":"present","response":"present","rt":"958.30000000075","correct":true,"confidence":4},{"trial_n":71,"span":8,"encoder":"16059932","distractor":"13059932","target":"present","response":"present","rt":"7205.9000000004","correct":true,"confidence":-1},{"trial_n":72,"span":8,"encoder":"34976856","distractor":"34979856","target":"present","response":"absent","rt":"1061.6999999993","correct":false,"confidence":-1},{"trial_n":73,"span":7,"encoder":"0202704","distractor":"0203704","target":"absent","response":"absent","rt":"1924.5","correct":true,"confidence":-1},{"trial_n":74,"span":7,"encoder":"4882425","distractor":"4885425","target":"absent","response":"absent","rt":"3909.4000000004","correct":true,"confidence":-1},{"trial_n":75,"span":8,"encoder":"37100110","distractor":"31100110","target":"present","response":"present","rt":"3383.5999999996","correct":true,"confidence":-1},{"trial_n":76,"span":8,"encoder":"79642919","distractor":"79642519","target":"present","response":"absent","rt":"5679.3000000007","correct":false,"confidence":-1},{"trial_n":77,"span":7,"encoder":"2152181","distractor":"2252181","target":"absent","response":"present","rt":"2231.1999999993","correct":false,"confidence":-1},{"trial_n":78,"span":6,"encoder":"395869","distractor":"395861","target":"present","response":"present","rt":"3733","correct":true,"confidence":-1},{"trial_n":79,"span":6,"encoder":"272340","distractor":"872340","target":"present","response":"present","rt":"1632.4000000004","correct":true,"confidence":-1},{"trial_n":80,"span":7,"encoder":"6926144","distractor":"6956144","target":"absent","response":"absent","rt":"1481.5","correct":true,"confidence":-1},{"trial_n":81,"span":7,"encoder":"7034586","distractor":"7034526","target":"present","response":"absent","rt":"10597.6","correct":false,"confidence":-1},{"trial_n":82,"span":6,"encoder":"373954","distractor":"343954","target":"absent","response":"absent","rt":"1877.3000000007","correct":true,"confidence":-1},{"trial_n":83,"span":6,"encoder":"264549","distractor":"264541","target":"absent","response":"absent","rt":"2022.0999999996","correct":true,"confidence":-1},{"trial_n":84,"span":7,"encoder":"7071309","distractor":"7071305","target":"absent","response":"absent","rt":"2626.7000000011","correct":true,"confidence":-1},{"trial_n":85,"span":7,"encoder":"3218403","distractor":"5218403","target":"absent","response":"absent","rt":"4694.5999999996","correct":true,"confidence":-1},{"trial_n":86,"span":8,"encoder":"88960629","distractor":"88960649","target":"present","response":"present","rt":"3437.5","correct":true,"confidence":-1},{"trial_n":87,"span":8,"encoder":"27579225","distractor":"27579725","target":"present","response":"present","rt":"3421.0999999996","correct":true,"confidence":-1},{"trial_n":88,"span":9,"encoder":"244513429","distractor":"644513429","target":"absent","response":"absent","rt":"1364","correct":true,"confidence":-1},{"trial_n":89,"span":9,"encoder":"325999317","distractor":"325990317","target":"present","response":"present","rt":"2109.3000000007","correct":true,"confidence":-1},{"trial_n":90,"span":10,"encoder":"6423247915","distractor":"5423247915","target":"present","response":"present","rt":"6610.3000000007","correct":true,"confidence":-1},{"trial_n":91,"span":10,"encoder":"2008110619","distractor":"2008116619","target":"present","response":"absent","rt":"5019.5999999996","correct":false,"confidence":5},{"trial_n":92,"span":9,"encoder":"150052421","distractor":"150052721","target":"present","response":"present","rt":"3701.4000000004","correct":true,"confidence":5},{"trial_n":93,"span":9,"encoder":"829845780","distractor":"859845780","target":"present","response":"present","rt":"4121.5999999996","correct":true,"confidence":4},{"trial_n":94,"span":10,"encoder":"8349203426","distractor":"8349203466","target":"absent","response":"absent","rt":"4634.5999999996","correct":true,"confidence":5},{"trial_n":95,"span":10,"encoder":"6295529055","distractor":"6297529055","target":"present","response":"present","rt":"8080.5","correct":true,"confidence":4},{"trial_n":96,"span":11,"encoder":"52897073428","distractor":"52897073425","target":"absent","response":"absent","rt":"12986.299999999","correct":true,"confidence":4},{"trial_n":97,"span":11,"encoder":"82895498727","distractor":"82895898727","target":"absent","response":"present","rt":"10136.5","correct":false,"confidence":3},{"trial_n":98,"span":10,"encoder":"5169802972","distractor":"5169102972","target":"absent","response":"absent","rt":"3798","correct":true,"confidence":4},{"trial_n":99,"span":10,"encoder":"8143199544","distractor":"8148199544","target":"absent","response":"absent","rt":"19019.300000001","correct":true,"confidence":1},{"trial_n":100,"span":11,"encoder":"93590240616","distractor":"93590244616","target":"present","response":"present","rt":"5731.4000000004","correct":true,"confidence":1},{"trial_n":101,"span":11,"encoder":"53150313559","distractor":"53157313559","target":"present","response":"present","rt":"4573.7000000011","correct":true,"confidence":4},{"trial_n":102,"span":12,"encoder":"466452862987","distractor":"466452862927","target":"absent","response":"absent","rt":"21459","correct":true,"confidence":2},{"trial_n":103,"span":12,"encoder":"011477503367","distractor":"011477503377","target":"absent","response":"absent","rt":"5800.8000000007","correct":true,"confidence":1},{"trial_n":104,"span":13,"encoder":"0506538800124","distractor":"0500538800124","target":"present","response":"absent","rt":"5268.8000000007","correct":false,"confidence":5},{"trial_n":105,"span":12,"encoder":"688034597751","distractor":"688034597755","target":"absent","response":"absent","rt":"2458.9000000004","correct":true,"confidence":5},{"trial_n":106,"span":12,"encoder":"527500535514","distractor":"528500535514","target":"absent","response":"absent","rt":"8180","correct":true,"confidence":3},{"trial_n":107,"span":13,"encoder":"3423466598956","distractor":"3443466598956","target":"present","response":"present","rt":"3964.5999999996","correct":true,"confidence":1},{"trial_n":108,"span":13,"encoder":"9853946373128","distractor":"9853946373828","target":"present","response":"absent","rt":"5779.5999999996","correct":false,"confidence":5},{"trial_n":109,"span":12,"encoder":"558945413173","distractor":"552945413173","target":"absent","response":"absent","rt":"7954.8000000007","correct":true,"confidence":2},{"trial_n":110,"span":12,"encoder":"373608703942","distractor":"373608703902","target":"present","response":"present","rt":"7661.3000000007","correct":true,"confidence":1},{"trial_n":111,"span":13,"encoder":"4857964353751","distractor":"7857964353751","target":"present","response":"present","rt":"3949.9000000004","correct":true,"confidence":1},{"trial_n":112,"span":13,"encoder":"8001350074957","distractor":"8001350074257","target":"present","response":"present","rt":"5248","correct":true,"confidence":2},{"trial_n":113,"span":14,"encoder":"81734142301018","distractor":"81734142305018","target":"absent","response":"absent","rt":"2455.8000000007","correct":true,"confidence":5},{"trial_n":114,"span":14,"encoder":"85112753478547","distractor":"85112753471547","target":"present","response":"present","rt":"5156.8000000007","correct":true,"confidence":4},{"trial_n":115,"span":15,"encoder":"806235285482730","distractor":"806235285482700","target":"present","response":"present","rt":"3826.9000000004","correct":true,"confidence":4},{"trial_n":116,"span":15,"encoder":"476502400675915","distractor":"470502400675915","target":"present","response":"present","rt":"11360","correct":true,"confidence":3},{"trial_n":117,"span":16,"encoder":"5036571359820770","distractor":"5066571359820770","target":"present","response":"present","rt":"12233.300000001","correct":true,"confidence":4},{"trial_n":118,"span":16,"encoder":"1518958191074877","distractor":"1578958191074877","target":"present","response":"absent","rt":"4649","correct":false,"confidence":4},{"trial_n":119,"span":15,"encoder":"774499476974556","distractor":"774499476964556","target":"present","response":"present","rt":"8087.4000000004","correct":true,"confidence":4},{"trial_n":120,"span":15,"encoder":"459528819740198","distractor":"453528819740198","target":"absent","response":"absent","rt":"3757.4000000004","correct":true,"confidence":1},{"trial_n":121,"span":16,"encoder":"0691962193288628","distractor":"2691962193288628","target":"absent","response":"absent","rt":"17110.9","correct":true,"confidence":1},{"trial_n":122,"span":16,"encoder":"4720532072719047","distractor":"4720532072719027","target":"absent","response":"present","rt":"13790.699999999","correct":false,"confidence":3},{"trial_n":123,"span":15,"encoder":"544556688549903","distractor":"544556688549953","target":"absent","response":"absent","rt":"8806.3000000007","correct":true,"confidence":4},{"trial_n":124,"span":15,"encoder":"097997752514753","distractor":"097997952514753","target":"present","response":"present","rt":"5768.9000000004","correct":true,"confidence":4},{"trial_n":125,"span":16,"encoder":"8204006156436824","distractor":"8204006156436821","target":"absent","response":"present","rt":"2979.9000000004","correct":false,"confidence":1},{"trial_n":126,"span":15,"encoder":"612003897591161","distractor":"614003897591161","target":"absent","response":"absent","rt":"3998.5","correct":true,"confidence":5},{"trial_n":127,"span":15,"encoder":"631915580065204","distractor":"631915580063204","target":"absent","response":"absent","rt":"6014.3000000007","correct":true,"confidence":4},{"trial_n":128,"span":16,"encoder":"5166554123002715","distractor":"5166554123082715","target":"absent","response":"present","rt":"6531.9000000004","correct":false,"confidence":4},{"trial_n":129,"span":15,"encoder":"211209670162450","distractor":"011209670162450","target":"absent","response":"present","rt":"5688.6999999993","correct":false,"confidence":1},{"trial_n":130,"span":14,"encoder":"67671814075965","distractor":"67671824075965","target":"absent","response":"present","rt":"24242.6","correct":false,"confidence":4},{"trial_n":131,"span":13,"encoder":"6682126179253","distractor":"6682126179233","target":"absent","response":"absent","rt":"8473.8000000007","correct":true,"confidence":1},{"trial_n":132,"span":13,"encoder":"5043897372744","distractor":"5043797372744","target":"present","response":"absent","rt":"5668.5999999996","correct":false,"confidence":2},{"trial_n":133,"span":12,"encoder":"177696278123","distractor":"177666278123","target":"present","response":"present","rt":"4871.5","correct":true,"confidence":4},{"trial_n":134,"span":12,"encoder":"306651773771","distractor":"306651773701","target":"present","response":"present","rt":"5648","correct":true,"confidence":5},{"trial_n":135,"span":13,"encoder":"0910464496562","distractor":"0910464496162","target":"absent","response":"present","rt":"5636.8000000007","correct":false,"confidence":4},{"trial_n":136,"span":12,"encoder":"952704197445","distractor":"952701197445","target":"present","response":"absent","rt":"6359.5999999996","correct":false,"confidence":4},{"trial_n":137,"span":11,"encoder":"05673119488","distractor":"05673019488","target":"absent","response":"absent","rt":"4780.6999999993","correct":true,"confidence":5},{"trial_n":138,"span":11,"encoder":"42789678696","distractor":"42789668696","target":"present","response":"absent","rt":"5182.8000000007","correct":false,"confidence":3},{"trial_n":139,"span":10,"encoder":"2608739357","distractor":"2608039357","target":"present","response":"absent","rt":"9402.4000000004","correct":false,"confidence":4},{"trial_n":140,"span":9,"encoder":"177447587","distractor":"175447587","target":"absent","response":"absent","rt":"2748.5","correct":true,"confidence":4}]