[{"trial_n":1,"span":8,"encoder":"23898292","distractor":"23818292","target":"present","response":"present","rt":"4001.2","correct":true,"confidence":-1},{"trial_n":2,"span":8,"encoder":"14475797","distractor":"14475897","target":"present","response":"present","rt":"1985.5","correct":true,"confidence":-1},{"trial_n":3,"span":10,"encoder":"3371726887","distractor":"3371776887","target":"absent","response":"present","rt":"1487.1","correct":false,"confidence":-1},{"trial_n":4,"span":8,"encoder":"28698537","distractor":"28698536","target":"absent","response":"absent","rt":"1738.6","correct":true,"confidence":-1},{"trial_n":5,"span":8,"encoder":"58213104","distractor":"58613104","target":"present","response":"present","rt":"1648.6","correct":true,"confidence":-1},{"trial_n":6,"span":10,"encoder":"2993541038","distractor":"2993641038","target":"present","response":"present","rt":"2818.4","correct":true,"confidence":-1},{"trial_n":7,"span":10,"encoder":"2509287697","distractor":"4509287697","target":"present","response":"present","rt":"1572.2999999999","correct":true,"confidence":-1},{"trial_n":8,"span":12,"encoder":"306500530036","distractor":"306500533036","target":"absent","response":"present","rt":"1344.5","correct":false,"confidence":-1},{"trial_n":9,"span":10,"encoder":"5973936627","distractor":"5983936627","target":"present","response":"present","rt":"1350.7000000001","correct":true,"confidence":-1},{"trial_n":10,"span":10,"encoder":"0608701494","distractor":"0608704494","target":"absent","response":"present","rt":"1242.7000000001","correct":false,"confidence":-1},{"trial_n":11,"span":8,"encoder":"74152634","distractor":"73152634","target":"present","response":"present","rt":"1813.7","correct":true,"confidence":-1},{"trial_n":12,"span":8,"encoder":"29221581","distractor":"29221583","target":"absent","response":"absent","rt":"1832.9","correct":true,"confidence":-1},{"trial_n":13,"span":9,"encoder":"380883524","distractor":"380863524","target":"present","response":"present","rt":"1988.1","correct":true,"confidence":-1},{"trial_n":14,"span":9,"encoder":"232015387","distractor":"732015387","target":"absent","response":"present","rt":"1553.3","correct":false,"confidence":-1},{"trial_n":15,"span":8,"encoder":"70763404","distractor":"70763401","target":"absent","response":"absent","rt":"1377.3","correct":true,"confidence":-1},{"trial_n":16,"span":8,"encoder":"62133171","distractor":"62133179","target":"absent","response":"absent","rt":"1115","correct":true,"confidence":-1},{"trial_n":17,"span":9,"encoder":"270182184","distractor":"277182184","target":"absent","response":"present","rt":"1028.7999999999","correct":false,"confidence":-1},{"trial_n":18,"span":8,"encoder":"40553254","distractor":"40554254","target":"absent","response":"present","rt":"2162.7000000001","correct":false,"confidence":-1},{"trial_n":19,"span":7,"encoder":"6118285","distractor":"6118235","target":"absent","response":"absent","rt":"1746.4","correct":true,"confidence":-1},{"trial_n":20,"span":7,"encoder":"4862682","distractor":"4162682","target":"absent","response":"absent","rt":"1301.7","correct":true,"confidence":-1},{"trial_n":21,"span":8,"encoder":"02116108","distractor":"42116108","target":"present","response":"present","rt":"4265.7999999998","correct":true,"confidence":3},{"trial_n":22,"span":8,"encoder":"76428916","distractor":"76528916","target":"present","response":"present","rt":"2945.8999999999","correct":true,"confidence":3},{"trial_n":23,"span":9,"encoder":"806333944","distractor":"806333744","target":"absent","response":"absent","rt":"2428.2","correct":true,"confidence":2},{"trial_n":24,"span":9,"encoder":"752179664","distractor":"757179664","target":"present","response":"present","rt":"3774.3","correct":true,"confidence":2},{"trial_n":25,"span":10,"encoder":"0872158896","distractor":"0812158896","target":"absent","response":"present","rt":"2401.0999999999","correct":false,"confidence":3},{"trial_n":26,"span":9,"encoder":"277083802","distractor":"287083802","target":"absent","response":"present","rt":"1595.9000000001","correct":false,"confidence":3},{"trial_n":27,"span":8,"encoder":"34811477","distractor":"33811477","target":"absent","response":"present","rt":"1494.2","correct":false,"confidence":4},{"trial_n":28,"span":7,"encoder":"8611110","distractor":"8611010","target":"present","response":"present","rt":"1914.5","correct":true,"confidence":4},{"trial_n":29,"span":7,"encoder":"6978845","distractor":"6978885","target":"absent","response":"absent","rt":"2681","correct":true,"confidence":3},{"trial_n":30,"span":8,"encoder":"20219332","distractor":"20219312","target":"absent","response":"absent","rt":"3247.8","correct":true,"confidence":2},{"trial_n":31,"span":8,"encoder":"98033146","distractor":"98633146","target":"absent","response":"present","rt":"1982.8","correct":false,"confidence":3},{"trial_n":32,"span":7,"encoder":"8356926","distractor":"8356929","target":"present","response":"present","rt":"1645.2","correct":true,"confidence":3},{"trial_n":33,"span":7,"encoder":"2909616","distractor":"2901616","target":"present","response":"present","rt":"1466.3999999999","correct":true,"confidence":3},{"trial_n":34,"span":8,"encoder":"82338540","distractor":"82338640","target":"present","response":"absent","rt":"1267.5","correct":false,"confidence":2},{"trial_n":35,"span":7,"encoder":"7247277","distractor":"7247275","target":"present","response":"present","rt":"2432.3","correct":true,"confidence":3},{"trial_n":36,"span":7,"encoder":"2684921","distractor":"2584921","target":"absent","response":"present","rt":"3096.3999999999","correct":false,"confidence":2},{"trial_n":37,"span":6,"encoder":"646173","distractor":"646153","target":"present","response":"present","rt":"1458.8999999999","correct":true,"confidence":4},{"trial_n":38,"span":6,"encoder":"421202","distractor":"421205","target":"present","response":"present","rt":"1081","correct":true,"confidence":3},{"trial_n":39,"span":7,"encoder":"2025496","distractor":"2025196","target":"present","response":"present","rt":"1405.2999999998","correct":true,"confidence":3},{"trial_n":40,"span":7,"encoder":"2915122","distractor":"2915522","target":"present","response":"present","rt":"1198.3","correct":true,"confidence":2},{"trial_n":41,"span":8,"encoder":"11957105","distractor":"11957305","target":"present","response":"present","rt":"1197.7","correct":true,"confidence":3},{"trial_n":42,"span":8,"encoder":"81694480","distractor":"81634480","target":"absent","response":"present","rt":"2477.7","correct":false,"confidence":2},{"trial_n":43,"span":7,"encoder":"7524577","distractor":"0524577","target":"absent","response":"absent","rt":"2718.5999999999","correct":true,"confidence":3},{"trial_n":44,"span":7,"encoder":"2683053","distractor":"2783053","target":"present","response":"present","rt":"1498.3999999999","correct":true,"confidence":3},{"trial_n":45,"span":8,"encoder":"38952399","distractor":"38952393","target":"present","response":"present","rt":"2105.7999999998","correct":true,"confidence":3},{"trial_n":46,"span":8,"encoder":"98105365","distractor":"98185365","target":"absent","response":"present","rt":"1367.6000000001","correct":false,"confidence":2},{"trial_n":47,"span":7,"encoder":"9819580","distractor":"9819500","target":"present","response":"present","rt":"1891.7","correct":true,"confidence":3},{"trial_n":48,"span":7,"encoder":"1332290","distractor":"1342290","target":"present","response":"present","rt":"1477.5","correct":true,"confidence":3},{"trial_n":49,"span":8,"encoder":"93391276","distractor":"93391076","target":"present","response":"absent","rt":"1541.7","correct":false,"confidence":2},{"trial_n":50,"span":7,"encoder":"7698265","distractor":"7628265","target":"present","response":"absent","rt":"2508.3999999999","correct":false,"confidence":2},{"trial_n":51,"span":6,"encoder":"987584","distractor":"947584","target":"present","response":"present","rt":"1544.5999999999","correct":true,"confidence":3},{"trial_n":52,"span":6,"encoder":"516523","distractor":"513523","target":"present","response":"absent","rt":"2490.2000000002","correct":false,"confidence":2},{"trial_n":53,"span":5,"encoder":"23091","distractor":"83091","target":"absent","response":"absent","rt":"1507.3","correct":true,"confidence":4},{"trial_n":54,"span":5,"encoder":"80714","distractor":"88714","target":"present","response":"present","rt":"1255.4000000001","correct":true,"confidence":3},{"trial_n":55,"span":6,"encoder":"504673","distractor":"544673","target":"present","response":"present","rt":"1237.3999999999","correct":true,"confidence":3},{"trial_n":56,"span":6,"encoder":"557885","distractor":"557881","target":"absent","response":"absent","rt":"3031","correct":true,"confidence":4},{"trial_n":57,"span":7,"encoder":"3947621","distractor":"3747621","target":"absent","response":"absent","rt":"1563.3999999999","correct":true,"confidence":3},{"trial_n":58,"span":7,"encoder":"7702826","distractor":"7702846","target":"present","response":"present","rt":"1097.5","correct":true,"confidence":2},{"trial_n":59,"span":8,"encoder":"27955465","distractor":"27055465","target":"present","response":"present","rt":"1904.2","correct":true,"confidence":3},{"trial_n":60,"span":8,"encoder":"13902456","distractor":"13952456","target":"absent","response":"present","rt":"1383.5","correct":false,"confidence":3},{"trial_n":61,"span":7,"encoder":"4592711","distractor":"4582711","target":"absent","response":"absent","rt":"2041.3999999999","correct":true,"confidence":4},{"trial_n":62,"span":7,"encoder":"4935975","distractor":"4935972","target":"present","response":"present","rt":"2301","correct":true,"confidence":3},{"trial_n":63,"span":8,"encoder":"05507901","distractor":"08507901","target":"absent","response":"present","rt":"1160.3000000003","correct":false,"confidence":3},{"trial_n":64,"span":7,"encoder":"6310086","distractor":"6317086","target":"absent","response":"absent","rt":"1806","correct":true,"confidence":3},{"trial_n":65,"span":7,"encoder":"1491934","distractor":"1401934","target":"absent","response":"absent","rt":"3522.2999999998","correct":true,"confidence":2},{"trial_n":66,"span":8,"encoder":"55901744","distractor":"55951744","target":"absent","response":"absent","rt":"2503","correct":true,"confidence":4},{"trial_n":67,"span":8,"encoder":"47572413","distractor":"47572412","target":"present","response":"present","rt":"1976","correct":true,"confidence":3},{"trial_n":68,"span":9,"encoder":"007954174","distractor":"007954874","target":"present","response":"absent","rt":"1271.8999999999","correct":false,"confidence":3},{"trial_n":69,"span":8,"encoder":"81721306","distractor":"81921306","target":"absent","response":"absent","rt":"1445.2999999998","correct":true,"confidence":2},{"trial_n":70,"span":8,"encoder":"20674213","distractor":"20654213","target":"absent","response":"absent","rt":"1419.1000000001","correct":true,"confidence":2},{"trial_n":71,"span":8,"encoder":"02794364","distractor":"02094364","target":"present","response":"present","rt":"5988.1000000001","correct":true,"confidence":-1},{"trial_n":72,"span":8,"encoder":"38072102","distractor":"38052102","target":"present","response":"present","rt":"2417.3000000003","correct":true,"confidence":-1},{"trial_n":73,"span":9,"encoder":"916740322","distractor":"916745322","target":"absent","response":"present","rt":"3558","correct":false,"confidence":-1},{"trial_n":74,"span":8,"encoder":"33311192","distractor":"23311192","target":"absent","response":"absent","rt":"817.20000000019","correct":true,"confidence":-1},{"trial_n":75,"span":8,"encoder":"21002699","distractor":"21202699","target":"present","response":"absent","rt":"660.89999999991","correct":false,"confidence":-1},{"trial_n":76,"span":7,"encoder":"9710327","distractor":"9910327","target":"absent","response":"absent","rt":"2683","correct":true,"confidence":-1},{"trial_n":77,"span":7,"encoder":"1947666","distractor":"1947366","target":"absent","response":"absent","rt":"3020.8999999999","correct":true,"confidence":-1},{"trial_n":78,"span":8,"encoder":"67649115","distractor":"67619115","target":"present","response":"absent","rt":"3454.7000000002","correct":false,"confidence":-1},{"trial_n":79,"span":7,"encoder":"7654451","distractor":"7654251","target":"present","response":"present","rt":"828.70000000019","correct":true,"confidence":-1},{"trial_n":80,"span":7,"encoder":"7565528","distractor":"6565528","target":"absent","response":"absent","rt":"3122.8999999999","correct":true,"confidence":-1},{"trial_n":81,"span":8,"encoder":"30834221","distractor":"50834221","target":"present","response":"present","rt":"1324.2999999998","correct":true,"confidence":-1},{"trial_n":82,"span":8,"encoder":"82427123","distractor":"82527123","target":"absent","response":"absent","rt":"1157.5","correct":true,"confidence":-1},{"trial_n":83,"span":9,"encoder":"545541977","distractor":"545501977","target":"absent","response":"present","rt":"2799.2000000002","correct":false,"confidence":-1},{"trial_n":84,"span":8,"encoder":"79593127","distractor":"79563127","target":"absent","response":"present","rt":"1505.7000000002","correct":false,"confidence":-1},{"trial_n":85,"span":7,"encoder":"8919464","distractor":"6919464","target":"present","response":"present","rt":"1765.8999999999","correct":true,"confidence":-1},{"trial_n":86,"span":7,"encoder":"3996343","distractor":"3999343","target":"present","response":"present","rt":"2050","correct":true,"confidence":-1},{"trial_n":87,"span":8,"encoder":"26693729","distractor":"26693779","target":"absent","response":"absent","rt":"1457.1000000001","correct":true,"confidence":-1},{"trial_n":88,"span":8,"encoder":"93993811","distractor":"93993871","target":"absent","response":"present","rt":"3841.7999999998","correct":false,"confidence":-1},{"trial_n":89,"span":7,"encoder":"6128116","distractor":"6125116","target":"absent","response":"present","rt":"1074.7999999998","correct":false,"confidence":-1},{"trial_n":90,"span":6,"encoder":"740298","distractor":"710298","target":"absent","response":"absent","rt":"1228.8999999999","correct":true,"confidence":-1},{"trial_n":91,"span":6,"encoder":"444115","distractor":"454115","target":"absent","response":"absent","rt":"1451.9000000004","correct":true,"confidence":3},{"trial_n":92,"span":7,"encoder":"0889167","distractor":"0849167","target":"present","response":"present","rt":"2953","correct":true,"confidence":2},{"trial_n":93,"span":7,"encoder":"2196201","distractor":"2996201","target":"absent","response":"absent","rt":"1807.7999999998","correct":true,"confidence":3},{"trial_n":94,"span":8,"encoder":"91750538","distractor":"91750138","target":"present","response":"absent","rt":"5302","correct":false,"confidence":3},{"trial_n":95,"span":7,"encoder":"3472694","distractor":"3672694","target":"present","response":"present","rt":"4320.5","correct":true,"confidence":3},{"trial_n":96,"span":7,"encoder":"1021010","distractor":"1021012","target":"absent","response":"present","rt":"1777.3000000007","correct":false,"confidence":2},{"trial_n":97,"span":6,"encoder":"002135","distractor":"004135","target":"absent","response":"absent","rt":"4978.6999999993","correct":true,"confidence":3},{"trial_n":98,"span":6,"encoder":"579130","distractor":"579133","target":"present","response":"present","rt":"2369.9000000004","correct":true,"confidence":4},{"trial_n":99,"span":7,"encoder":"2116335","distractor":"2116035","target":"absent","response":"absent","rt":"2137.8000000007","correct":true,"confidence":4},{"trial_n":100,"span":7,"encoder":"5212754","distractor":"5292754","target":"present","response":"present","rt":"2466.8000000007","correct":true,"confidence":3},{"trial_n":101,"span":8,"encoder":"52074915","distractor":"52079915","target":"present","response":"present","rt":"3646.5999999996","correct":true,"confidence":4},{"trial_n":102,"span":8,"encoder":"77132834","distractor":"76132834","target":"absent","response":"absent","rt":"1716.3999999994","correct":true,"confidence":4},{"trial_n":103,"span":9,"encoder":"380518692","distractor":"320518692","target":"absent","response":"absent","rt":"6068.8000000007","correct":true,"confidence":2},{"trial_n":104,"span":9,"encoder":"241014949","distractor":"741014949","target":"absent","response":"absent","rt":"1701","correct":true,"confidence":3},{"trial_n":105,"span":10,"encoder":"5072682276","distractor":"5082682276","target":"present","response":"present","rt":"3701.0999999996","correct":true,"confidence":3},{"trial_n":106,"span":10,"encoder":"4034852486","distractor":"4032852486","target":"present","response":"present","rt":"1983.2999999998","correct":true,"confidence":3},{"trial_n":107,"span":11,"encoder":"75100510170","distractor":"75100510970","target":"present","response":"present","rt":"4073.2000000002","correct":true,"confidence":2},{"trial_n":108,"span":11,"encoder":"98414297163","distractor":"98415297163","target":"absent","response":"absent","rt":"2893.1000000006","correct":true,"confidence":4},{"trial_n":109,"span":12,"encoder":"142974768801","distractor":"142971768801","target":"absent","response":"absent","rt":"2604.3000000007","correct":true,"confidence":3},{"trial_n":110,"span":12,"encoder":"839949479786","distractor":"839909479786","target":"present","response":"present","rt":"2484.1000000006","correct":true,"confidence":3},{"trial_n":111,"span":13,"encoder":"7726711339961","distractor":"7726731339961","target":"absent","response":"absent","rt":"2110.2000000002","correct":true,"confidence":4},{"trial_n":112,"span":13,"encoder":"2937927106001","distractor":"0937927106001","target":"absent","response":"absent","rt":"1371.3000000007","correct":true,"confidence":3},{"trial_n":113,"span":14,"encoder":"37292658788360","distractor":"37292652788360","target":"present","response":"present","rt":"1698.1000000006","correct":true,"confidence":2},{"trial_n":114,"span":14,"encoder":"46407539925555","distractor":"46407533925555","target":"absent","response":"absent","rt":"4204.5","correct":true,"confidence":2},{"trial_n":115,"span":15,"encoder":"859764093763195","distractor":"859764096763195","target":"present","response":"present","rt":"5635","correct":true,"confidence":2},{"trial_n":116,"span":15,"encoder":"866830251758011","distractor":"896830251758011","target":"present","response":"absent","rt":"11322","correct":false,"confidence":3},{"trial_n":117,"span":14,"encoder":"13444729976590","distractor":"13444729936590","target":"absent","response":"absent","rt":"3106.3999999994","correct":true,"confidence":3},{"trial_n":118,"span":14,"encoder":"35441321122035","distractor":"35641321122035","target":"present","response":"absent","rt":"1312","correct":false,"confidence":2},{"trial_n":119,"span":13,"encoder":"3233891867886","distractor":"3233891867816","target":"absent","response":"present","rt":"7275.9000000004","correct":false,"confidence":3},{"trial_n":120,"span":12,"encoder":"451954790697","distractor":"451954590697","target":"present","response":"absent","rt":"1701.8999999994","correct":false,"confidence":2},{"trial_n":121,"span":11,"encoder":"38026080467","distractor":"38126080467","target":"present","response":"present","rt":"4054","correct":true,"confidence":3},{"trial_n":122,"span":11,"encoder":"41811270748","distractor":"41811274748","target":"present","response":"present","rt":"4921","correct":true,"confidence":2},{"trial_n":123,"span":12,"encoder":"500916575475","distractor":"500966575475","target":"present","response":"present","rt":"3255.4000000004","correct":true,"confidence":3},{"trial_n":124,"span":12,"encoder":"240545376610","distractor":"240545376670","target":"absent","response":"present","rt":"8038.2999999998","correct":false,"confidence":3},{"trial_n":125,"span":11,"encoder":"32447751396","distractor":"32447751390","target":"absent","response":"absent","rt":"1697.7000000002","correct":true,"confidence":3},{"trial_n":126,"span":11,"encoder":"40463147255","distractor":"40443147255","target":"present","response":"present","rt":"4923.5999999996","correct":true,"confidence":2},{"trial_n":127,"span":12,"encoder":"112088891159","distractor":"112588891159","target":"absent","response":"absent","rt":"4564.7000000002","correct":true,"confidence":3},{"trial_n":128,"span":12,"encoder":"691001107901","distractor":"391001107901","target":"absent","response":"present","rt":"2851","correct":false,"confidence":3},{"trial_n":129,"span":11,"encoder":"23299351895","distractor":"23699351895","target":"present","response":"present","rt":"3523.5","correct":true,"confidence":3},{"trial_n":130,"span":11,"encoder":"48909271190","distractor":"48909271170","target":"present","response":"present","rt":"4691.7000000002","correct":true,"confidence":3},{"trial_n":131,"span":12,"encoder":"074609783265","distractor":"072609783265","target":"absent","response":"present","rt":"4801.1000000006","correct":false,"confidence":2},{"trial_n":132,"span":11,"encoder":"89415298007","distractor":"88415298007","target":"absent","response":"present","rt":"4525.4000000004","correct":false,"confidence":3},{"trial_n":133,"span":10,"encoder":"6407419616","distractor":"6407419610","target":"present","response":"present","rt":"2497.4000000004","correct":true,"confidence":2},{"trial_n":134,"span":10,"encoder":"8589313620","distractor":"8589313627","target":"present","response":"present","rt":"1340.6000000006","correct":true,"confidence":4},{"trial_n":135,"span":11,"encoder":"21486996436","distractor":"21486996336","target":"present","response":"present","rt":"2866.6000000006","correct":true,"confidence":3},{"trial_n":136,"span":11,"encoder":"12647783735","distractor":"12647782735","target":"absent","response":"present","rt":"4471.5","correct":false,"confidence":3},{"trial_n":137,"span":10,"encoder":"3016393330","distractor":"3016393630","target":"present","response":"present","rt":"1714.2999999998","correct":true,"confidence":3},{"trial_n":138,"span":10,"encoder":"7878050183","distractor":"7878050583","target":"present","response":"present","rt":"1764.3999999994","correct":true,"confidence":3},{"trial_n":139,"span":11,"encoder":"62358981215","distractor":"62358982215","target":"present","response":"present","rt":"2936.0999999996","correct":true,"confidence":4},{"trial_n":140,"span":11,"encoder":"60579212486","distractor":"60579012486","target":"present","response":"present","rt":"5079.0999999996","correct":true,"confidence":3}]