[{"trial_n":1,"min":25,"max":230,"target":"present","response":"absent","rt":12616.6,"correct":false,"confidence":-1},{"trial_n":2,"min":25,"max":230,"target":"present","response":"present","rt":1157.9000000004,"correct":true,"confidence":-1},{"trial_n":3,"min":25,"max":230,"target":"absent","response":"absent","rt":483.59999999963,"correct":true,"confidence":-1},{"trial_n":4,"min":41,"max":214,"target":"absent","response":"absent","rt":328.89999999851,"correct":true,"confidence":-1},{"trial_n":5,"min":41,"max":214,"target":"present","response":"absent","rt":167.5,"correct":false,"confidence":-1},{"trial_n":6,"min":25,"max":230,"target":"absent","response":"absent","rt":312.09999999963,"correct":true,"confidence":-1},{"trial_n":7,"min":25,"max":230,"target":"present","response":"present","rt":223.5,"correct":true,"confidence":-1},{"trial_n":8,"min":41,"max":214,"target":"absent","response":"absent","rt":235.59999999963,"correct":true,"confidence":-1},{"trial_n":9,"min":41,"max":214,"target":"present","response":"present","rt":214.79999999888,"correct":true,"confidence":-1},{"trial_n":10,"min":57,"max":198,"target":"present","response":"present","rt":600.5,"correct":true,"confidence":-1},{"trial_n":11,"min":57,"max":198,"target":"present","response":"present","rt":490.90000000037,"correct":true,"confidence":-1},{"trial_n":12,"min":65,"max":190,"target":"present","response":"absent","rt":299.30000000075,"correct":false,"confidence":-1},{"trial_n":13,"min":57,"max":198,"target":"absent","response":"absent","rt":567.59999999963,"correct":true,"confidence":-1},{"trial_n":14,"min":57,"max":198,"target":"absent","response":"absent","rt":402.5,"correct":true,"confidence":-1},{"trial_n":15,"min":65,"max":190,"target":"present","response":"present","rt":350.40000000037,"correct":true,"confidence":-1},{"trial_n":16,"min":65,"max":190,"target":"present","response":"absent","rt":268.80000000075,"correct":false,"confidence":-1},{"trial_n":17,"min":57,"max":198,"target":"present","response":"present","rt":366.5,"correct":true,"confidence":-1},{"trial_n":18,"min":57,"max":198,"target":"absent","response":"absent","rt":431.5,"correct":true,"confidence":-1},{"trial_n":19,"min":65,"max":190,"target":"absent","response":"absent","rt":299.19999999925,"correct":true,"confidence":-1},{"trial_n":20,"min":65,"max":190,"target":"present","response":"present","rt":159.29999999888,"correct":true,"confidence":-1},{"trial_n":21,"min":69,"max":186,"target":"present","response":"present","rt":482.69999999925,"correct":true,"confidence":4},{"trial_n":22,"min":69,"max":186,"target":"present","response":"present","rt":590.90000000037,"correct":true,"confidence":2},{"trial_n":23,"min":73,"max":182,"target":"absent","response":"absent","rt":274.59999999963,"correct":true,"confidence":3},{"trial_n":24,"min":73,"max":182,"target":"absent","response":"present","rt":617.69999999925,"correct":false,"confidence":2},{"trial_n":25,"min":69,"max":186,"target":"absent","response":"present","rt":2635.0999999996,"correct":false,"confidence":2},{"trial_n":26,"min":65,"max":190,"target":"present","response":"present","rt":467.29999999888,"correct":true,"confidence":4},{"trial_n":27,"min":65,"max":190,"target":"absent","response":"absent","rt":696.40000000037,"correct":true,"confidence":2},{"trial_n":28,"min":69,"max":186,"target":"present","response":"present","rt":378.90000000037,"correct":true,"confidence":4},{"trial_n":29,"min":69,"max":186,"target":"present","response":"present","rt":357.19999999925,"correct":true,"confidence":5},{"trial_n":30,"min":73,"max":182,"target":"absent","response":"absent","rt":769.39999999851,"correct":true,"confidence":4},{"trial_n":31,"min":73,"max":182,"target":"absent","response":"absent","rt":512.5,"correct":true,"confidence":4},{"trial_n":32,"min":75,"max":180,"target":"present","response":"present","rt":559.09999999963,"correct":true,"confidence":4},{"trial_n":33,"min":75,"max":180,"target":"present","response":"present","rt":330,"correct":true,"confidence":5},{"trial_n":34,"min":77,"max":178,"target":"present","response":"present","rt":199.09999999963,"correct":true,"confidence":5},{"trial_n":35,"min":77,"max":178,"target":"absent","response":"absent","rt":512.5,"correct":true,"confidence":4},{"trial_n":36,"min":79,"max":176,"target":"present","response":"absent","rt":692,"correct":false,"confidence":2},{"trial_n":37,"min":77,"max":178,"target":"absent","response":"present","rt":4202.9000000004,"correct":false,"confidence":2},{"trial_n":38,"min":75,"max":180,"target":"present","response":"present","rt":287.79999999888,"correct":true,"confidence":3},{"trial_n":39,"min":75,"max":180,"target":"absent","response":"absent","rt":269.69999999925,"correct":true,"confidence":4},{"trial_n":40,"min":77,"max":178,"target":"absent","response":"absent","rt":392.19999999925,"correct":true,"confidence":4},{"trial_n":41,"min":77,"max":178,"target":"absent","response":"absent","rt":252.90000000037,"correct":true,"confidence":4},{"trial_n":42,"min":78,"max":177,"target":"absent","response":"absent","rt":440.09999999963,"correct":true,"confidence":4},{"trial_n":43,"min":78,"max":177,"target":"present","response":"present","rt":152.79999999888,"correct":true,"confidence":5},{"trial_n":44,"min":79,"max":176,"target":"absent","response":"absent","rt":381.39999999851,"correct":true,"confidence":2},{"trial_n":45,"min":79,"max":176,"target":"present","response":"absent","rt":282.09999999963,"correct":false,"confidence":2},{"trial_n":46,"min":78,"max":177,"target":"absent","response":"absent","rt":339.70000000112,"correct":true,"confidence":2},{"trial_n":47,"min":78,"max":177,"target":"present","response":"present","rt":632.5,"correct":true,"confidence":3},{"trial_n":48,"min":79,"max":176,"target":"absent","response":"absent","rt":512.90000000037,"correct":true,"confidence":4},{"trial_n":49,"min":79,"max":176,"target":"present","response":"present","rt":512.79999999888,"correct":true,"confidence":4},{"trial_n":50,"min":80,"max":175,"target":"absent","response":"present","rt":943.70000000112,"correct":false,"confidence":2},{"trial_n":51,"min":79,"max":176,"target":"present","response":"present","rt":317.69999999925,"correct":true,"confidence":3},{"trial_n":52,"min":79,"max":176,"target":"present","response":"present","rt":16421.5,"correct":true,"confidence":3},{"trial_n":53,"min":80,"max":175,"target":"present","response":"present","rt":748.29999999888,"correct":true,"confidence":4},{"trial_n":54,"min":80,"max":175,"target":"absent","response":"present","rt":399.40000000037,"correct":false,"confidence":4},{"trial_n":55,"min":79,"max":176,"target":"present","response":"present","rt":194.90000000037,"correct":true,"confidence":5},{"trial_n":56,"min":79,"max":176,"target":"absent","response":"absent","rt":362.19999999925,"correct":true,"confidence":4},{"trial_n":57,"min":80,"max":175,"target":"absent","response":"absent","rt":285,"correct":true,"confidence":2},{"trial_n":58,"min":80,"max":175,"target":"absent","response":"absent","rt":270.90000000037,"correct":true,"confidence":2},{"trial_n":59,"min":81,"max":174,"target":"absent","response":"absent","rt":395.30000000075,"correct":true,"confidence":2},{"trial_n":60,"min":81,"max":174,"target":"absent","response":"absent","rt":667.29999999888,"correct":true,"confidence":3},{"trial_n":61,"min":82,"max":173,"target":"present","response":"present","rt":560.69999999925,"correct":true,"confidence":4},{"trial_n":62,"min":82,"max":173,"target":"present","response":"present","rt":676.59999999963,"correct":true,"confidence":2},{"trial_n":63,"min":83,"max":172,"target":"absent","response":"present","rt":572.40000000037,"correct":false,"confidence":4},{"trial_n":64,"min":82,"max":173,"target":"present","response":"present","rt":549.19999999925,"correct":true,"confidence":4},{"trial_n":65,"min":82,"max":173,"target":"absent","response":"present","rt":452.80000000075,"correct":false,"confidence":5},{"trial_n":66,"min":81,"max":174,"target":"present","response":"present","rt":452.69999999925,"correct":true,"confidence":3},{"trial_n":67,"min":81,"max":174,"target":"absent","response":"absent","rt":625.69999999925,"correct":true,"confidence":1},{"trial_n":68,"min":82,"max":173,"target":"present","response":"present","rt":370.20000000112,"correct":true,"confidence":4},{"trial_n":69,"min":82,"max":173,"target":"present","response":"present","rt":238.5,"correct":true,"confidence":4},{"trial_n":70,"min":83,"max":172,"target":"absent","response":"absent","rt":1171.7999999989,"correct":true,"confidence":2},{"trial_n":71,"min":41,"max":214,"target":"present","response":"present","rt":4407.5,"correct":true,"confidence":-1},{"trial_n":72,"min":41,"max":214,"target":"present","response":"absent","rt":4746.5999999996,"correct":false,"confidence":-1},{"trial_n":73,"min":25,"max":230,"target":"absent","response":"present","rt":635.29999999888,"correct":false,"confidence":-1},{"trial_n":74,"min":9,"max":246,"target":"absent","response":"absent","rt":998.69999999925,"correct":true,"confidence":-1},{"trial_n":75,"min":9,"max":246,"target":"present","response":"present","rt":281.29999999888,"correct":true,"confidence":-1},{"trial_n":76,"min":25,"max":230,"target":"present","response":"present","rt":652.09999999963,"correct":true,"confidence":-1},{"trial_n":77,"min":25,"max":230,"target":"absent","response":"absent","rt":318.59999999963,"correct":true,"confidence":-1},{"trial_n":78,"min":41,"max":214,"target":"absent","response":"absent","rt":359.59999999963,"correct":true,"confidence":-1},{"trial_n":79,"min":41,"max":214,"target":"absent","response":"absent","rt":398.19999999925,"correct":true,"confidence":-1},{"trial_n":80,"min":57,"max":198,"target":"absent","response":"absent","rt":470.19999999925,"correct":true,"confidence":-1},{"trial_n":81,"min":57,"max":198,"target":"absent","response":"absent","rt":262.90000000037,"correct":true,"confidence":-1},{"trial_n":82,"min":65,"max":190,"target":"present","response":"present","rt":579.79999999888,"correct":true,"confidence":-1},{"trial_n":83,"min":65,"max":190,"target":"present","response":"present","rt":397.90000000037,"correct":true,"confidence":-1},{"trial_n":84,"min":73,"max":182,"target":"absent","response":"absent","rt":1140.6999999993,"correct":true,"confidence":-1},{"trial_n":85,"min":73,"max":182,"target":"present","response":"present","rt":472.29999999888,"correct":true,"confidence":-1},{"trial_n":86,"min":81,"max":174,"target":"present","response":"present","rt":607.09999999963,"correct":true,"confidence":-1},{"trial_n":87,"min":81,"max":174,"target":"absent","response":"absent","rt":919.5,"correct":true,"confidence":-1},{"trial_n":88,"min":89,"max":166,"target":"absent","response":"absent","rt":539.90000000037,"correct":true,"confidence":-1},{"trial_n":89,"min":89,"max":166,"target":"present","response":"present","rt":353.59999999963,"correct":true,"confidence":-1},{"trial_n":90,"min":97,"max":158,"target":"absent","response":"absent","rt":771.19999999925,"correct":true,"confidence":-1},{"trial_n":91,"min":97,"max":158,"target":"present","response":"present","rt":544.90000000037,"correct":true,"confidence":2},{"trial_n":92,"min":101,"max":154,"target":"present","response":"present","rt":280.69999999925,"correct":true,"confidence":4},{"trial_n":93,"min":101,"max":154,"target":"absent","response":"present","rt":463,"correct":false,"confidence":1},{"trial_n":94,"min":97,"max":158,"target":"absent","response":"present","rt":623.70000000112,"correct":false,"confidence":2},{"trial_n":95,"min":93,"max":162,"target":"present","response":"present","rt":542.59999999963,"correct":true,"confidence":2},{"trial_n":96,"min":93,"max":162,"target":"present","response":"present","rt":465.40000000037,"correct":true,"confidence":4},{"trial_n":97,"min":97,"max":158,"target":"absent","response":"present","rt":474.80000000075,"correct":false,"confidence":3},{"trial_n":98,"min":93,"max":162,"target":"present","response":"absent","rt":670.69999999925,"correct":false,"confidence":2},{"trial_n":99,"min":89,"max":166,"target":"present","response":"present","rt":252.19999999925,"correct":true,"confidence":4},{"trial_n":100,"min":89,"max":166,"target":"absent","response":"absent","rt":642.19999999925,"correct":true,"confidence":5},{"trial_n":101,"min":91,"max":164,"target":"absent","response":"present","rt":772.09999999963,"correct":false,"confidence":3},{"trial_n":102,"min":89,"max":166,"target":"present","response":"present","rt":531.5,"correct":true,"confidence":2},{"trial_n":103,"min":89,"max":166,"target":"present","response":"present","rt":250.69999999925,"correct":true,"confidence":2},{"trial_n":104,"min":91,"max":164,"target":"present","response":"absent","rt":769.59999999963,"correct":false,"confidence":1},{"trial_n":105,"min":89,"max":166,"target":"absent","response":"present","rt":59.599999999627,"correct":false,"confidence":1},{"trial_n":106,"min":87,"max":168,"target":"absent","response":"absent","rt":152.59999999963,"correct":true,"confidence":1},{"trial_n":107,"min":87,"max":168,"target":"absent","response":"present","rt":578.59999999963,"correct":false,"confidence":1},{"trial_n":108,"min":85,"max":170,"target":"absent","response":"absent","rt":7.4000000003725,"correct":true,"confidence":1},{"trial_n":109,"min":85,"max":170,"target":"present","response":"present","rt":911.5,"correct":true,"confidence":4},{"trial_n":110,"min":87,"max":168,"target":"present","response":"present","rt":2276.1999999993,"correct":true,"confidence":2},{"trial_n":111,"min":87,"max":168,"target":"present","response":"absent","rt":634.39999999851,"correct":false,"confidence":4},{"trial_n":112,"min":86,"max":169,"target":"absent","response":"absent","rt":809.89999999851,"correct":true,"confidence":3},{"trial_n":113,"min":86,"max":169,"target":"present","response":"present","rt":274.29999999888,"correct":true,"confidence":1},{"trial_n":114,"min":87,"max":168,"target":"absent","response":"absent","rt":241.29999999888,"correct":true,"confidence":1},{"trial_n":115,"min":87,"max":168,"target":"present","response":"present","rt":453.10000000149,"correct":true,"confidence":2},{"trial_n":116,"min":88,"max":167,"target":"absent","response":"absent","rt":1251,"correct":true,"confidence":3},{"trial_n":117,"min":88,"max":167,"target":"present","response":"present","rt":280.09999999963,"correct":true,"confidence":4},{"trial_n":118,"min":89,"max":166,"target":"present","response":"absent","rt":736.29999999888,"correct":false,"confidence":1},{"trial_n":119,"min":88,"max":167,"target":"absent","response":"present","rt":298,"correct":false,"confidence":1},{"trial_n":120,"min":87,"max":168,"target":"absent","response":"absent","rt":100.79999999888,"correct":true,"confidence":1},{"trial_n":121,"min":87,"max":168,"target":"present","response":"present","rt":153.09999999963,"correct":true,"confidence":1},{"trial_n":122,"min":88,"max":167,"target":"absent","response":"absent","rt":85.799999998882,"correct":true,"confidence":1},{"trial_n":123,"min":88,"max":167,"target":"absent","response":"absent","rt":636.19999999925,"correct":true,"confidence":1},{"trial_n":124,"min":89,"max":166,"target":"present","response":"present","rt":1475.5999999996,"correct":true,"confidence":3},{"trial_n":125,"min":89,"max":166,"target":"absent","response":"absent","rt":748.59999999963,"correct":true,"confidence":3},{"trial_n":126,"min":90,"max":165,"target":"absent","response":"present","rt":529.79999999888,"correct":false,"confidence":1},{"trial_n":127,"min":89,"max":166,"target":"present","response":"present","rt":285.5,"correct":true,"confidence":5},{"trial_n":128,"min":89,"max":166,"target":"present","response":"present","rt":314.30000000075,"correct":true,"confidence":4},{"trial_n":129,"min":90,"max":165,"target":"present","response":"absent","rt":1264.7999999989,"correct":false,"confidence":3},{"trial_n":130,"min":89,"max":166,"target":"absent","response":"present","rt":963.19999999925,"correct":false,"confidence":2},{"trial_n":131,"min":88,"max":167,"target":"present","response":"present","rt":318.79999999888,"correct":true,"confidence":4},{"trial_n":132,"min":88,"max":167,"target":"absent","response":"absent","rt":1001.2999999989,"correct":true,"confidence":4},{"trial_n":133,"min":89,"max":166,"target":"present","response":"present","rt":190.40000000037,"correct":true,"confidence":3},{"trial_n":134,"min":89,"max":166,"target":"absent","response":"present","rt":282.89999999851,"correct":false,"confidence":2},{"trial_n":135,"min":88,"max":167,"target":"absent","response":"absent","rt":540.29999999888,"correct":true,"confidence":4},{"trial_n":136,"min":88,"max":167,"target":"present","response":"absent","rt":546.69999999925,"correct":false,"confidence":2},{"trial_n":137,"min":87,"max":168,"target":"present","response":"present","rt":376.29999999888,"correct":true,"confidence":3},{"trial_n":138,"min":87,"max":168,"target":"absent","response":"present","rt":136.59999999963,"correct":false,"confidence":3},{"trial_n":139,"min":86,"max":169,"target":"present","response":"present","rt":174.69999999925,"correct":true,"confidence":3},{"trial_n":140,"min":86,"max":169,"target":"present","response":"present","rt":405.19999999925,"correct":true,"confidence":4}]