[{"trial_n":1,"n_dots":4.25,"target":"right","response":"left","rt":7978.700000003,"correct":false,"confidence":-1},{"trial_n":2,"n_dots":4.25,"target":"right","response":"right","rt":566.5,"correct":true,"confidence":-1},{"trial_n":3,"n_dots":4.25,"target":"right","response":"right","rt":363.10000000894,"correct":true,"confidence":-1},{"trial_n":4,"n_dots":3.85,"target":"right","response":"right","rt":392.40000000596,"correct":true,"confidence":-1},{"trial_n":5,"n_dots":3.85,"target":"left","response":"right","rt":427.40000000596,"correct":false,"confidence":-1},{"trial_n":6,"n_dots":4.25,"target":"right","response":"right","rt":334.69999998808,"correct":true,"confidence":-1},{"trial_n":7,"n_dots":4.25,"target":"left","response":"left","rt":678.40000000596,"correct":true,"confidence":-1},{"trial_n":8,"n_dots":4.05,"target":"left","response":"left","rt":608,"correct":true,"confidence":-1},{"trial_n":9,"n_dots":4.05,"target":"left","response":"left","rt":111.20000000298,"correct":true,"confidence":-1},{"trial_n":10,"n_dots":3.85,"target":"left","response":"left","rt":418.79999999702,"correct":true,"confidence":-1},{"trial_n":11,"n_dots":3.85,"target":"left","response":"left","rt":359.69999998808,"correct":true,"confidence":-1},{"trial_n":12,"n_dots":3.65,"target":"left","response":"right","rt":488.89999999106,"correct":false,"confidence":-1},{"trial_n":13,"n_dots":3.75,"target":"right","response":"right","rt":130.69999998808,"correct":true,"confidence":-1},{"trial_n":14,"n_dots":3.75,"target":"left","response":"left","rt":296,"correct":true,"confidence":-1},{"trial_n":15,"n_dots":3.65,"target":"right","response":"right","rt":355.29999999702,"correct":true,"confidence":-1},{"trial_n":16,"n_dots":3.65,"target":"left","response":"left","rt":249.29999999702,"correct":true,"confidence":-1},{"trial_n":17,"n_dots":3.55,"target":"left","response":"left","rt":369.20000000298,"correct":true,"confidence":-1},{"trial_n":18,"n_dots":3.55,"target":"right","response":"right","rt":302.79999999702,"correct":true,"confidence":-1},{"trial_n":19,"n_dots":3.45,"target":"right","response":"right","rt":331.5,"correct":true,"confidence":-1},{"trial_n":20,"n_dots":3.45,"target":"right","response":"right","rt":378.20000000298,"correct":true,"confidence":-1},{"trial_n":21,"n_dots":3.35,"target":"left","response":"left","rt":327.59999999404,"correct":true,"confidence":4},{"trial_n":22,"n_dots":3.35,"target":"right","response":"left","rt":1139.5,"correct":false,"confidence":3},{"trial_n":23,"n_dots":3.45,"target":"right","response":"right","rt":1236.200000003,"correct":true,"confidence":3},{"trial_n":24,"n_dots":3.45,"target":"right","response":"right","rt":618.90000000596,"correct":true,"confidence":3},{"trial_n":25,"n_dots":3.35,"target":"left","response":"left","rt":660.10000000894,"correct":true,"confidence":2},{"trial_n":26,"n_dots":3.35,"target":"left","response":"right","rt":916.79999999702,"correct":false,"confidence":2},{"trial_n":27,"n_dots":3.45,"target":"right","response":"right","rt":599.29999999702,"correct":true,"confidence":2},{"trial_n":28,"n_dots":3.45,"target":"right","response":"right","rt":1011.700000003,"correct":true,"confidence":3},{"trial_n":29,"n_dots":3.35,"target":"right","response":"right","rt":610.30000001192,"correct":true,"confidence":3},{"trial_n":30,"n_dots":3.35,"target":"right","response":"right","rt":702.19999998808,"correct":true,"confidence":3},{"trial_n":31,"n_dots":3.25,"target":"right","response":"right","rt":618.10000000894,"correct":true,"confidence":3},{"trial_n":32,"n_dots":3.25,"target":"left","response":"left","rt":728.89999999106,"correct":true,"confidence":2},{"trial_n":33,"n_dots":3.15,"target":"left","response":"right","rt":747.90000000596,"correct":false,"confidence":2},{"trial_n":34,"n_dots":3.25,"target":"right","response":"left","rt":1836.700000003,"correct":false,"confidence":2},{"trial_n":35,"n_dots":3.35,"target":"right","response":"right","rt":1978.6999999881,"correct":true,"confidence":2},{"trial_n":36,"n_dots":3.35,"target":"right","response":"left","rt":635,"correct":false,"confidence":3},{"trial_n":37,"n_dots":3.45,"target":"right","response":"right","rt":668.10000000894,"correct":true,"confidence":3},{"trial_n":38,"n_dots":3.45,"target":"left","response":"right","rt":1087.799999997,"correct":false,"confidence":1},{"trial_n":39,"n_dots":3.55,"target":"right","response":"right","rt":686.39999999106,"correct":true,"confidence":3},{"trial_n":40,"n_dots":3.55,"target":"right","response":"right","rt":625.20000000298,"correct":true,"confidence":3},{"trial_n":41,"n_dots":3.45,"target":"right","response":"right","rt":678,"correct":true,"confidence":3},{"trial_n":42,"n_dots":3.45,"target":"right","response":"right","rt":449.20000000298,"correct":true,"confidence":3},{"trial_n":43,"n_dots":3.35,"target":"right","response":"right","rt":566.89999999106,"correct":true,"confidence":3},{"trial_n":44,"n_dots":3.35,"target":"right","response":"left","rt":981.70000000298,"correct":false,"confidence":2},{"trial_n":45,"n_dots":3.45,"target":"right","response":"right","rt":854.09999999404,"correct":true,"confidence":3},{"trial_n":46,"n_dots":3.45,"target":"left","response":"left","rt":627.29999999702,"correct":true,"confidence":4},{"trial_n":47,"n_dots":3.35,"target":"left","response":"left","rt":736.20000000298,"correct":true,"confidence":4},{"trial_n":48,"n_dots":3.35,"target":"right","response":"right","rt":793.59999999404,"correct":true,"confidence":2},{"trial_n":49,"n_dots":3.25,"target":"left","response":"right","rt":932.5,"correct":false,"confidence":2},{"trial_n":50,"n_dots":3.35,"target":"left","response":"left","rt":1179.900000006,"correct":true,"confidence":1},{"trial_n":51,"n_dots":3.35,"target":"left","response":"left","rt":723.40000000596,"correct":true,"confidence":3},{"trial_n":52,"n_dots":3.25,"target":"right","response":"left","rt":828,"correct":false,"confidence":2},{"trial_n":53,"n_dots":3.35,"target":"right","response":"right","rt":1112.400000006,"correct":true,"confidence":2},{"trial_n":54,"n_dots":3.35,"target":"left","response":"left","rt":1190.700000003,"correct":true,"confidence":2},{"trial_n":55,"n_dots":3.25,"target":"right","response":"right","rt":988.09999999404,"correct":true,"confidence":2},{"trial_n":56,"n_dots":3.25,"target":"left","response":"left","rt":699.5,"correct":true,"confidence":3},{"trial_n":57,"n_dots":3.15,"target":"left","response":"left","rt":920.30000001192,"correct":true,"confidence":2},{"trial_n":58,"n_dots":3.15,"target":"left","response":"left","rt":944.89999999106,"correct":true,"confidence":2},{"trial_n":59,"n_dots":3.05,"target":"left","response":"left","rt":816.5,"correct":true,"confidence":2},{"trial_n":60,"n_dots":3.05,"target":"left","response":"left","rt":674,"correct":true,"confidence":4},{"trial_n":61,"n_dots":2.95,"target":"right","response":"left","rt":626.09999999404,"correct":false,"confidence":3},{"trial_n":62,"n_dots":3.05,"target":"left","response":"left","rt":617.20000000298,"correct":true,"confidence":2},{"trial_n":63,"n_dots":3.05,"target":"right","response":"right","rt":943.89999999106,"correct":true,"confidence":3},{"trial_n":64,"n_dots":2.95,"target":"right","response":"right","rt":2047.700000003,"correct":true,"confidence":3},{"trial_n":65,"n_dots":2.95,"target":"left","response":"right","rt":974.19999998808,"correct":false,"confidence":2},{"trial_n":66,"n_dots":3.05,"target":"left","response":"left","rt":901.19999998808,"correct":true,"confidence":4},{"trial_n":67,"n_dots":3.05,"target":"left","response":"left","rt":778.29999999702,"correct":true,"confidence":3},{"trial_n":68,"n_dots":2.95,"target":"right","response":"right","rt":770.19999998808,"correct":true,"confidence":2},{"trial_n":69,"n_dots":2.95,"target":"right","response":"right","rt":1123.599999994,"correct":true,"confidence":2},{"trial_n":70,"n_dots":2.85,"target":"left","response":"right","rt":814.09999999404,"correct":false,"confidence":1},{"trial_n":71,"n_dots":2.95,"target":"right","response":"right","rt":4825.5,"correct":true,"confidence":1},{"trial_n":72,"n_dots":2.95,"target":"right","response":"right","rt":610.60000000894,"correct":true,"confidence":2},{"trial_n":73,"n_dots":2.85,"target":"left","response":"left","rt":814.79999999702,"correct":true,"confidence":2},{"trial_n":74,"n_dots":2.85,"target":"right","response":"right","rt":1437.8999999911,"correct":true,"confidence":2},{"trial_n":75,"n_dots":2.75,"target":"right","response":"right","rt":2966.099999994,"correct":true,"confidence":2},{"trial_n":76,"n_dots":2.75,"target":"right","response":"right","rt":1457.8000000119,"correct":true,"confidence":2},{"trial_n":77,"n_dots":2.65,"target":"left","response":"left","rt":806.69999998808,"correct":true,"confidence":3},{"trial_n":78,"n_dots":2.65,"target":"left","response":"left","rt":1162.599999994,"correct":true,"confidence":2},{"trial_n":79,"n_dots":2.55,"target":"left","response":"right","rt":1370.799999997,"correct":false,"confidence":2},{"trial_n":80,"n_dots":2.65,"target":"right","response":"right","rt":807.5,"correct":true,"confidence":2},{"trial_n":81,"n_dots":2.65,"target":"right","response":"right","rt":1007.400000006,"correct":true,"confidence":2},{"trial_n":82,"n_dots":2.55,"target":"left","response":"right","rt":1192.099999994,"correct":false,"confidence":2},{"trial_n":83,"n_dots":2.65,"target":"left","response":"right","rt":1307.200000003,"correct":false,"confidence":1},{"trial_n":84,"n_dots":2.75,"target":"left","response":"left","rt":945,"correct":true,"confidence":2},{"trial_n":85,"n_dots":2.75,"target":"right","response":"left","rt":3421.299999997,"correct":false,"confidence":1},{"trial_n":86,"n_dots":2.85,"target":"right","response":"right","rt":927.19999998808,"correct":true,"confidence":1},{"trial_n":87,"n_dots":2.85,"target":"left","response":"left","rt":616.60000000894,"correct":true,"confidence":3},{"trial_n":88,"n_dots":2.75,"target":"right","response":"left","rt":776.5,"correct":false,"confidence":3},{"trial_n":89,"n_dots":2.85,"target":"left","response":"right","rt":1687.700000003,"correct":false,"confidence":1},{"trial_n":90,"n_dots":2.95,"target":"left","response":"left","rt":2557.299999997,"correct":true,"confidence":1},{"trial_n":91,"n_dots":2.95,"target":"left","response":"right","rt":1418.700000003,"correct":false,"confidence":1},{"trial_n":92,"n_dots":3.05,"target":"right","response":"right","rt":1919.200000003,"correct":true,"confidence":2},{"trial_n":93,"n_dots":3.05,"target":"right","response":"left","rt":2405.900000006,"correct":false,"confidence":1},{"trial_n":94,"n_dots":3.15,"target":"right","response":"right","rt":1230.400000006,"correct":true,"confidence":3},{"trial_n":95,"n_dots":3.15,"target":"left","response":"left","rt":826.29999999702,"correct":true,"confidence":3},{"trial_n":96,"n_dots":3.05,"target":"right","response":"right","rt":1074.299999997,"correct":true,"confidence":2},{"trial_n":97,"n_dots":3.05,"target":"right","response":"left","rt":741.59999999404,"correct":false,"confidence":2},{"trial_n":98,"n_dots":3.15,"target":"left","response":"right","rt":1165.6000000089,"correct":false,"confidence":2},{"trial_n":99,"n_dots":3.25,"target":"left","response":"right","rt":615.5,"correct":false,"confidence":3},{"trial_n":100,"n_dots":3.35,"target":"right","response":"right","rt":670.5,"correct":true,"confidence":3},{"trial_n":101,"n_dots":3.35,"target":"right","response":"right","rt":1238.6999999881,"correct":true,"confidence":3},{"trial_n":102,"n_dots":3.25,"target":"right","response":"right","rt":567,"correct":true,"confidence":3},{"trial_n":103,"n_dots":3.25,"target":"left","response":"right","rt":1695.700000003,"correct":false,"confidence":2},{"trial_n":104,"n_dots":3.35,"target":"left","response":"right","rt":665.59999999404,"correct":false,"confidence":3},{"trial_n":105,"n_dots":3.45,"target":"left","response":"left","rt":766.70000000298,"correct":true,"confidence":3},{"trial_n":106,"n_dots":3.45,"target":"left","response":"left","rt":987.40000000596,"correct":true,"confidence":3},{"trial_n":107,"n_dots":3.35,"target":"right","response":"right","rt":1970.5,"correct":true,"confidence":3},{"trial_n":108,"n_dots":3.35,"target":"left","response":"left","rt":971,"correct":true,"confidence":2},{"trial_n":109,"n_dots":3.25,"target":"right","response":"left","rt":824.20000000298,"correct":false,"confidence":3},{"trial_n":110,"n_dots":3.35,"target":"left","response":"left","rt":913.09999999404,"correct":true,"confidence":2},{"trial_n":111,"n_dots":3.35,"target":"left","response":"left","rt":640.60000000894,"correct":true,"confidence":2},{"trial_n":112,"n_dots":3.25,"target":"right","response":"right","rt":609.10000000894,"correct":true,"confidence":3},{"trial_n":113,"n_dots":3.25,"target":"left","response":"left","rt":658.39999999106,"correct":true,"confidence":2},{"trial_n":114,"n_dots":3.15,"target":"left","response":"left","rt":646.30000001192,"correct":true,"confidence":2},{"trial_n":115,"n_dots":3.15,"target":"left","response":"left","rt":651.10000000894,"correct":true,"confidence":2},{"trial_n":116,"n_dots":3.05,"target":"left","response":"left","rt":871.10000000894,"correct":true,"confidence":2},{"trial_n":117,"n_dots":3.05,"target":"left","response":"right","rt":782.70000000298,"correct":false,"confidence":2},{"trial_n":118,"n_dots":3.15,"target":"left","response":"left","rt":1250.299999997,"correct":true,"confidence":2},{"trial_n":119,"n_dots":3.15,"target":"right","response":"right","rt":650.20000000298,"correct":true,"confidence":3},{"trial_n":120,"n_dots":3.05,"target":"left","response":"left","rt":742.60000000894,"correct":true,"confidence":3}]