[{"trial_n":1,"n_dots":4.25,"target":"left","response":"left","rt":10420.300000012,"correct":true,"confidence":-1},{"trial_n":2,"n_dots":4.25,"target":"left","response":"left","rt":1302.200000003,"correct":true,"confidence":-1},{"trial_n":3,"n_dots":3.85,"target":"right","response":"right","rt":668.5,"correct":true,"confidence":-1},{"trial_n":4,"n_dots":3.85,"target":"left","response":"left","rt":1090,"correct":true,"confidence":-1},{"trial_n":5,"n_dots":3.45,"target":"right","response":"right","rt":810.90000000596,"correct":true,"confidence":-1},{"trial_n":6,"n_dots":3.45,"target":"right","response":"right","rt":757.29999999702,"correct":true,"confidence":-1},{"trial_n":7,"n_dots":3.05,"target":"right","response":"left","rt":940.39999999106,"correct":false,"confidence":-1},{"trial_n":8,"n_dots":3.25,"target":"left","response":"right","rt":686.09999999404,"correct":false,"confidence":-1},{"trial_n":9,"n_dots":3.45,"target":"left","response":"right","rt":781.39999999106,"correct":false,"confidence":-1},{"trial_n":10,"n_dots":3.65,"target":"right","response":"right","rt":372.5,"correct":true,"confidence":-1},{"trial_n":11,"n_dots":3.65,"target":"right","response":"right","rt":384.79999999702,"correct":true,"confidence":-1},{"trial_n":12,"n_dots":3.45,"target":"right","response":"right","rt":362.59999999404,"correct":true,"confidence":-1},{"trial_n":13,"n_dots":3.45,"target":"left","response":"right","rt":525.40000000596,"correct":false,"confidence":-1},{"trial_n":14,"n_dots":3.55,"target":"right","response":"right","rt":325.30000001192,"correct":true,"confidence":-1},{"trial_n":15,"n_dots":3.55,"target":"right","response":"left","rt":482.70000000298,"correct":false,"confidence":-1},{"trial_n":16,"n_dots":3.65,"target":"right","response":"right","rt":352.59999999404,"correct":true,"confidence":-1},{"trial_n":17,"n_dots":3.65,"target":"right","response":"right","rt":388.69999998808,"correct":true,"confidence":-1},{"trial_n":18,"n_dots":3.55,"target":"left","response":"left","rt":385.5,"correct":true,"confidence":-1},{"trial_n":19,"n_dots":3.55,"target":"left","response":"left","rt":452.29999999702,"correct":true,"confidence":-1},{"trial_n":20,"n_dots":3.45,"target":"right","response":"right","rt":449.5,"correct":true,"confidence":-1},{"trial_n":21,"n_dots":3.45,"target":"right","response":"right","rt":340.09999999404,"correct":true,"confidence":3},{"trial_n":22,"n_dots":3.35,"target":"right","response":"right","rt":512.29999999702,"correct":true,"confidence":4},{"trial_n":23,"n_dots":3.35,"target":"left","response":"left","rt":493,"correct":true,"confidence":2},{"trial_n":24,"n_dots":3.25,"target":"right","response":"right","rt":422.89999999106,"correct":true,"confidence":3},{"trial_n":25,"n_dots":3.25,"target":"left","response":"left","rt":941.20000000298,"correct":true,"confidence":2},{"trial_n":26,"n_dots":3.15,"target":"right","response":"right","rt":871.29999999702,"correct":true,"confidence":4},{"trial_n":27,"n_dots":3.15,"target":"left","response":"left","rt":764.29999999702,"correct":true,"confidence":3},{"trial_n":28,"n_dots":3.05,"target":"left","response":"left","rt":1737.900000006,"correct":true,"confidence":1},{"trial_n":29,"n_dots":3.05,"target":"left","response":"right","rt":499.19999998808,"correct":false,"confidence":4},{"trial_n":30,"n_dots":3.15,"target":"left","response":"left","rt":681.29999999702,"correct":true,"confidence":3},{"trial_n":31,"n_dots":3.15,"target":"right","response":"right","rt":437.70000000298,"correct":true,"confidence":3},{"trial_n":32,"n_dots":3.05,"target":"left","response":"left","rt":660.09999999404,"correct":true,"confidence":4},{"trial_n":33,"n_dots":3.05,"target":"left","response":"left","rt":1527.900000006,"correct":true,"confidence":1},{"trial_n":34,"n_dots":2.95,"target":"right","response":"right","rt":590.69999998808,"correct":true,"confidence":4},{"trial_n":35,"n_dots":2.95,"target":"left","response":"right","rt":1365.599999994,"correct":false,"confidence":3},{"trial_n":36,"n_dots":3.05,"target":"right","response":"left","rt":822.60000000894,"correct":false,"confidence":2},{"trial_n":37,"n_dots":3.15,"target":"left","response":"left","rt":689.5,"correct":true,"confidence":2},{"trial_n":38,"n_dots":3.15,"target":"left","response":"right","rt":988.20000000298,"correct":false,"confidence":3},{"trial_n":39,"n_dots":3.25,"target":"right","response":"right","rt":546,"correct":true,"confidence":3},{"trial_n":40,"n_dots":3.25,"target":"right","response":"right","rt":428.90000000596,"correct":true,"confidence":4},{"trial_n":41,"n_dots":3.15,"target":"left","response":"left","rt":513.89999999106,"correct":true,"confidence":5},{"trial_n":42,"n_dots":3.15,"target":"left","response":"right","rt":1175.799999997,"correct":false,"confidence":2},{"trial_n":43,"n_dots":3.25,"target":"right","response":"right","rt":813.79999999702,"correct":true,"confidence":3},{"trial_n":44,"n_dots":3.25,"target":"left","response":"left","rt":448.70000000298,"correct":true,"confidence":4},{"trial_n":45,"n_dots":3.15,"target":"right","response":"right","rt":473.59999999404,"correct":true,"confidence":3},{"trial_n":46,"n_dots":3.15,"target":"right","response":"right","rt":762.5,"correct":true,"confidence":3},{"trial_n":47,"n_dots":3.05,"target":"left","response":"left","rt":303.09999999404,"correct":true,"confidence":4},{"trial_n":48,"n_dots":3.05,"target":"left","response":"left","rt":438,"correct":true,"confidence":2},{"trial_n":49,"n_dots":2.95,"target":"left","response":"left","rt":495.29999999702,"correct":true,"confidence":1},{"trial_n":50,"n_dots":2.95,"target":"right","response":"right","rt":214.09999999404,"correct":true,"confidence":3},{"trial_n":51,"n_dots":2.85,"target":"right","response":"right","rt":689.09999999404,"correct":true,"confidence":3},{"trial_n":52,"n_dots":2.85,"target":"right","response":"left","rt":781.60000000894,"correct":false,"confidence":2},{"trial_n":53,"n_dots":2.95,"target":"left","response":"left","rt":784.79999999702,"correct":true,"confidence":3},{"trial_n":54,"n_dots":2.95,"target":"right","response":"right","rt":843.79999999702,"correct":true,"confidence":3},{"trial_n":55,"n_dots":2.85,"target":"right","response":"right","rt":447.5,"correct":true,"confidence":3},{"trial_n":56,"n_dots":2.85,"target":"left","response":"left","rt":445.59999999404,"correct":true,"confidence":4},{"trial_n":57,"n_dots":2.75,"target":"right","response":"right","rt":457.70000000298,"correct":true,"confidence":5},{"trial_n":58,"n_dots":2.75,"target":"left","response":"left","rt":963.20000000298,"correct":true,"confidence":2},{"trial_n":59,"n_dots":2.65,"target":"right","response":"right","rt":319.90000000596,"correct":true,"confidence":5},{"trial_n":60,"n_dots":2.65,"target":"right","response":"right","rt":1445.8999999911,"correct":true,"confidence":4},{"trial_n":61,"n_dots":2.55,"target":"right","response":"right","rt":895.89999999106,"correct":true,"confidence":5},{"trial_n":62,"n_dots":2.55,"target":"right","response":"right","rt":960.59999999404,"correct":true,"confidence":4},{"trial_n":63,"n_dots":2.45,"target":"left","response":"right","rt":969,"correct":false,"confidence":3},{"trial_n":64,"n_dots":2.55,"target":"left","response":"left","rt":290.40000000596,"correct":true,"confidence":3},{"trial_n":65,"n_dots":2.55,"target":"left","response":"left","rt":475.70000000298,"correct":true,"confidence":2},{"trial_n":66,"n_dots":2.45,"target":"left","response":"left","rt":551.20000000298,"correct":true,"confidence":3},{"trial_n":67,"n_dots":2.45,"target":"left","response":"left","rt":827.89999999106,"correct":true,"confidence":3},{"trial_n":68,"n_dots":2.35,"target":"right","response":"left","rt":800.79999999702,"correct":false,"confidence":4},{"trial_n":69,"n_dots":2.45,"target":"right","response":"right","rt":391.59999999404,"correct":true,"confidence":4},{"trial_n":70,"n_dots":2.45,"target":"right","response":"right","rt":593.90000000596,"correct":true,"confidence":2},{"trial_n":71,"n_dots":2.35,"target":"left","response":"right","rt":2011.299999997,"correct":false,"confidence":1},{"trial_n":72,"n_dots":2.45,"target":"left","response":"right","rt":445.59999999404,"correct":false,"confidence":2},{"trial_n":73,"n_dots":2.55,"target":"left","response":"left","rt":930.69999998808,"correct":true,"confidence":3},{"trial_n":74,"n_dots":2.55,"target":"left","response":"right","rt":602.30000001192,"correct":false,"confidence":2},{"trial_n":75,"n_dots":2.65,"target":"left","response":"left","rt":684.70000000298,"correct":true,"confidence":4},{"trial_n":76,"n_dots":2.65,"target":"right","response":"right","rt":320.39999999106,"correct":true,"confidence":4},{"trial_n":77,"n_dots":2.55,"target":"left","response":"left","rt":593.10000000894,"correct":true,"confidence":2},{"trial_n":78,"n_dots":2.55,"target":"left","response":"right","rt":410,"correct":false,"confidence":4},{"trial_n":79,"n_dots":2.65,"target":"left","response":"right","rt":686.09999999404,"correct":false,"confidence":2},{"trial_n":80,"n_dots":2.75,"target":"right","response":"right","rt":329.90000000596,"correct":true,"confidence":5},{"trial_n":81,"n_dots":2.75,"target":"right","response":"right","rt":754.29999999702,"correct":true,"confidence":3},{"trial_n":82,"n_dots":2.65,"target":"right","response":"right","rt":432.59999999404,"correct":true,"confidence":3},{"trial_n":83,"n_dots":2.65,"target":"right","response":"left","rt":400.5,"correct":false,"confidence":2},{"trial_n":84,"n_dots":2.75,"target":"right","response":"right","rt":385.20000000298,"correct":true,"confidence":2},{"trial_n":85,"n_dots":2.75,"target":"left","response":"left","rt":376.70000000298,"correct":true,"confidence":4},{"trial_n":86,"n_dots":2.65,"target":"right","response":"right","rt":418.29999999702,"correct":true,"confidence":3},{"trial_n":87,"n_dots":2.65,"target":"right","response":"left","rt":1230,"correct":false,"confidence":1},{"trial_n":88,"n_dots":2.75,"target":"right","response":"right","rt":417,"correct":true,"confidence":3},{"trial_n":89,"n_dots":2.75,"target":"left","response":"right","rt":469.19999998808,"correct":false,"confidence":2},{"trial_n":90,"n_dots":2.85,"target":"right","response":"right","rt":264.79999999702,"correct":true,"confidence":4},{"trial_n":91,"n_dots":2.85,"target":"right","response":"left","rt":477.5,"correct":false,"confidence":2},{"trial_n":92,"n_dots":2.95,"target":"left","response":"left","rt":466.79999999702,"correct":true,"confidence":5},{"trial_n":93,"n_dots":2.95,"target":"right","response":"right","rt":355.69999998808,"correct":true,"confidence":3},{"trial_n":94,"n_dots":2.85,"target":"left","response":"left","rt":312.5,"correct":true,"confidence":4},{"trial_n":95,"n_dots":2.85,"target":"left","response":"left","rt":397.40000000596,"correct":true,"confidence":4},{"trial_n":96,"n_dots":2.75,"target":"left","response":"left","rt":327.29999999702,"correct":true,"confidence":4},{"trial_n":97,"n_dots":2.75,"target":"right","response":"right","rt":445.39999999106,"correct":true,"confidence":3},{"trial_n":98,"n_dots":2.65,"target":"right","response":"left","rt":315.09999999404,"correct":false,"confidence":2},{"trial_n":99,"n_dots":2.75,"target":"right","response":"right","rt":397,"correct":true,"confidence":3},{"trial_n":100,"n_dots":2.75,"target":"right","response":"left","rt":920.90000000596,"correct":false,"confidence":1},{"trial_n":101,"n_dots":2.85,"target":"right","response":"right","rt":339.70000000298,"correct":true,"confidence":5},{"trial_n":102,"n_dots":2.85,"target":"left","response":"left","rt":683.5,"correct":true,"confidence":4},{"trial_n":103,"n_dots":2.75,"target":"left","response":"left","rt":861.59999999404,"correct":true,"confidence":1},{"trial_n":104,"n_dots":2.75,"target":"right","response":"right","rt":310.59999999404,"correct":true,"confidence":3},{"trial_n":105,"n_dots":2.65,"target":"left","response":"left","rt":334.30000001192,"correct":true,"confidence":2},{"trial_n":106,"n_dots":2.65,"target":"left","response":"right","rt":577.59999999404,"correct":false,"confidence":3},{"trial_n":107,"n_dots":2.75,"target":"right","response":"right","rt":348.29999999702,"correct":true,"confidence":4},{"trial_n":108,"n_dots":2.75,"target":"left","response":"left","rt":905.20000000298,"correct":true,"confidence":1},{"trial_n":109,"n_dots":2.65,"target":"left","response":"left","rt":708.30000001192,"correct":true,"confidence":2},{"trial_n":110,"n_dots":2.65,"target":"left","response":"right","rt":509,"correct":false,"confidence":4},{"trial_n":111,"n_dots":2.75,"target":"left","response":"left","rt":189.09999999404,"correct":true,"confidence":5},{"trial_n":112,"n_dots":2.75,"target":"left","response":"left","rt":348.79999999702,"correct":true,"confidence":4},{"trial_n":113,"n_dots":2.65,"target":"right","response":"right","rt":767.89999999106,"correct":true,"confidence":1},{"trial_n":114,"n_dots":2.65,"target":"left","response":"left","rt":353.59999999404,"correct":true,"confidence":4},{"trial_n":115,"n_dots":2.55,"target":"left","response":"left","rt":386.59999999404,"correct":true,"confidence":3},{"trial_n":116,"n_dots":2.55,"target":"right","response":"right","rt":708.40000000596,"correct":true,"confidence":2},{"trial_n":117,"n_dots":2.45,"target":"right","response":"left","rt":932.39999999106,"correct":false,"confidence":2},{"trial_n":118,"n_dots":2.55,"target":"left","response":"left","rt":379.29999999702,"correct":true,"confidence":4},{"trial_n":119,"n_dots":2.55,"target":"left","response":"left","rt":446.79999999702,"correct":true,"confidence":4},{"trial_n":120,"n_dots":2.45,"target":"right","response":"left","rt":561.70000000298,"correct":false,"confidence":4}]