[{"trial_n":1,"n_dots":4.25,"target":"left","response":"left","rt":5471.4000000004,"correct":true,"confidence":-1},{"trial_n":2,"n_dots":4.25,"target":"right","response":"right","rt":806.89999999944,"correct":true,"confidence":-1},{"trial_n":3,"n_dots":3.85,"target":"left","response":"left","rt":819,"correct":true,"confidence":-1},{"trial_n":4,"n_dots":3.85,"target":"right","response":"right","rt":563.80000000075,"correct":true,"confidence":-1},{"trial_n":5,"n_dots":3.45,"target":"left","response":"right","rt":806.09999999963,"correct":false,"confidence":-1},{"trial_n":6,"n_dots":3.85,"target":"left","response":"right","rt":664.80000000075,"correct":false,"confidence":-1},{"trial_n":7,"n_dots":4.25,"target":"right","response":"right","rt":412.90000000037,"correct":true,"confidence":-1},{"trial_n":8,"n_dots":4.25,"target":"right","response":"right","rt":524.5,"correct":true,"confidence":-1},{"trial_n":9,"n_dots":4.05,"target":"left","response":"left","rt":336.60000000056,"correct":true,"confidence":-1},{"trial_n":10,"n_dots":4.05,"target":"right","response":"right","rt":352,"correct":true,"confidence":-1},{"trial_n":11,"n_dots":3.85,"target":"left","response":"left","rt":230.89999999944,"correct":true,"confidence":-1},{"trial_n":12,"n_dots":3.85,"target":"right","response":"right","rt":328,"correct":true,"confidence":-1},{"trial_n":13,"n_dots":3.75,"target":"left","response":"left","rt":125.5,"correct":true,"confidence":-1},{"trial_n":14,"n_dots":3.75,"target":"left","response":"left","rt":210.90000000037,"correct":true,"confidence":-1},{"trial_n":15,"n_dots":3.65,"target":"right","response":"right","rt":237.29999999981,"correct":true,"confidence":-1},{"trial_n":16,"n_dots":3.65,"target":"right","response":"left","rt":230.79999999981,"correct":false,"confidence":-1},{"trial_n":17,"n_dots":3.75,"target":"right","response":"left","rt":294.90000000037,"correct":false,"confidence":-1},{"trial_n":18,"n_dots":3.85,"target":"right","response":"left","rt":261.5,"correct":false,"confidence":-1},{"trial_n":19,"n_dots":3.95,"target":"right","response":"left","rt":637.29999999981,"correct":false,"confidence":-1},{"trial_n":20,"n_dots":4.05,"target":"right","response":"right","rt":363.10000000056,"correct":true,"confidence":-1},{"trial_n":21,"n_dots":4.05,"target":"left","response":"left","rt":1128.4000000004,"correct":true,"confidence":3},{"trial_n":22,"n_dots":3.95,"target":"left","response":"right","rt":1291.6000000006,"correct":false,"confidence":3},{"trial_n":23,"n_dots":4.05,"target":"left","response":"left","rt":692.29999999981,"correct":true,"confidence":4},{"trial_n":24,"n_dots":4.05,"target":"right","response":"right","rt":876.10000000056,"correct":true,"confidence":5},{"trial_n":25,"n_dots":3.95,"target":"left","response":"left","rt":1041.4000000004,"correct":true,"confidence":4},{"trial_n":26,"n_dots":3.95,"target":"right","response":"right","rt":912.30000000075,"correct":true,"confidence":4},{"trial_n":27,"n_dots":3.85,"target":"right","response":"right","rt":571.20000000019,"correct":true,"confidence":3},{"trial_n":28,"n_dots":3.85,"target":"left","response":"left","rt":1306.0999999996,"correct":true,"confidence":3},{"trial_n":29,"n_dots":3.75,"target":"left","response":"left","rt":745.20000000019,"correct":true,"confidence":4},{"trial_n":30,"n_dots":3.75,"target":"left","response":"left","rt":835.59999999963,"correct":true,"confidence":3},{"trial_n":31,"n_dots":3.65,"target":"right","response":"right","rt":1412,"correct":true,"confidence":2},{"trial_n":32,"n_dots":3.65,"target":"right","response":"right","rt":785.80000000075,"correct":true,"confidence":3},{"trial_n":33,"n_dots":3.55,"target":"right","response":"right","rt":1023.3999999994,"correct":true,"confidence":2},{"trial_n":34,"n_dots":3.55,"target":"right","response":"right","rt":564.10000000056,"correct":true,"confidence":3},{"trial_n":35,"n_dots":3.45,"target":"left","response":"left","rt":788.40000000037,"correct":true,"confidence":3},{"trial_n":36,"n_dots":3.45,"target":"left","response":"left","rt":922.79999999981,"correct":true,"confidence":3},{"trial_n":37,"n_dots":3.35,"target":"left","response":"right","rt":1032.4000000004,"correct":false,"confidence":2},{"trial_n":38,"n_dots":3.45,"target":"right","response":"right","rt":525.69999999925,"correct":true,"confidence":3},{"trial_n":39,"n_dots":3.45,"target":"right","response":"right","rt":738.20000000019,"correct":true,"confidence":3},{"trial_n":40,"n_dots":3.35,"target":"right","response":"right","rt":1202.7999999998,"correct":true,"confidence":2},{"trial_n":41,"n_dots":3.35,"target":"right","response":"right","rt":594.20000000112,"correct":true,"confidence":2},{"trial_n":42,"n_dots":3.25,"target":"left","response":"left","rt":402.90000000037,"correct":true,"confidence":3},{"trial_n":43,"n_dots":3.25,"target":"left","response":"left","rt":1416.5,"correct":true,"confidence":3},{"trial_n":44,"n_dots":3.15,"target":"left","response":"left","rt":511.90000000037,"correct":true,"confidence":2},{"trial_n":45,"n_dots":3.15,"target":"right","response":"right","rt":428.40000000037,"correct":true,"confidence":5},{"trial_n":46,"n_dots":3.05,"target":"left","response":"left","rt":614.30000000075,"correct":true,"confidence":4},{"trial_n":47,"n_dots":3.05,"target":"right","response":"right","rt":911.30000000075,"correct":true,"confidence":3},{"trial_n":48,"n_dots":2.95,"target":"left","response":"right","rt":350.90000000037,"correct":false,"confidence":2},{"trial_n":49,"n_dots":3.05,"target":"left","response":"right","rt":387.30000000075,"correct":false,"confidence":3},{"trial_n":50,"n_dots":3.15,"target":"right","response":"right","rt":598.09999999963,"correct":true,"confidence":3},{"trial_n":51,"n_dots":3.15,"target":"right","response":"right","rt":381.30000000075,"correct":true,"confidence":3},{"trial_n":52,"n_dots":3.05,"target":"right","response":"right","rt":579.09999999963,"correct":true,"confidence":2},{"trial_n":53,"n_dots":3.05,"target":"left","response":"left","rt":517.90000000037,"correct":true,"confidence":4},{"trial_n":54,"n_dots":2.95,"target":"right","response":"right","rt":345.40000000037,"correct":true,"confidence":3},{"trial_n":55,"n_dots":2.95,"target":"left","response":"right","rt":416.40000000037,"correct":false,"confidence":2},{"trial_n":56,"n_dots":3.05,"target":"right","response":"left","rt":688,"correct":false,"confidence":3},{"trial_n":57,"n_dots":3.15,"target":"left","response":"right","rt":459.30000000075,"correct":false,"confidence":3},{"trial_n":58,"n_dots":3.25,"target":"left","response":"left","rt":559.09999999963,"correct":true,"confidence":4},{"trial_n":59,"n_dots":3.25,"target":"right","response":"left","rt":489.20000000112,"correct":false,"confidence":3},{"trial_n":60,"n_dots":3.35,"target":"left","response":"left","rt":324.09999999963,"correct":true,"confidence":3},{"trial_n":61,"n_dots":3.35,"target":"right","response":"right","rt":1188.8000000007,"correct":true,"confidence":3},{"trial_n":62,"n_dots":3.25,"target":"left","response":"left","rt":518.90000000037,"correct":true,"confidence":3},{"trial_n":63,"n_dots":3.25,"target":"right","response":"right","rt":1034.9000000004,"correct":true,"confidence":3},{"trial_n":64,"n_dots":3.15,"target":"left","response":"left","rt":508.70000000112,"correct":true,"confidence":2},{"trial_n":65,"n_dots":3.15,"target":"right","response":"right","rt":438.70000000112,"correct":true,"confidence":3},{"trial_n":66,"n_dots":3.05,"target":"right","response":"right","rt":334.59999999963,"correct":true,"confidence":4},{"trial_n":67,"n_dots":3.05,"target":"left","response":"left","rt":488.5,"correct":true,"confidence":4},{"trial_n":68,"n_dots":2.95,"target":"right","response":"right","rt":949.59999999963,"correct":true,"confidence":2},{"trial_n":69,"n_dots":2.95,"target":"right","response":"right","rt":525.90000000037,"correct":true,"confidence":2},{"trial_n":70,"n_dots":2.85,"target":"right","response":"right","rt":313.09999999963,"correct":true,"confidence":2},{"trial_n":71,"n_dots":2.85,"target":"left","response":"left","rt":499.59999999963,"correct":true,"confidence":4},{"trial_n":72,"n_dots":2.75,"target":"right","response":"left","rt":461.90000000037,"correct":false,"confidence":3},{"trial_n":73,"n_dots":2.85,"target":"right","response":"right","rt":520.39999999851,"correct":true,"confidence":3},{"trial_n":74,"n_dots":2.85,"target":"right","response":"right","rt":255.19999999925,"correct":true,"confidence":3},{"trial_n":75,"n_dots":2.75,"target":"left","response":"right","rt":377.5,"correct":false,"confidence":3},{"trial_n":76,"n_dots":2.85,"target":"right","response":"right","rt":196.80000000075,"correct":true,"confidence":4},{"trial_n":77,"n_dots":2.85,"target":"left","response":"left","rt":481.80000000075,"correct":true,"confidence":3},{"trial_n":78,"n_dots":2.75,"target":"right","response":"left","rt":508.29999999888,"correct":false,"confidence":3},{"trial_n":79,"n_dots":2.85,"target":"left","response":"left","rt":99.89999999851,"correct":true,"confidence":3},{"trial_n":80,"n_dots":2.85,"target":"left","response":"left","rt":172.70000000112,"correct":true,"confidence":3},{"trial_n":81,"n_dots":2.75,"target":"right","response":"left","rt":79.800000000745,"correct":false,"confidence":3},{"trial_n":82,"n_dots":2.85,"target":"left","response":"left","rt":283,"correct":true,"confidence":4},{"trial_n":83,"n_dots":2.85,"target":"right","response":"right","rt":436.5,"correct":true,"confidence":4},{"trial_n":84,"n_dots":2.75,"target":"left","response":"left","rt":685.5,"correct":true,"confidence":3},{"trial_n":85,"n_dots":2.75,"target":"left","response":"right","rt":816.90000000037,"correct":false,"confidence":2},{"trial_n":86,"n_dots":2.85,"target":"left","response":"left","rt":587.59999999963,"correct":true,"confidence":3},{"trial_n":87,"n_dots":2.85,"target":"left","response":"left","rt":443.59999999963,"correct":true,"confidence":3},{"trial_n":88,"n_dots":2.75,"target":"left","response":"left","rt":437.70000000112,"correct":true,"confidence":3},{"trial_n":89,"n_dots":2.75,"target":"left","response":"left","rt":407.5,"correct":true,"confidence":4},{"trial_n":90,"n_dots":2.65,"target":"left","response":"left","rt":346.30000000075,"correct":true,"confidence":3},{"trial_n":91,"n_dots":2.65,"target":"right","response":"right","rt":574.40000000037,"correct":true,"confidence":3},{"trial_n":92,"n_dots":2.55,"target":"left","response":"left","rt":793.40000000037,"correct":true,"confidence":3},{"trial_n":93,"n_dots":2.55,"target":"left","response":"left","rt":1150.5999999996,"correct":true,"confidence":4},{"trial_n":94,"n_dots":2.45,"target":"right","response":"right","rt":480.19999999925,"correct":true,"confidence":3},{"trial_n":95,"n_dots":2.45,"target":"left","response":"right","rt":503.40000000037,"correct":false,"confidence":3},{"trial_n":96,"n_dots":2.55,"target":"left","response":"right","rt":968.40000000037,"correct":false,"confidence":3},{"trial_n":97,"n_dots":2.65,"target":"right","response":"right","rt":670.59999999963,"correct":true,"confidence":2},{"trial_n":98,"n_dots":2.65,"target":"right","response":"right","rt":399.5,"correct":true,"confidence":2},{"trial_n":99,"n_dots":2.55,"target":"left","response":"left","rt":1217.3000000007,"correct":true,"confidence":4},{"trial_n":100,"n_dots":2.55,"target":"right","response":"left","rt":1183.5,"correct":false,"confidence":3},{"trial_n":101,"n_dots":2.65,"target":"right","response":"right","rt":622.40000000037,"correct":true,"confidence":3},{"trial_n":102,"n_dots":2.65,"target":"left","response":"left","rt":1784.5999999996,"correct":true,"confidence":3},{"trial_n":103,"n_dots":2.55,"target":"right","response":"right","rt":627.70000000112,"correct":true,"confidence":3},{"trial_n":104,"n_dots":2.55,"target":"left","response":"left","rt":342.90000000037,"correct":true,"confidence":4},{"trial_n":105,"n_dots":2.45,"target":"left","response":"left","rt":485.29999999888,"correct":true,"confidence":3},{"trial_n":106,"n_dots":2.45,"target":"left","response":"left","rt":508.5,"correct":true,"confidence":3},{"trial_n":107,"n_dots":2.35,"target":"left","response":"left","rt":596.59999999963,"correct":true,"confidence":3},{"trial_n":108,"n_dots":2.35,"target":"right","response":"right","rt":664.80000000075,"correct":true,"confidence":3},{"trial_n":109,"n_dots":2.25,"target":"left","response":"left","rt":889.30000000075,"correct":true,"confidence":2},{"trial_n":110,"n_dots":2.25,"target":"left","response":"right","rt":667.5,"correct":false,"confidence":3},{"trial_n":111,"n_dots":2.35,"target":"right","response":"left","rt":604.59999999963,"correct":false,"confidence":4},{"trial_n":112,"n_dots":2.45,"target":"left","response":"left","rt":371.59999999963,"correct":true,"confidence":3},{"trial_n":113,"n_dots":2.45,"target":"right","response":"right","rt":344.5,"correct":true,"confidence":3},{"trial_n":114,"n_dots":2.35,"target":"right","response":"right","rt":630.5,"correct":true,"confidence":3},{"trial_n":115,"n_dots":2.35,"target":"right","response":"right","rt":1402.6999999993,"correct":true,"confidence":2},{"trial_n":116,"n_dots":2.25,"target":"right","response":"right","rt":378.69999999925,"correct":true,"confidence":3},{"trial_n":117,"n_dots":2.25,"target":"left","response":"left","rt":762.19999999925,"correct":true,"confidence":3},{"trial_n":118,"n_dots":2.15,"target":"left","response":"left","rt":505.59999999963,"correct":true,"confidence":4},{"trial_n":119,"n_dots":2.15,"target":"right","response":"left","rt":641.59999999963,"correct":false,"confidence":3},{"trial_n":120,"n_dots":2.25,"target":"right","response":"right","rt":947,"correct":true,"confidence":2}]