[{"trial_n":1,"min":25,"max":230,"target":"present","response":"present","rt":3110.1000000089,"correct":true,"confidence":-1},{"trial_n":2,"min":25,"max":230,"target":"present","response":"present","rt":2932.400000006,"correct":true,"confidence":-1},{"trial_n":3,"min":41,"max":214,"target":"absent","response":"absent","rt":653.20000000298,"correct":true,"confidence":-1},{"trial_n":4,"min":41,"max":214,"target":"absent","response":"absent","rt":422.5,"correct":true,"confidence":-1},{"trial_n":5,"min":57,"max":198,"target":"present","response":"present","rt":394,"correct":true,"confidence":-1},{"trial_n":6,"min":57,"max":198,"target":"absent","response":"absent","rt":523.09999999404,"correct":true,"confidence":-1},{"trial_n":7,"min":73,"max":182,"target":"absent","response":"absent","rt":704.90000000596,"correct":true,"confidence":-1},{"trial_n":8,"min":73,"max":182,"target":"present","response":"present","rt":340.39999999106,"correct":true,"confidence":-1},{"trial_n":9,"min":89,"max":166,"target":"present","response":"present","rt":492.20000000298,"correct":true,"confidence":-1},{"trial_n":10,"min":89,"max":166,"target":"absent","response":"absent","rt":378.89999999106,"correct":true,"confidence":-1},{"trial_n":11,"min":97,"max":158,"target":"present","response":"present","rt":402.70000000298,"correct":true,"confidence":-1},{"trial_n":12,"min":97,"max":158,"target":"present","response":"absent","rt":363.70000000298,"correct":false,"confidence":-1},{"trial_n":13,"min":89,"max":166,"target":"absent","response":"absent","rt":754.09999999404,"correct":true,"confidence":-1},{"trial_n":14,"min":89,"max":166,"target":"present","response":"absent","rt":590.69999998808,"correct":false,"confidence":-1},{"trial_n":15,"min":81,"max":174,"target":"absent","response":"present","rt":534,"correct":false,"confidence":-1},{"trial_n":16,"min":73,"max":182,"target":"absent","response":"absent","rt":344.39999999106,"correct":true,"confidence":-1},{"trial_n":17,"min":73,"max":182,"target":"absent","response":"absent","rt":495,"correct":true,"confidence":-1},{"trial_n":18,"min":81,"max":174,"target":"present","response":"present","rt":407,"correct":true,"confidence":-1},{"trial_n":19,"min":81,"max":174,"target":"absent","response":"absent","rt":687.5,"correct":true,"confidence":-1},{"trial_n":20,"min":89,"max":166,"target":"absent","response":"absent","rt":525.20000000298,"correct":true,"confidence":-1},{"trial_n":21,"min":89,"max":166,"target":"present","response":"present","rt":562,"correct":true,"confidence":4},{"trial_n":22,"min":93,"max":162,"target":"absent","response":"absent","rt":481.09999999404,"correct":true,"confidence":3},{"trial_n":23,"min":93,"max":162,"target":"absent","response":"absent","rt":534.60000000894,"correct":true,"confidence":3},{"trial_n":24,"min":97,"max":158,"target":"present","response":"absent","rt":497.39999999106,"correct":false,"confidence":4},{"trial_n":25,"min":93,"max":162,"target":"present","response":"present","rt":449.40000000596,"correct":true,"confidence":2},{"trial_n":26,"min":93,"max":162,"target":"absent","response":"absent","rt":703.5,"correct":true,"confidence":2},{"trial_n":27,"min":97,"max":158,"target":"present","response":"present","rt":575.79999999702,"correct":true,"confidence":4},{"trial_n":28,"min":97,"max":158,"target":"absent","response":"absent","rt":520.59999999404,"correct":true,"confidence":1},{"trial_n":29,"min":101,"max":154,"target":"present","response":"absent","rt":650.69999998808,"correct":false,"confidence":3},{"trial_n":30,"min":97,"max":158,"target":"absent","response":"absent","rt":742.40000000596,"correct":true,"confidence":1},{"trial_n":31,"min":97,"max":158,"target":"present","response":"absent","rt":811.69999998808,"correct":false,"confidence":1},{"trial_n":32,"min":95,"max":160,"target":"absent","response":"present","rt":366.20000000298,"correct":false,"confidence":3},{"trial_n":33,"min":93,"max":162,"target":"present","response":"absent","rt":355,"correct":false,"confidence":4},{"trial_n":34,"min":91,"max":164,"target":"absent","response":"present","rt":368.79999999702,"correct":false,"confidence":3},{"trial_n":35,"min":89,"max":166,"target":"present","response":"present","rt":573.09999999404,"correct":true,"confidence":5},{"trial_n":36,"min":89,"max":166,"target":"present","response":"absent","rt":851.09999999404,"correct":false,"confidence":2},{"trial_n":37,"min":87,"max":168,"target":"present","response":"present","rt":439.20000000298,"correct":true,"confidence":3},{"trial_n":38,"min":87,"max":168,"target":"present","response":"present","rt":501.60000000894,"correct":true,"confidence":4},{"trial_n":39,"min":89,"max":166,"target":"present","response":"absent","rt":553.10000000894,"correct":false,"confidence":3},{"trial_n":40,"min":87,"max":168,"target":"absent","response":"absent","rt":559.29999999702,"correct":true,"confidence":3},{"trial_n":41,"min":87,"max":168,"target":"present","response":"present","rt":824.09999999404,"correct":true,"confidence":3},{"trial_n":42,"min":88,"max":167,"target":"absent","response":"absent","rt":372.20000000298,"correct":true,"confidence":4},{"trial_n":43,"min":88,"max":167,"target":"present","response":"present","rt":500.39999999106,"correct":true,"confidence":4},{"trial_n":44,"min":89,"max":166,"target":"absent","response":"absent","rt":276.79999999702,"correct":true,"confidence":3},{"trial_n":45,"min":89,"max":166,"target":"present","response":"absent","rt":904,"correct":false,"confidence":2},{"trial_n":46,"min":88,"max":167,"target":"absent","response":"absent","rt":685.59999999404,"correct":true,"confidence":2},{"trial_n":47,"min":88,"max":167,"target":"absent","response":"absent","rt":779.40000000596,"correct":true,"confidence":3},{"trial_n":48,"min":89,"max":166,"target":"absent","response":"absent","rt":570.79999999702,"correct":true,"confidence":4},{"trial_n":49,"min":89,"max":166,"target":"absent","response":"absent","rt":779.29999999702,"correct":true,"confidence":2},{"trial_n":50,"min":90,"max":165,"target":"present","response":"absent","rt":1275.3000000119,"correct":false,"confidence":4},{"trial_n":51,"min":89,"max":166,"target":"present","response":"present","rt":330.5,"correct":true,"confidence":5},{"trial_n":52,"min":89,"max":166,"target":"present","response":"present","rt":628.29999999702,"correct":true,"confidence":3},{"trial_n":53,"min":90,"max":165,"target":"absent","response":"absent","rt":278.09999999404,"correct":true,"confidence":4},{"trial_n":54,"min":90,"max":165,"target":"absent","response":"absent","rt":358.5,"correct":true,"confidence":2},{"trial_n":55,"min":91,"max":164,"target":"present","response":"present","rt":515,"correct":true,"confidence":3},{"trial_n":56,"min":91,"max":164,"target":"present","response":"present","rt":366,"correct":true,"confidence":4},{"trial_n":57,"min":92,"max":163,"target":"present","response":"absent","rt":470.29999999702,"correct":false,"confidence":2},{"trial_n":58,"min":91,"max":164,"target":"absent","response":"absent","rt":595.5,"correct":true,"confidence":4},{"trial_n":59,"min":91,"max":164,"target":"absent","response":"absent","rt":479.59999999404,"correct":true,"confidence":5},{"trial_n":60,"min":92,"max":163,"target":"absent","response":"absent","rt":1344.700000003,"correct":true,"confidence":3},{"trial_n":61,"min":92,"max":163,"target":"present","response":"present","rt":337.29999999702,"correct":true,"confidence":5},{"trial_n":62,"min":93,"max":162,"target":"absent","response":"absent","rt":413.40000000596,"correct":true,"confidence":3},{"trial_n":63,"min":93,"max":162,"target":"present","response":"absent","rt":364.40000000596,"correct":false,"confidence":4},{"trial_n":64,"min":92,"max":163,"target":"absent","response":"absent","rt":402.29999999702,"correct":true,"confidence":2},{"trial_n":65,"min":92,"max":163,"target":"present","response":"present","rt":422.5,"correct":true,"confidence":4},{"trial_n":66,"min":93,"max":162,"target":"absent","response":"absent","rt":275.90000000596,"correct":true,"confidence":3},{"trial_n":67,"min":93,"max":162,"target":"absent","response":"absent","rt":455,"correct":true,"confidence":3},{"trial_n":68,"min":94,"max":161,"target":"present","response":"absent","rt":547.29999999702,"correct":false,"confidence":3},{"trial_n":69,"min":93,"max":162,"target":"present","response":"absent","rt":489.09999999404,"correct":false,"confidence":4},{"trial_n":70,"min":92,"max":163,"target":"present","response":"absent","rt":716.59999999404,"correct":false,"confidence":2},{"trial_n":71,"min":41,"max":214,"target":"present","response":"absent","rt":6856.299999997,"correct":false,"confidence":-1},{"trial_n":72,"min":41,"max":214,"target":"present","response":"present","rt":1223.799999997,"correct":true,"confidence":-1},{"trial_n":73,"min":41,"max":214,"target":"absent","response":"absent","rt":784.70000000298,"correct":true,"confidence":-1},{"trial_n":74,"min":57,"max":198,"target":"absent","response":"absent","rt":471.70000000298,"correct":true,"confidence":-1},{"trial_n":75,"min":57,"max":198,"target":"present","response":"present","rt":400.40000000596,"correct":true,"confidence":-1},{"trial_n":76,"min":73,"max":182,"target":"present","response":"present","rt":532.59999999404,"correct":true,"confidence":-1},{"trial_n":77,"min":73,"max":182,"target":"present","response":"present","rt":570.69999998808,"correct":true,"confidence":-1},{"trial_n":78,"min":89,"max":166,"target":"present","response":"present","rt":467.59999999404,"correct":true,"confidence":-1},{"trial_n":79,"min":89,"max":166,"target":"absent","response":"absent","rt":487.40000000596,"correct":true,"confidence":-1},{"trial_n":80,"min":105,"max":150,"target":"absent","response":"present","rt":819.40000000596,"correct":false,"confidence":-1},{"trial_n":81,"min":97,"max":158,"target":"present","response":"present","rt":796.5,"correct":true,"confidence":-1},{"trial_n":82,"min":97,"max":158,"target":"absent","response":"absent","rt":1033.5,"correct":true,"confidence":-1},{"trial_n":83,"min":105,"max":150,"target":"present","response":"present","rt":880.40000000596,"correct":true,"confidence":-1},{"trial_n":84,"min":105,"max":150,"target":"present","response":"present","rt":889.40000000596,"correct":true,"confidence":-1},{"trial_n":85,"min":113,"max":142,"target":"absent","response":"absent","rt":729,"correct":true,"confidence":-1},{"trial_n":86,"min":113,"max":142,"target":"absent","response":"absent","rt":950.29999999702,"correct":true,"confidence":-1},{"trial_n":87,"min":121,"max":134,"target":"present","response":"absent","rt":702.89999999106,"correct":false,"confidence":-1},{"trial_n":88,"min":121,"max":134,"target":"absent","response":"present","rt":1393.299999997,"correct":false,"confidence":-1},{"trial_n":89,"min":121,"max":134,"target":"present","response":"present","rt":337.10000000894,"correct":true,"confidence":-1},{"trial_n":90,"min":121,"max":134,"target":"present","response":"present","rt":394,"correct":true,"confidence":-1},{"trial_n":91,"min":125,"max":130,"target":"present","response":"present","rt":558.30000001192,"correct":true,"confidence":3},{"trial_n":92,"min":125,"max":130,"target":"absent","response":"present","rt":394.89999999106,"correct":false,"confidence":4},{"trial_n":93,"min":125,"max":130,"target":"present","response":"present","rt":1502.400000006,"correct":true,"confidence":1},{"trial_n":94,"min":125,"max":130,"target":"present","response":"present","rt":789,"correct":true,"confidence":4},{"trial_n":95,"min":125,"max":130,"target":"present","response":"absent","rt":606.59999999404,"correct":false,"confidence":3},{"trial_n":96,"min":125,"max":130,"target":"absent","response":"present","rt":819.09999999404,"correct":false,"confidence":4},{"trial_n":97,"min":125,"max":130,"target":"present","response":"absent","rt":643.5,"correct":false,"confidence":1},{"trial_n":98,"min":125,"max":130,"target":"absent","response":"absent","rt":1018.5,"correct":true,"confidence":3},{"trial_n":99,"min":125,"max":130,"target":"absent","response":"present","rt":2867,"correct":false,"confidence":1},{"trial_n":100,"min":125,"max":130,"target":"present","response":"absent","rt":561.79999999702,"correct":false,"confidence":2},{"trial_n":101,"min":125,"max":130,"target":"absent","response":"present","rt":320.5,"correct":false,"confidence":5},{"trial_n":102,"min":125,"max":130,"target":"present","response":"absent","rt":621.60000000894,"correct":false,"confidence":1},{"trial_n":103,"min":125,"max":130,"target":"absent","response":"present","rt":720.70000000298,"correct":false,"confidence":3},{"trial_n":104,"min":125,"max":130,"target":"present","response":"absent","rt":521.10000000894,"correct":false,"confidence":4},{"trial_n":105,"min":125,"max":130,"target":"absent","response":"absent","rt":662.79999999702,"correct":true,"confidence":3},{"trial_n":106,"min":125,"max":130,"target":"present","response":"absent","rt":551.20000000298,"correct":false,"confidence":4},{"trial_n":107,"min":125,"max":130,"target":"present","response":"present","rt":682.79999999702,"correct":true,"confidence":3},{"trial_n":108,"min":125,"max":130,"target":"absent","response":"present","rt":783.30000001192,"correct":false,"confidence":1},{"trial_n":109,"min":125,"max":130,"target":"present","response":"absent","rt":430.79999999702,"correct":false,"confidence":4},{"trial_n":110,"min":125,"max":130,"target":"absent","response":"present","rt":753.20000000298,"correct":false,"confidence":2},{"trial_n":111,"min":124,"max":131,"target":"absent","response":"present","rt":872.19999998808,"correct":false,"confidence":1},{"trial_n":112,"min":123,"max":132,"target":"present","response":"present","rt":692.59999999404,"correct":true,"confidence":3},{"trial_n":113,"min":123,"max":132,"target":"present","response":"present","rt":256.5,"correct":true,"confidence":4},{"trial_n":114,"min":124,"max":131,"target":"absent","response":"present","rt":533.60000000894,"correct":false,"confidence":5},{"trial_n":115,"min":123,"max":132,"target":"present","response":"present","rt":970.70000000298,"correct":true,"confidence":3},{"trial_n":116,"min":123,"max":132,"target":"present","response":"present","rt":523.80000001192,"correct":true,"confidence":2},{"trial_n":117,"min":124,"max":131,"target":"absent","response":"present","rt":720.70000000298,"correct":false,"confidence":3},{"trial_n":118,"min":123,"max":132,"target":"absent","response":"absent","rt":753,"correct":true,"confidence":3},{"trial_n":119,"min":123,"max":132,"target":"absent","response":"absent","rt":836.5,"correct":true,"confidence":1},{"trial_n":120,"min":124,"max":131,"target":"present","response":"present","rt":361.29999999702,"correct":true,"confidence":3},{"trial_n":121,"min":124,"max":131,"target":"present","response":"absent","rt":619,"correct":false,"confidence":3},{"trial_n":122,"min":123,"max":132,"target":"present","response":"absent","rt":770.20000000298,"correct":false,"confidence":3},{"trial_n":123,"min":122,"max":133,"target":"absent","response":"absent","rt":426.90000000596,"correct":true,"confidence":2},{"trial_n":124,"min":122,"max":133,"target":"absent","response":"present","rt":389,"correct":false,"confidence":1},{"trial_n":125,"min":121,"max":134,"target":"present","response":"present","rt":456.89999999106,"correct":true,"confidence":4},{"trial_n":126,"min":121,"max":134,"target":"absent","response":"absent","rt":559,"correct":true,"confidence":3},{"trial_n":127,"min":122,"max":133,"target":"absent","response":"absent","rt":808.40000000596,"correct":true,"confidence":1},{"trial_n":128,"min":122,"max":133,"target":"absent","response":"present","rt":382.10000000894,"correct":false,"confidence":4},{"trial_n":129,"min":121,"max":134,"target":"absent","response":"present","rt":901.70000000298,"correct":false,"confidence":4},{"trial_n":130,"min":120,"max":135,"target":"absent","response":"absent","rt":368.90000000596,"correct":true,"confidence":4},{"trial_n":131,"min":120,"max":135,"target":"absent","response":"present","rt":299.79999999702,"correct":false,"confidence":5},{"trial_n":132,"min":119,"max":136,"target":"present","response":"present","rt":758.90000000596,"correct":true,"confidence":3},{"trial_n":133,"min":119,"max":136,"target":"present","response":"present","rt":555.20000000298,"correct":true,"confidence":4},{"trial_n":134,"min":120,"max":135,"target":"absent","response":"present","rt":323.40000000596,"correct":false,"confidence":4},{"trial_n":135,"min":119,"max":136,"target":"absent","response":"absent","rt":572.69999998808,"correct":true,"confidence":3},{"trial_n":136,"min":119,"max":136,"target":"present","response":"present","rt":406.89999999106,"correct":true,"confidence":5},{"trial_n":137,"min":120,"max":135,"target":"absent","response":"present","rt":438.59999999404,"correct":false,"confidence":4},{"trial_n":138,"min":119,"max":136,"target":"present","response":"present","rt":627.40000000596,"correct":true,"confidence":3},{"trial_n":139,"min":119,"max":136,"target":"absent","response":"absent","rt":400.40000000596,"correct":true,"confidence":1},{"trial_n":140,"min":120,"max":135,"target":"present","response":"present","rt":431.70000000298,"correct":true,"confidence":2}]