[{"trial_n":1,"span":8,"encoder":"20570734","distractor":"20572734","target":"present","response":"absent","rt":"6425.5","correct":false,"confidence":-1},{"trial_n":2,"span":6,"encoder":"265723","distractor":"285723","target":"present","response":"present","rt":"3464.3999999911","correct":true,"confidence":-1},{"trial_n":3,"span":6,"encoder":"037800","distractor":"437800","target":"absent","response":"present","rt":"1188.6999999881","correct":false,"confidence":-1},{"trial_n":4,"span":4,"encoder":"5243","distractor":"5343","target":"absent","response":"absent","rt":"2575.700000003","correct":true,"confidence":-1},{"trial_n":5,"span":4,"encoder":"8562","distractor":"8362","target":"present","response":"present","rt":"1397.5","correct":true,"confidence":-1},{"trial_n":6,"span":6,"encoder":"948427","distractor":"848427","target":"absent","response":"present","rt":"1942.200000003","correct":false,"confidence":-1},{"trial_n":7,"span":4,"encoder":"4790","distractor":"4990","target":"present","response":"present","rt":"848","correct":true,"confidence":-1},{"trial_n":8,"span":4,"encoder":"6764","distractor":"6864","target":"absent","response":"absent","rt":"2135.1999999881","correct":true,"confidence":-1},{"trial_n":9,"span":6,"encoder":"478244","distractor":"678244","target":"present","response":"present","rt":"1117","correct":true,"confidence":-1},{"trial_n":10,"span":6,"encoder":"747715","distractor":"742715","target":"absent","response":"absent","rt":"2673.5","correct":true,"confidence":-1},{"trial_n":11,"span":8,"encoder":"20068667","distractor":"20088667","target":"absent","response":"present","rt":"1042.700000003","correct":false,"confidence":-1},{"trial_n":12,"span":7,"encoder":"3228918","distractor":"3288918","target":"present","response":"present","rt":"1899","correct":true,"confidence":-1},{"trial_n":13,"span":7,"encoder":"9069890","distractor":"3069890","target":"absent","response":"present","rt":"3439.5","correct":false,"confidence":-1},{"trial_n":14,"span":6,"encoder":"682314","distractor":"682394","target":"present","response":"present","rt":"1047.799999997","correct":true,"confidence":-1},{"trial_n":15,"span":6,"encoder":"914351","distractor":"814351","target":"present","response":"present","rt":"1639.5","correct":true,"confidence":-1},{"trial_n":16,"span":7,"encoder":"8466511","distractor":"9466511","target":"present","response":"present","rt":"1109.5","correct":true,"confidence":-1},{"trial_n":17,"span":7,"encoder":"1994103","distractor":"1494103","target":"present","response":"present","rt":"972.70000000298","correct":true,"confidence":-1},{"trial_n":18,"span":8,"encoder":"68560843","distractor":"68960843","target":"absent","response":"present","rt":"806.20000000298","correct":false,"confidence":-1},{"trial_n":19,"span":7,"encoder":"3143333","distractor":"3143533","target":"present","response":"present","rt":"1069.900000006","correct":true,"confidence":-1},{"trial_n":20,"span":7,"encoder":"0410633","distractor":"0410533","target":"absent","response":"present","rt":"959.5","correct":false,"confidence":-1},{"trial_n":21,"span":6,"encoder":"268669","distractor":"268666","target":"absent","response":"absent","rt":"2392.3999999911","correct":true,"confidence":3},{"trial_n":22,"span":6,"encoder":"980625","distractor":"990625","target":"absent","response":"absent","rt":"1959.700000003","correct":true,"confidence":4},{"trial_n":23,"span":7,"encoder":"4267966","distractor":"4264966","target":"absent","response":"absent","rt":"4136.900000006","correct":true,"confidence":3},{"trial_n":24,"span":7,"encoder":"4460124","distractor":"5460124","target":"present","response":"present","rt":"3037.3000000119","correct":true,"confidence":5},{"trial_n":25,"span":8,"encoder":"22148136","distractor":"22748136","target":"present","response":"present","rt":"2754.1000000089","correct":true,"confidence":4},{"trial_n":26,"span":8,"encoder":"04734030","distractor":"04734040","target":"present","response":"present","rt":"3468.099999994","correct":true,"confidence":4},{"trial_n":27,"span":9,"encoder":"571324339","distractor":"571324639","target":"absent","response":"absent","rt":"4197.099999994","correct":true,"confidence":3},{"trial_n":28,"span":9,"encoder":"576977052","distractor":"576677052","target":"present","response":"absent","rt":"4806.799999997","correct":false,"confidence":2},{"trial_n":29,"span":8,"encoder":"42574132","distractor":"45574132","target":"absent","response":"absent","rt":"2958.200000003","correct":true,"confidence":4},{"trial_n":30,"span":8,"encoder":"39131002","distractor":"39131202","target":"present","response":"present","rt":"4529.3999999911","correct":true,"confidence":2},{"trial_n":31,"span":9,"encoder":"347033448","distractor":"147033448","target":"absent","response":"present","rt":"1910.5","correct":false,"confidence":2},{"trial_n":32,"span":8,"encoder":"96477920","distractor":"56477920","target":"absent","response":"present","rt":"2696","correct":false,"confidence":4},{"trial_n":33,"span":7,"encoder":"6480623","distractor":"4480623","target":"absent","response":"absent","rt":"2192.799999997","correct":true,"confidence":4},{"trial_n":34,"span":7,"encoder":"0903830","distractor":"0903831","target":"present","response":"present","rt":"3099.299999997","correct":true,"confidence":4},{"trial_n":35,"span":8,"encoder":"81982090","distractor":"81582090","target":"present","response":"present","rt":"3860.3999999911","correct":true,"confidence":3},{"trial_n":36,"span":8,"encoder":"47675919","distractor":"47675719","target":"absent","response":"absent","rt":"3622.3999999911","correct":true,"confidence":2},{"trial_n":37,"span":9,"encoder":"036470251","distractor":"036470221","target":"absent","response":"absent","rt":"3539.099999994","correct":true,"confidence":2},{"trial_n":38,"span":9,"encoder":"240509887","distractor":"240504887","target":"absent","response":"present","rt":"7976.799999997","correct":false,"confidence":1},{"trial_n":39,"span":8,"encoder":"98820430","distractor":"98820130","target":"absent","response":"absent","rt":"2601.299999997","correct":true,"confidence":3},{"trial_n":40,"span":8,"encoder":"61982231","distractor":"61982431","target":"present","response":"present","rt":"2715.799999997","correct":true,"confidence":4},{"trial_n":41,"span":9,"encoder":"909865365","distractor":"909865565","target":"present","response":"present","rt":"3492.5","correct":true,"confidence":3},{"trial_n":42,"span":9,"encoder":"775328539","distractor":"775328439","target":"absent","response":"present","rt":"3226.900000006","correct":false,"confidence":3},{"trial_n":43,"span":8,"encoder":"68429354","distractor":"68629354","target":"absent","response":"absent","rt":"2553.6999999881","correct":true,"confidence":4},{"trial_n":44,"span":8,"encoder":"32613136","distractor":"32613146","target":"present","response":"absent","rt":"3350.700000003","correct":false,"confidence":3},{"trial_n":45,"span":7,"encoder":"8902022","distractor":"8992022","target":"absent","response":"present","rt":"2519.299999997","correct":false,"confidence":3},{"trial_n":46,"span":6,"encoder":"193509","distractor":"196509","target":"present","response":"present","rt":"2038.6000000089","correct":true,"confidence":3},{"trial_n":47,"span":6,"encoder":"058156","distractor":"758156","target":"absent","response":"absent","rt":"2910.200000003","correct":true,"confidence":3},{"trial_n":48,"span":7,"encoder":"3189974","distractor":"3119974","target":"present","response":"present","rt":"5327.799999997","correct":true,"confidence":3},{"trial_n":49,"span":7,"encoder":"8056717","distractor":"8056712","target":"present","response":"present","rt":"2659.1999999881","correct":true,"confidence":3},{"trial_n":50,"span":8,"encoder":"70705440","distractor":"70205440","target":"present","response":"present","rt":"6147.799999997","correct":true,"confidence":2},{"trial_n":51,"span":8,"encoder":"24518848","distractor":"24518843","target":"present","response":"present","rt":"2906.799999997","correct":true,"confidence":3},{"trial_n":52,"span":9,"encoder":"540657270","distractor":"542657270","target":"absent","response":"absent","rt":"2914","correct":true,"confidence":2},{"trial_n":53,"span":9,"encoder":"428180552","distractor":"428180852","target":"present","response":"absent","rt":"6748.3000000119","correct":false,"confidence":2},{"trial_n":54,"span":8,"encoder":"14362408","distractor":"84362408","target":"absent","response":"absent","rt":"2131.400000006","correct":true,"confidence":3},{"trial_n":55,"span":8,"encoder":"96953337","distractor":"06953337","target":"present","response":"present","rt":"2570.3000000119","correct":true,"confidence":3},{"trial_n":56,"span":9,"encoder":"782149684","distractor":"782149614","target":"absent","response":"present","rt":"5898.099999994","correct":false,"confidence":2},{"trial_n":57,"span":8,"encoder":"65296181","distractor":"55296181","target":"present","response":"absent","rt":"4009.799999997","correct":false,"confidence":1},{"trial_n":58,"span":7,"encoder":"9492037","distractor":"9292037","target":"present","response":"present","rt":"4118","correct":true,"confidence":2},{"trial_n":59,"span":7,"encoder":"0620854","distractor":"0620054","target":"absent","response":"present","rt":"6177.799999997","correct":false,"confidence":1},{"trial_n":60,"span":6,"encoder":"808048","distractor":"208048","target":"absent","response":"absent","rt":"2160","correct":true,"confidence":4},{"trial_n":61,"span":6,"encoder":"494453","distractor":"494053","target":"absent","response":"absent","rt":"2249.6000000089","correct":true,"confidence":3},{"trial_n":62,"span":7,"encoder":"3557377","distractor":"3757377","target":"present","response":"present","rt":"1863.700000003","correct":true,"confidence":2},{"trial_n":63,"span":7,"encoder":"8723701","distractor":"8123701","target":"absent","response":"absent","rt":"2004","correct":true,"confidence":3},{"trial_n":64,"span":8,"encoder":"48314086","distractor":"98314086","target":"present","response":"absent","rt":"2466.1000000089","correct":false,"confidence":2},{"trial_n":65,"span":7,"encoder":"8046888","distractor":"8046882","target":"present","response":"present","rt":"3188.400000006","correct":true,"confidence":2},{"trial_n":66,"span":7,"encoder":"7846249","distractor":"7846239","target":"absent","response":"absent","rt":"6772.6999999881","correct":true,"confidence":2},{"trial_n":67,"span":8,"encoder":"41988437","distractor":"41988937","target":"present","response":"present","rt":"2795.799999997","correct":true,"confidence":4},{"trial_n":68,"span":8,"encoder":"42557768","distractor":"42577768","target":"present","response":"present","rt":"3394.200000003","correct":true,"confidence":2},{"trial_n":69,"span":9,"encoder":"693436398","distractor":"693436318","target":"absent","response":"present","rt":"24653.899999991","correct":false,"confidence":2},{"trial_n":70,"span":8,"encoder":"95506818","distractor":"45506818","target":"present","response":"present","rt":"3741.299999997","correct":true,"confidence":3},{"trial_n":71,"span":8,"encoder":"99303977","distractor":"99303978","target":"present","response":"present","rt":"5464.700000003","correct":true,"confidence":-1},{"trial_n":72,"span":8,"encoder":"87953319","distractor":"87653319","target":"present","response":"present","rt":"6681.599999994","correct":true,"confidence":-1},{"trial_n":73,"span":9,"encoder":"814864583","distractor":"814864533","target":"absent","response":"present","rt":"4020.799999997","correct":false,"confidence":-1},{"trial_n":74,"span":8,"encoder":"42061096","distractor":"47061096","target":"absent","response":"absent","rt":"1902.299999997","correct":true,"confidence":-1},{"trial_n":75,"span":8,"encoder":"57361633","distractor":"57365633","target":"present","response":"absent","rt":"2446.099999994","correct":false,"confidence":-1},{"trial_n":76,"span":7,"encoder":"3120939","distractor":"7120939","target":"absent","response":"present","rt":"2973.099999994","correct":false,"confidence":-1},{"trial_n":77,"span":6,"encoder":"891354","distractor":"391354","target":"present","response":"present","rt":"2335.200000003","correct":true,"confidence":-1},{"trial_n":78,"span":6,"encoder":"675784","distractor":"675788","target":"absent","response":"absent","rt":"2983.599999994","correct":true,"confidence":-1},{"trial_n":79,"span":7,"encoder":"1334342","distractor":"1354342","target":"absent","response":"absent","rt":"5578.1999999881","correct":true,"confidence":-1},{"trial_n":80,"span":7,"encoder":"8968723","distractor":"8968729","target":"present","response":"present","rt":"3567.599999994","correct":true,"confidence":-1},{"trial_n":81,"span":8,"encoder":"76560890","distractor":"76860890","target":"absent","response":"present","rt":"5698.700000003","correct":false,"confidence":-1},{"trial_n":82,"span":7,"encoder":"2953909","distractor":"2153909","target":"present","response":"present","rt":"4475.799999997","correct":true,"confidence":-1},{"trial_n":83,"span":7,"encoder":"5275743","distractor":"5276743","target":"present","response":"present","rt":"3878.200000003","correct":true,"confidence":-1},{"trial_n":84,"span":8,"encoder":"08535589","distractor":"08533589","target":"absent","response":"absent","rt":"6609.200000003","correct":true,"confidence":-1},{"trial_n":85,"span":8,"encoder":"41482807","distractor":"41472807","target":"absent","response":"present","rt":"3233.5","correct":false,"confidence":-1},{"trial_n":86,"span":7,"encoder":"2779207","distractor":"2770207","target":"absent","response":"absent","rt":"1666.1999999881","correct":true,"confidence":-1},{"trial_n":87,"span":7,"encoder":"5808734","distractor":"9808734","target":"present","response":"absent","rt":"4441.099999994","correct":false,"confidence":-1},{"trial_n":88,"span":6,"encoder":"516182","distractor":"516187","target":"present","response":"present","rt":"1583.700000003","correct":true,"confidence":-1},{"trial_n":89,"span":6,"encoder":"564544","distractor":"564444","target":"absent","response":"absent","rt":"1730.099999994","correct":true,"confidence":-1},{"trial_n":90,"span":7,"encoder":"1958156","distractor":"1968156","target":"present","response":"present","rt":"4337.6999999881","correct":true,"confidence":-1},{"trial_n":91,"span":7,"encoder":"8698722","distractor":"8698720","target":"present","response":"present","rt":"1314.1000000089","correct":true,"confidence":4},{"trial_n":92,"span":8,"encoder":"23854096","distractor":"23824096","target":"absent","response":"present","rt":"4765.299999997","correct":false,"confidence":2},{"trial_n":93,"span":7,"encoder":"2546460","distractor":"2506460","target":"absent","response":"absent","rt":"2848","correct":true,"confidence":4},{"trial_n":94,"span":7,"encoder":"1448332","distractor":"1448334","target":"absent","response":"absent","rt":"3728.5","correct":true,"confidence":4},{"trial_n":95,"span":8,"encoder":"61020944","distractor":"61320944","target":"absent","response":"present","rt":"5332.5","correct":false,"confidence":3},{"trial_n":96,"span":7,"encoder":"8833082","distractor":"8233082","target":"present","response":"present","rt":"4159.1999999881","correct":true,"confidence":3},{"trial_n":97,"span":7,"encoder":"7070418","distractor":"7071418","target":"present","response":"present","rt":"4092.700000003","correct":true,"confidence":3},{"trial_n":98,"span":8,"encoder":"11535252","distractor":"11539252","target":"present","response":"present","rt":"4323.5","correct":true,"confidence":3},{"trial_n":99,"span":8,"encoder":"90839092","distractor":"90839992","target":"present","response":"present","rt":"2614.700000003","correct":true,"confidence":4},{"trial_n":100,"span":9,"encoder":"245457266","distractor":"245447266","target":"absent","response":"absent","rt":"4209.5","correct":true,"confidence":1},{"trial_n":101,"span":9,"encoder":"229732277","distractor":"229782277","target":"present","response":"present","rt":"3690","correct":true,"confidence":3},{"trial_n":102,"span":10,"encoder":"6272738011","distractor":"6472738011","target":"present","response":"present","rt":"5479.799999997","correct":true,"confidence":3},{"trial_n":103,"span":10,"encoder":"5682684823","distractor":"6682684823","target":"absent","response":"absent","rt":"5391.299999997","correct":true,"confidence":2},{"trial_n":104,"span":11,"encoder":"88020721621","distractor":"68020721621","target":"present","response":"present","rt":"4183.1000000089","correct":true,"confidence":2},{"trial_n":105,"span":11,"encoder":"37325893453","distractor":"37325873453","target":"absent","response":"present","rt":"6576.700000003","correct":false,"confidence":1},{"trial_n":106,"span":10,"encoder":"6848164986","distractor":"6818164986","target":"present","response":"present","rt":"4354.1000000089","correct":true,"confidence":3},{"trial_n":107,"span":10,"encoder":"8125061735","distractor":"8125064735","target":"present","response":"present","rt":"5977.299999997","correct":true,"confidence":3},{"trial_n":108,"span":11,"encoder":"01072692015","distractor":"01072692065","target":"present","response":"present","rt":"4802.3999999911","correct":true,"confidence":3},{"trial_n":109,"span":11,"encoder":"10401401545","distractor":"14401401545","target":"absent","response":"absent","rt":"10072.299999997","correct":true,"confidence":2},{"trial_n":110,"span":12,"encoder":"782127677620","distractor":"780127677620","target":"absent","response":"absent","rt":"9111.700000003","correct":true,"confidence":1},{"trial_n":111,"span":12,"encoder":"318703535096","distractor":"318703535076","target":"present","response":"absent","rt":"13447.299999997","correct":false,"confidence":2},{"trial_n":112,"span":11,"encoder":"55338620366","distractor":"52338620366","target":"absent","response":"absent","rt":"8148.099999994","correct":true,"confidence":3},{"trial_n":113,"span":11,"encoder":"49983101554","distractor":"49983106554","target":"absent","response":"absent","rt":"8548.700000003","correct":true,"confidence":2},{"trial_n":114,"span":12,"encoder":"389662847173","distractor":"339662847173","target":"absent","response":"absent","rt":"2397.5","correct":true,"confidence":4},{"trial_n":115,"span":12,"encoder":"443852360290","distractor":"443852360230","target":"present","response":"present","rt":"12982.400000006","correct":true,"confidence":2},{"trial_n":116,"span":13,"encoder":"8347810789044","distractor":"8347810789040","target":"absent","response":"absent","rt":"1854.900000006","correct":true,"confidence":4},{"trial_n":117,"span":13,"encoder":"0203287146436","distractor":"0243287146436","target":"absent","response":"present","rt":"5325.799999997","correct":false,"confidence":2},{"trial_n":118,"span":12,"encoder":"382258089301","distractor":"381258089301","target":"absent","response":"absent","rt":"10638.200000003","correct":true,"confidence":1},{"trial_n":119,"span":12,"encoder":"632222526876","distractor":"632228526876","target":"absent","response":"present","rt":"6947","correct":false,"confidence":2},{"trial_n":120,"span":11,"encoder":"51933288079","distractor":"51933688079","target":"present","response":"present","rt":"6094.900000006","correct":true,"confidence":3},{"trial_n":121,"span":11,"encoder":"60438156463","distractor":"60438056463","target":"absent","response":"present","rt":"5042.400000006","correct":false,"confidence":2},{"trial_n":122,"span":10,"encoder":"9214238801","distractor":"9214238501","target":"present","response":"present","rt":"3325.400000006","correct":true,"confidence":4},{"trial_n":123,"span":10,"encoder":"2936695769","distractor":"2936695764","target":"present","response":"absent","rt":"10842.299999997","correct":false,"confidence":3},{"trial_n":124,"span":9,"encoder":"083187653","distractor":"087187653","target":"absent","response":"present","rt":"8468.099999994","correct":false,"confidence":1},{"trial_n":125,"span":8,"encoder":"69535361","distractor":"69532361","target":"present","response":"absent","rt":"5221.599999994","correct":false,"confidence":1},{"trial_n":126,"span":7,"encoder":"4890769","distractor":"4890789","target":"present","response":"present","rt":"8755.400000006","correct":true,"confidence":3},{"trial_n":127,"span":7,"encoder":"5017830","distractor":"5067830","target":"absent","response":"absent","rt":"3631.6000000089","correct":true,"confidence":4},{"trial_n":128,"span":8,"encoder":"78948006","distractor":"78948007","target":"present","response":"present","rt":"2523.799999997","correct":true,"confidence":5},{"trial_n":129,"span":8,"encoder":"45889604","distractor":"45889404","target":"absent","response":"absent","rt":"3149.1999999881","correct":true,"confidence":4},{"trial_n":130,"span":9,"encoder":"650552325","distractor":"650522325","target":"absent","response":"absent","rt":"6907.1000000089","correct":true,"confidence":3},{"trial_n":131,"span":9,"encoder":"930947179","distractor":"030947179","target":"absent","response":"present","rt":"7302.400000006","correct":false,"confidence":2},{"trial_n":132,"span":8,"encoder":"21018552","distractor":"21618552","target":"present","response":"present","rt":"5459.400000006","correct":true,"confidence":3},{"trial_n":133,"span":8,"encoder":"86212509","distractor":"06212509","target":"present","response":"present","rt":"3983.599999994","correct":true,"confidence":3},{"trial_n":134,"span":9,"encoder":"941241664","distractor":"941141664","target":"present","response":"present","rt":"3517.099999994","correct":true,"confidence":4},{"trial_n":135,"span":9,"encoder":"648912205","distractor":"648912275","target":"present","response":"present","rt":"5282.1999999881","correct":true,"confidence":3},{"trial_n":136,"span":10,"encoder":"1588146248","distractor":"1586146248","target":"absent","response":"present","rt":"8780.700000003","correct":false,"confidence":1},{"trial_n":137,"span":9,"encoder":"728536436","distractor":"728546436","target":"present","response":"present","rt":"4965.8000000119","correct":true,"confidence":1},{"trial_n":138,"span":9,"encoder":"021575164","distractor":"021578164","target":"absent","response":"absent","rt":"7808.700000003","correct":true,"confidence":2},{"trial_n":139,"span":10,"encoder":"4775421955","distractor":"4735421955","target":"present","response":"present","rt":"5621.599999994","correct":true,"confidence":2},{"trial_n":140,"span":10,"encoder":"0654081632","distractor":"0654091632","target":"present","response":"present","rt":"6922.599999994","correct":true,"confidence":1}]