[{"trial_n":1,"span":8,"encoder":"08388529","distractor":"08388559","target":"present","response":"present","rt":"7362.200000003","correct":true,"confidence":-1},{"trial_n":2,"span":8,"encoder":"89999709","distractor":"89999779","target":"present","response":"present","rt":"2182.200000003","correct":true,"confidence":-1},{"trial_n":3,"span":10,"encoder":"3806597155","distractor":"3886597155","target":"absent","response":"present","rt":"2571.799999997","correct":false,"confidence":-1},{"trial_n":4,"span":8,"encoder":"81518084","distractor":"81318084","target":"absent","response":"absent","rt":"2714","correct":true,"confidence":-1},{"trial_n":5,"span":8,"encoder":"01602074","distractor":"01682074","target":"present","response":"present","rt":"2830","correct":true,"confidence":-1},{"trial_n":6,"span":10,"encoder":"5153362600","distractor":"5143362600","target":"absent","response":"present","rt":"6207.900000006","correct":false,"confidence":-1},{"trial_n":7,"span":8,"encoder":"01777869","distractor":"01277869","target":"absent","response":"present","rt":"2008.400000006","correct":false,"confidence":-1},{"trial_n":8,"span":6,"encoder":"907955","distractor":"906955","target":"present","response":"present","rt":"1917.900000006","correct":true,"confidence":-1},{"trial_n":9,"span":6,"encoder":"027198","distractor":"127198","target":"present","response":"present","rt":"1812.5","correct":true,"confidence":-1},{"trial_n":10,"span":8,"encoder":"40893184","distractor":"40833184","target":"absent","response":"absent","rt":"2182.5","correct":true,"confidence":-1},{"trial_n":11,"span":8,"encoder":"59706208","distractor":"59706408","target":"present","response":"present","rt":"2582.1000000089","correct":true,"confidence":-1},{"trial_n":12,"span":9,"encoder":"341592770","distractor":"371592770","target":"absent","response":"present","rt":"3395.200000003","correct":false,"confidence":-1},{"trial_n":13,"span":8,"encoder":"04376900","distractor":"04376902","target":"present","response":"present","rt":"1302.5","correct":true,"confidence":-1},{"trial_n":14,"span":8,"encoder":"17145782","distractor":"17145742","target":"present","response":"present","rt":"2665.599999994","correct":true,"confidence":-1},{"trial_n":15,"span":9,"encoder":"777364289","distractor":"777364280","target":"present","response":"present","rt":"2820.3999999911","correct":true,"confidence":-1},{"trial_n":16,"span":9,"encoder":"098532127","distractor":"096532127","target":"absent","response":"absent","rt":"1857.200000003","correct":true,"confidence":-1},{"trial_n":17,"span":10,"encoder":"2056596550","distractor":"2056096550","target":"present","response":"present","rt":"2551.200000003","correct":true,"confidence":-1},{"trial_n":18,"span":10,"encoder":"5011648279","distractor":"5011688279","target":"present","response":"present","rt":"3089.799999997","correct":true,"confidence":-1},{"trial_n":19,"span":11,"encoder":"43065615839","distractor":"43065635839","target":"absent","response":"absent","rt":"3752.5","correct":true,"confidence":-1},{"trial_n":20,"span":11,"encoder":"91039372801","distractor":"91039372861","target":"present","response":"present","rt":"1636.299999997","correct":true,"confidence":-1},{"trial_n":21,"span":12,"encoder":"860042763559","distractor":"860042763589","target":"present","response":"present","rt":"1713","correct":true,"confidence":3},{"trial_n":22,"span":12,"encoder":"703670536616","distractor":"703675536616","target":"present","response":"present","rt":"2217.200000003","correct":true,"confidence":4},{"trial_n":23,"span":13,"encoder":"4984468398944","distractor":"4984468398945","target":"absent","response":"absent","rt":"1878.5","correct":true,"confidence":5},{"trial_n":24,"span":13,"encoder":"9771324325231","distractor":"9371324325231","target":"present","response":"present","rt":"2570.799999997","correct":true,"confidence":2},{"trial_n":25,"span":14,"encoder":"99275444116610","distractor":"99275344116610","target":"present","response":"present","rt":"2966.3000000119","correct":true,"confidence":3},{"trial_n":26,"span":14,"encoder":"92153616414633","distractor":"92153616414636","target":"absent","response":"present","rt":"2602","correct":false,"confidence":4},{"trial_n":27,"span":13,"encoder":"6097914281265","distractor":"6097514281265","target":"present","response":"absent","rt":"3626.6000000089","correct":false,"confidence":3},{"trial_n":28,"span":12,"encoder":"701676714942","distractor":"901676714942","target":"present","response":"present","rt":"2215","correct":true,"confidence":3},{"trial_n":29,"span":12,"encoder":"478189423676","distractor":"478183423676","target":"absent","response":"present","rt":"3402.1000000089","correct":false,"confidence":3},{"trial_n":30,"span":11,"encoder":"14626365501","distractor":"34626365501","target":"present","response":"present","rt":"4812.5","correct":true,"confidence":5},{"trial_n":31,"span":11,"encoder":"40800509350","distractor":"40850509350","target":"absent","response":"absent","rt":"8048.900000006","correct":true,"confidence":1},{"trial_n":32,"span":12,"encoder":"364760464035","distractor":"364760764035","target":"present","response":"present","rt":"3087.299999997","correct":true,"confidence":3},{"trial_n":33,"span":12,"encoder":"830318273260","distractor":"630318273260","target":"absent","response":"absent","rt":"4953.5","correct":true,"confidence":3},{"trial_n":34,"span":13,"encoder":"9242928455828","distractor":"9242920455828","target":"present","response":"absent","rt":"4590.299999997","correct":false,"confidence":4},{"trial_n":35,"span":12,"encoder":"514040903891","distractor":"514045903891","target":"absent","response":"present","rt":"3088.5","correct":false,"confidence":3},{"trial_n":36,"span":11,"encoder":"98850715938","distractor":"90850715938","target":"absent","response":"present","rt":"1714.900000006","correct":false,"confidence":3},{"trial_n":37,"span":10,"encoder":"4441246297","distractor":"4441286297","target":"present","response":"absent","rt":"7377.5","correct":false,"confidence":3},{"trial_n":38,"span":9,"encoder":"082744602","distractor":"082744605","target":"present","response":"present","rt":"2440.099999994","correct":true,"confidence":5},{"trial_n":39,"span":9,"encoder":"589685938","distractor":"589686938","target":"present","response":"present","rt":"3167.8000000119","correct":true,"confidence":5},{"trial_n":40,"span":10,"encoder":"8822538728","distractor":"8822038728","target":"absent","response":"present","rt":"3430.5","correct":false,"confidence":3},{"trial_n":41,"span":9,"encoder":"541134657","distractor":"541164657","target":"present","response":"present","rt":"4068.200000003","correct":true,"confidence":4},{"trial_n":42,"span":9,"encoder":"818188684","distractor":"818183684","target":"absent","response":"absent","rt":"6266.1000000089","correct":true,"confidence":5},{"trial_n":43,"span":10,"encoder":"3736644113","distractor":"3036644113","target":"absent","response":"present","rt":"12324.5","correct":false,"confidence":5},{"trial_n":44,"span":9,"encoder":"236129991","distractor":"236129993","target":"absent","response":"present","rt":"2603.900000006","correct":false,"confidence":3},{"trial_n":45,"span":8,"encoder":"43741679","distractor":"49741679","target":"absent","response":"absent","rt":"5416.8999999911","correct":true,"confidence":1},{"trial_n":46,"span":8,"encoder":"69950533","distractor":"09950533","target":"present","response":"present","rt":"2932.599999994","correct":true,"confidence":4},{"trial_n":47,"span":9,"encoder":"598091941","distractor":"598091971","target":"absent","response":"absent","rt":"1884.400000006","correct":true,"confidence":5},{"trial_n":48,"span":9,"encoder":"571427451","distractor":"571427461","target":"absent","response":"absent","rt":"3467.599999994","correct":true,"confidence":5},{"trial_n":49,"span":10,"encoder":"1644982829","distractor":"1644980829","target":"absent","response":"absent","rt":"3299.6000000089","correct":true,"confidence":4},{"trial_n":50,"span":10,"encoder":"0983628876","distractor":"0983628886","target":"absent","response":"absent","rt":"2166.6000000089","correct":true,"confidence":3},{"trial_n":51,"span":11,"encoder":"50485852691","distractor":"50485052691","target":"present","response":"present","rt":"5081.400000006","correct":true,"confidence":2},{"trial_n":52,"span":11,"encoder":"95127862404","distractor":"95127862904","target":"absent","response":"present","rt":"4159.900000006","correct":false,"confidence":3},{"trial_n":53,"span":10,"encoder":"5541119283","distractor":"5541129283","target":"present","response":"present","rt":"5671.700000003","correct":true,"confidence":5},{"trial_n":54,"span":10,"encoder":"7737887981","distractor":"7737787981","target":"present","response":"present","rt":"5145.400000006","correct":true,"confidence":3},{"trial_n":55,"span":11,"encoder":"86479420761","distractor":"86479420791","target":"absent","response":"absent","rt":"2480.5","correct":true,"confidence":4},{"trial_n":56,"span":11,"encoder":"62413757471","distractor":"62413757771","target":"absent","response":"absent","rt":"1629.400000006","correct":true,"confidence":4},{"trial_n":57,"span":12,"encoder":"448618919422","distractor":"448618919322","target":"present","response":"present","rt":"6171.400000006","correct":true,"confidence":2},{"trial_n":58,"span":12,"encoder":"190104560414","distractor":"190106560414","target":"absent","response":"present","rt":"3760.900000006","correct":false,"confidence":3},{"trial_n":59,"span":11,"encoder":"88196066114","distractor":"88136066114","target":"absent","response":"absent","rt":"3267.6000000089","correct":true,"confidence":2},{"trial_n":60,"span":11,"encoder":"86901535977","distractor":"87901535977","target":"present","response":"absent","rt":"2333.900000006","correct":false,"confidence":3},{"trial_n":61,"span":10,"encoder":"4075687601","distractor":"4075687401","target":"present","response":"present","rt":"1329.599999994","correct":true,"confidence":2},{"trial_n":62,"span":10,"encoder":"4681309190","distractor":"4681909190","target":"present","response":"present","rt":"3418.299999997","correct":true,"confidence":3},{"trial_n":63,"span":11,"encoder":"14025727863","distractor":"18025727863","target":"present","response":"present","rt":"3720.6000000089","correct":true,"confidence":4},{"trial_n":64,"span":11,"encoder":"31625705587","distractor":"31625705589","target":"present","response":"present","rt":"3660.5","correct":true,"confidence":3},{"trial_n":65,"span":12,"encoder":"934108708261","distractor":"934108308261","target":"present","response":"present","rt":"2455.3000000119","correct":true,"confidence":2},{"trial_n":66,"span":12,"encoder":"350451704602","distractor":"320451704602","target":"absent","response":"present","rt":"3032.3000000119","correct":false,"confidence":1},{"trial_n":67,"span":11,"encoder":"72037291105","distractor":"72037291145","target":"absent","response":"absent","rt":"2433.700000003","correct":true,"confidence":4},{"trial_n":68,"span":11,"encoder":"67680592643","distractor":"67680532643","target":"absent","response":"present","rt":"4151.299999997","correct":false,"confidence":1},{"trial_n":69,"span":10,"encoder":"1650905319","distractor":"1650901319","target":"absent","response":"absent","rt":"5390.200000003","correct":true,"confidence":2},{"trial_n":70,"span":10,"encoder":"5270793243","distractor":"5270703243","target":"absent","response":"present","rt":"2029.5","correct":false,"confidence":3},{"trial_n":71,"span":8,"encoder":"64036063","distractor":"64039063","target":"present","response":"present","rt":"8356.1000000089","correct":true,"confidence":-1},{"trial_n":72,"span":8,"encoder":"97083129","distractor":"97083529","target":"present","response":"present","rt":"2641","correct":true,"confidence":-1},{"trial_n":73,"span":9,"encoder":"513474279","distractor":"523474279","target":"absent","response":"absent","rt":"3030.3000000119","correct":true,"confidence":-1},{"trial_n":74,"span":9,"encoder":"941603078","distractor":"941613078","target":"absent","response":"absent","rt":"6257.700000003","correct":true,"confidence":-1},{"trial_n":75,"span":10,"encoder":"5561929200","distractor":"5561929600","target":"present","response":"present","rt":"2285.700000003","correct":true,"confidence":-1},{"trial_n":76,"span":10,"encoder":"3848465046","distractor":"3818465046","target":"absent","response":"present","rt":"4435.700000003","correct":false,"confidence":-1},{"trial_n":77,"span":9,"encoder":"364137128","distractor":"384137128","target":"present","response":"absent","rt":"6201.8999999911","correct":false,"confidence":-1},{"trial_n":78,"span":8,"encoder":"56051370","distractor":"59051370","target":"absent","response":"absent","rt":"6486.5","correct":true,"confidence":-1},{"trial_n":79,"span":8,"encoder":"96655665","distractor":"96635665","target":"absent","response":"absent","rt":"10187.599999994","correct":true,"confidence":-1},{"trial_n":80,"span":9,"encoder":"019425836","distractor":"019425736","target":"absent","response":"absent","rt":"7405.700000003","correct":true,"confidence":-1},{"trial_n":81,"span":9,"encoder":"342481647","distractor":"341481647","target":"absent","response":"absent","rt":"7980","correct":true,"confidence":-1},{"trial_n":82,"span":10,"encoder":"1511766725","distractor":"1511766825","target":"present","response":"present","rt":"6936.3000000119","correct":true,"confidence":-1},{"trial_n":83,"span":10,"encoder":"3826301778","distractor":"3826311778","target":"absent","response":"absent","rt":"12244.299999997","correct":true,"confidence":-1},{"trial_n":84,"span":11,"encoder":"66162057791","distractor":"66162057591","target":"absent","response":"absent","rt":"10198.700000003","correct":true,"confidence":-1},{"trial_n":85,"span":11,"encoder":"26071778817","distractor":"26071778810","target":"present","response":"present","rt":"4798.900000006","correct":true,"confidence":-1},{"trial_n":86,"span":12,"encoder":"785535099300","distractor":"785535099700","target":"absent","response":"absent","rt":"3208.700000003","correct":true,"confidence":-1},{"trial_n":87,"span":12,"encoder":"694315780168","distractor":"694315780138","target":"present","response":"present","rt":"2650.799999997","correct":true,"confidence":-1},{"trial_n":88,"span":13,"encoder":"3702939862068","distractor":"3702939860068","target":"present","response":"present","rt":"3614","correct":true,"confidence":-1},{"trial_n":89,"span":13,"encoder":"2534068303384","distractor":"2539068303384","target":"absent","response":"absent","rt":"6215","correct":true,"confidence":-1},{"trial_n":90,"span":14,"encoder":"24225938474196","distractor":"24295938474196","target":"absent","response":"present","rt":"4653.400000006","correct":false,"confidence":-1},{"trial_n":91,"span":13,"encoder":"3303462298019","distractor":"3303462298819","target":"absent","response":"absent","rt":"7464.299999997","correct":true,"confidence":2},{"trial_n":92,"span":13,"encoder":"8669486615452","distractor":"8679486615452","target":"absent","response":"absent","rt":"7223.599999994","correct":true,"confidence":2},{"trial_n":93,"span":14,"encoder":"87636438567748","distractor":"87636438563748","target":"present","response":"present","rt":"3464.3999999911","correct":true,"confidence":4},{"trial_n":94,"span":14,"encoder":"59368282973659","distractor":"59368282973619","target":"present","response":"present","rt":"2843.599999994","correct":true,"confidence":5},{"trial_n":95,"span":15,"encoder":"842424145123965","distractor":"842424645123965","target":"absent","response":"present","rt":"17798.799999997","correct":false,"confidence":1},{"trial_n":96,"span":14,"encoder":"78622424492494","distractor":"78222424492494","target":"absent","response":"absent","rt":"12899.600000009","correct":true,"confidence":2},{"trial_n":97,"span":14,"encoder":"22078562339771","distractor":"20078562339771","target":"present","response":"present","rt":"3631.5","correct":true,"confidence":3},{"trial_n":98,"span":15,"encoder":"102000242914180","distractor":"102000142914180","target":"absent","response":"absent","rt":"4918.3999999911","correct":true,"confidence":3},{"trial_n":99,"span":15,"encoder":"210353555939179","distractor":"210653555939179","target":"absent","response":"absent","rt":"6475.299999997","correct":true,"confidence":2},{"trial_n":100,"span":16,"encoder":"7235818605964303","distractor":"7235838605964303","target":"present","response":"present","rt":"8145.6000000089","correct":true,"confidence":2},{"trial_n":101,"span":16,"encoder":"0409118621351124","distractor":"0409218621351124","target":"present","response":"present","rt":"9531.299999997","correct":true,"confidence":1},{"trial_n":102,"span":17,"encoder":"30072739917929849","distractor":"30072739917929889","target":"present","response":"present","rt":"2747.900000006","correct":true,"confidence":5},{"trial_n":103,"span":17,"encoder":"33584570260809143","distractor":"33584570266809143","target":"absent","response":"absent","rt":"12921.700000003","correct":true,"confidence":3},{"trial_n":104,"span":18,"encoder":"136225834406961511","distractor":"136205834406961511","target":"present","response":"present","rt":"27626.099999994","correct":true,"confidence":3},{"trial_n":105,"span":18,"encoder":"109598509976814046","distractor":"109598509976214046","target":"absent","response":"absent","rt":"17559.299999997","correct":true,"confidence":2},{"trial_n":106,"span":19,"encoder":"7347953626288295896","distractor":"7347953626288295096","target":"present","response":"present","rt":"2541.099999994","correct":true,"confidence":5},{"trial_n":107,"span":19,"encoder":"5164127438665894580","distractor":"5164127438666894580","target":"present","response":"absent","rt":"9058.299999997","correct":false,"confidence":2},{"trial_n":108,"span":18,"encoder":"538543087848958387","distractor":"538503087848958387","target":"present","response":"absent","rt":"3764.8999999911","correct":false,"confidence":1},{"trial_n":109,"span":17,"encoder":"65736407085407465","distractor":"65706407085407465","target":"absent","response":"absent","rt":"701.70000000298","correct":true,"confidence":2},{"trial_n":110,"span":17,"encoder":"97198295893257181","distractor":"57198295893257181","target":"absent","response":"present","rt":"8733.700000003","correct":false,"confidence":3},{"trial_n":111,"span":16,"encoder":"9971514413485124","distractor":"9971514413485144","target":"present","response":"present","rt":"2715.599999994","correct":true,"confidence":5},{"trial_n":112,"span":16,"encoder":"5388375674954907","distractor":"5388375684954907","target":"present","response":"present","rt":"13178.5","correct":true,"confidence":3},{"trial_n":113,"span":17,"encoder":"74393000945191263","distractor":"74393000945491263","target":"present","response":"present","rt":"22535.900000006","correct":true,"confidence":2},{"trial_n":114,"span":17,"encoder":"34231777049884815","distractor":"34231777049824815","target":"present","response":"absent","rt":"7236.299999997","correct":false,"confidence":3},{"trial_n":115,"span":16,"encoder":"2803866955110920","distractor":"2803866955120920","target":"present","response":"present","rt":"6028.5","correct":true,"confidence":3},{"trial_n":116,"span":16,"encoder":"4741733592082334","distractor":"4731733592082334","target":"present","response":"present","rt":"6878.700000003","correct":true,"confidence":3},{"trial_n":117,"span":17,"encoder":"38381051410973729","distractor":"38391051410973729","target":"present","response":"absent","rt":"8154.5","correct":false,"confidence":4},{"trial_n":118,"span":16,"encoder":"1756250807891495","distractor":"1756250807191495","target":"absent","response":"present","rt":"8865.200000003","correct":false,"confidence":2},{"trial_n":119,"span":15,"encoder":"962781292056811","distractor":"062781292056811","target":"present","response":"present","rt":"3800.1000000089","correct":true,"confidence":3},{"trial_n":120,"span":15,"encoder":"815015885272512","distractor":"815015885272582","target":"present","response":"present","rt":"3196.3000000119","correct":true,"confidence":5},{"trial_n":121,"span":16,"encoder":"1961699542336673","distractor":"1961693542336673","target":"present","response":"present","rt":"9750.200000003","correct":true,"confidence":2},{"trial_n":122,"span":16,"encoder":"8565011457655389","distractor":"8565011457155389","target":"present","response":"present","rt":"13384.699999988","correct":true,"confidence":3},{"trial_n":123,"span":17,"encoder":"41551629429143205","distractor":"41551629829143205","target":"absent","response":"absent","rt":"10374.200000003","correct":true,"confidence":1},{"trial_n":124,"span":17,"encoder":"15109926914342315","distractor":"15109926114342315","target":"absent","response":"absent","rt":"8237.6000000089","correct":true,"confidence":3},{"trial_n":125,"span":18,"encoder":"210059003424313177","distractor":"210059003494313177","target":"absent","response":"absent","rt":"13283.100000009","correct":true,"confidence":1},{"trial_n":126,"span":18,"encoder":"078663703729210403","distractor":"078663703729210603","target":"absent","response":"absent","rt":"6628.1000000089","correct":true,"confidence":4},{"trial_n":127,"span":19,"encoder":"9374551490787698314","distractor":"9374552490787698314","target":"present","response":"present","rt":"6606.200000003","correct":true,"confidence":3},{"trial_n":128,"span":19,"encoder":"0804534125084637748","distractor":"0804834125084637748","target":"absent","response":"absent","rt":"4980.6000000089","correct":true,"confidence":1},{"trial_n":129,"span":20,"encoder":"12658327678742553843","distractor":"12658322678742553843","target":"absent","response":"present","rt":"3143.8000000119","correct":false,"confidence":1},{"trial_n":130,"span":19,"encoder":"6028310604377413368","distractor":"6028310604377433368","target":"absent","response":"absent","rt":"5201","correct":true,"confidence":4},{"trial_n":131,"span":19,"encoder":"2271284452887183022","distractor":"2271284452587183022","target":"present","response":"present","rt":"11291.700000003","correct":true,"confidence":2},{"trial_n":132,"span":20,"encoder":"82180609899803147570","distractor":"82180009899803147570","target":"absent","response":"absent","rt":"8839.599999994","correct":true,"confidence":3},{"trial_n":133,"span":20,"encoder":"37175840238515959503","distractor":"57175840238515959503","target":"present","response":"absent","rt":"2529.6000000089","correct":false,"confidence":1},{"trial_n":134,"span":19,"encoder":"5025316754580233110","distractor":"5025316754680233110","target":"absent","response":"present","rt":"3221.3000000119","correct":false,"confidence":2},{"trial_n":135,"span":18,"encoder":"731898478824928227","distractor":"731898478124928227","target":"present","response":"present","rt":"7343.299999997","correct":true,"confidence":3},{"trial_n":136,"span":18,"encoder":"595578044093772229","distractor":"593578044093772229","target":"present","response":"absent","rt":"5959.3999999911","correct":false,"confidence":3},{"trial_n":137,"span":17,"encoder":"47911117631283901","distractor":"47111117631283901","target":"absent","response":"absent","rt":"3377.200000003","correct":true,"confidence":4},{"trial_n":138,"span":17,"encoder":"86636409975103845","distractor":"86636409977103845","target":"absent","response":"absent","rt":"5661.200000003","correct":true,"confidence":2},{"trial_n":139,"span":18,"encoder":"752061916371139499","distractor":"752061916311139499","target":"present","response":"absent","rt":"9088.400000006","correct":false,"confidence":3},{"trial_n":140,"span":17,"encoder":"57829295414872241","distractor":"57829295424872241","target":"present","response":"present","rt":"10185.5","correct":true,"confidence":1}]