[{"trial_n":1,"min":25,"max":230,"target":"present","response":"absent","rt":4155.1000000238,"correct":false,"confidence":-1},{"trial_n":2,"min":25,"max":230,"target":"present","response":"present","rt":1218.8000000715,"correct":true,"confidence":-1},{"trial_n":3,"min":25,"max":230,"target":"absent","response":"absent","rt":845.60000002384,"correct":true,"confidence":-1},{"trial_n":4,"min":41,"max":214,"target":"absent","response":"absent","rt":684.5,"correct":true,"confidence":-1},{"trial_n":5,"min":41,"max":214,"target":"present","response":"present","rt":873.5,"correct":true,"confidence":-1},{"trial_n":6,"min":57,"max":198,"target":"present","response":"present","rt":684.40000009537,"correct":true,"confidence":-1},{"trial_n":7,"min":57,"max":198,"target":"absent","response":"absent","rt":751.39999997616,"correct":true,"confidence":-1},{"trial_n":8,"min":73,"max":182,"target":"present","response":"present","rt":762.5,"correct":true,"confidence":-1},{"trial_n":9,"min":73,"max":182,"target":"present","response":"present","rt":1019.3000000715,"correct":true,"confidence":-1},{"trial_n":10,"min":89,"max":166,"target":"present","response":"present","rt":707.69999992847,"correct":true,"confidence":-1},{"trial_n":11,"min":89,"max":166,"target":"absent","response":"absent","rt":829.89999997616,"correct":true,"confidence":-1},{"trial_n":12,"min":97,"max":158,"target":"present","response":"absent","rt":745.20000004768,"correct":false,"confidence":-1},{"trial_n":13,"min":89,"max":166,"target":"absent","response":"absent","rt":828.60000002384,"correct":true,"confidence":-1},{"trial_n":14,"min":89,"max":166,"target":"present","response":"absent","rt":1098.6000000238,"correct":false,"confidence":-1},{"trial_n":15,"min":81,"max":174,"target":"absent","response":"absent","rt":851,"correct":true,"confidence":-1},{"trial_n":16,"min":81,"max":174,"target":"present","response":"present","rt":833.80000007153,"correct":true,"confidence":-1},{"trial_n":17,"min":89,"max":166,"target":"present","response":"absent","rt":991.20000004768,"correct":false,"confidence":-1},{"trial_n":18,"min":81,"max":174,"target":"present","response":"present","rt":3407.7000000477,"correct":true,"confidence":-1},{"trial_n":19,"min":81,"max":174,"target":"present","response":"present","rt":779.19999992847,"correct":true,"confidence":-1},{"trial_n":20,"min":89,"max":166,"target":"present","response":"present","rt":1143.1999999285,"correct":true,"confidence":-1},{"trial_n":21,"min":89,"max":166,"target":"absent","response":"present","rt":6023.2000000477,"correct":false,"confidence":1},{"trial_n":22,"min":85,"max":170,"target":"absent","response":"present","rt":4026.1999999285,"correct":false,"confidence":3},{"trial_n":23,"min":81,"max":174,"target":"absent","response":"absent","rt":1815.1000000238,"correct":true,"confidence":1},{"trial_n":24,"min":81,"max":174,"target":"present","response":"present","rt":1197.7000000477,"correct":true,"confidence":2},{"trial_n":25,"min":85,"max":170,"target":"present","response":"absent","rt":2213.6999999285,"correct":false,"confidence":2},{"trial_n":26,"min":81,"max":174,"target":"absent","response":"present","rt":859.60000002384,"correct":false,"confidence":3},{"trial_n":27,"min":77,"max":178,"target":"absent","response":"absent","rt":1149.3999999762,"correct":true,"confidence":2},{"trial_n":28,"min":77,"max":178,"target":"present","response":"absent","rt":4578.2000000477,"correct":false,"confidence":1},{"trial_n":29,"min":73,"max":182,"target":"absent","response":"absent","rt":5844,"correct":true,"confidence":2},{"trial_n":30,"min":73,"max":182,"target":"absent","response":"absent","rt":2819.7000000477,"correct":true,"confidence":2},{"trial_n":31,"min":75,"max":180,"target":"present","response":"present","rt":1399.7999999523,"correct":true,"confidence":5},{"trial_n":32,"min":75,"max":180,"target":"absent","response":"present","rt":1875.7000000477,"correct":false,"confidence":3},{"trial_n":33,"min":73,"max":182,"target":"present","response":"present","rt":1419,"correct":true,"confidence":2},{"trial_n":34,"min":73,"max":182,"target":"absent","response":"absent","rt":894.39999997616,"correct":true,"confidence":2},{"trial_n":35,"min":75,"max":180,"target":"present","response":"present","rt":785,"correct":true,"confidence":4},{"trial_n":36,"min":75,"max":180,"target":"absent","response":"absent","rt":762.19999992847,"correct":true,"confidence":3},{"trial_n":37,"min":77,"max":178,"target":"absent","response":"present","rt":1291,"correct":false,"confidence":2},{"trial_n":38,"min":75,"max":180,"target":"absent","response":"absent","rt":2523.5,"correct":true,"confidence":2},{"trial_n":39,"min":75,"max":180,"target":"present","response":"present","rt":3913.6000000238,"correct":true,"confidence":1},{"trial_n":40,"min":77,"max":178,"target":"present","response":"present","rt":1011.2000000477,"correct":true,"confidence":4},{"trial_n":41,"min":77,"max":178,"target":"present","response":"absent","rt":854,"correct":false,"confidence":3},{"trial_n":42,"min":76,"max":179,"target":"absent","response":"absent","rt":688.10000002384,"correct":true,"confidence":3},{"trial_n":43,"min":76,"max":179,"target":"absent","response":"absent","rt":808.5,"correct":true,"confidence":4},{"trial_n":44,"min":77,"max":178,"target":"present","response":"present","rt":699.89999997616,"correct":true,"confidence":5},{"trial_n":45,"min":77,"max":178,"target":"absent","response":"absent","rt":746.29999995232,"correct":true,"confidence":3},{"trial_n":46,"min":78,"max":177,"target":"present","response":"present","rt":852.19999992847,"correct":true,"confidence":2},{"trial_n":47,"min":78,"max":177,"target":"absent","response":"absent","rt":593.29999995232,"correct":true,"confidence":4},{"trial_n":48,"min":79,"max":176,"target":"absent","response":"absent","rt":725.90000009537,"correct":true,"confidence":3},{"trial_n":49,"min":79,"max":176,"target":"absent","response":"absent","rt":702.29999995232,"correct":true,"confidence":2},{"trial_n":50,"min":80,"max":175,"target":"absent","response":"absent","rt":719.69999992847,"correct":true,"confidence":2},{"trial_n":51,"min":80,"max":175,"target":"absent","response":"absent","rt":895.59999990463,"correct":true,"confidence":1},{"trial_n":52,"min":81,"max":174,"target":"present","response":"present","rt":1282,"correct":true,"confidence":4},{"trial_n":53,"min":81,"max":174,"target":"absent","response":"absent","rt":1969.1999999285,"correct":true,"confidence":1},{"trial_n":54,"min":82,"max":173,"target":"absent","response":"present","rt":972,"correct":false,"confidence":2},{"trial_n":55,"min":81,"max":174,"target":"present","response":"absent","rt":794.29999995232,"correct":false,"confidence":2},{"trial_n":56,"min":80,"max":175,"target":"absent","response":"absent","rt":941.30000007153,"correct":true,"confidence":3},{"trial_n":57,"min":80,"max":175,"target":"present","response":"absent","rt":1048.6000000238,"correct":false,"confidence":1},{"trial_n":58,"min":79,"max":176,"target":"present","response":"present","rt":1137.6000000238,"correct":true,"confidence":4},{"trial_n":59,"min":79,"max":176,"target":"absent","response":"absent","rt":800.89999997616,"correct":true,"confidence":2},{"trial_n":60,"min":80,"max":175,"target":"present","response":"present","rt":1033.3999999762,"correct":true,"confidence":4},{"trial_n":61,"min":80,"max":175,"target":"absent","response":"present","rt":1090.5999999046,"correct":false,"confidence":2},{"trial_n":62,"min":79,"max":176,"target":"absent","response":"present","rt":1740.1000000238,"correct":false,"confidence":2},{"trial_n":63,"min":78,"max":177,"target":"present","response":"present","rt":660.19999992847,"correct":true,"confidence":4},{"trial_n":64,"min":78,"max":177,"target":"absent","response":"absent","rt":856,"correct":true,"confidence":1},{"trial_n":65,"min":79,"max":176,"target":"present","response":"present","rt":1155.8999999762,"correct":true,"confidence":2},{"trial_n":66,"min":79,"max":176,"target":"present","response":"present","rt":692.10000002384,"correct":true,"confidence":3},{"trial_n":67,"min":80,"max":175,"target":"present","response":"present","rt":1018.4000000954,"correct":true,"confidence":3},{"trial_n":68,"min":80,"max":175,"target":"present","response":"present","rt":640.20000004768,"correct":true,"confidence":4},{"trial_n":69,"min":81,"max":174,"target":"absent","response":"absent","rt":587.39999997616,"correct":true,"confidence":3},{"trial_n":70,"min":81,"max":174,"target":"present","response":"present","rt":610,"correct":true,"confidence":4},{"trial_n":71,"min":41,"max":214,"target":"present","response":"present","rt":1472.9000000954,"correct":true,"confidence":-1},{"trial_n":72,"min":41,"max":214,"target":"present","response":"present","rt":490.5,"correct":true,"confidence":-1},{"trial_n":73,"min":57,"max":198,"target":"absent","response":"absent","rt":1210.7000000477,"correct":true,"confidence":-1},{"trial_n":74,"min":57,"max":198,"target":"absent","response":"absent","rt":808.5,"correct":true,"confidence":-1},{"trial_n":75,"min":73,"max":182,"target":"present","response":"present","rt":484.89999997616,"correct":true,"confidence":-1},{"trial_n":76,"min":73,"max":182,"target":"absent","response":"absent","rt":873.89999997616,"correct":true,"confidence":-1},{"trial_n":77,"min":89,"max":166,"target":"absent","response":"absent","rt":1211.2000000477,"correct":true,"confidence":-1},{"trial_n":78,"min":89,"max":166,"target":"absent","response":"absent","rt":480,"correct":true,"confidence":-1},{"trial_n":79,"min":105,"max":150,"target":"present","response":"absent","rt":2350.5,"correct":false,"confidence":-1},{"trial_n":80,"min":89,"max":166,"target":"absent","response":"absent","rt":567.40000009537,"correct":true,"confidence":-1},{"trial_n":81,"min":89,"max":166,"target":"absent","response":"present","rt":580.5,"correct":false,"confidence":-1},{"trial_n":82,"min":81,"max":174,"target":"present","response":"present","rt":744.10000002384,"correct":true,"confidence":-1},{"trial_n":83,"min":81,"max":174,"target":"absent","response":"absent","rt":538.40000009537,"correct":true,"confidence":-1},{"trial_n":84,"min":89,"max":166,"target":"present","response":"present","rt":739.5,"correct":true,"confidence":-1},{"trial_n":85,"min":89,"max":166,"target":"absent","response":"present","rt":729.20000004768,"correct":false,"confidence":-1},{"trial_n":86,"min":81,"max":174,"target":"absent","response":"absent","rt":829.60000002384,"correct":true,"confidence":-1},{"trial_n":87,"min":81,"max":174,"target":"absent","response":"absent","rt":497.20000004768,"correct":true,"confidence":-1},{"trial_n":88,"min":89,"max":166,"target":"present","response":"absent","rt":586.60000002384,"correct":false,"confidence":-1},{"trial_n":89,"min":81,"max":174,"target":"present","response":"present","rt":613.79999995232,"correct":true,"confidence":-1},{"trial_n":90,"min":81,"max":174,"target":"present","response":"present","rt":440.39999997616,"correct":true,"confidence":-1},{"trial_n":91,"min":85,"max":170,"target":"absent","response":"present","rt":478.5,"correct":false,"confidence":4},{"trial_n":92,"min":81,"max":174,"target":"present","response":"present","rt":305.5,"correct":true,"confidence":5},{"trial_n":93,"min":81,"max":174,"target":"present","response":"present","rt":1436.8999999762,"correct":true,"confidence":5},{"trial_n":94,"min":85,"max":170,"target":"present","response":"present","rt":916.70000004768,"correct":true,"confidence":3},{"trial_n":95,"min":85,"max":170,"target":"absent","response":"absent","rt":1044.6000000238,"correct":true,"confidence":2},{"trial_n":96,"min":89,"max":166,"target":"present","response":"present","rt":761.30000007153,"correct":true,"confidence":3},{"trial_n":97,"min":89,"max":166,"target":"absent","response":"absent","rt":1142.3999999762,"correct":true,"confidence":1},{"trial_n":98,"min":93,"max":162,"target":"present","response":"present","rt":574.19999992847,"correct":true,"confidence":3},{"trial_n":99,"min":93,"max":162,"target":"present","response":"present","rt":1351.1999999285,"correct":true,"confidence":2},{"trial_n":100,"min":97,"max":158,"target":"absent","response":"absent","rt":1082.1000000238,"correct":true,"confidence":1},{"trial_n":101,"min":97,"max":158,"target":"present","response":"present","rt":1901.7000000477,"correct":true,"confidence":2},{"trial_n":102,"min":99,"max":156,"target":"present","response":"present","rt":1459.4000000954,"correct":true,"confidence":3},{"trial_n":103,"min":99,"max":156,"target":"present","response":"present","rt":3288.3999999762,"correct":true,"confidence":2},{"trial_n":104,"min":101,"max":154,"target":"present","response":"present","rt":1551.5,"correct":true,"confidence":3},{"trial_n":105,"min":101,"max":154,"target":"absent","response":"absent","rt":3954.6000000238,"correct":true,"confidence":1},{"trial_n":106,"min":103,"max":152,"target":"absent","response":"present","rt":1308.1999999285,"correct":false,"confidence":3},{"trial_n":107,"min":101,"max":154,"target":"present","response":"present","rt":1324.5999999046,"correct":true,"confidence":2},{"trial_n":108,"min":101,"max":154,"target":"absent","response":"absent","rt":2678.3999999762,"correct":true,"confidence":2},{"trial_n":109,"min":103,"max":152,"target":"present","response":"present","rt":1711.8999999762,"correct":true,"confidence":2},{"trial_n":110,"min":103,"max":152,"target":"absent","response":"present","rt":5221.8999999762,"correct":false,"confidence":2},{"trial_n":111,"min":102,"max":153,"target":"present","response":"present","rt":2856.2000000477,"correct":true,"confidence":1},{"trial_n":112,"min":102,"max":153,"target":"present","response":"present","rt":425,"correct":true,"confidence":4},{"trial_n":113,"min":103,"max":152,"target":"absent","response":"present","rt":2128.7000000477,"correct":false,"confidence":2},{"trial_n":114,"min":102,"max":153,"target":"present","response":"present","rt":578.30000007153,"correct":true,"confidence":3},{"trial_n":115,"min":102,"max":153,"target":"present","response":"present","rt":922.70000004768,"correct":true,"confidence":4},{"trial_n":116,"min":103,"max":152,"target":"absent","response":"absent","rt":3520.4000000954,"correct":true,"confidence":2},{"trial_n":117,"min":103,"max":152,"target":"present","response":"present","rt":2343.1000000238,"correct":true,"confidence":2},{"trial_n":118,"min":104,"max":151,"target":"present","response":"present","rt":1180.8000000715,"correct":true,"confidence":2},{"trial_n":119,"min":104,"max":151,"target":"absent","response":"present","rt":711.89999997616,"correct":false,"confidence":1},{"trial_n":120,"min":103,"max":152,"target":"absent","response":"absent","rt":3089.5999999046,"correct":true,"confidence":1},{"trial_n":121,"min":103,"max":152,"target":"absent","response":"absent","rt":1865.1999999285,"correct":true,"confidence":1},{"trial_n":122,"min":104,"max":151,"target":"present","response":"present","rt":833.30000007153,"correct":true,"confidence":2},{"trial_n":123,"min":104,"max":151,"target":"present","response":"present","rt":2575.5,"correct":true,"confidence":2},{"trial_n":124,"min":105,"max":150,"target":"absent","response":"present","rt":2317.8999999762,"correct":false,"confidence":1},{"trial_n":125,"min":104,"max":151,"target":"present","response":"present","rt":1568.3000000715,"correct":true,"confidence":1},{"trial_n":126,"min":104,"max":151,"target":"absent","response":"present","rt":599.79999995232,"correct":false,"confidence":2},{"trial_n":127,"min":103,"max":152,"target":"absent","response":"present","rt":1379.1999999285,"correct":false,"confidence":1},{"trial_n":128,"min":102,"max":153,"target":"absent","response":"present","rt":749.20000004768,"correct":false,"confidence":2},{"trial_n":129,"min":101,"max":154,"target":"present","response":"present","rt":618,"correct":true,"confidence":2},{"trial_n":130,"min":101,"max":154,"target":"present","response":"present","rt":1504.3000000715,"correct":true,"confidence":1},{"trial_n":131,"min":102,"max":153,"target":"present","response":"absent","rt":892.39999997616,"correct":false,"confidence":1},{"trial_n":132,"min":101,"max":154,"target":"absent","response":"absent","rt":530.79999995232,"correct":true,"confidence":1},{"trial_n":133,"min":101,"max":154,"target":"present","response":"present","rt":787,"correct":true,"confidence":1},{"trial_n":134,"min":102,"max":153,"target":"absent","response":"present","rt":504.59999990463,"correct":false,"confidence":1},{"trial_n":135,"min":101,"max":154,"target":"absent","response":"present","rt":683.70000004768,"correct":false,"confidence":1},{"trial_n":136,"min":100,"max":155,"target":"present","response":"present","rt":508.89999997616,"correct":true,"confidence":1},{"trial_n":137,"min":100,"max":155,"target":"absent","response":"present","rt":563.89999997616,"correct":false,"confidence":1},{"trial_n":138,"min":99,"max":156,"target":"absent","response":"present","rt":581.20000004768,"correct":false,"confidence":1},{"trial_n":139,"min":98,"max":157,"target":"present","response":"present","rt":626.09999990463,"correct":true,"confidence":1},{"trial_n":140,"min":98,"max":157,"target":"absent","response":"absent","rt":619.29999995232,"correct":true,"confidence":1}]