[{"trial_n":1,"n_dots":4.25,"target":"left","response":"left","rt":2898,"correct":true,"confidence":-1},{"trial_n":2,"n_dots":4.25,"target":"right","response":"right","rt":2555.1000000238,"correct":true,"confidence":-1},{"trial_n":3,"n_dots":3.85,"target":"right","response":"left","rt":370.30000007153,"correct":false,"confidence":-1},{"trial_n":4,"n_dots":4.25,"target":"right","response":"right","rt":290.79999995232,"correct":true,"confidence":-1},{"trial_n":5,"n_dots":4.25,"target":"right","response":"right","rt":237.89999997616,"correct":true,"confidence":-1},{"trial_n":6,"n_dots":3.85,"target":"left","response":"left","rt":254.70000004768,"correct":true,"confidence":-1},{"trial_n":7,"n_dots":3.85,"target":"left","response":"left","rt":263,"correct":true,"confidence":-1},{"trial_n":8,"n_dots":3.65,"target":"left","response":"left","rt":260.70000004768,"correct":true,"confidence":-1},{"trial_n":9,"n_dots":3.65,"target":"left","response":"left","rt":235.80000007153,"correct":true,"confidence":-1},{"trial_n":10,"n_dots":3.45,"target":"right","response":"right","rt":257,"correct":true,"confidence":-1},{"trial_n":11,"n_dots":3.45,"target":"left","response":"left","rt":246.40000009537,"correct":true,"confidence":-1},{"trial_n":12,"n_dots":3.25,"target":"left","response":"left","rt":265.40000009537,"correct":true,"confidence":-1},{"trial_n":13,"n_dots":3.25,"target":"left","response":"left","rt":115.5,"correct":true,"confidence":-1},{"trial_n":14,"n_dots":3.15,"target":"left","response":"left","rt":227.19999992847,"correct":true,"confidence":-1},{"trial_n":15,"n_dots":3.15,"target":"right","response":"left","rt":299.5,"correct":false,"confidence":-1},{"trial_n":16,"n_dots":3.25,"target":"right","response":"left","rt":264.70000004768,"correct":false,"confidence":-1},{"trial_n":17,"n_dots":3.35,"target":"right","response":"right","rt":263.79999995232,"correct":true,"confidence":-1},{"trial_n":18,"n_dots":3.35,"target":"right","response":"right","rt":273.79999995232,"correct":true,"confidence":-1},{"trial_n":19,"n_dots":3.25,"target":"right","response":"right","rt":331.70000004768,"correct":true,"confidence":-1},{"trial_n":20,"n_dots":3.25,"target":"left","response":"left","rt":495.39999997616,"correct":true,"confidence":-1},{"trial_n":21,"n_dots":3.15,"target":"right","response":"right","rt":635.39999997616,"correct":true,"confidence":3},{"trial_n":22,"n_dots":3.15,"target":"right","response":"right","rt":880.10000002384,"correct":true,"confidence":4},{"trial_n":23,"n_dots":3.05,"target":"right","response":"right","rt":527.10000002384,"correct":true,"confidence":3},{"trial_n":24,"n_dots":3.05,"target":"right","response":"right","rt":893.69999992847,"correct":true,"confidence":2},{"trial_n":25,"n_dots":2.95,"target":"right","response":"right","rt":1165.2999999523,"correct":true,"confidence":2},{"trial_n":26,"n_dots":2.95,"target":"left","response":"left","rt":1117.6000000238,"correct":true,"confidence":4},{"trial_n":27,"n_dots":2.85,"target":"right","response":"left","rt":1646.1000000238,"correct":false,"confidence":1},{"trial_n":28,"n_dots":2.95,"target":"left","response":"left","rt":290.39999997616,"correct":true,"confidence":3},{"trial_n":29,"n_dots":2.95,"target":"right","response":"left","rt":518.29999995232,"correct":false,"confidence":2},{"trial_n":30,"n_dots":3.05,"target":"right","response":"right","rt":1067.6000000238,"correct":true,"confidence":1},{"trial_n":31,"n_dots":3.05,"target":"right","response":"right","rt":380,"correct":true,"confidence":2},{"trial_n":32,"n_dots":2.95,"target":"right","response":"left","rt":543.19999992847,"correct":false,"confidence":2},{"trial_n":33,"n_dots":3.05,"target":"right","response":"left","rt":231.19999992847,"correct":false,"confidence":4},{"trial_n":34,"n_dots":3.15,"target":"left","response":"left","rt":328.69999992847,"correct":true,"confidence":3},{"trial_n":35,"n_dots":3.15,"target":"left","response":"left","rt":333.39999997616,"correct":true,"confidence":3},{"trial_n":36,"n_dots":3.05,"target":"left","response":"left","rt":701.60000002384,"correct":true,"confidence":3},{"trial_n":37,"n_dots":3.05,"target":"right","response":"right","rt":463,"correct":true,"confidence":2},{"trial_n":38,"n_dots":2.95,"target":"left","response":"left","rt":569,"correct":true,"confidence":2},{"trial_n":39,"n_dots":2.95,"target":"right","response":"left","rt":425.20000004768,"correct":false,"confidence":3},{"trial_n":40,"n_dots":3.05,"target":"left","response":"left","rt":271.29999995232,"correct":true,"confidence":2},{"trial_n":41,"n_dots":3.05,"target":"left","response":"left","rt":1376.5999999046,"correct":true,"confidence":3},{"trial_n":42,"n_dots":2.95,"target":"right","response":"right","rt":402.09999990463,"correct":true,"confidence":2},{"trial_n":43,"n_dots":2.95,"target":"left","response":"left","rt":467.80000007153,"correct":true,"confidence":1},{"trial_n":44,"n_dots":2.85,"target":"right","response":"left","rt":363.5,"correct":false,"confidence":2},{"trial_n":45,"n_dots":2.95,"target":"left","response":"left","rt":307.30000007153,"correct":true,"confidence":3},{"trial_n":46,"n_dots":2.95,"target":"right","response":"left","rt":729.40000009537,"correct":false,"confidence":1},{"trial_n":47,"n_dots":3.05,"target":"left","response":"left","rt":424.29999995232,"correct":true,"confidence":2},{"trial_n":48,"n_dots":3.05,"target":"right","response":"left","rt":501.90000009537,"correct":false,"confidence":1},{"trial_n":49,"n_dots":3.15,"target":"left","response":"left","rt":328.59999990463,"correct":true,"confidence":3},{"trial_n":50,"n_dots":3.15,"target":"left","response":"left","rt":312.79999995232,"correct":true,"confidence":3},{"trial_n":51,"n_dots":3.05,"target":"left","response":"left","rt":372.90000009537,"correct":true,"confidence":2},{"trial_n":52,"n_dots":3.05,"target":"left","response":"left","rt":556.10000002384,"correct":true,"confidence":2},{"trial_n":53,"n_dots":2.95,"target":"left","response":"right","rt":463.60000002384,"correct":false,"confidence":1},{"trial_n":54,"n_dots":3.05,"target":"left","response":"left","rt":1502.6000000238,"correct":true,"confidence":2},{"trial_n":55,"n_dots":3.05,"target":"left","response":"left","rt":343.90000009537,"correct":true,"confidence":2},{"trial_n":56,"n_dots":2.95,"target":"left","response":"left","rt":129.5,"correct":true,"confidence":4},{"trial_n":57,"n_dots":2.95,"target":"left","response":"left","rt":751.40000009537,"correct":true,"confidence":1},{"trial_n":58,"n_dots":2.85,"target":"left","response":"right","rt":319.89999997616,"correct":false,"confidence":1},{"trial_n":59,"n_dots":2.95,"target":"right","response":"right","rt":359.5,"correct":true,"confidence":2},{"trial_n":60,"n_dots":2.95,"target":"left","response":"left","rt":344.29999995232,"correct":true,"confidence":2},{"trial_n":61,"n_dots":2.85,"target":"left","response":"right","rt":381.5,"correct":false,"confidence":1},{"trial_n":62,"n_dots":2.95,"target":"left","response":"left","rt":298.69999992847,"correct":true,"confidence":3},{"trial_n":63,"n_dots":2.95,"target":"left","response":"right","rt":116.09999990463,"correct":false,"confidence":2},{"trial_n":64,"n_dots":3.05,"target":"right","response":"left","rt":365.30000007153,"correct":false,"confidence":3},{"trial_n":65,"n_dots":3.15,"target":"right","response":"left","rt":343.39999997616,"correct":false,"confidence":2},{"trial_n":66,"n_dots":3.25,"target":"right","response":"right","rt":262.59999990463,"correct":true,"confidence":4},{"trial_n":67,"n_dots":3.25,"target":"left","response":"left","rt":349,"correct":true,"confidence":2},{"trial_n":68,"n_dots":3.15,"target":"right","response":"right","rt":262.60000002384,"correct":true,"confidence":3},{"trial_n":69,"n_dots":3.15,"target":"right","response":"right","rt":228.30000007153,"correct":true,"confidence":2},{"trial_n":70,"n_dots":3.05,"target":"left","response":"left","rt":361.20000004768,"correct":true,"confidence":1},{"trial_n":71,"n_dots":3.05,"target":"right","response":"right","rt":568.60000002384,"correct":true,"confidence":3},{"trial_n":72,"n_dots":2.95,"target":"right","response":"right","rt":271.5,"correct":true,"confidence":2},{"trial_n":73,"n_dots":2.95,"target":"left","response":"left","rt":410.79999995232,"correct":true,"confidence":2},{"trial_n":74,"n_dots":2.85,"target":"left","response":"left","rt":262,"correct":true,"confidence":2},{"trial_n":75,"n_dots":2.85,"target":"left","response":"left","rt":463.70000004768,"correct":true,"confidence":1},{"trial_n":76,"n_dots":2.75,"target":"left","response":"right","rt":287.29999995232,"correct":false,"confidence":2},{"trial_n":77,"n_dots":2.85,"target":"right","response":"left","rt":256.30000007153,"correct":false,"confidence":1},{"trial_n":78,"n_dots":2.95,"target":"right","response":"left","rt":332.5,"correct":false,"confidence":1},{"trial_n":79,"n_dots":3.05,"target":"right","response":"right","rt":248.5,"correct":true,"confidence":2},{"trial_n":80,"n_dots":3.05,"target":"right","response":"right","rt":255.79999995232,"correct":true,"confidence":3},{"trial_n":81,"n_dots":2.95,"target":"left","response":"right","rt":598.5,"correct":false,"confidence":2},{"trial_n":82,"n_dots":3.05,"target":"left","response":"left","rt":254.30000007153,"correct":true,"confidence":4},{"trial_n":83,"n_dots":3.05,"target":"right","response":"left","rt":55.200000047684,"correct":false,"confidence":3},{"trial_n":84,"n_dots":3.15,"target":"left","response":"left","rt":361.39999997616,"correct":true,"confidence":3},{"trial_n":85,"n_dots":3.15,"target":"left","response":"right","rt":1002.5,"correct":false,"confidence":1},{"trial_n":86,"n_dots":3.25,"target":"right","response":"right","rt":256.10000002384,"correct":true,"confidence":3},{"trial_n":87,"n_dots":3.25,"target":"right","response":"right","rt":387.59999990463,"correct":true,"confidence":1},{"trial_n":88,"n_dots":3.15,"target":"right","response":"right","rt":250.20000004768,"correct":true,"confidence":4},{"trial_n":89,"n_dots":3.15,"target":"left","response":"left","rt":440.39999997616,"correct":true,"confidence":2},{"trial_n":90,"n_dots":3.05,"target":"left","response":"left","rt":462.5,"correct":true,"confidence":1},{"trial_n":91,"n_dots":3.05,"target":"left","response":"left","rt":953,"correct":true,"confidence":1},{"trial_n":92,"n_dots":2.95,"target":"right","response":"left","rt":308.5,"correct":false,"confidence":2},{"trial_n":93,"n_dots":3.05,"target":"right","response":"right","rt":279.79999995232,"correct":true,"confidence":3},{"trial_n":94,"n_dots":3.05,"target":"right","response":"right","rt":59.600000023842,"correct":true,"confidence":2},{"trial_n":95,"n_dots":2.95,"target":"right","response":"left","rt":677.69999992847,"correct":false,"confidence":3},{"trial_n":96,"n_dots":3.05,"target":"right","response":"right","rt":372.80000007153,"correct":true,"confidence":4},{"trial_n":97,"n_dots":3.05,"target":"left","response":"left","rt":306.30000007153,"correct":true,"confidence":5},{"trial_n":98,"n_dots":2.95,"target":"left","response":"left","rt":258.30000007153,"correct":true,"confidence":5},{"trial_n":99,"n_dots":2.95,"target":"right","response":"right","rt":400,"correct":true,"confidence":1},{"trial_n":100,"n_dots":2.85,"target":"left","response":"left","rt":270,"correct":true,"confidence":3},{"trial_n":101,"n_dots":2.85,"target":"right","response":"right","rt":344,"correct":true,"confidence":1},{"trial_n":102,"n_dots":2.75,"target":"right","response":"right","rt":451.09999990463,"correct":true,"confidence":1},{"trial_n":103,"n_dots":2.75,"target":"left","response":"right","rt":738.10000002384,"correct":false,"confidence":1},{"trial_n":104,"n_dots":2.85,"target":"left","response":"left","rt":228.10000002384,"correct":true,"confidence":3},{"trial_n":105,"n_dots":2.85,"target":"left","response":"left","rt":225,"correct":true,"confidence":3},{"trial_n":106,"n_dots":2.75,"target":"right","response":"left","rt":1513.2000000477,"correct":false,"confidence":1},{"trial_n":107,"n_dots":2.85,"target":"right","response":"right","rt":621.80000007153,"correct":true,"confidence":2},{"trial_n":108,"n_dots":2.85,"target":"left","response":"left","rt":355.89999997616,"correct":true,"confidence":3},{"trial_n":109,"n_dots":2.75,"target":"right","response":"right","rt":340.89999997616,"correct":true,"confidence":3},{"trial_n":110,"n_dots":2.75,"target":"right","response":"right","rt":330.20000004768,"correct":true,"confidence":4},{"trial_n":111,"n_dots":2.65,"target":"left","response":"left","rt":727.60000002384,"correct":true,"confidence":2},{"trial_n":112,"n_dots":2.65,"target":"left","response":"left","rt":529.89999997616,"correct":true,"confidence":1},{"trial_n":113,"n_dots":2.55,"target":"left","response":"left","rt":711.70000004768,"correct":true,"confidence":1},{"trial_n":114,"n_dots":2.55,"target":"right","response":"right","rt":720.30000007153,"correct":true,"confidence":1},{"trial_n":115,"n_dots":2.45,"target":"right","response":"left","rt":1160.7999999523,"correct":false,"confidence":1},{"trial_n":116,"n_dots":2.55,"target":"right","response":"right","rt":333.89999997616,"correct":true,"confidence":3},{"trial_n":117,"n_dots":2.55,"target":"left","response":"left","rt":364.79999995232,"correct":true,"confidence":2},{"trial_n":118,"n_dots":2.45,"target":"right","response":"right","rt":315.5,"correct":true,"confidence":1},{"trial_n":119,"n_dots":2.45,"target":"right","response":"right","rt":348.10000002384,"correct":true,"confidence":2},{"trial_n":120,"n_dots":2.35,"target":"left","response":"right","rt":291.90000009537,"correct":false,"confidence":2}]