[{"trial_n":1,"n_dots":4.25,"target":"right","response":"left","rt":3680,"correct":false,"confidence":-1},{"trial_n":2,"n_dots":4.25,"target":"right","response":"left","rt":1124,"correct":false,"confidence":-1},{"trial_n":3,"n_dots":4.65,"target":"right","response":"right","rt":503,"correct":true,"confidence":-1},{"trial_n":4,"n_dots":4.65,"target":"left","response":"left","rt":383,"correct":true,"confidence":-1},{"trial_n":5,"n_dots":4.25,"target":"left","response":"right","rt":868,"correct":false,"confidence":-1},{"trial_n":6,"n_dots":4.65,"target":"left","response":"left","rt":349,"correct":true,"confidence":-1},{"trial_n":7,"n_dots":4.65,"target":"right","response":"right","rt":378.99999999999,"correct":true,"confidence":-1},{"trial_n":8,"n_dots":4.45,"target":"left","response":"left","rt":301,"correct":true,"confidence":-1},{"trial_n":9,"n_dots":4.45,"target":"left","response":"left","rt":295.99999999999,"correct":true,"confidence":-1},{"trial_n":10,"n_dots":4.25,"target":"right","response":"right","rt":278,"correct":true,"confidence":-1},{"trial_n":11,"n_dots":4.25,"target":"right","response":"right","rt":307,"correct":true,"confidence":-1},{"trial_n":12,"n_dots":4.05,"target":"left","response":"left","rt":337,"correct":true,"confidence":-1},{"trial_n":13,"n_dots":4.05,"target":"left","response":"left","rt":394,"correct":true,"confidence":-1},{"trial_n":14,"n_dots":3.95,"target":"left","response":"left","rt":317,"correct":true,"confidence":-1},{"trial_n":15,"n_dots":3.95,"target":"left","response":"left","rt":126,"correct":true,"confidence":-1},{"trial_n":16,"n_dots":3.85,"target":"right","response":"right","rt":247,"correct":true,"confidence":-1},{"trial_n":17,"n_dots":3.85,"target":"right","response":"right","rt":350.00000000001,"correct":true,"confidence":-1},{"trial_n":18,"n_dots":3.75,"target":"right","response":"left","rt":290,"correct":false,"confidence":-1},{"trial_n":19,"n_dots":3.85,"target":"right","response":"right","rt":334,"correct":true,"confidence":-1},{"trial_n":20,"n_dots":3.85,"target":"left","response":"left","rt":382,"correct":true,"confidence":-1},{"trial_n":21,"n_dots":3.75,"target":"right","response":"right","rt":398,"correct":true,"confidence":3},{"trial_n":22,"n_dots":3.75,"target":"left","response":"left","rt":384,"correct":true,"confidence":3},{"trial_n":23,"n_dots":3.65,"target":"left","response":"left","rt":318.99999999999,"correct":true,"confidence":4},{"trial_n":24,"n_dots":3.65,"target":"right","response":"right","rt":342.99999999999,"correct":true,"confidence":3},{"trial_n":25,"n_dots":3.55,"target":"left","response":"left","rt":569.99999999999,"correct":true,"confidence":4},{"trial_n":26,"n_dots":3.55,"target":"right","response":"right","rt":848,"correct":true,"confidence":4},{"trial_n":27,"n_dots":3.45,"target":"left","response":"left","rt":715,"correct":true,"confidence":3},{"trial_n":28,"n_dots":3.45,"target":"left","response":"right","rt":928,"correct":false,"confidence":2},{"trial_n":29,"n_dots":3.55,"target":"left","response":"left","rt":1372,"correct":true,"confidence":2},{"trial_n":30,"n_dots":3.55,"target":"right","response":"right","rt":636,"correct":true,"confidence":3},{"trial_n":31,"n_dots":3.45,"target":"left","response":"right","rt":1032,"correct":false,"confidence":3},{"trial_n":32,"n_dots":3.55,"target":"right","response":"right","rt":884,"correct":true,"confidence":2},{"trial_n":33,"n_dots":3.55,"target":"left","response":"left","rt":2262,"correct":true,"confidence":2},{"trial_n":34,"n_dots":3.45,"target":"right","response":"right","rt":587,"correct":true,"confidence":4},{"trial_n":35,"n_dots":3.45,"target":"right","response":"right","rt":767,"correct":true,"confidence":5},{"trial_n":36,"n_dots":3.35,"target":"right","response":"right","rt":584,"correct":true,"confidence":5},{"trial_n":37,"n_dots":3.35,"target":"right","response":"right","rt":618,"correct":true,"confidence":5},{"trial_n":38,"n_dots":3.25,"target":"right","response":"right","rt":530,"correct":true,"confidence":4},{"trial_n":39,"n_dots":3.25,"target":"right","response":"right","rt":551,"correct":true,"confidence":4},{"trial_n":40,"n_dots":3.15,"target":"right","response":"left","rt":899,"correct":false,"confidence":2},{"trial_n":41,"n_dots":3.25,"target":"left","response":"right","rt":551.99999999997,"correct":false,"confidence":3},{"trial_n":42,"n_dots":3.35,"target":"right","response":"right","rt":508.99999999997,"correct":true,"confidence":5},{"trial_n":43,"n_dots":3.35,"target":"right","response":"right","rt":820,"correct":true,"confidence":5},{"trial_n":44,"n_dots":3.25,"target":"right","response":"right","rt":1622,"correct":true,"confidence":3},{"trial_n":45,"n_dots":3.25,"target":"left","response":"right","rt":1030,"correct":false,"confidence":5},{"trial_n":46,"n_dots":3.35,"target":"left","response":"left","rt":613,"correct":true,"confidence":4},{"trial_n":47,"n_dots":3.35,"target":"left","response":"left","rt":625,"correct":true,"confidence":3},{"trial_n":48,"n_dots":3.25,"target":"right","response":"right","rt":390.99999999997,"correct":true,"confidence":4},{"trial_n":49,"n_dots":3.25,"target":"left","response":"left","rt":2197,"correct":true,"confidence":2},{"trial_n":50,"n_dots":3.15,"target":"left","response":"left","rt":867,"correct":true,"confidence":4},{"trial_n":51,"n_dots":3.15,"target":"left","response":"left","rt":651,"correct":true,"confidence":3},{"trial_n":52,"n_dots":3.05,"target":"right","response":"left","rt":1691,"correct":false,"confidence":3},{"trial_n":53,"n_dots":3.15,"target":"left","response":"left","rt":711.99999999997,"correct":true,"confidence":4},{"trial_n":54,"n_dots":3.15,"target":"left","response":"left","rt":702,"correct":true,"confidence":3},{"trial_n":55,"n_dots":3.05,"target":"right","response":"right","rt":719.99999999997,"correct":true,"confidence":4},{"trial_n":56,"n_dots":3.05,"target":"left","response":"left","rt":528,"correct":true,"confidence":2},{"trial_n":57,"n_dots":2.95,"target":"right","response":"right","rt":829,"correct":true,"confidence":1},{"trial_n":58,"n_dots":2.95,"target":"right","response":"right","rt":1340,"correct":true,"confidence":3},{"trial_n":59,"n_dots":2.85,"target":"left","response":"left","rt":1824,"correct":true,"confidence":1},{"trial_n":60,"n_dots":2.85,"target":"left","response":"right","rt":718.00000000006,"correct":false,"confidence":2},{"trial_n":61,"n_dots":2.95,"target":"right","response":"right","rt":660,"correct":true,"confidence":2},{"trial_n":62,"n_dots":2.95,"target":"right","response":"right","rt":325.00000000006,"correct":true,"confidence":2},{"trial_n":63,"n_dots":2.85,"target":"left","response":"right","rt":605,"correct":false,"confidence":2},{"trial_n":64,"n_dots":2.95,"target":"left","response":"left","rt":1502,"correct":true,"confidence":3},{"trial_n":65,"n_dots":2.95,"target":"right","response":"right","rt":299.00000000006,"correct":true,"confidence":3},{"trial_n":66,"n_dots":2.85,"target":"left","response":"right","rt":422,"correct":false,"confidence":3},{"trial_n":67,"n_dots":2.95,"target":"right","response":"right","rt":414,"correct":true,"confidence":3},{"trial_n":68,"n_dots":2.95,"target":"right","response":"left","rt":922,"correct":false,"confidence":2},{"trial_n":69,"n_dots":3.05,"target":"left","response":"left","rt":742,"correct":true,"confidence":4},{"trial_n":70,"n_dots":3.05,"target":"left","response":"left","rt":925,"correct":true,"confidence":1},{"trial_n":71,"n_dots":2.95,"target":"right","response":"right","rt":423,"correct":true,"confidence":1},{"trial_n":72,"n_dots":2.95,"target":"right","response":"right","rt":346,"correct":true,"confidence":3},{"trial_n":73,"n_dots":2.85,"target":"left","response":"right","rt":2724.0000000001,"correct":false,"confidence":1},{"trial_n":74,"n_dots":2.95,"target":"right","response":"left","rt":756,"correct":false,"confidence":1},{"trial_n":75,"n_dots":3.05,"target":"left","response":"left","rt":938,"correct":true,"confidence":2},{"trial_n":76,"n_dots":3.05,"target":"left","response":"right","rt":266,"correct":false,"confidence":1},{"trial_n":77,"n_dots":3.15,"target":"right","response":"right","rt":385,"correct":true,"confidence":3},{"trial_n":78,"n_dots":3.15,"target":"left","response":"left","rt":489,"correct":true,"confidence":2},{"trial_n":79,"n_dots":3.05,"target":"right","response":"right","rt":623,"correct":true,"confidence":2},{"trial_n":80,"n_dots":3.05,"target":"left","response":"left","rt":697,"correct":true,"confidence":3},{"trial_n":81,"n_dots":2.95,"target":"left","response":"left","rt":993,"correct":true,"confidence":2},{"trial_n":82,"n_dots":2.95,"target":"left","response":"left","rt":789,"correct":true,"confidence":3},{"trial_n":83,"n_dots":2.85,"target":"left","response":"right","rt":315.99999999994,"correct":false,"confidence":2},{"trial_n":84,"n_dots":2.95,"target":"left","response":"left","rt":512,"correct":true,"confidence":2},{"trial_n":85,"n_dots":2.95,"target":"left","response":"left","rt":579,"correct":true,"confidence":3},{"trial_n":86,"n_dots":2.85,"target":"left","response":"left","rt":770,"correct":true,"confidence":3},{"trial_n":87,"n_dots":2.85,"target":"left","response":"left","rt":617,"correct":true,"confidence":3},{"trial_n":88,"n_dots":2.75,"target":"right","response":"left","rt":2070,"correct":false,"confidence":1},{"trial_n":89,"n_dots":2.85,"target":"right","response":"right","rt":850,"correct":true,"confidence":1},{"trial_n":90,"n_dots":2.85,"target":"right","response":"right","rt":814,"correct":true,"confidence":1},{"trial_n":91,"n_dots":2.75,"target":"left","response":"right","rt":1599,"correct":false,"confidence":1},{"trial_n":92,"n_dots":2.85,"target":"left","response":"left","rt":1171,"correct":true,"confidence":2},{"trial_n":93,"n_dots":2.85,"target":"left","response":"left","rt":897,"correct":true,"confidence":3},{"trial_n":94,"n_dots":2.75,"target":"right","response":"right","rt":1071,"correct":true,"confidence":2},{"trial_n":95,"n_dots":2.75,"target":"right","response":"right","rt":662.00000000006,"correct":true,"confidence":2},{"trial_n":96,"n_dots":2.65,"target":"right","response":"right","rt":509,"correct":true,"confidence":2},{"trial_n":97,"n_dots":2.65,"target":"left","response":"left","rt":1315,"correct":true,"confidence":2},{"trial_n":98,"n_dots":2.55,"target":"right","response":"left","rt":809,"correct":false,"confidence":2},{"trial_n":99,"n_dots":2.65,"target":"right","response":"right","rt":360.99999999994,"correct":true,"confidence":2},{"trial_n":100,"n_dots":2.65,"target":"right","response":"left","rt":782,"correct":false,"confidence":2},{"trial_n":101,"n_dots":2.75,"target":"right","response":"right","rt":991.99999999994,"correct":true,"confidence":3},{"trial_n":102,"n_dots":2.75,"target":"left","response":"left","rt":819,"correct":true,"confidence":3},{"trial_n":103,"n_dots":2.65,"target":"left","response":"left","rt":680,"correct":true,"confidence":2},{"trial_n":104,"n_dots":2.65,"target":"right","response":"left","rt":1037.0000000001,"correct":false,"confidence":2},{"trial_n":105,"n_dots":2.75,"target":"left","response":"left","rt":691,"correct":true,"confidence":2},{"trial_n":106,"n_dots":2.75,"target":"left","response":"left","rt":709,"correct":true,"confidence":2},{"trial_n":107,"n_dots":2.65,"target":"right","response":"right","rt":659,"correct":true,"confidence":2},{"trial_n":108,"n_dots":2.65,"target":"left","response":"left","rt":752.99999999994,"correct":true,"confidence":2},{"trial_n":109,"n_dots":2.55,"target":"right","response":"left","rt":632.99999999994,"correct":false,"confidence":2},{"trial_n":110,"n_dots":2.65,"target":"left","response":"right","rt":437,"correct":false,"confidence":3},{"trial_n":111,"n_dots":2.75,"target":"left","response":"right","rt":2116,"correct":false,"confidence":3},{"trial_n":112,"n_dots":2.85,"target":"right","response":"left","rt":1354,"correct":false,"confidence":2},{"trial_n":113,"n_dots":2.95,"target":"right","response":"left","rt":1094,"correct":false,"confidence":3},{"trial_n":114,"n_dots":3.05,"target":"right","response":"left","rt":1698.9999999999,"correct":false,"confidence":2},{"trial_n":115,"n_dots":3.15,"target":"left","response":"left","rt":1650,"correct":true,"confidence":3},{"trial_n":116,"n_dots":3.15,"target":"right","response":"right","rt":1344,"correct":true,"confidence":3},{"trial_n":117,"n_dots":3.05,"target":"left","response":"left","rt":982.00000000006,"correct":true,"confidence":3},{"trial_n":118,"n_dots":3.05,"target":"right","response":"right","rt":590.00000000006,"correct":true,"confidence":4},{"trial_n":119,"n_dots":2.95,"target":"right","response":"right","rt":894.99999999994,"correct":true,"confidence":4},{"trial_n":120,"n_dots":2.95,"target":"right","response":"right","rt":1296.0000000001,"correct":true,"confidence":3}]