[{"trial_n":1,"min":25,"max":230,"target":"present","response":"present","rt":13691,"correct":true,"confidence":-1},{"trial_n":2,"min":25,"max":230,"target":"present","response":"present","rt":701.99999999999,"correct":true,"confidence":-1},{"trial_n":3,"min":41,"max":214,"target":"absent","response":"absent","rt":506,"correct":true,"confidence":-1},{"trial_n":4,"min":41,"max":214,"target":"absent","response":"absent","rt":406.99999999999,"correct":true,"confidence":-1},{"trial_n":5,"min":57,"max":198,"target":"present","response":"present","rt":517,"correct":true,"confidence":-1},{"trial_n":6,"min":57,"max":198,"target":"absent","response":"absent","rt":385,"correct":true,"confidence":-1},{"trial_n":7,"min":73,"max":182,"target":"present","response":"present","rt":892,"correct":true,"confidence":-1},{"trial_n":8,"min":73,"max":182,"target":"present","response":"absent","rt":4264,"correct":false,"confidence":-1},{"trial_n":9,"min":57,"max":198,"target":"present","response":"present","rt":583,"correct":true,"confidence":-1},{"trial_n":10,"min":57,"max":198,"target":"absent","response":"present","rt":1074,"correct":false,"confidence":-1},{"trial_n":11,"min":49,"max":206,"target":"present","response":"absent","rt":388.99999999999,"correct":false,"confidence":-1},{"trial_n":12,"min":41,"max":214,"target":"absent","response":"absent","rt":1318,"correct":true,"confidence":-1},{"trial_n":13,"min":41,"max":214,"target":"absent","response":"absent","rt":397,"correct":true,"confidence":-1},{"trial_n":14,"min":49,"max":206,"target":"present","response":"present","rt":336.99999999999,"correct":true,"confidence":-1},{"trial_n":15,"min":49,"max":206,"target":"absent","response":"absent","rt":893,"correct":true,"confidence":-1},{"trial_n":16,"min":57,"max":198,"target":"absent","response":"absent","rt":1011,"correct":true,"confidence":-1},{"trial_n":17,"min":57,"max":198,"target":"absent","response":"absent","rt":424,"correct":true,"confidence":-1},{"trial_n":18,"min":65,"max":190,"target":"present","response":"present","rt":477,"correct":true,"confidence":-1},{"trial_n":19,"min":65,"max":190,"target":"absent","response":"absent","rt":517,"correct":true,"confidence":-1},{"trial_n":20,"min":73,"max":182,"target":"present","response":"present","rt":503,"correct":true,"confidence":-1},{"trial_n":21,"min":73,"max":182,"target":"present","response":"present","rt":578,"correct":true,"confidence":5},{"trial_n":22,"min":77,"max":178,"target":"present","response":"present","rt":757.99999999999,"correct":true,"confidence":4},{"trial_n":23,"min":77,"max":178,"target":"present","response":"present","rt":785,"correct":true,"confidence":5},{"trial_n":24,"min":81,"max":174,"target":"present","response":"absent","rt":588,"correct":false,"confidence":5},{"trial_n":25,"min":77,"max":178,"target":"present","response":"present","rt":2529,"correct":true,"confidence":3},{"trial_n":26,"min":77,"max":178,"target":"absent","response":"absent","rt":587,"correct":true,"confidence":3},{"trial_n":27,"min":81,"max":174,"target":"absent","response":"absent","rt":700,"correct":true,"confidence":3},{"trial_n":28,"min":81,"max":174,"target":"present","response":"absent","rt":1299,"correct":false,"confidence":3},{"trial_n":29,"min":77,"max":178,"target":"absent","response":"absent","rt":696,"correct":true,"confidence":4},{"trial_n":30,"min":77,"max":178,"target":"absent","response":"absent","rt":1258,"correct":true,"confidence":4},{"trial_n":31,"min":79,"max":176,"target":"present","response":"absent","rt":491,"correct":false,"confidence":3},{"trial_n":32,"min":77,"max":178,"target":"absent","response":"absent","rt":1258.9999999999,"correct":true,"confidence":3},{"trial_n":33,"min":77,"max":178,"target":"present","response":"present","rt":1221,"correct":true,"confidence":4},{"trial_n":34,"min":79,"max":176,"target":"present","response":"absent","rt":759.99999999994,"correct":false,"confidence":3},{"trial_n":35,"min":77,"max":178,"target":"present","response":"absent","rt":805,"correct":false,"confidence":3},{"trial_n":36,"min":75,"max":180,"target":"absent","response":"absent","rt":613.00000000006,"correct":true,"confidence":3},{"trial_n":37,"min":75,"max":180,"target":"absent","response":"absent","rt":431,"correct":true,"confidence":3},{"trial_n":38,"min":77,"max":178,"target":"present","response":"absent","rt":1365,"correct":false,"confidence":2},{"trial_n":39,"min":75,"max":180,"target":"present","response":"present","rt":1199.0000000001,"correct":true,"confidence":3},{"trial_n":40,"min":75,"max":180,"target":"present","response":"absent","rt":643,"correct":false,"confidence":2},{"trial_n":41,"min":74,"max":181,"target":"absent","response":"absent","rt":392.00000000006,"correct":true,"confidence":3},{"trial_n":42,"min":74,"max":181,"target":"present","response":"absent","rt":873,"correct":false,"confidence":3},{"trial_n":43,"min":73,"max":182,"target":"present","response":"present","rt":1143,"correct":true,"confidence":4},{"trial_n":44,"min":73,"max":182,"target":"present","response":"present","rt":566,"correct":true,"confidence":4},{"trial_n":45,"min":74,"max":181,"target":"absent","response":"absent","rt":299.99999999994,"correct":true,"confidence":4},{"trial_n":46,"min":74,"max":181,"target":"present","response":"present","rt":1031.0000000001,"correct":true,"confidence":3},{"trial_n":47,"min":75,"max":180,"target":"absent","response":"absent","rt":394,"correct":true,"confidence":3},{"trial_n":48,"min":75,"max":180,"target":"present","response":"absent","rt":752,"correct":false,"confidence":2},{"trial_n":49,"min":74,"max":181,"target":"absent","response":"absent","rt":1483,"correct":true,"confidence":2},{"trial_n":50,"min":74,"max":181,"target":"present","response":"present","rt":1347,"correct":true,"confidence":3},{"trial_n":51,"min":75,"max":180,"target":"absent","response":"absent","rt":382.00000000006,"correct":true,"confidence":3},{"trial_n":52,"min":75,"max":180,"target":"absent","response":"absent","rt":365,"correct":true,"confidence":4},{"trial_n":53,"min":76,"max":179,"target":"absent","response":"absent","rt":565,"correct":true,"confidence":4},{"trial_n":54,"min":76,"max":179,"target":"absent","response":"absent","rt":536,"correct":true,"confidence":3},{"trial_n":55,"min":77,"max":178,"target":"present","response":"present","rt":972,"correct":true,"confidence":4},{"trial_n":56,"min":77,"max":178,"target":"present","response":"present","rt":1027,"correct":true,"confidence":4},{"trial_n":57,"min":78,"max":177,"target":"absent","response":"absent","rt":437,"correct":true,"confidence":4},{"trial_n":58,"min":78,"max":177,"target":"absent","response":"absent","rt":283,"correct":true,"confidence":4},{"trial_n":59,"min":79,"max":176,"target":"present","response":"present","rt":1039,"correct":true,"confidence":4},{"trial_n":60,"min":79,"max":176,"target":"present","response":"absent","rt":585,"correct":false,"confidence":4},{"trial_n":61,"min":78,"max":177,"target":"absent","response":"absent","rt":352,"correct":true,"confidence":3},{"trial_n":62,"min":78,"max":177,"target":"absent","response":"absent","rt":479,"correct":true,"confidence":3},{"trial_n":63,"min":79,"max":176,"target":"absent","response":"absent","rt":364,"correct":true,"confidence":4},{"trial_n":64,"min":79,"max":176,"target":"absent","response":"absent","rt":400,"correct":true,"confidence":4},{"trial_n":65,"min":80,"max":175,"target":"present","response":"present","rt":925,"correct":true,"confidence":3},{"trial_n":66,"min":80,"max":175,"target":"present","response":"present","rt":1153,"correct":true,"confidence":4},{"trial_n":67,"min":81,"max":174,"target":"absent","response":"absent","rt":413.99999999994,"correct":true,"confidence":3},{"trial_n":68,"min":81,"max":174,"target":"absent","response":"absent","rt":562,"correct":true,"confidence":3},{"trial_n":69,"min":82,"max":173,"target":"absent","response":"absent","rt":376,"correct":true,"confidence":3},{"trial_n":70,"min":82,"max":173,"target":"present","response":"absent","rt":461,"correct":false,"confidence":2},{"trial_n":71,"min":41,"max":214,"target":"present","response":"present","rt":2434,"correct":true,"confidence":-1},{"trial_n":72,"min":41,"max":214,"target":"present","response":"present","rt":863,"correct":true,"confidence":-1},{"trial_n":73,"min":57,"max":198,"target":"absent","response":"absent","rt":486,"correct":true,"confidence":-1},{"trial_n":74,"min":57,"max":198,"target":"absent","response":"absent","rt":525,"correct":true,"confidence":-1},{"trial_n":75,"min":73,"max":182,"target":"present","response":"present","rt":487,"correct":true,"confidence":-1},{"trial_n":76,"min":73,"max":182,"target":"present","response":"present","rt":284,"correct":true,"confidence":-1},{"trial_n":77,"min":89,"max":166,"target":"present","response":"present","rt":516,"correct":true,"confidence":-1},{"trial_n":78,"min":89,"max":166,"target":"absent","response":"absent","rt":664,"correct":true,"confidence":-1},{"trial_n":79,"min":105,"max":150,"target":"present","response":"present","rt":905,"correct":true,"confidence":-1},{"trial_n":80,"min":105,"max":150,"target":"absent","response":"present","rt":866.00000000006,"correct":false,"confidence":-1},{"trial_n":81,"min":97,"max":158,"target":"present","response":"present","rt":904,"correct":true,"confidence":-1},{"trial_n":82,"min":97,"max":158,"target":"absent","response":"absent","rt":1310,"correct":true,"confidence":-1},{"trial_n":83,"min":105,"max":150,"target":"absent","response":"present","rt":494,"correct":false,"confidence":-1},{"trial_n":84,"min":97,"max":158,"target":"present","response":"absent","rt":586,"correct":false,"confidence":-1},{"trial_n":85,"min":89,"max":166,"target":"present","response":"present","rt":518.99999999994,"correct":true,"confidence":-1},{"trial_n":86,"min":89,"max":166,"target":"absent","response":"present","rt":1090,"correct":false,"confidence":-1},{"trial_n":87,"min":81,"max":174,"target":"present","response":"present","rt":556,"correct":true,"confidence":-1},{"trial_n":88,"min":81,"max":174,"target":"absent","response":"present","rt":684.00000000006,"correct":false,"confidence":-1},{"trial_n":89,"min":73,"max":182,"target":"present","response":"absent","rt":706,"correct":false,"confidence":-1},{"trial_n":90,"min":65,"max":190,"target":"absent","response":"absent","rt":559.99999999994,"correct":true,"confidence":-1},{"trial_n":91,"min":65,"max":190,"target":"absent","response":"absent","rt":487,"correct":true,"confidence":5},{"trial_n":92,"min":69,"max":186,"target":"absent","response":"absent","rt":1305,"correct":true,"confidence":5},{"trial_n":93,"min":69,"max":186,"target":"absent","response":"present","rt":549,"correct":false,"confidence":4},{"trial_n":94,"min":65,"max":190,"target":"absent","response":"absent","rt":962,"correct":true,"confidence":4},{"trial_n":95,"min":65,"max":190,"target":"present","response":"present","rt":289,"correct":true,"confidence":5},{"trial_n":96,"min":69,"max":186,"target":"absent","response":"absent","rt":846,"correct":true,"confidence":5},{"trial_n":97,"min":69,"max":186,"target":"present","response":"present","rt":239,"correct":true,"confidence":5},{"trial_n":98,"min":73,"max":182,"target":"absent","response":"absent","rt":1660.0000000001,"correct":true,"confidence":4},{"trial_n":99,"min":73,"max":182,"target":"present","response":"present","rt":169,"correct":true,"confidence":3},{"trial_n":100,"min":77,"max":178,"target":"present","response":"present","rt":694,"correct":true,"confidence":4},{"trial_n":101,"min":77,"max":178,"target":"present","response":"present","rt":1329.9999999999,"correct":true,"confidence":2},{"trial_n":102,"min":79,"max":176,"target":"present","response":"present","rt":551.00000000012,"correct":true,"confidence":5},{"trial_n":103,"min":79,"max":176,"target":"present","response":"present","rt":268,"correct":true,"confidence":5},{"trial_n":104,"min":81,"max":174,"target":"absent","response":"absent","rt":2477.9999999999,"correct":true,"confidence":3},{"trial_n":105,"min":81,"max":174,"target":"present","response":"present","rt":549,"correct":true,"confidence":3},{"trial_n":106,"min":83,"max":172,"target":"present","response":"present","rt":403,"correct":true,"confidence":3},{"trial_n":107,"min":83,"max":172,"target":"absent","response":"absent","rt":627,"correct":true,"confidence":3},{"trial_n":108,"min":85,"max":170,"target":"absent","response":"absent","rt":1112,"correct":true,"confidence":2},{"trial_n":109,"min":85,"max":170,"target":"present","response":"present","rt":441,"correct":true,"confidence":3},{"trial_n":110,"min":87,"max":168,"target":"present","response":"present","rt":475,"correct":true,"confidence":3},{"trial_n":111,"min":87,"max":168,"target":"present","response":"present","rt":472,"correct":true,"confidence":3},{"trial_n":112,"min":88,"max":167,"target":"absent","response":"present","rt":592,"correct":false,"confidence":3},{"trial_n":113,"min":87,"max":168,"target":"present","response":"absent","rt":1482,"correct":false,"confidence":3},{"trial_n":114,"min":86,"max":169,"target":"absent","response":"absent","rt":922,"correct":true,"confidence":1},{"trial_n":115,"min":86,"max":169,"target":"present","response":"present","rt":392.99999999988,"correct":true,"confidence":3},{"trial_n":116,"min":87,"max":168,"target":"absent","response":"absent","rt":1100,"correct":true,"confidence":3},{"trial_n":117,"min":87,"max":168,"target":"absent","response":"absent","rt":590,"correct":true,"confidence":1},{"trial_n":118,"min":88,"max":167,"target":"present","response":"present","rt":856,"correct":true,"confidence":2},{"trial_n":119,"min":88,"max":167,"target":"absent","response":"present","rt":332,"correct":false,"confidence":2},{"trial_n":120,"min":87,"max":168,"target":"absent","response":"present","rt":692,"correct":false,"confidence":1},{"trial_n":121,"min":86,"max":169,"target":"absent","response":"present","rt":474,"correct":false,"confidence":1},{"trial_n":122,"min":85,"max":170,"target":"present","response":"present","rt":451,"correct":true,"confidence":3},{"trial_n":123,"min":85,"max":170,"target":"present","response":"present","rt":280,"correct":true,"confidence":2},{"trial_n":124,"min":86,"max":169,"target":"present","response":"present","rt":825,"correct":true,"confidence":3},{"trial_n":125,"min":86,"max":169,"target":"absent","response":"present","rt":561,"correct":false,"confidence":1},{"trial_n":126,"min":85,"max":170,"target":"present","response":"absent","rt":1763,"correct":false,"confidence":1},{"trial_n":127,"min":84,"max":171,"target":"absent","response":"present","rt":344,"correct":false,"confidence":1},{"trial_n":128,"min":83,"max":172,"target":"present","response":"present","rt":771,"correct":true,"confidence":3},{"trial_n":129,"min":83,"max":172,"target":"present","response":"present","rt":685.00000000012,"correct":true,"confidence":1},{"trial_n":130,"min":84,"max":171,"target":"present","response":"present","rt":409,"correct":true,"confidence":3},{"trial_n":131,"min":84,"max":171,"target":"absent","response":"absent","rt":977,"correct":true,"confidence":1},{"trial_n":132,"min":85,"max":170,"target":"present","response":"absent","rt":721,"correct":false,"confidence":1},{"trial_n":133,"min":84,"max":171,"target":"absent","response":"present","rt":592,"correct":false,"confidence":1},{"trial_n":134,"min":83,"max":172,"target":"absent","response":"present","rt":467.99999999988,"correct":false,"confidence":1},{"trial_n":135,"min":82,"max":173,"target":"absent","response":"present","rt":527,"correct":false,"confidence":1},{"trial_n":136,"min":81,"max":174,"target":"absent","response":"absent","rt":461,"correct":true,"confidence":1},{"trial_n":137,"min":81,"max":174,"target":"absent","response":"absent","rt":901.99999999988,"correct":true,"confidence":1},{"trial_n":138,"min":82,"max":173,"target":"absent","response":"present","rt":754,"correct":false,"confidence":1},{"trial_n":139,"min":81,"max":174,"target":"present","response":"present","rt":398,"correct":true,"confidence":3},{"trial_n":140,"min":81,"max":174,"target":"present","response":"present","rt":1004,"correct":true,"confidence":1}]