[{"trial_n":1,"min":25,"max":230,"target":"present","response":"present","rt":4767.1000000238,"correct":true,"confidence":-1},{"trial_n":2,"min":25,"max":230,"target":"present","response":"present","rt":1770.3999999762,"correct":true,"confidence":-1},{"trial_n":3,"min":41,"max":214,"target":"absent","response":"absent","rt":1357.8000000119,"correct":true,"confidence":-1},{"trial_n":4,"min":41,"max":214,"target":"absent","response":"absent","rt":881.10000002384,"correct":true,"confidence":-1},{"trial_n":5,"min":57,"max":198,"target":"present","response":"present","rt":4863.5999999642,"correct":true,"confidence":-1},{"trial_n":6,"min":57,"max":198,"target":"present","response":"present","rt":1561.5999999642,"correct":true,"confidence":-1},{"trial_n":7,"min":73,"max":182,"target":"absent","response":"absent","rt":1173.9000000358,"correct":true,"confidence":-1},{"trial_n":8,"min":73,"max":182,"target":"present","response":"present","rt":1312.8000000119,"correct":true,"confidence":-1},{"trial_n":9,"min":89,"max":166,"target":"present","response":"absent","rt":907.10000002384,"correct":false,"confidence":-1},{"trial_n":10,"min":73,"max":182,"target":"absent","response":"absent","rt":706.60000002384,"correct":true,"confidence":-1},{"trial_n":11,"min":73,"max":182,"target":"absent","response":"absent","rt":368.5,"correct":true,"confidence":-1},{"trial_n":12,"min":81,"max":174,"target":"absent","response":"absent","rt":389.69999998808,"correct":true,"confidence":-1},{"trial_n":13,"min":81,"max":174,"target":"present","response":"absent","rt":369.80000001192,"correct":false,"confidence":-1},{"trial_n":14,"min":73,"max":182,"target":"absent","response":"absent","rt":4560.5,"correct":true,"confidence":-1},{"trial_n":15,"min":73,"max":182,"target":"absent","response":"absent","rt":1352.7999999523,"correct":true,"confidence":-1},{"trial_n":16,"min":81,"max":174,"target":"absent","response":"absent","rt":994.19999998808,"correct":true,"confidence":-1},{"trial_n":17,"min":81,"max":174,"target":"present","response":"absent","rt":3696.6999999881,"correct":false,"confidence":-1},{"trial_n":18,"min":73,"max":182,"target":"present","response":"present","rt":831.69999998808,"correct":true,"confidence":-1},{"trial_n":19,"min":73,"max":182,"target":"present","response":"present","rt":670.09999996424,"correct":true,"confidence":-1},{"trial_n":20,"min":81,"max":174,"target":"present","response":"present","rt":777.5,"correct":true,"confidence":-1},{"trial_n":21,"min":81,"max":174,"target":"present","response":"present","rt":621.80000001192,"correct":true,"confidence":5},{"trial_n":22,"min":85,"max":170,"target":"present","response":"present","rt":871.5,"correct":true,"confidence":5},{"trial_n":23,"min":85,"max":170,"target":"absent","response":"absent","rt":864.10000002384,"correct":true,"confidence":5},{"trial_n":24,"min":89,"max":166,"target":"absent","response":"absent","rt":1399.6999999881,"correct":true,"confidence":4},{"trial_n":25,"min":89,"max":166,"target":"present","response":"absent","rt":1573.7999999523,"correct":false,"confidence":4},{"trial_n":26,"min":85,"max":170,"target":"absent","response":"absent","rt":781.69999998808,"correct":true,"confidence":4},{"trial_n":27,"min":85,"max":170,"target":"absent","response":"absent","rt":966.79999995232,"correct":true,"confidence":4},{"trial_n":28,"min":89,"max":166,"target":"present","response":"absent","rt":1819.6999999881,"correct":false,"confidence":3},{"trial_n":29,"min":85,"max":170,"target":"absent","response":"absent","rt":840.30000001192,"correct":true,"confidence":5},{"trial_n":30,"min":85,"max":170,"target":"absent","response":"absent","rt":747.40000003576,"correct":true,"confidence":5},{"trial_n":31,"min":87,"max":168,"target":"absent","response":"present","rt":2396.8000000119,"correct":false,"confidence":4},{"trial_n":32,"min":85,"max":170,"target":"present","response":"present","rt":2302.5,"correct":true,"confidence":3},{"trial_n":33,"min":85,"max":170,"target":"absent","response":"absent","rt":1586.6999999881,"correct":true,"confidence":3},{"trial_n":34,"min":87,"max":168,"target":"absent","response":"present","rt":1376.8000000119,"correct":false,"confidence":4},{"trial_n":35,"min":85,"max":170,"target":"present","response":"absent","rt":1407.6000000238,"correct":false,"confidence":3},{"trial_n":36,"min":83,"max":172,"target":"absent","response":"present","rt":1399.5,"correct":false,"confidence":3},{"trial_n":37,"min":81,"max":174,"target":"present","response":"present","rt":1174.6999999881,"correct":true,"confidence":4},{"trial_n":38,"min":81,"max":174,"target":"present","response":"present","rt":744.10000002384,"correct":true,"confidence":5},{"trial_n":39,"min":83,"max":172,"target":"absent","response":"present","rt":1323.6999999881,"correct":false,"confidence":4},{"trial_n":40,"min":81,"max":174,"target":"present","response":"present","rt":712,"correct":true,"confidence":5},{"trial_n":41,"min":81,"max":174,"target":"present","response":"present","rt":912.80000001192,"correct":true,"confidence":5},{"trial_n":42,"min":82,"max":173,"target":"absent","response":"present","rt":1307.7999999523,"correct":false,"confidence":3},{"trial_n":43,"min":81,"max":174,"target":"absent","response":"present","rt":1256.7000000477,"correct":false,"confidence":2},{"trial_n":44,"min":80,"max":175,"target":"absent","response":"present","rt":1939.7999999523,"correct":false,"confidence":2},{"trial_n":45,"min":79,"max":176,"target":"present","response":"present","rt":874.89999997616,"correct":true,"confidence":5},{"trial_n":46,"min":79,"max":176,"target":"absent","response":"present","rt":953.69999998808,"correct":false,"confidence":4},{"trial_n":47,"min":78,"max":177,"target":"present","response":"present","rt":592.60000002384,"correct":true,"confidence":5},{"trial_n":48,"min":78,"max":177,"target":"present","response":"present","rt":1036.3999999762,"correct":true,"confidence":5},{"trial_n":49,"min":79,"max":176,"target":"present","response":"present","rt":598.30000001192,"correct":true,"confidence":5},{"trial_n":50,"min":79,"max":176,"target":"absent","response":"present","rt":847.19999998808,"correct":false,"confidence":5},{"trial_n":51,"min":78,"max":177,"target":"present","response":"present","rt":716,"correct":true,"confidence":5},{"trial_n":52,"min":78,"max":177,"target":"present","response":"present","rt":683.69999998808,"correct":true,"confidence":5},{"trial_n":53,"min":79,"max":176,"target":"present","response":"present","rt":748.40000003576,"correct":true,"confidence":5},{"trial_n":54,"min":79,"max":176,"target":"present","response":"present","rt":547.59999996424,"correct":true,"confidence":5},{"trial_n":55,"min":80,"max":175,"target":"present","response":"present","rt":494.5,"correct":true,"confidence":5},{"trial_n":56,"min":80,"max":175,"target":"absent","response":"present","rt":1472.0999999642,"correct":false,"confidence":3},{"trial_n":57,"min":79,"max":176,"target":"present","response":"present","rt":481.59999996424,"correct":true,"confidence":5},{"trial_n":58,"min":79,"max":176,"target":"present","response":"present","rt":710.89999997616,"correct":true,"confidence":5},{"trial_n":59,"min":80,"max":175,"target":"present","response":"present","rt":466.5,"correct":true,"confidence":5},{"trial_n":60,"min":80,"max":175,"target":"absent","response":"present","rt":1072.1999999881,"correct":false,"confidence":3},{"trial_n":61,"min":79,"max":176,"target":"absent","response":"present","rt":1062.1000000238,"correct":false,"confidence":3},{"trial_n":62,"min":78,"max":177,"target":"present","response":"present","rt":608.90000003576,"correct":true,"confidence":5},{"trial_n":63,"min":78,"max":177,"target":"absent","response":"present","rt":957.19999998808,"correct":false,"confidence":2},{"trial_n":64,"min":77,"max":178,"target":"present","response":"present","rt":511.40000003576,"correct":true,"confidence":5},{"trial_n":65,"min":77,"max":178,"target":"absent","response":"present","rt":1412.8000000119,"correct":false,"confidence":3},{"trial_n":66,"min":76,"max":179,"target":"absent","response":"present","rt":1014.5999999642,"correct":false,"confidence":3},{"trial_n":67,"min":75,"max":180,"target":"absent","response":"absent","rt":765.80000001192,"correct":true,"confidence":4},{"trial_n":68,"min":75,"max":180,"target":"present","response":"present","rt":593.5,"correct":true,"confidence":5},{"trial_n":69,"min":76,"max":179,"target":"absent","response":"absent","rt":832.5,"correct":true,"confidence":3},{"trial_n":70,"min":76,"max":179,"target":"absent","response":"absent","rt":1363.3000000119,"correct":true,"confidence":3},{"trial_n":71,"min":41,"max":214,"target":"present","response":"present","rt":2368.6999999881,"correct":true,"confidence":-1},{"trial_n":72,"min":41,"max":214,"target":"present","response":"present","rt":485.29999995232,"correct":true,"confidence":-1},{"trial_n":73,"min":57,"max":198,"target":"absent","response":"absent","rt":376.5,"correct":true,"confidence":-1},{"trial_n":74,"min":57,"max":198,"target":"absent","response":"absent","rt":573,"correct":true,"confidence":-1},{"trial_n":75,"min":73,"max":182,"target":"present","response":"present","rt":442.90000003576,"correct":true,"confidence":-1},{"trial_n":76,"min":73,"max":182,"target":"present","response":"present","rt":510.69999998808,"correct":true,"confidence":-1},{"trial_n":77,"min":89,"max":166,"target":"absent","response":"present","rt":1558,"correct":false,"confidence":-1},{"trial_n":78,"min":73,"max":182,"target":"present","response":"present","rt":850.89999997616,"correct":true,"confidence":-1},{"trial_n":79,"min":73,"max":182,"target":"absent","response":"absent","rt":563.40000003576,"correct":true,"confidence":-1},{"trial_n":80,"min":89,"max":166,"target":"present","response":"present","rt":441.30000001192,"correct":true,"confidence":-1},{"trial_n":81,"min":89,"max":166,"target":"present","response":"present","rt":406.40000003576,"correct":true,"confidence":-1},{"trial_n":82,"min":97,"max":158,"target":"present","response":"present","rt":663,"correct":true,"confidence":-1},{"trial_n":83,"min":97,"max":158,"target":"absent","response":"absent","rt":871.5,"correct":true,"confidence":-1},{"trial_n":84,"min":105,"max":150,"target":"absent","response":"absent","rt":497.80000001192,"correct":true,"confidence":-1},{"trial_n":85,"min":105,"max":150,"target":"absent","response":"absent","rt":952.89999997616,"correct":true,"confidence":-1},{"trial_n":86,"min":113,"max":142,"target":"present","response":"present","rt":389.19999998808,"correct":true,"confidence":-1},{"trial_n":87,"min":113,"max":142,"target":"absent","response":"present","rt":624.5,"correct":false,"confidence":-1},{"trial_n":88,"min":105,"max":150,"target":"present","response":"absent","rt":649.19999998808,"correct":false,"confidence":-1},{"trial_n":89,"min":97,"max":158,"target":"present","response":"present","rt":648,"correct":true,"confidence":-1},{"trial_n":90,"min":97,"max":158,"target":"absent","response":"present","rt":607.39999997616,"correct":false,"confidence":-1},{"trial_n":91,"min":93,"max":162,"target":"present","response":"present","rt":369.60000002384,"correct":true,"confidence":3},{"trial_n":92,"min":93,"max":162,"target":"present","response":"present","rt":429.30000001192,"correct":true,"confidence":3},{"trial_n":93,"min":97,"max":158,"target":"absent","response":"present","rt":1243.0999999642,"correct":false,"confidence":1},{"trial_n":94,"min":93,"max":162,"target":"present","response":"present","rt":368.80000001192,"correct":true,"confidence":4},{"trial_n":95,"min":93,"max":162,"target":"present","response":"present","rt":383.80000001192,"correct":true,"confidence":5},{"trial_n":96,"min":97,"max":158,"target":"absent","response":"present","rt":483.69999998808,"correct":false,"confidence":3},{"trial_n":97,"min":93,"max":162,"target":"absent","response":"present","rt":566.19999998808,"correct":false,"confidence":3},{"trial_n":98,"min":89,"max":166,"target":"present","response":"present","rt":649.19999998808,"correct":true,"confidence":4},{"trial_n":99,"min":89,"max":166,"target":"absent","response":"present","rt":1043.3000000119,"correct":false,"confidence":1},{"trial_n":100,"min":85,"max":170,"target":"absent","response":"present","rt":624.39999997616,"correct":false,"confidence":2},{"trial_n":101,"min":83,"max":172,"target":"present","response":"present","rt":309.5,"correct":true,"confidence":5},{"trial_n":102,"min":83,"max":172,"target":"absent","response":"present","rt":700,"correct":false,"confidence":3},{"trial_n":103,"min":81,"max":174,"target":"absent","response":"present","rt":639.29999995232,"correct":false,"confidence":4},{"trial_n":104,"min":79,"max":176,"target":"absent","response":"absent","rt":2164.1999999881,"correct":true,"confidence":2},{"trial_n":105,"min":79,"max":176,"target":"present","response":"present","rt":487.10000002384,"correct":true,"confidence":4},{"trial_n":106,"min":81,"max":174,"target":"present","response":"present","rt":519.19999998808,"correct":true,"confidence":5},{"trial_n":107,"min":81,"max":174,"target":"absent","response":"present","rt":1409.9000000358,"correct":false,"confidence":3},{"trial_n":108,"min":79,"max":176,"target":"absent","response":"present","rt":1076.5,"correct":false,"confidence":1},{"trial_n":109,"min":77,"max":178,"target":"absent","response":"present","rt":461.80000001192,"correct":false,"confidence":1},{"trial_n":110,"min":75,"max":180,"target":"absent","response":"present","rt":1178.6999999881,"correct":false,"confidence":1},{"trial_n":111,"min":74,"max":181,"target":"present","response":"present","rt":308.60000002384,"correct":true,"confidence":5},{"trial_n":112,"min":74,"max":181,"target":"absent","response":"absent","rt":1162.6000000238,"correct":true,"confidence":3},{"trial_n":113,"min":75,"max":180,"target":"present","response":"present","rt":320.19999998808,"correct":true,"confidence":5},{"trial_n":114,"min":75,"max":180,"target":"present","response":"present","rt":536.59999996424,"correct":true,"confidence":5},{"trial_n":115,"min":76,"max":179,"target":"absent","response":"absent","rt":1714.9000000358,"correct":true,"confidence":3},{"trial_n":116,"min":76,"max":179,"target":"absent","response":"absent","rt":935.5,"correct":true,"confidence":5},{"trial_n":117,"min":77,"max":178,"target":"present","response":"present","rt":324.10000002384,"correct":true,"confidence":5},{"trial_n":118,"min":77,"max":178,"target":"present","response":"present","rt":403.60000002384,"correct":true,"confidence":5},{"trial_n":119,"min":78,"max":177,"target":"present","response":"present","rt":484.10000002384,"correct":true,"confidence":5},{"trial_n":120,"min":78,"max":177,"target":"absent","response":"absent","rt":988.59999996424,"correct":true,"confidence":3},{"trial_n":121,"min":79,"max":176,"target":"absent","response":"present","rt":1003.5,"correct":false,"confidence":1},{"trial_n":122,"min":78,"max":177,"target":"absent","response":"present","rt":935.60000002384,"correct":false,"confidence":1},{"trial_n":123,"min":77,"max":178,"target":"present","response":"present","rt":515.30000001192,"correct":true,"confidence":5},{"trial_n":124,"min":77,"max":178,"target":"present","response":"present","rt":365,"correct":true,"confidence":5},{"trial_n":125,"min":78,"max":177,"target":"present","response":"present","rt":343.10000002384,"correct":true,"confidence":5},{"trial_n":126,"min":78,"max":177,"target":"absent","response":"absent","rt":1810,"correct":true,"confidence":1},{"trial_n":127,"min":79,"max":176,"target":"present","response":"present","rt":386.60000002384,"correct":true,"confidence":4},{"trial_n":128,"min":79,"max":176,"target":"absent","response":"present","rt":326.90000003576,"correct":false,"confidence":5},{"trial_n":129,"min":78,"max":177,"target":"present","response":"present","rt":636.60000002384,"correct":true,"confidence":5},{"trial_n":130,"min":78,"max":177,"target":"present","response":"present","rt":391.10000002384,"correct":true,"confidence":5},{"trial_n":131,"min":79,"max":176,"target":"present","response":"present","rt":174.90000003576,"correct":true,"confidence":5},{"trial_n":132,"min":79,"max":176,"target":"absent","response":"absent","rt":1404.8000000119,"correct":true,"confidence":1},{"trial_n":133,"min":80,"max":175,"target":"absent","response":"present","rt":812.89999997616,"correct":false,"confidence":3},{"trial_n":134,"min":79,"max":176,"target":"absent","response":"absent","rt":869.30000001192,"correct":true,"confidence":3},{"trial_n":135,"min":79,"max":176,"target":"present","response":"present","rt":364,"correct":true,"confidence":5},{"trial_n":136,"min":80,"max":175,"target":"absent","response":"absent","rt":1019.3999999762,"correct":true,"confidence":2},{"trial_n":137,"min":80,"max":175,"target":"present","response":"present","rt":328.39999997616,"correct":true,"confidence":5},{"trial_n":138,"min":81,"max":174,"target":"present","response":"present","rt":366.90000003576,"correct":true,"confidence":5},{"trial_n":139,"min":81,"max":174,"target":"present","response":"present","rt":1082.5,"correct":true,"confidence":2},{"trial_n":140,"min":82,"max":173,"target":"absent","response":"present","rt":864.30000001192,"correct":false,"confidence":2}]