[{"trial_n":1,"span":8,"encoder":"01727966","distractor":"01727066","target":"present","response":"present","rt":"3717.1999999881","correct":true,"confidence":-1},{"trial_n":2,"span":8,"encoder":"62639306","distractor":"69639306","target":"present","response":"present","rt":"3343.1000000238","correct":true,"confidence":-1},{"trial_n":3,"span":10,"encoder":"1348134478","distractor":"1348034478","target":"absent","response":"absent","rt":"2597.6999999881","correct":true,"confidence":-1},{"trial_n":4,"span":10,"encoder":"8486221960","distractor":"8482221960","target":"absent","response":"absent","rt":"2873.2000000477","correct":true,"confidence":-1},{"trial_n":5,"span":12,"encoder":"543687618991","distractor":"543687618491","target":"present","response":"absent","rt":"4626.1000000238","correct":false,"confidence":-1},{"trial_n":6,"span":10,"encoder":"1382359915","distractor":"1382659915","target":"absent","response":"present","rt":"3286.6000000238","correct":false,"confidence":-1},{"trial_n":7,"span":8,"encoder":"48980624","distractor":"48880624","target":"present","response":"absent","rt":"2574.1000000238","correct":false,"confidence":-1},{"trial_n":8,"span":6,"encoder":"134596","distractor":"136596","target":"present","response":"present","rt":"2616.8999999762","correct":true,"confidence":-1},{"trial_n":9,"span":6,"encoder":"598176","distractor":"593176","target":"absent","response":"absent","rt":"1860.5","correct":true,"confidence":-1},{"trial_n":10,"span":8,"encoder":"10084355","distractor":"19084355","target":"present","response":"absent","rt":"7931.8000000119","correct":false,"confidence":-1},{"trial_n":11,"span":6,"encoder":"946444","distractor":"946144","target":"absent","response":"absent","rt":"3824","correct":true,"confidence":-1},{"trial_n":12,"span":6,"encoder":"804563","distractor":"204563","target":"absent","response":"absent","rt":"1618.9000000358","correct":true,"confidence":-1},{"trial_n":13,"span":7,"encoder":"3000396","distractor":"3500396","target":"present","response":"present","rt":"2170.5","correct":true,"confidence":-1},{"trial_n":14,"span":7,"encoder":"6632107","distractor":"6632507","target":"absent","response":"absent","rt":"3124.8000000119","correct":true,"confidence":-1},{"trial_n":15,"span":8,"encoder":"04644983","distractor":"04544983","target":"absent","response":"absent","rt":"2292.8999999762","correct":true,"confidence":-1},{"trial_n":16,"span":8,"encoder":"47800339","distractor":"47800332","target":"present","response":"present","rt":"2197.8999999762","correct":true,"confidence":-1},{"trial_n":17,"span":9,"encoder":"080488457","distractor":"020488457","target":"absent","response":"absent","rt":"1516.3000000119","correct":true,"confidence":-1},{"trial_n":18,"span":9,"encoder":"740452560","distractor":"740552560","target":"present","response":"absent","rt":"4958.8000000119","correct":false,"confidence":-1},{"trial_n":19,"span":8,"encoder":"04196227","distractor":"04196267","target":"absent","response":"absent","rt":"4396.5999999642","correct":true,"confidence":-1},{"trial_n":20,"span":8,"encoder":"38997915","distractor":"38997916","target":"present","response":"present","rt":"3652.3000000119","correct":true,"confidence":-1},{"trial_n":21,"span":9,"encoder":"724105232","distractor":"728105232","target":"absent","response":"absent","rt":"1984.3000000119","correct":true,"confidence":4},{"trial_n":22,"span":9,"encoder":"777708596","distractor":"777768596","target":"present","response":"present","rt":"2461.3000000119","correct":true,"confidence":5},{"trial_n":23,"span":10,"encoder":"7229546531","distractor":"7229546431","target":"present","response":"absent","rt":"1785.1000000238","correct":false,"confidence":5},{"trial_n":24,"span":9,"encoder":"242015440","distractor":"242005440","target":"absent","response":"absent","rt":"3523.3000000119","correct":true,"confidence":3},{"trial_n":25,"span":9,"encoder":"776510625","distractor":"776810625","target":"absent","response":"absent","rt":"4892.4000000358","correct":true,"confidence":3},{"trial_n":26,"span":10,"encoder":"4347284697","distractor":"4347224697","target":"present","response":"present","rt":"3969.2000000477","correct":true,"confidence":3},{"trial_n":27,"span":10,"encoder":"2059165171","distractor":"2059166171","target":"absent","response":"present","rt":"2949.8999999762","correct":false,"confidence":3},{"trial_n":28,"span":9,"encoder":"168803975","distractor":"168803075","target":"present","response":"present","rt":"3327.6000000238","correct":true,"confidence":3},{"trial_n":29,"span":9,"encoder":"305983832","distractor":"305983831","target":"absent","response":"absent","rt":"4839.3000000119","correct":true,"confidence":5},{"trial_n":30,"span":10,"encoder":"7313777185","distractor":"7303777185","target":"present","response":"present","rt":"2847.9000000358","correct":true,"confidence":3},{"trial_n":31,"span":10,"encoder":"1606767518","distractor":"1606767512","target":"absent","response":"absent","rt":"2458.3000000119","correct":true,"confidence":5},{"trial_n":32,"span":11,"encoder":"70759363015","distractor":"70759363315","target":"absent","response":"absent","rt":"4958.1999999881","correct":true,"confidence":4},{"trial_n":33,"span":11,"encoder":"04989898357","distractor":"04989698357","target":"absent","response":"absent","rt":"4965.1999999881","correct":true,"confidence":4},{"trial_n":34,"span":12,"encoder":"674582616494","distractor":"634582616494","target":"absent","response":"present","rt":"5233.6999999881","correct":false,"confidence":3},{"trial_n":35,"span":11,"encoder":"74568985247","distractor":"74768985247","target":"absent","response":"present","rt":"4091.8999999762","correct":false,"confidence":3},{"trial_n":36,"span":10,"encoder":"7852088468","distractor":"7852088428","target":"absent","response":"absent","rt":"2234.5","correct":true,"confidence":5},{"trial_n":37,"span":10,"encoder":"8134987680","distractor":"8134937680","target":"present","response":"present","rt":"8714.9000000358","correct":true,"confidence":3},{"trial_n":38,"span":11,"encoder":"32936858114","distractor":"32936558114","target":"present","response":"present","rt":"5402.3000000119","correct":true,"confidence":3},{"trial_n":39,"span":11,"encoder":"99094922882","distractor":"79094922882","target":"absent","response":"absent","rt":"4382.8999999762","correct":true,"confidence":4},{"trial_n":40,"span":12,"encoder":"459342102190","distractor":"459342102790","target":"present","response":"present","rt":"4113.5999999642","correct":true,"confidence":3},{"trial_n":41,"span":12,"encoder":"492900410555","distractor":"452900410555","target":"present","response":"absent","rt":"2432.0999999642","correct":false,"confidence":4},{"trial_n":42,"span":11,"encoder":"05361956608","distractor":"05461956608","target":"absent","response":"present","rt":"4913.1000000238","correct":false,"confidence":3},{"trial_n":43,"span":10,"encoder":"0263446788","distractor":"0233446788","target":"absent","response":"present","rt":"2889.5","correct":false,"confidence":3},{"trial_n":44,"span":9,"encoder":"224916619","distractor":"234916619","target":"present","response":"present","rt":"2724.5999999642","correct":true,"confidence":2},{"trial_n":45,"span":9,"encoder":"701624554","distractor":"701624754","target":"present","response":"present","rt":"4551.6000000238","correct":true,"confidence":4},{"trial_n":46,"span":10,"encoder":"9016142932","distractor":"9016142832","target":"absent","response":"absent","rt":"4337.2999999523","correct":true,"confidence":4},{"trial_n":47,"span":10,"encoder":"2891434844","distractor":"2841434844","target":"absent","response":"absent","rt":"4487.3999999762","correct":true,"confidence":3},{"trial_n":48,"span":11,"encoder":"92967713941","distractor":"92967733941","target":"absent","response":"absent","rt":"5466.1999999881","correct":true,"confidence":3},{"trial_n":49,"span":11,"encoder":"25480962816","distractor":"25480952816","target":"absent","response":"present","rt":"3930.8999999762","correct":false,"confidence":2},{"trial_n":50,"span":10,"encoder":"5399640148","distractor":"5399640142","target":"present","response":"present","rt":"4234.0999999642","correct":true,"confidence":3},{"trial_n":51,"span":10,"encoder":"3990628435","distractor":"3590628435","target":"present","response":"present","rt":"6763.1999999881","correct":true,"confidence":2},{"trial_n":52,"span":11,"encoder":"12121078695","distractor":"12121078697","target":"present","response":"present","rt":"3498.2999999523","correct":true,"confidence":3},{"trial_n":53,"span":11,"encoder":"73039317371","distractor":"74039317371","target":"present","response":"present","rt":"2629.3999999762","correct":true,"confidence":3},{"trial_n":54,"span":12,"encoder":"622723575247","distractor":"624723575247","target":"present","response":"absent","rt":"3858.3000000119","correct":false,"confidence":3},{"trial_n":55,"span":11,"encoder":"14775067217","distractor":"14775067213","target":"present","response":"present","rt":"2909.6000000238","correct":true,"confidence":4},{"trial_n":56,"span":11,"encoder":"88299550467","distractor":"88269550467","target":"present","response":"present","rt":"3098.6999999881","correct":true,"confidence":4},{"trial_n":57,"span":12,"encoder":"862658077361","distractor":"869658077361","target":"present","response":"present","rt":"4449.2999999523","correct":true,"confidence":4},{"trial_n":58,"span":12,"encoder":"687581139600","distractor":"687781139600","target":"present","response":"present","rt":"6351.5","correct":true,"confidence":3},{"trial_n":59,"span":13,"encoder":"3947117878676","distractor":"3947117878671","target":"absent","response":"present","rt":"7753.1000000238","correct":false,"confidence":2},{"trial_n":60,"span":12,"encoder":"409669257077","distractor":"109669257077","target":"absent","response":"present","rt":"4180.1000000238","correct":false,"confidence":3},{"trial_n":61,"span":11,"encoder":"08872495893","distractor":"08872495833","target":"present","response":"present","rt":"4705.9000000358","correct":true,"confidence":2},{"trial_n":62,"span":11,"encoder":"83487450727","distractor":"83487455727","target":"present","response":"present","rt":"2335.4000000358","correct":true,"confidence":3},{"trial_n":63,"span":12,"encoder":"563335714474","distractor":"563335714494","target":"absent","response":"present","rt":"2719.6000000238","correct":false,"confidence":3},{"trial_n":64,"span":11,"encoder":"46844544948","distractor":"46844344948","target":"absent","response":"absent","rt":"1798.1999999881","correct":true,"confidence":5},{"trial_n":65,"span":11,"encoder":"93200472438","distractor":"93000472438","target":"present","response":"present","rt":"2321.6000000238","correct":true,"confidence":4},{"trial_n":66,"span":12,"encoder":"940912941336","distractor":"940412941336","target":"absent","response":"absent","rt":"3768.6999999881","correct":true,"confidence":3},{"trial_n":67,"span":12,"encoder":"302792934144","distractor":"302792934544","target":"present","response":"absent","rt":"3169.8999999762","correct":false,"confidence":4},{"trial_n":68,"span":11,"encoder":"84874045157","distractor":"84854045157","target":"present","response":"present","rt":"2078.2000000477","correct":true,"confidence":2},{"trial_n":69,"span":11,"encoder":"96946716143","distractor":"96946796143","target":"present","response":"present","rt":"2534.6999999881","correct":true,"confidence":3},{"trial_n":70,"span":12,"encoder":"303468461704","distractor":"363468461704","target":"absent","response":"absent","rt":"3624.8000000119","correct":true,"confidence":4},{"trial_n":71,"span":8,"encoder":"37987227","distractor":"34987227","target":"present","response":"present","rt":"9115.7999999523","correct":true,"confidence":-1},{"trial_n":72,"span":8,"encoder":"29941239","distractor":"29341239","target":"present","response":"absent","rt":"6090.6999999881","correct":false,"confidence":-1},{"trial_n":73,"span":7,"encoder":"5658513","distractor":"5658413","target":"absent","response":"absent","rt":"3029.2000000477","correct":true,"confidence":-1},{"trial_n":74,"span":7,"encoder":"5710332","distractor":"5718332","target":"absent","response":"absent","rt":"3533.5","correct":true,"confidence":-1},{"trial_n":75,"span":8,"encoder":"48204853","distractor":"48274853","target":"present","response":"present","rt":"2954.8999999762","correct":true,"confidence":-1},{"trial_n":76,"span":8,"encoder":"75482644","distractor":"75462644","target":"present","response":"absent","rt":"4639.1000000238","correct":false,"confidence":-1},{"trial_n":77,"span":7,"encoder":"8696988","distractor":"8696987","target":"present","response":"present","rt":"4408.3999999762","correct":true,"confidence":-1},{"trial_n":78,"span":7,"encoder":"0918113","distractor":"0918513","target":"present","response":"present","rt":"5219.6000000238","correct":true,"confidence":-1},{"trial_n":79,"span":8,"encoder":"80977353","distractor":"80937353","target":"present","response":"present","rt":"3947","correct":true,"confidence":-1},{"trial_n":80,"span":8,"encoder":"83540213","distractor":"83540216","target":"present","response":"present","rt":"2435.8999999762","correct":true,"confidence":-1},{"trial_n":81,"span":9,"encoder":"837299776","distractor":"831299776","target":"absent","response":"present","rt":"5452.6000000238","correct":false,"confidence":-1},{"trial_n":82,"span":8,"encoder":"48354976","distractor":"48354977","target":"absent","response":"absent","rt":"3328.6999999881","correct":true,"confidence":-1},{"trial_n":83,"span":8,"encoder":"38462300","distractor":"08462300","target":"absent","response":"present","rt":"4765.5","correct":false,"confidence":-1},{"trial_n":84,"span":7,"encoder":"8832691","distractor":"8832671","target":"absent","response":"absent","rt":"1995.8000000119","correct":true,"confidence":-1},{"trial_n":85,"span":7,"encoder":"3170124","distractor":"4170124","target":"present","response":"present","rt":"3275.6999999881","correct":true,"confidence":-1},{"trial_n":86,"span":8,"encoder":"39289313","distractor":"59289313","target":"present","response":"present","rt":"3219.8000000119","correct":true,"confidence":-1},{"trial_n":87,"span":8,"encoder":"53895148","distractor":"43895148","target":"present","response":"present","rt":"2703.5","correct":true,"confidence":-1},{"trial_n":88,"span":9,"encoder":"175128818","distractor":"175128848","target":"absent","response":"absent","rt":"1909.1999999881","correct":true,"confidence":-1},{"trial_n":89,"span":9,"encoder":"478664714","distractor":"478964714","target":"present","response":"present","rt":"2039.2000000477","correct":true,"confidence":-1},{"trial_n":90,"span":10,"encoder":"5086444238","distractor":"5086442238","target":"present","response":"absent","rt":"4856.9000000358","correct":false,"confidence":-1},{"trial_n":91,"span":9,"encoder":"811633335","distractor":"811633338","target":"present","response":"present","rt":"5631.6999999881","correct":true,"confidence":5},{"trial_n":92,"span":9,"encoder":"980022141","distractor":"180022141","target":"absent","response":"absent","rt":"4899.1999999881","correct":true,"confidence":4},{"trial_n":93,"span":10,"encoder":"5780818827","distractor":"5780818027","target":"absent","response":"present","rt":"7679.7999999523","correct":false,"confidence":2},{"trial_n":94,"span":9,"encoder":"857826525","distractor":"867826525","target":"absent","response":"absent","rt":"3315.0999999642","correct":true,"confidence":5},{"trial_n":95,"span":9,"encoder":"736628699","distractor":"736628399","target":"absent","response":"absent","rt":"5983","correct":true,"confidence":2},{"trial_n":96,"span":10,"encoder":"6079606350","distractor":"6079606360","target":"absent","response":"present","rt":"5368.5999999642","correct":false,"confidence":3},{"trial_n":97,"span":9,"encoder":"898220708","distractor":"898220008","target":"absent","response":"absent","rt":"3386","correct":true,"confidence":4},{"trial_n":98,"span":9,"encoder":"187542157","distractor":"186542157","target":"present","response":"present","rt":"5168.1999999881","correct":true,"confidence":3},{"trial_n":99,"span":10,"encoder":"0703029499","distractor":"0703099499","target":"absent","response":"absent","rt":"5599.2000000477","correct":true,"confidence":3},{"trial_n":100,"span":10,"encoder":"2452025754","distractor":"2452125754","target":"absent","response":"absent","rt":"5506.1999999881","correct":true,"confidence":4},{"trial_n":101,"span":11,"encoder":"51212114635","distractor":"54212114635","target":"present","response":"present","rt":"2437","correct":true,"confidence":5},{"trial_n":102,"span":11,"encoder":"43708744217","distractor":"43708744213","target":"present","response":"present","rt":"5239.1999999881","correct":true,"confidence":2},{"trial_n":103,"span":12,"encoder":"774793005499","distractor":"774783005499","target":"absent","response":"absent","rt":"4517.0999999642","correct":true,"confidence":5},{"trial_n":104,"span":12,"encoder":"426797963714","distractor":"426797967714","target":"absent","response":"absent","rt":"7738","correct":true,"confidence":2},{"trial_n":105,"span":13,"encoder":"3327269622722","distractor":"3327269622702","target":"present","response":"present","rt":"7888.6999999881","correct":true,"confidence":1},{"trial_n":106,"span":13,"encoder":"8554957336968","distractor":"8574957336968","target":"present","response":"present","rt":"5451.3000000119","correct":true,"confidence":4},{"trial_n":107,"span":14,"encoder":"01908999557958","distractor":"01907999557958","target":"absent","response":"absent","rt":"4131.6999999881","correct":true,"confidence":5},{"trial_n":108,"span":14,"encoder":"51249929692079","distractor":"59249929692079","target":"absent","response":"absent","rt":"5750.6999999881","correct":true,"confidence":1},{"trial_n":109,"span":15,"encoder":"946109719472111","distractor":"946109717472111","target":"present","response":"present","rt":"5539.0999999642","correct":true,"confidence":1},{"trial_n":110,"span":15,"encoder":"832399737734619","distractor":"832999737734619","target":"absent","response":"present","rt":"4435.0999999642","correct":false,"confidence":1},{"trial_n":111,"span":14,"encoder":"66062653450396","distractor":"66062653450596","target":"present","response":"absent","rt":"5624.1999999881","correct":false,"confidence":1},{"trial_n":112,"span":13,"encoder":"9251446978567","distractor":"9251446988567","target":"absent","response":"absent","rt":"10755.600000024","correct":true,"confidence":3},{"trial_n":113,"span":13,"encoder":"1760479716942","distractor":"1760479116942","target":"absent","response":"absent","rt":"6203","correct":true,"confidence":3},{"trial_n":114,"span":14,"encoder":"46362246970092","distractor":"46342246970092","target":"present","response":"present","rt":"4270.8999999762","correct":true,"confidence":1},{"trial_n":115,"span":14,"encoder":"04399386026801","distractor":"04392386026801","target":"absent","response":"present","rt":"9065.1999999881","correct":false,"confidence":3},{"trial_n":116,"span":13,"encoder":"9813267164746","distractor":"9813267160746","target":"absent","response":"present","rt":"10269.300000012","correct":false,"confidence":2},{"trial_n":117,"span":12,"encoder":"586506162639","distractor":"586506162629","target":"present","response":"present","rt":"2576","correct":true,"confidence":4},{"trial_n":118,"span":12,"encoder":"590137934980","distractor":"590137934380","target":"absent","response":"absent","rt":"2258.6999999881","correct":true,"confidence":5},{"trial_n":119,"span":13,"encoder":"3012491480487","distractor":"3012491480497","target":"absent","response":"absent","rt":"2154.3999999762","correct":true,"confidence":5},{"trial_n":120,"span":13,"encoder":"8609810854140","distractor":"8609810854160","target":"present","response":"present","rt":"3472.8000000119","correct":true,"confidence":5},{"trial_n":121,"span":14,"encoder":"76755574983050","distractor":"76755974983050","target":"present","response":"present","rt":"5345.5","correct":true,"confidence":3},{"trial_n":122,"span":14,"encoder":"94841529757309","distractor":"94841589757309","target":"present","response":"present","rt":"6149.3000000119","correct":true,"confidence":1},{"trial_n":123,"span":15,"encoder":"191282918769322","distractor":"191282918767322","target":"present","response":"present","rt":"9411.4000000358","correct":true,"confidence":2},{"trial_n":124,"span":15,"encoder":"979466783542526","distractor":"479466783542526","target":"present","response":"absent","rt":"6317.1999999881","correct":false,"confidence":1},{"trial_n":125,"span":14,"encoder":"29013440974028","distractor":"89013440974028","target":"present","response":"present","rt":"3072.3999999762","correct":true,"confidence":5},{"trial_n":126,"span":14,"encoder":"20748606135558","distractor":"22748606135558","target":"present","response":"present","rt":"3779.0999999642","correct":true,"confidence":5},{"trial_n":127,"span":15,"encoder":"435452352620547","distractor":"435452356620547","target":"present","response":"absent","rt":"5372.6000000238","correct":false,"confidence":1},{"trial_n":128,"span":14,"encoder":"00180601366371","distractor":"00180601369371","target":"present","response":"present","rt":"4873.5","correct":true,"confidence":3},{"trial_n":129,"span":14,"encoder":"10959498501786","distractor":"10959488501786","target":"present","response":"absent","rt":"5907","correct":false,"confidence":1},{"trial_n":130,"span":13,"encoder":"9292635963559","distractor":"9298635963559","target":"absent","response":"present","rt":"6437.8999999762","correct":false,"confidence":4},{"trial_n":131,"span":12,"encoder":"914552567692","distractor":"914557567692","target":"present","response":"present","rt":"5885","correct":true,"confidence":3},{"trial_n":132,"span":12,"encoder":"018164925030","distractor":"018164125030","target":"absent","response":"absent","rt":"5933","correct":true,"confidence":1},{"trial_n":133,"span":13,"encoder":"4163968719920","distractor":"4163968619920","target":"present","response":"present","rt":"3728.6999999881","correct":true,"confidence":5},{"trial_n":134,"span":13,"encoder":"7287769173593","distractor":"7297769173593","target":"absent","response":"absent","rt":"4188.5999999642","correct":true,"confidence":4},{"trial_n":135,"span":14,"encoder":"44081446126686","distractor":"44081546126686","target":"absent","response":"present","rt":"5355.7000000477","correct":false,"confidence":2},{"trial_n":136,"span":13,"encoder":"8471392953712","distractor":"5471392953712","target":"absent","response":"present","rt":"7888.3000000119","correct":false,"confidence":3},{"trial_n":137,"span":12,"encoder":"750214622452","distractor":"750214622472","target":"absent","response":"absent","rt":"6490.6999999881","correct":true,"confidence":3},{"trial_n":138,"span":12,"encoder":"300080085750","distractor":"300080085752","target":"absent","response":"absent","rt":"5247","correct":true,"confidence":4},{"trial_n":139,"span":13,"encoder":"3846430238172","distractor":"3846530238172","target":"present","response":"present","rt":"6737.3000000119","correct":true,"confidence":4},{"trial_n":140,"span":13,"encoder":"7192008174697","distractor":"7192078174697","target":"absent","response":"absent","rt":"5821.1999999881","correct":true,"confidence":3}]