[{"trial_n":1,"span":8,"encoder":"17227442","distractor":"17227412","target":"present","response":"absent","rt":"5317","correct":false,"confidence":-1},{"trial_n":2,"span":6,"encoder":"091778","distractor":"001778","target":"present","response":"present","rt":"3119","correct":true,"confidence":-1},{"trial_n":3,"span":6,"encoder":"601836","distractor":"601236","target":"absent","response":"absent","rt":"2005","correct":true,"confidence":-1},{"trial_n":4,"span":8,"encoder":"60489681","distractor":"60189681","target":"absent","response":"absent","rt":"1823","correct":true,"confidence":-1},{"trial_n":5,"span":8,"encoder":"03275784","distractor":"03205784","target":"present","response":"present","rt":"2290","correct":true,"confidence":-1},{"trial_n":6,"span":10,"encoder":"9220369490","distractor":"9220369440","target":"present","response":"absent","rt":"1484","correct":false,"confidence":-1},{"trial_n":7,"span":8,"encoder":"98466217","distractor":"98462217","target":"absent","response":"present","rt":"464.99999999999","correct":false,"confidence":-1},{"trial_n":8,"span":6,"encoder":"729700","distractor":"729709","target":"absent","response":"absent","rt":"1853","correct":true,"confidence":-1},{"trial_n":9,"span":6,"encoder":"511125","distractor":"511122","target":"absent","response":"absent","rt":"1206","correct":true,"confidence":-1},{"trial_n":10,"span":8,"encoder":"37358322","distractor":"67358322","target":"present","response":"absent","rt":"1908","correct":false,"confidence":-1},{"trial_n":11,"span":6,"encoder":"205836","distractor":"205826","target":"absent","response":"absent","rt":"2452","correct":true,"confidence":-1},{"trial_n":12,"span":6,"encoder":"581559","distractor":"581569","target":"absent","response":"absent","rt":"1887","correct":true,"confidence":-1},{"trial_n":13,"span":7,"encoder":"4463433","distractor":"4463933","target":"present","response":"absent","rt":"1163","correct":false,"confidence":-1},{"trial_n":14,"span":6,"encoder":"303393","distractor":"303593","target":"absent","response":"absent","rt":"1174","correct":true,"confidence":-1},{"trial_n":15,"span":6,"encoder":"287816","distractor":"287812","target":"absent","response":"absent","rt":"1051","correct":true,"confidence":-1},{"trial_n":16,"span":7,"encoder":"4056431","distractor":"4956431","target":"absent","response":"absent","rt":"1062","correct":true,"confidence":-1},{"trial_n":17,"span":7,"encoder":"2889524","distractor":"2889521","target":"present","response":"absent","rt":"1068","correct":false,"confidence":-1},{"trial_n":18,"span":6,"encoder":"272737","distractor":"232737","target":"absent","response":"present","rt":"1276","correct":false,"confidence":-1},{"trial_n":19,"span":5,"encoder":"42785","distractor":"72785","target":"absent","response":"present","rt":"2538","correct":false,"confidence":-1},{"trial_n":20,"span":4,"encoder":"5841","distractor":"5871","target":"present","response":"present","rt":"1580","correct":true,"confidence":-1},{"trial_n":21,"span":4,"encoder":"9916","distractor":"6916","target":"absent","response":"present","rt":"3267","correct":false,"confidence":3},{"trial_n":22,"span":3,"encoder":"969","distractor":"949","target":"present","response":"present","rt":"1494","correct":true,"confidence":4},{"trial_n":23,"span":3,"encoder":"501","distractor":"503","target":"present","response":"present","rt":"1201","correct":true,"confidence":5},{"trial_n":24,"span":4,"encoder":"4249","distractor":"8249","target":"absent","response":"absent","rt":"1738","correct":true,"confidence":5},{"trial_n":25,"span":4,"encoder":"6482","distractor":"6487","target":"present","response":"present","rt":"1608","correct":true,"confidence":5},{"trial_n":26,"span":5,"encoder":"89134","distractor":"86134","target":"present","response":"present","rt":"1980","correct":true,"confidence":5},{"trial_n":27,"span":5,"encoder":"33079","distractor":"33009","target":"present","response":"present","rt":"2873","correct":true,"confidence":5},{"trial_n":28,"span":6,"encoder":"022000","distractor":"022010","target":"present","response":"present","rt":"2791","correct":true,"confidence":4},{"trial_n":29,"span":6,"encoder":"510892","distractor":"570892","target":"absent","response":"absent","rt":"1798","correct":true,"confidence":4},{"trial_n":30,"span":7,"encoder":"3170807","distractor":"3070807","target":"present","response":"present","rt":"3839","correct":true,"confidence":4},{"trial_n":31,"span":7,"encoder":"1436894","distractor":"1736894","target":"absent","response":"absent","rt":"1234","correct":true,"confidence":5},{"trial_n":32,"span":8,"encoder":"48280098","distractor":"44280098","target":"absent","response":"absent","rt":"1735","correct":true,"confidence":4},{"trial_n":33,"span":8,"encoder":"10984044","distractor":"10914044","target":"present","response":"present","rt":"3755","correct":true,"confidence":5},{"trial_n":34,"span":9,"encoder":"249192202","distractor":"249692202","target":"present","response":"absent","rt":"2051","correct":false,"confidence":3},{"trial_n":35,"span":8,"encoder":"52171904","distractor":"52171704","target":"present","response":"absent","rt":"2857","correct":false,"confidence":3},{"trial_n":36,"span":7,"encoder":"0951061","distractor":"0971061","target":"absent","response":"absent","rt":"4003","correct":true,"confidence":3},{"trial_n":37,"span":7,"encoder":"9053515","distractor":"9053513","target":"absent","response":"absent","rt":"3336","correct":true,"confidence":5},{"trial_n":38,"span":8,"encoder":"59656022","distractor":"59656023","target":"absent","response":"absent","rt":"2771","correct":true,"confidence":4},{"trial_n":39,"span":8,"encoder":"33230630","distractor":"83230630","target":"present","response":"present","rt":"4195.0000000001","correct":true,"confidence":4},{"trial_n":40,"span":9,"encoder":"830668923","distractor":"830678923","target":"absent","response":"present","rt":"3130","correct":false,"confidence":5},{"trial_n":41,"span":8,"encoder":"65716941","distractor":"65715941","target":"absent","response":"absent","rt":"1353","correct":true,"confidence":5},{"trial_n":42,"span":8,"encoder":"22298968","distractor":"22298967","target":"present","response":"absent","rt":"2601","correct":false,"confidence":2},{"trial_n":43,"span":7,"encoder":"3996552","distractor":"3994552","target":"absent","response":"absent","rt":"2512","correct":true,"confidence":4},{"trial_n":44,"span":7,"encoder":"0339680","distractor":"0339880","target":"absent","response":"present","rt":"3664.0000000001","correct":false,"confidence":4},{"trial_n":45,"span":6,"encoder":"242958","distractor":"247958","target":"present","response":"absent","rt":"1729","correct":false,"confidence":4},{"trial_n":46,"span":5,"encoder":"53894","distractor":"53884","target":"absent","response":"absent","rt":"3854.0000000001","correct":true,"confidence":3},{"trial_n":47,"span":5,"encoder":"20307","distractor":"90307","target":"present","response":"present","rt":"1398","correct":true,"confidence":5},{"trial_n":48,"span":6,"encoder":"332312","distractor":"932312","target":"present","response":"present","rt":"2567.9999999999","correct":true,"confidence":4},{"trial_n":49,"span":6,"encoder":"535896","distractor":"535856","target":"present","response":"present","rt":"2314","correct":true,"confidence":5},{"trial_n":50,"span":7,"encoder":"6401363","distractor":"6401963","target":"absent","response":"absent","rt":"3691","correct":true,"confidence":4},{"trial_n":51,"span":7,"encoder":"0530373","distractor":"0530333","target":"absent","response":"absent","rt":"1934.9999999999","correct":true,"confidence":5},{"trial_n":52,"span":8,"encoder":"63862932","distractor":"63862938","target":"present","response":"absent","rt":"1249","correct":false,"confidence":2},{"trial_n":53,"span":7,"encoder":"7045473","distractor":"7245473","target":"present","response":"present","rt":"2745","correct":true,"confidence":4},{"trial_n":54,"span":7,"encoder":"8602568","distractor":"0602568","target":"present","response":"absent","rt":"2344","correct":false,"confidence":4},{"trial_n":55,"span":6,"encoder":"814863","distractor":"314863","target":"present","response":"absent","rt":"1826","correct":false,"confidence":3},{"trial_n":56,"span":5,"encoder":"04964","distractor":"09964","target":"present","response":"present","rt":"2024","correct":true,"confidence":5},{"trial_n":57,"span":5,"encoder":"99789","distractor":"29789","target":"absent","response":"absent","rt":"1582","correct":true,"confidence":5},{"trial_n":58,"span":6,"encoder":"993956","distractor":"793956","target":"present","response":"present","rt":"2482","correct":true,"confidence":5},{"trial_n":59,"span":6,"encoder":"198854","distractor":"198857","target":"absent","response":"absent","rt":"2441.0000000001","correct":true,"confidence":4},{"trial_n":60,"span":7,"encoder":"0073185","distractor":"0053185","target":"present","response":"present","rt":"3248","correct":true,"confidence":4},{"trial_n":61,"span":7,"encoder":"0782235","distractor":"0782255","target":"absent","response":"absent","rt":"2397","correct":true,"confidence":4},{"trial_n":62,"span":8,"encoder":"35375572","distractor":"35305572","target":"present","response":"present","rt":"2951","correct":true,"confidence":4},{"trial_n":63,"span":8,"encoder":"64184095","distractor":"64154095","target":"absent","response":"absent","rt":"2990.0000000001","correct":true,"confidence":4},{"trial_n":64,"span":9,"encoder":"836177309","distractor":"836177304","target":"present","response":"present","rt":"3134","correct":true,"confidence":2},{"trial_n":65,"span":9,"encoder":"160295653","distractor":"160255653","target":"present","response":"present","rt":"2404","correct":true,"confidence":2},{"trial_n":66,"span":10,"encoder":"4648201637","distractor":"4648301637","target":"present","response":"present","rt":"2618.0000000001","correct":true,"confidence":3},{"trial_n":67,"span":10,"encoder":"3024231285","distractor":"3024931285","target":"absent","response":"absent","rt":"2719","correct":true,"confidence":3},{"trial_n":68,"span":11,"encoder":"16480281637","distractor":"16480681637","target":"absent","response":"present","rt":"2248","correct":false,"confidence":4},{"trial_n":69,"span":10,"encoder":"1403387725","distractor":"1409387725","target":"present","response":"present","rt":"2473","correct":true,"confidence":4},{"trial_n":70,"span":10,"encoder":"4255563017","distractor":"4255563010","target":"absent","response":"absent","rt":"2784","correct":true,"confidence":4},{"trial_n":71,"span":8,"encoder":"60914240","distractor":"60934240","target":"present","response":"present","rt":"2676","correct":true,"confidence":-1},{"trial_n":72,"span":8,"encoder":"18910066","distractor":"18910069","target":"present","response":"absent","rt":"1817","correct":false,"confidence":-1},{"trial_n":73,"span":7,"encoder":"9661685","distractor":"9661645","target":"absent","response":"present","rt":"697","correct":false,"confidence":-1},{"trial_n":74,"span":6,"encoder":"166207","distractor":"156207","target":"absent","response":"absent","rt":"2628","correct":true,"confidence":-1},{"trial_n":75,"span":6,"encoder":"506756","distractor":"506726","target":"present","response":"present","rt":"2768","correct":true,"confidence":-1},{"trial_n":76,"span":7,"encoder":"4932806","distractor":"4937806","target":"present","response":"present","rt":"2075","correct":true,"confidence":-1},{"trial_n":77,"span":7,"encoder":"6469009","distractor":"6468009","target":"absent","response":"absent","rt":"2792","correct":true,"confidence":-1},{"trial_n":78,"span":8,"encoder":"26138298","distractor":"76138298","target":"present","response":"absent","rt":"688","correct":false,"confidence":-1},{"trial_n":79,"span":7,"encoder":"1411506","distractor":"1411526","target":"absent","response":"present","rt":"407","correct":false,"confidence":-1},{"trial_n":80,"span":6,"encoder":"654974","distractor":"654977","target":"absent","response":"present","rt":"699","correct":false,"confidence":-1},{"trial_n":81,"span":5,"encoder":"33421","distractor":"33427","target":"present","response":"present","rt":"597","correct":true,"confidence":-1},{"trial_n":82,"span":5,"encoder":"41913","distractor":"41943","target":"absent","response":"absent","rt":"338","correct":true,"confidence":-1},{"trial_n":83,"span":6,"encoder":"712271","distractor":"718271","target":"absent","response":"present","rt":"371","correct":false,"confidence":-1},{"trial_n":84,"span":5,"encoder":"37000","distractor":"34000","target":"absent","response":"present","rt":"774.99999999988","correct":false,"confidence":-1},{"trial_n":85,"span":4,"encoder":"1104","distractor":"8104","target":"present","response":"present","rt":"1269","correct":true,"confidence":-1},{"trial_n":86,"span":4,"encoder":"0382","distractor":"0682","target":"present","response":"present","rt":"1303","correct":true,"confidence":-1},{"trial_n":87,"span":5,"encoder":"12531","distractor":"22531","target":"absent","response":"absent","rt":"1491","correct":true,"confidence":-1},{"trial_n":88,"span":5,"encoder":"42501","distractor":"42541","target":"present","response":"present","rt":"1600","correct":true,"confidence":-1},{"trial_n":89,"span":6,"encoder":"790840","distractor":"190840","target":"present","response":"present","rt":"1774","correct":true,"confidence":-1},{"trial_n":90,"span":6,"encoder":"091544","distractor":"091564","target":"present","response":"absent","rt":"983","correct":false,"confidence":-1},{"trial_n":91,"span":5,"encoder":"08738","distractor":"08438","target":"absent","response":"absent","rt":"3053","correct":true,"confidence":5},{"trial_n":92,"span":5,"encoder":"49627","distractor":"49620","target":"absent","response":"absent","rt":"1428","correct":true,"confidence":5},{"trial_n":93,"span":6,"encoder":"728922","distractor":"778922","target":"present","response":"present","rt":"4103","correct":true,"confidence":5},{"trial_n":94,"span":6,"encoder":"514913","distractor":"504913","target":"absent","response":"absent","rt":"1671","correct":true,"confidence":5},{"trial_n":95,"span":7,"encoder":"9166250","distractor":"1166250","target":"absent","response":"absent","rt":"1204","correct":true,"confidence":5},{"trial_n":96,"span":7,"encoder":"2248590","distractor":"8248590","target":"absent","response":"absent","rt":"4921.0000000001","correct":true,"confidence":5},{"trial_n":97,"span":8,"encoder":"95115085","distractor":"95115025","target":"absent","response":"absent","rt":"4763","correct":true,"confidence":3},{"trial_n":98,"span":8,"encoder":"20494047","distractor":"20491047","target":"present","response":"present","rt":"4600","correct":true,"confidence":4},{"trial_n":99,"span":9,"encoder":"328220051","distractor":"328220031","target":"present","response":"present","rt":"6143","correct":true,"confidence":5},{"trial_n":100,"span":9,"encoder":"066303056","distractor":"066103056","target":"absent","response":"absent","rt":"3455","correct":true,"confidence":4},{"trial_n":101,"span":10,"encoder":"5019009543","distractor":"5019009343","target":"present","response":"absent","rt":"5320","correct":false,"confidence":2},{"trial_n":102,"span":9,"encoder":"058859732","distractor":"058859932","target":"absent","response":"absent","rt":"3762","correct":true,"confidence":3},{"trial_n":103,"span":9,"encoder":"963165957","distractor":"933165957","target":"present","response":"present","rt":"4003","correct":true,"confidence":3},{"trial_n":104,"span":10,"encoder":"8462365199","distractor":"8462325199","target":"absent","response":"present","rt":"4921.9999999999","correct":false,"confidence":2},{"trial_n":105,"span":9,"encoder":"729133193","distractor":"729133196","target":"absent","response":"absent","rt":"4287.0000000001","correct":true,"confidence":2},{"trial_n":106,"span":9,"encoder":"504770918","distractor":"508770918","target":"absent","response":"present","rt":"8038","correct":false,"confidence":2},{"trial_n":107,"span":8,"encoder":"56621679","distractor":"16621679","target":"absent","response":"absent","rt":"1940.0000000001","correct":true,"confidence":5},{"trial_n":108,"span":8,"encoder":"95784989","distractor":"95785989","target":"absent","response":"absent","rt":"5336","correct":true,"confidence":5},{"trial_n":109,"span":9,"encoder":"572359164","distractor":"575359164","target":"present","response":"present","rt":"7094","correct":true,"confidence":4},{"trial_n":110,"span":9,"encoder":"186981934","distractor":"126981934","target":"absent","response":"present","rt":"3885","correct":false,"confidence":3},{"trial_n":111,"span":8,"encoder":"07142968","distractor":"07142988","target":"present","response":"present","rt":"4154","correct":true,"confidence":5},{"trial_n":112,"span":8,"encoder":"06200945","distractor":"06200745","target":"present","response":"present","rt":"3038","correct":true,"confidence":4},{"trial_n":113,"span":9,"encoder":"472488667","distractor":"472488607","target":"present","response":"present","rt":"4523","correct":true,"confidence":4},{"trial_n":114,"span":9,"encoder":"927159827","distractor":"923159827","target":"present","response":"present","rt":"2786","correct":true,"confidence":3},{"trial_n":115,"span":10,"encoder":"3958771167","distractor":"3952771167","target":"present","response":"present","rt":"4323","correct":true,"confidence":5},{"trial_n":116,"span":10,"encoder":"8169196970","distractor":"8169996970","target":"present","response":"present","rt":"5996","correct":true,"confidence":3},{"trial_n":117,"span":11,"encoder":"40182240274","distractor":"40187240274","target":"present","response":"present","rt":"3196","correct":true,"confidence":4},{"trial_n":118,"span":11,"encoder":"41302884237","distractor":"41302684237","target":"present","response":"present","rt":"2870","correct":true,"confidence":4},{"trial_n":119,"span":12,"encoder":"815700753689","distractor":"815700753589","target":"present","response":"present","rt":"4070","correct":true,"confidence":4},{"trial_n":120,"span":12,"encoder":"276402040571","distractor":"276402040591","target":"present","response":"present","rt":"2568","correct":true,"confidence":4},{"trial_n":121,"span":13,"encoder":"8318610689394","distractor":"8318610689374","target":"present","response":"present","rt":"4343.9999999999","correct":true,"confidence":5},{"trial_n":122,"span":13,"encoder":"1434169938178","distractor":"1434169438178","target":"present","response":"present","rt":"2578.9999999999","correct":true,"confidence":4},{"trial_n":123,"span":14,"encoder":"08300242739274","distractor":"08300242539274","target":"absent","response":"present","rt":"6520.9999999999","correct":false,"confidence":2},{"trial_n":124,"span":13,"encoder":"9113345930391","distractor":"9113145930391","target":"present","response":"present","rt":"2165","correct":true,"confidence":5},{"trial_n":125,"span":13,"encoder":"4706948534444","distractor":"4706948534474","target":"absent","response":"absent","rt":"1660","correct":true,"confidence":5},{"trial_n":126,"span":14,"encoder":"36749399205598","distractor":"36749399295598","target":"present","response":"present","rt":"14581","correct":true,"confidence":1},{"trial_n":127,"span":14,"encoder":"36203608842070","distractor":"16203608842070","target":"present","response":"present","rt":"5524","correct":true,"confidence":1},{"trial_n":128,"span":15,"encoder":"173801131413610","distractor":"173801131813610","target":"present","response":"present","rt":"905","correct":true,"confidence":1},{"trial_n":129,"span":15,"encoder":"483044406166958","distractor":"483144406166958","target":"present","response":"absent","rt":"8456","correct":false,"confidence":1},{"trial_n":130,"span":14,"encoder":"24896630008287","distractor":"24896630008247","target":"absent","response":"absent","rt":"2311","correct":true,"confidence":4},{"trial_n":131,"span":14,"encoder":"13466936259773","distractor":"13466936257773","target":"absent","response":"absent","rt":"2294","correct":true,"confidence":2},{"trial_n":132,"span":15,"encoder":"919916024905304","distractor":"918916024905304","target":"absent","response":"absent","rt":"2160","correct":true,"confidence":1},{"trial_n":133,"span":15,"encoder":"169676115915432","distractor":"169676110915432","target":"absent","response":"present","rt":"2384","correct":false,"confidence":1},{"trial_n":134,"span":14,"encoder":"34983227620020","distractor":"34983227820020","target":"present","response":"present","rt":"3870","correct":true,"confidence":3},{"trial_n":135,"span":14,"encoder":"93960275651428","distractor":"93960274651428","target":"absent","response":"absent","rt":"5398","correct":true,"confidence":3},{"trial_n":136,"span":15,"encoder":"156705362571301","distractor":"156705362771301","target":"absent","response":"present","rt":"3530.9999999998","correct":false,"confidence":1},{"trial_n":137,"span":14,"encoder":"70579418417946","distractor":"70579418417246","target":"absent","response":"present","rt":"7275","correct":false,"confidence":1},{"trial_n":138,"span":13,"encoder":"6570264325758","distractor":"6570264325748","target":"absent","response":"present","rt":"810","correct":false,"confidence":1},{"trial_n":139,"span":12,"encoder":"269698365148","distractor":"269698365348","target":"absent","response":"absent","rt":"780","correct":true,"confidence":1},{"trial_n":140,"span":12,"encoder":"493089111984","distractor":"493089111974","target":"present","response":"present","rt":"4086","correct":true,"confidence":1}]