[{"trial_n":1,"n_dots":4.25,"target":"left","response":"right","rt":3604.5999999642,"correct":false,"confidence":-1},{"trial_n":2,"n_dots":4.25,"target":"left","response":"left","rt":1268.1999999881,"correct":true,"confidence":-1},{"trial_n":3,"n_dots":4.25,"target":"right","response":"right","rt":431.40000003576,"correct":true,"confidence":-1},{"trial_n":4,"n_dots":3.85,"target":"left","response":"left","rt":324.89999997616,"correct":true,"confidence":-1},{"trial_n":5,"n_dots":3.85,"target":"right","response":"right","rt":357,"correct":true,"confidence":-1},{"trial_n":6,"n_dots":3.45,"target":"left","response":"left","rt":395.89999997616,"correct":true,"confidence":-1},{"trial_n":7,"n_dots":3.45,"target":"left","response":"right","rt":423.69999998808,"correct":false,"confidence":-1},{"trial_n":8,"n_dots":3.65,"target":"left","response":"left","rt":367.60000002384,"correct":true,"confidence":-1},{"trial_n":9,"n_dots":3.65,"target":"left","response":"left","rt":114.60000002384,"correct":true,"confidence":-1},{"trial_n":10,"n_dots":3.45,"target":"right","response":"right","rt":649.30000001192,"correct":true,"confidence":-1},{"trial_n":11,"n_dots":3.45,"target":"left","response":"left","rt":374.60000002384,"correct":true,"confidence":-1},{"trial_n":12,"n_dots":3.25,"target":"right","response":"right","rt":23.800000011921,"correct":true,"confidence":-1},{"trial_n":13,"n_dots":3.25,"target":"left","response":"left","rt":520.89999997616,"correct":true,"confidence":-1},{"trial_n":14,"n_dots":3.15,"target":"right","response":"right","rt":326.60000002384,"correct":true,"confidence":-1},{"trial_n":15,"n_dots":3.15,"target":"right","response":"left","rt":302.69999998808,"correct":false,"confidence":-1},{"trial_n":16,"n_dots":3.25,"target":"left","response":"left","rt":756.90000003576,"correct":true,"confidence":-1},{"trial_n":17,"n_dots":3.25,"target":"left","response":"left","rt":310.89999997616,"correct":true,"confidence":-1},{"trial_n":18,"n_dots":3.15,"target":"right","response":"right","rt":378.40000003576,"correct":true,"confidence":-1},{"trial_n":19,"n_dots":3.15,"target":"left","response":"left","rt":474.60000002384,"correct":true,"confidence":-1},{"trial_n":20,"n_dots":3.05,"target":"left","response":"left","rt":3274.3000000119,"correct":true,"confidence":-1},{"trial_n":21,"n_dots":3.05,"target":"left","response":"left","rt":408.39999997616,"correct":true,"confidence":4},{"trial_n":22,"n_dots":2.95,"target":"right","response":"right","rt":698,"correct":true,"confidence":4},{"trial_n":23,"n_dots":2.95,"target":"right","response":"right","rt":632,"correct":true,"confidence":4},{"trial_n":24,"n_dots":2.85,"target":"right","response":"left","rt":412.10000002384,"correct":false,"confidence":4},{"trial_n":25,"n_dots":2.95,"target":"left","response":"left","rt":592.30000001192,"correct":true,"confidence":4},{"trial_n":26,"n_dots":2.95,"target":"left","response":"left","rt":573.89999997616,"correct":true,"confidence":4},{"trial_n":27,"n_dots":2.85,"target":"left","response":"right","rt":1298.5999999642,"correct":false,"confidence":4},{"trial_n":28,"n_dots":2.95,"target":"right","response":"right","rt":2281.5,"correct":true,"confidence":4},{"trial_n":29,"n_dots":2.95,"target":"right","response":"right","rt":815.5,"correct":true,"confidence":4},{"trial_n":30,"n_dots":2.85,"target":"right","response":"right","rt":2217,"correct":true,"confidence":4},{"trial_n":31,"n_dots":2.85,"target":"right","response":"left","rt":845.5,"correct":false,"confidence":4},{"trial_n":32,"n_dots":2.95,"target":"left","response":"left","rt":446.69999998808,"correct":true,"confidence":4},{"trial_n":33,"n_dots":2.95,"target":"right","response":"right","rt":752.90000003576,"correct":true,"confidence":4},{"trial_n":34,"n_dots":2.85,"target":"left","response":"left","rt":313.10000002384,"correct":true,"confidence":4},{"trial_n":35,"n_dots":2.85,"target":"right","response":"left","rt":690.09999996424,"correct":false,"confidence":4},{"trial_n":36,"n_dots":2.95,"target":"right","response":"left","rt":562.39999997616,"correct":false,"confidence":4},{"trial_n":37,"n_dots":3.05,"target":"left","response":"left","rt":473.30000001192,"correct":true,"confidence":4},{"trial_n":38,"n_dots":3.05,"target":"left","response":"left","rt":370.30000001192,"correct":true,"confidence":4},{"trial_n":39,"n_dots":2.95,"target":"right","response":"right","rt":624.30000001192,"correct":true,"confidence":4},{"trial_n":40,"n_dots":2.95,"target":"left","response":"left","rt":589.19999998808,"correct":true,"confidence":4},{"trial_n":41,"n_dots":2.85,"target":"left","response":"right","rt":850.89999997616,"correct":false,"confidence":4},{"trial_n":42,"n_dots":2.95,"target":"left","response":"left","rt":974.89999997616,"correct":true,"confidence":4},{"trial_n":43,"n_dots":2.95,"target":"left","response":"left","rt":618,"correct":true,"confidence":4},{"trial_n":44,"n_dots":2.85,"target":"left","response":"right","rt":456.69999998808,"correct":false,"confidence":4},{"trial_n":45,"n_dots":2.95,"target":"right","response":"left","rt":836.40000003576,"correct":false,"confidence":4},{"trial_n":46,"n_dots":3.05,"target":"left","response":"left","rt":543.19999998808,"correct":true,"confidence":4},{"trial_n":47,"n_dots":3.05,"target":"left","response":"left","rt":702.90000003576,"correct":true,"confidence":4},{"trial_n":48,"n_dots":2.95,"target":"right","response":"right","rt":908.70000004768,"correct":true,"confidence":4},{"trial_n":49,"n_dots":2.95,"target":"left","response":"left","rt":491.20000004768,"correct":true,"confidence":3},{"trial_n":50,"n_dots":2.85,"target":"left","response":"left","rt":464.69999998808,"correct":true,"confidence":4},{"trial_n":51,"n_dots":2.85,"target":"right","response":"left","rt":434.09999996424,"correct":false,"confidence":4},{"trial_n":52,"n_dots":2.95,"target":"left","response":"left","rt":333.69999998808,"correct":true,"confidence":4},{"trial_n":53,"n_dots":2.95,"target":"right","response":"left","rt":579.40000003576,"correct":false,"confidence":4},{"trial_n":54,"n_dots":3.05,"target":"right","response":"right","rt":521.60000002384,"correct":true,"confidence":4},{"trial_n":55,"n_dots":3.05,"target":"right","response":"left","rt":321.79999995232,"correct":false,"confidence":4},{"trial_n":56,"n_dots":3.15,"target":"right","response":"right","rt":689.89999997616,"correct":true,"confidence":4},{"trial_n":57,"n_dots":3.15,"target":"right","response":"left","rt":287.5,"correct":false,"confidence":4},{"trial_n":58,"n_dots":3.25,"target":"right","response":"right","rt":843,"correct":true,"confidence":1},{"trial_n":59,"n_dots":3.25,"target":"right","response":"right","rt":746.39999997616,"correct":true,"confidence":1},{"trial_n":60,"n_dots":3.15,"target":"left","response":"left","rt":668.10000002384,"correct":true,"confidence":5},{"trial_n":61,"n_dots":3.15,"target":"left","response":"left","rt":987.5,"correct":true,"confidence":1},{"trial_n":62,"n_dots":3.05,"target":"right","response":"right","rt":1070.5,"correct":true,"confidence":1},{"trial_n":63,"n_dots":3.05,"target":"left","response":"left","rt":536.10000002384,"correct":true,"confidence":4},{"trial_n":64,"n_dots":2.95,"target":"right","response":"left","rt":667.5,"correct":false,"confidence":3},{"trial_n":65,"n_dots":3.05,"target":"right","response":"left","rt":364.19999998808,"correct":false,"confidence":1},{"trial_n":66,"n_dots":3.15,"target":"right","response":"right","rt":547,"correct":true,"confidence":1},{"trial_n":67,"n_dots":3.15,"target":"right","response":"left","rt":651.19999998808,"correct":false,"confidence":2},{"trial_n":68,"n_dots":3.25,"target":"right","response":"right","rt":781.5,"correct":true,"confidence":3},{"trial_n":69,"n_dots":3.25,"target":"left","response":"left","rt":588.19999998808,"correct":true,"confidence":1},{"trial_n":70,"n_dots":3.15,"target":"right","response":"right","rt":1220.6999999881,"correct":true,"confidence":1},{"trial_n":71,"n_dots":3.15,"target":"left","response":"left","rt":309.30000001192,"correct":true,"confidence":3},{"trial_n":72,"n_dots":3.05,"target":"right","response":"right","rt":525.40000003576,"correct":true,"confidence":1},{"trial_n":73,"n_dots":3.05,"target":"left","response":"left","rt":567.5,"correct":true,"confidence":3},{"trial_n":74,"n_dots":2.95,"target":"right","response":"left","rt":403.10000002384,"correct":false,"confidence":1},{"trial_n":75,"n_dots":3.05,"target":"left","response":"left","rt":303.10000002384,"correct":true,"confidence":3},{"trial_n":76,"n_dots":3.05,"target":"right","response":"left","rt":256.39999997616,"correct":false,"confidence":3},{"trial_n":77,"n_dots":3.15,"target":"right","response":"left","rt":315.30000001192,"correct":false,"confidence":1},{"trial_n":78,"n_dots":3.25,"target":"right","response":"right","rt":633.09999996424,"correct":true,"confidence":3},{"trial_n":79,"n_dots":3.25,"target":"right","response":"left","rt":350.39999997616,"correct":false,"confidence":2},{"trial_n":80,"n_dots":3.35,"target":"right","response":"right","rt":655.80000001192,"correct":true,"confidence":2},{"trial_n":81,"n_dots":3.35,"target":"right","response":"right","rt":549.30000001192,"correct":true,"confidence":2},{"trial_n":82,"n_dots":3.25,"target":"left","response":"left","rt":1045.5,"correct":true,"confidence":2},{"trial_n":83,"n_dots":3.25,"target":"left","response":"left","rt":408.80000001192,"correct":true,"confidence":4},{"trial_n":84,"n_dots":3.15,"target":"left","response":"left","rt":511.60000002384,"correct":true,"confidence":4},{"trial_n":85,"n_dots":3.15,"target":"left","response":"left","rt":563.40000003576,"correct":true,"confidence":4},{"trial_n":86,"n_dots":3.05,"target":"left","response":"left","rt":372,"correct":true,"confidence":4},{"trial_n":87,"n_dots":3.05,"target":"left","response":"left","rt":929.89999997616,"correct":true,"confidence":4},{"trial_n":88,"n_dots":2.95,"target":"right","response":"left","rt":428.10000002384,"correct":false,"confidence":4},{"trial_n":89,"n_dots":3.05,"target":"left","response":"left","rt":505.39999997616,"correct":true,"confidence":4},{"trial_n":90,"n_dots":3.05,"target":"right","response":"left","rt":874.89999997616,"correct":false,"confidence":2},{"trial_n":91,"n_dots":3.15,"target":"right","response":"left","rt":924.69999998808,"correct":false,"confidence":2},{"trial_n":92,"n_dots":3.25,"target":"left","response":"left","rt":472,"correct":true,"confidence":4},{"trial_n":93,"n_dots":3.25,"target":"right","response":"right","rt":1043.1999999881,"correct":true,"confidence":4},{"trial_n":94,"n_dots":3.15,"target":"right","response":"right","rt":517.5,"correct":true,"confidence":4},{"trial_n":95,"n_dots":3.15,"target":"left","response":"left","rt":505.10000002384,"correct":true,"confidence":4},{"trial_n":96,"n_dots":3.05,"target":"right","response":"right","rt":413,"correct":true,"confidence":4},{"trial_n":97,"n_dots":3.05,"target":"right","response":"left","rt":463.89999997616,"correct":false,"confidence":4},{"trial_n":98,"n_dots":3.15,"target":"left","response":"right","rt":614.5,"correct":false,"confidence":3},{"trial_n":99,"n_dots":3.25,"target":"right","response":"left","rt":645.59999996424,"correct":false,"confidence":2},{"trial_n":100,"n_dots":3.35,"target":"left","response":"left","rt":627.10000002384,"correct":true,"confidence":4},{"trial_n":101,"n_dots":3.35,"target":"right","response":"left","rt":329.5,"correct":false,"confidence":2},{"trial_n":102,"n_dots":3.45,"target":"left","response":"left","rt":302.89999997616,"correct":true,"confidence":2},{"trial_n":103,"n_dots":3.45,"target":"left","response":"left","rt":701.69999998808,"correct":true,"confidence":3},{"trial_n":104,"n_dots":3.35,"target":"right","response":"right","rt":541.60000002384,"correct":true,"confidence":3},{"trial_n":105,"n_dots":3.35,"target":"left","response":"left","rt":376.39999997616,"correct":true,"confidence":4},{"trial_n":106,"n_dots":3.25,"target":"right","response":"right","rt":591.39999997616,"correct":true,"confidence":3},{"trial_n":107,"n_dots":3.25,"target":"right","response":"right","rt":922,"correct":true,"confidence":2},{"trial_n":108,"n_dots":3.15,"target":"left","response":"left","rt":618.90000003576,"correct":true,"confidence":2},{"trial_n":109,"n_dots":3.15,"target":"right","response":"right","rt":619.40000003576,"correct":true,"confidence":2},{"trial_n":110,"n_dots":3.05,"target":"right","response":"right","rt":1267.8000000119,"correct":true,"confidence":2},{"trial_n":111,"n_dots":3.05,"target":"right","response":"left","rt":1550.3999999762,"correct":false,"confidence":2},{"trial_n":112,"n_dots":3.15,"target":"left","response":"left","rt":412.09999996424,"correct":true,"confidence":2},{"trial_n":113,"n_dots":3.15,"target":"left","response":"left","rt":620.60000002384,"correct":true,"confidence":2},{"trial_n":114,"n_dots":3.05,"target":"left","response":"left","rt":400.69999998808,"correct":true,"confidence":2},{"trial_n":115,"n_dots":3.05,"target":"right","response":"right","rt":841.30000001192,"correct":true,"confidence":2},{"trial_n":116,"n_dots":2.95,"target":"left","response":"left","rt":675.80000001192,"correct":true,"confidence":3},{"trial_n":117,"n_dots":2.95,"target":"left","response":"left","rt":829.20000004768,"correct":true,"confidence":2},{"trial_n":118,"n_dots":2.85,"target":"left","response":"left","rt":360.30000001192,"correct":true,"confidence":2},{"trial_n":119,"n_dots":2.85,"target":"right","response":"right","rt":1384,"correct":true,"confidence":2},{"trial_n":120,"n_dots":2.75,"target":"left","response":"left","rt":374,"correct":true,"confidence":2}]