[{"trial_n":1,"span":8,"encoder":"65524405","distractor":"65524705","target":"present","response":"absent","rt":"16055.5","correct":false,"confidence":-1},{"trial_n":2,"span":6,"encoder":"801865","distractor":"801855","target":"present","response":"present","rt":"2919.3999999762","correct":true,"confidence":-1},{"trial_n":3,"span":6,"encoder":"268389","distractor":"268989","target":"absent","response":"absent","rt":"1810","correct":true,"confidence":-1},{"trial_n":4,"span":8,"encoder":"50033293","distractor":"50033493","target":"absent","response":"absent","rt":"2148.1000000238","correct":true,"confidence":-1},{"trial_n":5,"span":8,"encoder":"77376463","distractor":"77376473","target":"present","response":"present","rt":"1204.4000000954","correct":true,"confidence":-1},{"trial_n":6,"span":10,"encoder":"0561578352","distractor":"0561578362","target":"absent","response":"present","rt":"2276.6000000238","correct":false,"confidence":-1},{"trial_n":7,"span":8,"encoder":"45140406","distractor":"45140408","target":"present","response":"present","rt":"2914.3999999762","correct":true,"confidence":-1},{"trial_n":8,"span":8,"encoder":"55880028","distractor":"55980028","target":"absent","response":"absent","rt":"1816","correct":true,"confidence":-1},{"trial_n":9,"span":10,"encoder":"3808905020","distractor":"3808905040","target":"absent","response":"absent","rt":"2977.7999999523","correct":true,"confidence":-1},{"trial_n":10,"span":10,"encoder":"6390696180","distractor":"6390696182","target":"present","response":"present","rt":"4014.2000000477","correct":true,"confidence":-1},{"trial_n":11,"span":12,"encoder":"323013525824","distractor":"323013525825","target":"absent","response":"absent","rt":"1577.2000000477","correct":true,"confidence":-1},{"trial_n":12,"span":12,"encoder":"328535641098","distractor":"728535641098","target":"present","response":"present","rt":"3473.2999999523","correct":true,"confidence":-1},{"trial_n":13,"span":13,"encoder":"6670013789953","distractor":"6679013789953","target":"absent","response":"absent","rt":"3135.1000000238","correct":true,"confidence":-1},{"trial_n":14,"span":13,"encoder":"5480748479637","distractor":"5480748479617","target":"present","response":"present","rt":"2976.7000000477","correct":true,"confidence":-1},{"trial_n":15,"span":14,"encoder":"19729458477289","distractor":"19729438477289","target":"present","response":"present","rt":"3359.3999999762","correct":true,"confidence":-1},{"trial_n":16,"span":14,"encoder":"23615737214929","distractor":"23615747214929","target":"present","response":"present","rt":"1892.5999999046","correct":true,"confidence":-1},{"trial_n":17,"span":15,"encoder":"593777499946125","distractor":"593777495946125","target":"present","response":"present","rt":"3170.9000000954","correct":true,"confidence":-1},{"trial_n":18,"span":15,"encoder":"993800807160372","distractor":"993800807960372","target":"present","response":"present","rt":"3050.2999999523","correct":true,"confidence":-1},{"trial_n":19,"span":16,"encoder":"0825983773383382","distractor":"0825983773383381","target":"present","response":"absent","rt":"2252.8999999762","correct":false,"confidence":-1},{"trial_n":20,"span":15,"encoder":"355481459350422","distractor":"355481455350422","target":"absent","response":"present","rt":"954.70000004768","correct":false,"confidence":-1},{"trial_n":21,"span":14,"encoder":"66481159593720","distractor":"66481159503720","target":"present","response":"present","rt":"3035","correct":true,"confidence":1},{"trial_n":22,"span":14,"encoder":"80645298398662","distractor":"80645298398062","target":"present","response":"present","rt":"2911.5","correct":true,"confidence":2},{"trial_n":23,"span":15,"encoder":"618475607454301","distractor":"618415607454301","target":"absent","response":"present","rt":"6097","correct":false,"confidence":3},{"trial_n":24,"span":14,"encoder":"44043586515617","distractor":"44063586515617","target":"absent","response":"present","rt":"6298.5","correct":false,"confidence":3},{"trial_n":25,"span":13,"encoder":"8743961307564","distractor":"9743961307564","target":"absent","response":"absent","rt":"1778.2000000477","correct":true,"confidence":3},{"trial_n":26,"span":13,"encoder":"3476297738248","distractor":"3476297735248","target":"present","response":"present","rt":"5634.7000000477","correct":true,"confidence":4},{"trial_n":27,"span":14,"encoder":"00882082440021","distractor":"00882082446021","target":"present","response":"present","rt":"3340.2999999523","correct":true,"confidence":4},{"trial_n":28,"span":14,"encoder":"53083229136134","distractor":"53083229636134","target":"absent","response":"absent","rt":"3883","correct":true,"confidence":2},{"trial_n":29,"span":15,"encoder":"771114048418031","distractor":"779114048418031","target":"absent","response":"absent","rt":"3210.8999999762","correct":true,"confidence":4},{"trial_n":30,"span":15,"encoder":"424715980900872","distractor":"424735980900872","target":"absent","response":"absent","rt":"4701.2000000477","correct":true,"confidence":1},{"trial_n":31,"span":16,"encoder":"3612236506161996","distractor":"3612236506161997","target":"absent","response":"absent","rt":"4151.8000000715","correct":true,"confidence":4},{"trial_n":32,"span":16,"encoder":"5687946532595995","distractor":"5687946535595995","target":"present","response":"present","rt":"2488.3000000715","correct":true,"confidence":3},{"trial_n":33,"span":17,"encoder":"45597473536130275","distractor":"45597473536130271","target":"absent","response":"present","rt":"5493.3999999762","correct":false,"confidence":1},{"trial_n":34,"span":16,"encoder":"1150000741131150","distractor":"1150000741131750","target":"absent","response":"present","rt":"6037.3000000715","correct":false,"confidence":3},{"trial_n":35,"span":15,"encoder":"071119175360356","distractor":"071139175360356","target":"present","response":"present","rt":"3366.2999999523","correct":true,"confidence":1},{"trial_n":36,"span":15,"encoder":"797565383153524","distractor":"797565385153524","target":"absent","response":"present","rt":"3851.7000000477","correct":false,"confidence":1},{"trial_n":37,"span":14,"encoder":"69949428938182","distractor":"69919428938182","target":"present","response":"absent","rt":"4109.1000000238","correct":false,"confidence":3},{"trial_n":38,"span":13,"encoder":"9622814907899","distractor":"9622810907899","target":"absent","response":"present","rt":"3506.8999999762","correct":false,"confidence":4},{"trial_n":39,"span":12,"encoder":"120816044344","distractor":"120816094344","target":"absent","response":"absent","rt":"5884.6000000238","correct":true,"confidence":2},{"trial_n":40,"span":12,"encoder":"509404718711","distractor":"519404718711","target":"present","response":"absent","rt":"4563.2000000477","correct":false,"confidence":1},{"trial_n":41,"span":11,"encoder":"68516474806","distractor":"69516474806","target":"present","response":"present","rt":"4729.2999999523","correct":true,"confidence":3},{"trial_n":42,"span":11,"encoder":"70654322296","distractor":"70654622296","target":"present","response":"present","rt":"8706.2000000477","correct":true,"confidence":2},{"trial_n":43,"span":12,"encoder":"637293324406","distractor":"937293324406","target":"present","response":"present","rt":"4401","correct":true,"confidence":3},{"trial_n":44,"span":12,"encoder":"245866455725","distractor":"245866456725","target":"absent","response":"present","rt":"4099.7999999523","correct":false,"confidence":3},{"trial_n":45,"span":11,"encoder":"95952862129","distractor":"95552862129","target":"absent","response":"absent","rt":"2520.7000000477","correct":true,"confidence":5},{"trial_n":46,"span":11,"encoder":"98570305908","distractor":"38570305908","target":"absent","response":"absent","rt":"4694.8999999762","correct":true,"confidence":2},{"trial_n":47,"span":12,"encoder":"766230052574","distractor":"766230052374","target":"present","response":"present","rt":"4014.6000000238","correct":true,"confidence":2},{"trial_n":48,"span":12,"encoder":"025815218506","distractor":"025815918506","target":"absent","response":"present","rt":"3865.1000000238","correct":false,"confidence":2},{"trial_n":49,"span":11,"encoder":"22374454648","distractor":"22374414648","target":"present","response":"present","rt":"5909.5","correct":true,"confidence":3},{"trial_n":50,"span":11,"encoder":"61668176099","distractor":"61668876099","target":"present","response":"present","rt":"3220.1000000238","correct":true,"confidence":3},{"trial_n":51,"span":12,"encoder":"247695203096","distractor":"247695203996","target":"absent","response":"absent","rt":"4447.5999999046","correct":true,"confidence":2},{"trial_n":52,"span":12,"encoder":"175075976148","distractor":"125075976148","target":"present","response":"present","rt":"3043.7000000477","correct":true,"confidence":4},{"trial_n":53,"span":13,"encoder":"6440687523867","distractor":"6440687423867","target":"absent","response":"absent","rt":"5044.8999999762","correct":true,"confidence":3},{"trial_n":54,"span":13,"encoder":"0115178398654","distractor":"0515178398654","target":"absent","response":"present","rt":"4171.8999999762","correct":false,"confidence":2},{"trial_n":55,"span":12,"encoder":"636694974219","distractor":"636604974219","target":"absent","response":"present","rt":"4659.1000000238","correct":false,"confidence":2},{"trial_n":56,"span":11,"encoder":"90761568878","distractor":"60761568878","target":"present","response":"present","rt":"4027","correct":true,"confidence":3},{"trial_n":57,"span":11,"encoder":"96328493363","distractor":"96828493363","target":"present","response":"present","rt":"3237.5","correct":true,"confidence":2},{"trial_n":58,"span":12,"encoder":"526610693926","distractor":"526610653926","target":"absent","response":"absent","rt":"55154.400000095","correct":true,"confidence":1},{"trial_n":59,"span":12,"encoder":"213247119563","distractor":"213247119063","target":"absent","response":"absent","rt":"2858.7000000477","correct":true,"confidence":2},{"trial_n":60,"span":13,"encoder":"3465490973113","distractor":"3465490976113","target":"absent","response":"absent","rt":"2918.6999999285","correct":true,"confidence":1},{"trial_n":61,"span":13,"encoder":"1823436021756","distractor":"1823436025756","target":"present","response":"present","rt":"5358","correct":true,"confidence":4},{"trial_n":62,"span":14,"encoder":"39698980884871","distractor":"39678980884871","target":"present","response":"present","rt":"4851.3999999762","correct":true,"confidence":3},{"trial_n":63,"span":14,"encoder":"16977008316449","distractor":"16977008316446","target":"present","response":"absent","rt":"3722.8999999762","correct":false,"confidence":1},{"trial_n":64,"span":13,"encoder":"5478050944289","distractor":"5478350944289","target":"present","response":"absent","rt":"3973.7000000477","correct":false,"confidence":1},{"trial_n":65,"span":12,"encoder":"380261011717","distractor":"380661011717","target":"present","response":"present","rt":"2282.0999999046","correct":true,"confidence":2},{"trial_n":66,"span":12,"encoder":"393359967919","distractor":"303359967919","target":"absent","response":"present","rt":"3904.1000000238","correct":false,"confidence":2},{"trial_n":67,"span":11,"encoder":"73127217264","distractor":"73127287264","target":"present","response":"present","rt":"3748.5","correct":true,"confidence":2},{"trial_n":68,"span":11,"encoder":"53064048956","distractor":"83064048956","target":"present","response":"absent","rt":"3526.2999999523","correct":false,"confidence":1},{"trial_n":69,"span":10,"encoder":"2091444761","distractor":"2091444751","target":"absent","response":"present","rt":"22247","correct":false,"confidence":1},{"trial_n":70,"span":9,"encoder":"632540276","distractor":"652540276","target":"absent","response":"absent","rt":"4144.1999999285","correct":true,"confidence":1},{"trial_n":71,"span":8,"encoder":"33498231","distractor":"33495231","target":"present","response":"present","rt":"4049","correct":true,"confidence":-1},{"trial_n":72,"span":8,"encoder":"17133732","distractor":"17137732","target":"present","response":"present","rt":"5764.1999999285","correct":true,"confidence":-1},{"trial_n":73,"span":9,"encoder":"617572394","distractor":"617572314","target":"absent","response":"present","rt":"3443.2999999523","correct":false,"confidence":-1},{"trial_n":74,"span":8,"encoder":"99813648","distractor":"99873648","target":"absent","response":"present","rt":"7338.3999999762","correct":false,"confidence":-1},{"trial_n":75,"span":7,"encoder":"5240362","distractor":"5241362","target":"present","response":"present","rt":"6588.2999999523","correct":true,"confidence":-1},{"trial_n":76,"span":7,"encoder":"7901791","distractor":"6901791","target":"present","response":"present","rt":"3736.8000000715","correct":true,"confidence":-1},{"trial_n":77,"span":8,"encoder":"66682687","distractor":"66672687","target":"absent","response":"absent","rt":"2965.6000000238","correct":true,"confidence":-1},{"trial_n":78,"span":8,"encoder":"00620480","distractor":"00620780","target":"present","response":"present","rt":"4892.1999999285","correct":true,"confidence":-1},{"trial_n":79,"span":9,"encoder":"546704078","distractor":"545704078","target":"absent","response":"absent","rt":"10900","correct":true,"confidence":-1},{"trial_n":80,"span":9,"encoder":"248874238","distractor":"248834238","target":"present","response":"absent","rt":"3411.3999999762","correct":false,"confidence":-1},{"trial_n":81,"span":8,"encoder":"89402934","distractor":"79402934","target":"absent","response":"absent","rt":"2384.3999999762","correct":true,"confidence":-1},{"trial_n":82,"span":8,"encoder":"83203568","distractor":"13203568","target":"present","response":"present","rt":"3814.3000000715","correct":true,"confidence":-1},{"trial_n":83,"span":9,"encoder":"252729549","distractor":"252729599","target":"present","response":"present","rt":"7210.3999999762","correct":true,"confidence":-1},{"trial_n":84,"span":9,"encoder":"201749972","distractor":"101749972","target":"present","response":"present","rt":"3483.6000000238","correct":true,"confidence":-1},{"trial_n":85,"span":10,"encoder":"0008629142","distractor":"0008639142","target":"present","response":"present","rt":"6313.3000000715","correct":true,"confidence":-1},{"trial_n":86,"span":10,"encoder":"9969906073","distractor":"9909906073","target":"absent","response":"absent","rt":"3205.8999999762","correct":true,"confidence":-1},{"trial_n":87,"span":11,"encoder":"52481006357","distractor":"52481006307","target":"absent","response":"absent","rt":"5341.2999999523","correct":true,"confidence":-1},{"trial_n":88,"span":11,"encoder":"80825566804","distractor":"80825566404","target":"absent","response":"absent","rt":"6503.8000000715","correct":true,"confidence":-1},{"trial_n":89,"span":12,"encoder":"958554207191","distractor":"958559207191","target":"present","response":"absent","rt":"5559.6000000238","correct":false,"confidence":-1},{"trial_n":90,"span":11,"encoder":"01591500974","distractor":"01591300974","target":"absent","response":"present","rt":"1416.7000000477","correct":false,"confidence":-1},{"trial_n":91,"span":10,"encoder":"1260986483","distractor":"1260986481","target":"absent","response":"absent","rt":"4527.5","correct":true,"confidence":3},{"trial_n":92,"span":10,"encoder":"8798187491","distractor":"8798187421","target":"absent","response":"absent","rt":"7047.1999999285","correct":true,"confidence":3},{"trial_n":93,"span":11,"encoder":"16094559917","distractor":"16094559017","target":"present","response":"absent","rt":"5453.7999999523","correct":false,"confidence":2},{"trial_n":94,"span":10,"encoder":"7540200324","distractor":"7540400324","target":"absent","response":"present","rt":"5515.7999999523","correct":false,"confidence":2},{"trial_n":95,"span":9,"encoder":"547080959","distractor":"147080959","target":"absent","response":"absent","rt":"2420.3999999762","correct":true,"confidence":5},{"trial_n":96,"span":9,"encoder":"309317282","distractor":"389317282","target":"absent","response":"absent","rt":"6266.2999999523","correct":true,"confidence":4},{"trial_n":97,"span":10,"encoder":"6294623920","distractor":"6294923920","target":"present","response":"present","rt":"4672.9000000954","correct":true,"confidence":3},{"trial_n":98,"span":10,"encoder":"5293916717","distractor":"5233916717","target":"absent","response":"absent","rt":"3449.3999999762","correct":true,"confidence":3},{"trial_n":99,"span":11,"encoder":"43114045284","distractor":"43112045284","target":"present","response":"present","rt":"7489.8999999762","correct":true,"confidence":2},{"trial_n":100,"span":11,"encoder":"36972948045","distractor":"36972998045","target":"present","response":"present","rt":"5570.8000000715","correct":true,"confidence":2},{"trial_n":101,"span":12,"encoder":"961980504498","distractor":"961980503498","target":"absent","response":"absent","rt":"7643.3999999762","correct":true,"confidence":3},{"trial_n":102,"span":12,"encoder":"870574879984","distractor":"570574879984","target":"present","response":"present","rt":"10831.100000024","correct":true,"confidence":2},{"trial_n":103,"span":13,"encoder":"0047645238672","distractor":"0047645238602","target":"present","response":"present","rt":"10642.599999905","correct":true,"confidence":1},{"trial_n":104,"span":13,"encoder":"7046957355167","distractor":"7026957355167","target":"present","response":"present","rt":"3592.8999999762","correct":true,"confidence":3},{"trial_n":105,"span":14,"encoder":"94910215691713","distractor":"94910215691723","target":"absent","response":"present","rt":"10613.5","correct":false,"confidence":1},{"trial_n":106,"span":13,"encoder":"4774364870410","distractor":"4784364870410","target":"present","response":"absent","rt":"8112.6000000238","correct":false,"confidence":1},{"trial_n":107,"span":12,"encoder":"926819716063","distractor":"926819316063","target":"present","response":"present","rt":"5409.3999999762","correct":true,"confidence":3},{"trial_n":108,"span":12,"encoder":"721148562643","distractor":"721348562643","target":"absent","response":"absent","rt":"4578.2999999523","correct":true,"confidence":2},{"trial_n":109,"span":13,"encoder":"6869120659865","distractor":"6889120659865","target":"absent","response":"absent","rt":"2828.6999999285","correct":true,"confidence":2},{"trial_n":110,"span":13,"encoder":"2013574074803","distractor":"2013574074103","target":"absent","response":"absent","rt":"5785.3999999762","correct":true,"confidence":3},{"trial_n":111,"span":14,"encoder":"38756481900527","distractor":"38756281900527","target":"present","response":"absent","rt":"5243","correct":false,"confidence":2},{"trial_n":112,"span":13,"encoder":"1381284696321","distractor":"1381234696321","target":"absent","response":"absent","rt":"11644.799999952","correct":true,"confidence":2},{"trial_n":113,"span":13,"encoder":"8597214772753","distractor":"8597214752753","target":"present","response":"present","rt":"2455","correct":true,"confidence":4},{"trial_n":114,"span":14,"encoder":"75307397469364","distractor":"71307397469364","target":"absent","response":"absent","rt":"5104.7000000477","correct":true,"confidence":3},{"trial_n":115,"span":14,"encoder":"60094684225640","distractor":"60094685225640","target":"absent","response":"absent","rt":"13434.5","correct":true,"confidence":1},{"trial_n":116,"span":15,"encoder":"554703547596531","distractor":"554703547596631","target":"present","response":"present","rt":"8812","correct":true,"confidence":2},{"trial_n":117,"span":15,"encoder":"729483071202908","distractor":"729483081202908","target":"absent","response":"absent","rt":"5139.3999999762","correct":true,"confidence":3},{"trial_n":118,"span":16,"encoder":"9138277662724990","distractor":"9138277668724990","target":"absent","response":"absent","rt":"18852.600000024","correct":true,"confidence":3},{"trial_n":119,"span":16,"encoder":"0781705109607197","distractor":"0781705109607117","target":"present","response":"present","rt":"8873.8000000715","correct":true,"confidence":3},{"trial_n":120,"span":17,"encoder":"60963800521119863","distractor":"60963200521119863","target":"present","response":"absent","rt":"7268.2999999523","correct":false,"confidence":1},{"trial_n":121,"span":16,"encoder":"8759688113523108","distractor":"8759688133523108","target":"present","response":"absent","rt":"7060.8999999762","correct":false,"confidence":1},{"trial_n":122,"span":15,"encoder":"698899934035368","distractor":"598899934035368","target":"absent","response":"absent","rt":"2250","correct":true,"confidence":4},{"trial_n":123,"span":15,"encoder":"872024228696007","distractor":"872024258696007","target":"absent","response":"present","rt":"5249.8999999762","correct":false,"confidence":3},{"trial_n":124,"span":14,"encoder":"36366495937490","distractor":"36366495937491","target":"present","response":"absent","rt":"8443.7000000477","correct":false,"confidence":2},{"trial_n":125,"span":13,"encoder":"6734208921612","distractor":"6734208721612","target":"absent","response":"present","rt":"6142.2999999523","correct":false,"confidence":3},{"trial_n":126,"span":12,"encoder":"598425210058","distractor":"598925210058","target":"present","response":"present","rt":"10267.199999928","correct":true,"confidence":4},{"trial_n":127,"span":12,"encoder":"423633980573","distractor":"423633280573","target":"present","response":"absent","rt":"14246.100000024","correct":false,"confidence":3},{"trial_n":128,"span":11,"encoder":"60543189657","distractor":"60143189657","target":"absent","response":"absent","rt":"20541.5","correct":true,"confidence":2},{"trial_n":129,"span":11,"encoder":"47495530307","distractor":"47495539307","target":"present","response":"present","rt":"6018.3000000715","correct":true,"confidence":5},{"trial_n":130,"span":12,"encoder":"225383373107","distractor":"225373373107","target":"present","response":"present","rt":"11705.100000024","correct":true,"confidence":2},{"trial_n":131,"span":12,"encoder":"852677314944","distractor":"812677314944","target":"absent","response":"absent","rt":"12378","correct":true,"confidence":3},{"trial_n":132,"span":13,"encoder":"7011198546796","distractor":"7011198146796","target":"present","response":"present","rt":"5693.5","correct":true,"confidence":2},{"trial_n":133,"span":13,"encoder":"1642543396672","distractor":"1642543396872","target":"absent","response":"absent","rt":"8949","correct":true,"confidence":3},{"trial_n":134,"span":14,"encoder":"87754000381278","distractor":"87754030381278","target":"absent","response":"present","rt":"19077.700000048","correct":false,"confidence":2},{"trial_n":135,"span":13,"encoder":"1271240820001","distractor":"1271280820001","target":"absent","response":"absent","rt":"21122","correct":true,"confidence":2},{"trial_n":136,"span":13,"encoder":"4844272781018","distractor":"4844872781018","target":"present","response":"absent","rt":"17099.5","correct":false,"confidence":2},{"trial_n":137,"span":12,"encoder":"979574773626","distractor":"919574773626","target":"present","response":"absent","rt":"11572.700000048","correct":false,"confidence":3},{"trial_n":138,"span":11,"encoder":"19177759718","distractor":"13177759718","target":"present","response":"present","rt":"5278.5","correct":true,"confidence":4},{"trial_n":139,"span":11,"encoder":"90177201100","distractor":"90167201100","target":"present","response":"present","rt":"3918.2999999523","correct":true,"confidence":5},{"trial_n":140,"span":12,"encoder":"366030173673","distractor":"566030173673","target":"absent","response":"absent","rt":"4489.7999999523","correct":true,"confidence":5}]