[{"trial_n":1,"span":8,"encoder":"50127150","distractor":"50127250","target":"present","response":"present","rt":"4724","correct":true,"confidence":-1},{"trial_n":2,"span":8,"encoder":"37376645","distractor":"37376045","target":"present","response":"present","rt":"3201.400000006","correct":true,"confidence":-1},{"trial_n":3,"span":10,"encoder":"4544405908","distractor":"4044405908","target":"absent","response":"present","rt":"2289.1999999955","correct":false,"confidence":-1},{"trial_n":4,"span":8,"encoder":"83890521","distractor":"83898521","target":"absent","response":"present","rt":"1588.900000006","correct":false,"confidence":-1},{"trial_n":5,"span":6,"encoder":"294500","distractor":"294590","target":"present","response":"present","rt":"1533.5","correct":true,"confidence":-1},{"trial_n":6,"span":6,"encoder":"040992","distractor":"044992","target":"present","response":"present","rt":"1619.8999999985","correct":true,"confidence":-1},{"trial_n":7,"span":8,"encoder":"51168444","distractor":"51169444","target":"absent","response":"absent","rt":"4215.3000000045","correct":true,"confidence":-1},{"trial_n":8,"span":8,"encoder":"83062178","distractor":"83062198","target":"present","response":"absent","rt":"2381.799999997","correct":false,"confidence":-1},{"trial_n":9,"span":6,"encoder":"948678","distractor":"948878","target":"absent","response":"absent","rt":"1932.200000003","correct":true,"confidence":-1},{"trial_n":10,"span":6,"encoder":"427849","distractor":"427841","target":"absent","response":"absent","rt":"2253.700000003","correct":true,"confidence":-1},{"trial_n":11,"span":8,"encoder":"83379751","distractor":"83379750","target":"present","response":"absent","rt":"3510.900000006","correct":false,"confidence":-1},{"trial_n":12,"span":7,"encoder":"3499315","distractor":"3479315","target":"present","response":"present","rt":"1838.1000000015","correct":true,"confidence":-1},{"trial_n":13,"span":7,"encoder":"8330469","distractor":"4330469","target":"present","response":"present","rt":"1111.700000003","correct":true,"confidence":-1},{"trial_n":14,"span":8,"encoder":"88770016","distractor":"88770010","target":"present","response":"present","rt":"2414.1000000015","correct":true,"confidence":-1},{"trial_n":15,"span":8,"encoder":"90409721","distractor":"10409721","target":"absent","response":"absent","rt":"1004.5","correct":true,"confidence":-1},{"trial_n":16,"span":9,"encoder":"890375490","distractor":"897375490","target":"absent","response":"present","rt":"1130.099999994","correct":false,"confidence":-1},{"trial_n":17,"span":8,"encoder":"18840599","distractor":"18845599","target":"absent","response":"present","rt":"888","correct":false,"confidence":-1},{"trial_n":18,"span":7,"encoder":"8969913","distractor":"8969912","target":"absent","response":"present","rt":"2269.8999999985","correct":false,"confidence":-1},{"trial_n":19,"span":6,"encoder":"730888","distractor":"730808","target":"present","response":"present","rt":"1918.200000003","correct":true,"confidence":-1},{"trial_n":20,"span":6,"encoder":"813557","distractor":"813554","target":"absent","response":"absent","rt":"1265.299999997","correct":true,"confidence":-1},{"trial_n":21,"span":7,"encoder":"8990007","distractor":"8920007","target":"absent","response":"present","rt":"1721.5","correct":false,"confidence":3},{"trial_n":22,"span":6,"encoder":"699803","distractor":"696803","target":"absent","response":"absent","rt":"2779.299999997","correct":true,"confidence":5},{"trial_n":23,"span":6,"encoder":"256371","distractor":"256351","target":"absent","response":"absent","rt":"2659","correct":true,"confidence":4},{"trial_n":24,"span":7,"encoder":"1188127","distractor":"6188127","target":"present","response":"present","rt":"3207.5","correct":true,"confidence":5},{"trial_n":25,"span":7,"encoder":"4642647","distractor":"4649647","target":"present","response":"present","rt":"1029.6000000015","correct":true,"confidence":3},{"trial_n":26,"span":8,"encoder":"40039838","distractor":"80039838","target":"absent","response":"present","rt":"980","correct":false,"confidence":3},{"trial_n":27,"span":7,"encoder":"0951507","distractor":"0951597","target":"present","response":"present","rt":"3204.8000000045","correct":true,"confidence":4},{"trial_n":28,"span":7,"encoder":"6848054","distractor":"6838054","target":"present","response":"present","rt":"1968","correct":true,"confidence":3},{"trial_n":29,"span":8,"encoder":"83567794","distractor":"83567704","target":"absent","response":"absent","rt":"2965.799999997","correct":true,"confidence":5},{"trial_n":30,"span":8,"encoder":"47448782","distractor":"37448782","target":"absent","response":"present","rt":"2156.400000006","correct":false,"confidence":4},{"trial_n":31,"span":7,"encoder":"9116805","distractor":"9118805","target":"absent","response":"absent","rt":"3883.299999997","correct":true,"confidence":4},{"trial_n":32,"span":7,"encoder":"0160999","distractor":"0560999","target":"absent","response":"present","rt":"5192.1000000015","correct":false,"confidence":4},{"trial_n":33,"span":6,"encoder":"348311","distractor":"347311","target":"present","response":"present","rt":"3074.200000003","correct":true,"confidence":4},{"trial_n":34,"span":6,"encoder":"791757","distractor":"591757","target":"absent","response":"absent","rt":"3715.1000000015","correct":true,"confidence":5},{"trial_n":35,"span":7,"encoder":"2521032","distractor":"2561032","target":"present","response":"present","rt":"4793.8999999985","correct":true,"confidence":2},{"trial_n":36,"span":7,"encoder":"7333887","distractor":"7383887","target":"present","response":"present","rt":"3701.299999997","correct":true,"confidence":4},{"trial_n":37,"span":8,"encoder":"18662010","distractor":"18632010","target":"present","response":"present","rt":"3434","correct":true,"confidence":4},{"trial_n":38,"span":8,"encoder":"08694926","distractor":"08094926","target":"absent","response":"absent","rt":"2972","correct":true,"confidence":3},{"trial_n":39,"span":9,"encoder":"769051144","distractor":"769071144","target":"absent","response":"absent","rt":"4435.8999999985","correct":true,"confidence":4},{"trial_n":40,"span":9,"encoder":"595723935","distractor":"595727935","target":"absent","response":"present","rt":"3259.1999999955","correct":false,"confidence":3},{"trial_n":41,"span":8,"encoder":"61054498","distractor":"61054098","target":"present","response":"present","rt":"2386.8999999985","correct":true,"confidence":3},{"trial_n":42,"span":8,"encoder":"49506335","distractor":"49506336","target":"present","response":"present","rt":"2696.3999999985","correct":true,"confidence":3},{"trial_n":43,"span":9,"encoder":"308506467","distractor":"308506767","target":"absent","response":"absent","rt":"3143.3999999985","correct":true,"confidence":4},{"trial_n":44,"span":9,"encoder":"667815884","distractor":"667818884","target":"present","response":"present","rt":"3837.6999999955","correct":true,"confidence":5},{"trial_n":45,"span":10,"encoder":"3838560813","distractor":"3838560853","target":"absent","response":"present","rt":"3548","correct":false,"confidence":4},{"trial_n":46,"span":9,"encoder":"536003897","distractor":"536023897","target":"present","response":"present","rt":"2315.5","correct":true,"confidence":3},{"trial_n":47,"span":9,"encoder":"070396859","distractor":"080396859","target":"absent","response":"absent","rt":"4959.200000003","correct":true,"confidence":2},{"trial_n":48,"span":10,"encoder":"4877076502","distractor":"4877076542","target":"absent","response":"present","rt":"2792.299999997","correct":false,"confidence":2},{"trial_n":49,"span":9,"encoder":"518806522","distractor":"518406522","target":"present","response":"present","rt":"6493.200000003","correct":true,"confidence":3},{"trial_n":50,"span":9,"encoder":"273926006","distractor":"273929006","target":"present","response":"present","rt":"2144.799999997","correct":true,"confidence":3},{"trial_n":51,"span":10,"encoder":"6305023269","distractor":"6305053269","target":"present","response":"present","rt":"2718.700000003","correct":true,"confidence":2},{"trial_n":52,"span":10,"encoder":"7308476561","distractor":"7308476566","target":"present","response":"present","rt":"3612.5","correct":true,"confidence":3},{"trial_n":53,"span":11,"encoder":"79359925896","distractor":"79359925836","target":"absent","response":"absent","rt":"2314.5","correct":true,"confidence":4},{"trial_n":54,"span":11,"encoder":"28181146540","distractor":"28181146640","target":"absent","response":"absent","rt":"2352.8000000045","correct":true,"confidence":4},{"trial_n":55,"span":12,"encoder":"792513832233","distractor":"762513832233","target":"present","response":"present","rt":"1831.6000000015","correct":true,"confidence":3},{"trial_n":56,"span":12,"encoder":"114178165174","distractor":"114178565174","target":"absent","response":"present","rt":"1921.3000000045","correct":false,"confidence":3},{"trial_n":57,"span":11,"encoder":"07958005512","distractor":"87958005512","target":"present","response":"present","rt":"2426","correct":true,"confidence":3},{"trial_n":58,"span":11,"encoder":"65627481391","distractor":"65627481311","target":"present","response":"present","rt":"4342.799999997","correct":true,"confidence":4},{"trial_n":59,"span":12,"encoder":"971219542094","distractor":"971219542794","target":"present","response":"present","rt":"2540.8999999985","correct":true,"confidence":3},{"trial_n":60,"span":12,"encoder":"855830389214","distractor":"855830389294","target":"present","response":"absent","rt":"5467.200000003","correct":false,"confidence":3},{"trial_n":61,"span":11,"encoder":"90456297475","distractor":"90456247475","target":"present","response":"present","rt":"2851.1000000015","correct":true,"confidence":3},{"trial_n":62,"span":11,"encoder":"88603062987","distractor":"88203062987","target":"absent","response":"present","rt":"2829.200000003","correct":false,"confidence":2},{"trial_n":63,"span":10,"encoder":"1219174405","distractor":"1219174403","target":"present","response":"present","rt":"5043.400000006","correct":true,"confidence":2},{"trial_n":64,"span":10,"encoder":"9777161837","distractor":"9777161877","target":"present","response":"present","rt":"3206.6000000015","correct":true,"confidence":4},{"trial_n":65,"span":11,"encoder":"29134894784","distractor":"29134894734","target":"absent","response":"absent","rt":"3973.6999999955","correct":true,"confidence":3},{"trial_n":66,"span":11,"encoder":"63616470748","distractor":"66616470748","target":"present","response":"present","rt":"6630.5","correct":true,"confidence":3},{"trial_n":67,"span":12,"encoder":"243006424812","distractor":"243016424812","target":"absent","response":"absent","rt":"2638.3999999985","correct":true,"confidence":5},{"trial_n":68,"span":12,"encoder":"555719204687","distractor":"555769204687","target":"present","response":"absent","rt":"107715.40000001","correct":false,"confidence":3},{"trial_n":69,"span":11,"encoder":"82445135203","distractor":"82444135203","target":"absent","response":"present","rt":"2123.3000000045","correct":false,"confidence":3},{"trial_n":70,"span":10,"encoder":"1469809522","distractor":"1466809522","target":"absent","response":"absent","rt":"64602.300000004","correct":true,"confidence":3},{"trial_n":71,"span":8,"encoder":"28412629","distractor":"28472629","target":"present","response":"present","rt":"13522.700000003","correct":true,"confidence":-1},{"trial_n":72,"span":8,"encoder":"95092579","distractor":"95092679","target":"present","response":"present","rt":"2954.3000000045","correct":true,"confidence":-1},{"trial_n":73,"span":9,"encoder":"195872057","distractor":"195272057","target":"absent","response":"absent","rt":"5541.200000003","correct":true,"confidence":-1},{"trial_n":74,"span":9,"encoder":"444855356","distractor":"448855356","target":"absent","response":"present","rt":"2608.799999997","correct":false,"confidence":-1},{"trial_n":75,"span":8,"encoder":"78329938","distractor":"70329938","target":"present","response":"present","rt":"71669.199999996","correct":true,"confidence":-1},{"trial_n":76,"span":8,"encoder":"34081171","distractor":"24081171","target":"absent","response":"absent","rt":"29331.399999999","correct":true,"confidence":-1},{"trial_n":77,"span":9,"encoder":"711345029","distractor":"711355029","target":"present","response":"absent","rt":"3207","correct":false,"confidence":-1},{"trial_n":78,"span":8,"encoder":"75872927","distractor":"75862927","target":"present","response":"absent","rt":"3103.6000000015","correct":false,"confidence":-1},{"trial_n":79,"span":7,"encoder":"3183253","distractor":"9183253","target":"present","response":"absent","rt":"3226.8000000045","correct":false,"confidence":-1},{"trial_n":80,"span":6,"encoder":"099155","distractor":"099165","target":"absent","response":"absent","rt":"2085.1000000015","correct":true,"confidence":-1},{"trial_n":81,"span":6,"encoder":"651448","distractor":"651848","target":"present","response":"absent","rt":"1204.700000003","correct":false,"confidence":-1},{"trial_n":82,"span":5,"encoder":"61907","distractor":"63907","target":"present","response":"present","rt":"2794.6000000015","correct":true,"confidence":-1},{"trial_n":83,"span":5,"encoder":"35342","distractor":"65342","target":"present","response":"present","rt":"4174.6000000015","correct":true,"confidence":-1},{"trial_n":84,"span":6,"encoder":"825146","distractor":"825144","target":"present","response":"present","rt":"1763.5","correct":true,"confidence":-1},{"trial_n":85,"span":6,"encoder":"427988","distractor":"427948","target":"absent","response":"absent","rt":"1465.8999999985","correct":true,"confidence":-1},{"trial_n":86,"span":7,"encoder":"3864547","distractor":"9864547","target":"absent","response":"absent","rt":"5723.8000000045","correct":true,"confidence":-1},{"trial_n":87,"span":7,"encoder":"9705249","distractor":"9705549","target":"absent","response":"absent","rt":"1761.6000000015","correct":true,"confidence":-1},{"trial_n":88,"span":8,"encoder":"69855049","distractor":"69355049","target":"present","response":"absent","rt":"3827.299999997","correct":false,"confidence":-1},{"trial_n":89,"span":7,"encoder":"6956924","distractor":"5956924","target":"present","response":"absent","rt":"5759","correct":false,"confidence":-1},{"trial_n":90,"span":6,"encoder":"236425","distractor":"236429","target":"present","response":"present","rt":"1735.700000003","correct":true,"confidence":-1},{"trial_n":91,"span":6,"encoder":"930777","distractor":"830777","target":"absent","response":"absent","rt":"2628.700000003","correct":true,"confidence":4},{"trial_n":92,"span":7,"encoder":"8671537","distractor":"8671531","target":"present","response":"present","rt":"1363.799999997","correct":true,"confidence":5},{"trial_n":93,"span":7,"encoder":"7683991","distractor":"7683990","target":"present","response":"present","rt":"1254.8999999985","correct":true,"confidence":5},{"trial_n":94,"span":8,"encoder":"10044768","distractor":"10044068","target":"present","response":"absent","rt":"3905.6999999955","correct":false,"confidence":3},{"trial_n":95,"span":7,"encoder":"5525452","distractor":"5524452","target":"present","response":"absent","rt":"2149.799999997","correct":false,"confidence":3},{"trial_n":96,"span":6,"encoder":"775129","distractor":"675129","target":"absent","response":"absent","rt":"2122.299999997","correct":true,"confidence":3},{"trial_n":97,"span":6,"encoder":"327890","distractor":"377890","target":"present","response":"absent","rt":"2007.5","correct":false,"confidence":3},{"trial_n":98,"span":5,"encoder":"15587","distractor":"15547","target":"present","response":"present","rt":"3041.900000006","correct":true,"confidence":4},{"trial_n":99,"span":5,"encoder":"04349","distractor":"04369","target":"absent","response":"absent","rt":"3342.299999997","correct":true,"confidence":5},{"trial_n":100,"span":6,"encoder":"516957","distractor":"516977","target":"absent","response":"absent","rt":"1996.1000000015","correct":true,"confidence":5},{"trial_n":101,"span":6,"encoder":"124843","distractor":"124841","target":"present","response":"present","rt":"1129.3999999985","correct":true,"confidence":5},{"trial_n":102,"span":7,"encoder":"8898012","distractor":"8894012","target":"present","response":"present","rt":"2447.6000000015","correct":true,"confidence":5},{"trial_n":103,"span":7,"encoder":"3396194","distractor":"3397194","target":"absent","response":"absent","rt":"2214.8000000045","correct":true,"confidence":3},{"trial_n":104,"span":8,"encoder":"17675499","distractor":"17675399","target":"absent","response":"absent","rt":"2087.099999994","correct":true,"confidence":5},{"trial_n":105,"span":8,"encoder":"73465553","distractor":"73435553","target":"absent","response":"absent","rt":"1605.200000003","correct":true,"confidence":5},{"trial_n":106,"span":9,"encoder":"390635341","distractor":"390675341","target":"absent","response":"present","rt":"2902.6000000015","correct":false,"confidence":2},{"trial_n":107,"span":8,"encoder":"59855478","distractor":"59855178","target":"present","response":"present","rt":"2660.8999999985","correct":true,"confidence":5},{"trial_n":108,"span":8,"encoder":"69155844","distractor":"69185844","target":"present","response":"present","rt":"3618","correct":true,"confidence":3},{"trial_n":109,"span":9,"encoder":"844951681","distractor":"844951881","target":"absent","response":"absent","rt":"2824.8000000045","correct":true,"confidence":4},{"trial_n":110,"span":9,"encoder":"308444036","distractor":"308404036","target":"absent","response":"absent","rt":"2608.3000000045","correct":true,"confidence":5},{"trial_n":111,"span":10,"encoder":"3965465775","distractor":"8965465775","target":"present","response":"absent","rt":"5062.8999999985","correct":false,"confidence":2},{"trial_n":112,"span":9,"encoder":"489976007","distractor":"489977007","target":"absent","response":"absent","rt":"4047.3000000045","correct":true,"confidence":4},{"trial_n":113,"span":9,"encoder":"696318733","distractor":"696318743","target":"present","response":"present","rt":"7200.5","correct":true,"confidence":4},{"trial_n":114,"span":10,"encoder":"8946071682","distractor":"8946071688","target":"absent","response":"absent","rt":"1638.1999999955","correct":true,"confidence":5},{"trial_n":115,"span":10,"encoder":"7444284178","distractor":"1444284178","target":"absent","response":"absent","rt":"5461.8000000045","correct":true,"confidence":2},{"trial_n":116,"span":11,"encoder":"17789277835","distractor":"17789277235","target":"absent","response":"absent","rt":"1431.1999999955","correct":true,"confidence":5},{"trial_n":117,"span":11,"encoder":"76328029769","distractor":"76328029761","target":"absent","response":"absent","rt":"1303.3999999985","correct":true,"confidence":4},{"trial_n":118,"span":12,"encoder":"948030412793","distractor":"948030422793","target":"present","response":"present","rt":"1948.8000000045","correct":true,"confidence":4},{"trial_n":119,"span":12,"encoder":"045235349797","distractor":"045235349197","target":"absent","response":"absent","rt":"2073.1000000015","correct":true,"confidence":4},{"trial_n":120,"span":13,"encoder":"5672019164187","distractor":"5672059164187","target":"present","response":"absent","rt":"3969.200000003","correct":false,"confidence":4},{"trial_n":121,"span":12,"encoder":"861513377892","distractor":"868513377892","target":"absent","response":"absent","rt":"4746.700000003","correct":true,"confidence":1},{"trial_n":122,"span":12,"encoder":"310441757174","distractor":"310541757174","target":"absent","response":"absent","rt":"3867.8999999985","correct":true,"confidence":4},{"trial_n":123,"span":13,"encoder":"8798459545231","distractor":"8798459545235","target":"present","response":"present","rt":"1684","correct":true,"confidence":4},{"trial_n":124,"span":13,"encoder":"8936965605474","distractor":"8932965605474","target":"absent","response":"present","rt":"6239.8000000045","correct":false,"confidence":4},{"trial_n":125,"span":12,"encoder":"079475342717","distractor":"079475042717","target":"present","response":"absent","rt":"3501.5","correct":false,"confidence":1},{"trial_n":126,"span":11,"encoder":"27573314266","distractor":"27573314066","target":"absent","response":"absent","rt":"9025.1999999955","correct":true,"confidence":4},{"trial_n":127,"span":11,"encoder":"34152228475","distractor":"34152228405","target":"present","response":"present","rt":"1213","correct":true,"confidence":5},{"trial_n":128,"span":12,"encoder":"866811558842","distractor":"866818558842","target":"present","response":"present","rt":"2873.1999999955","correct":true,"confidence":4},{"trial_n":129,"span":12,"encoder":"830176505798","distractor":"830176505998","target":"absent","response":"absent","rt":"1392.6999999955","correct":true,"confidence":4},{"trial_n":130,"span":13,"encoder":"3867645375150","distractor":"3867635375150","target":"present","response":"present","rt":"4710.8999999985","correct":true,"confidence":1},{"trial_n":131,"span":13,"encoder":"7444638564021","distractor":"7444638564081","target":"absent","response":"absent","rt":"1346.8000000045","correct":true,"confidence":5},{"trial_n":132,"span":14,"encoder":"40072440047993","distractor":"40072440047997","target":"absent","response":"absent","rt":"1272.1000000015","correct":true,"confidence":4},{"trial_n":133,"span":14,"encoder":"60866674455120","distractor":"60866674555120","target":"present","response":"present","rt":"2895.3000000045","correct":true,"confidence":4},{"trial_n":134,"span":15,"encoder":"143268225980925","distractor":"163268225980925","target":"present","response":"present","rt":"3019.8999999985","correct":true,"confidence":1},{"trial_n":135,"span":15,"encoder":"914483253891394","distractor":"914483253896394","target":"absent","response":"absent","rt":"5464.3999999985","correct":true,"confidence":4},{"trial_n":136,"span":16,"encoder":"5172821498452273","distractor":"5170821498452273","target":"present","response":"present","rt":"3656.299999997","correct":true,"confidence":1},{"trial_n":137,"span":16,"encoder":"9552991432351918","distractor":"9552991432321918","target":"absent","response":"absent","rt":"1944.5","correct":true,"confidence":1},{"trial_n":138,"span":17,"encoder":"55210368112489318","distractor":"55210362112489318","target":"present","response":"absent","rt":"3431.8999999985","correct":false,"confidence":1},{"trial_n":139,"span":16,"encoder":"0095863391783147","distractor":"0094863391783147","target":"absent","response":"absent","rt":"835523.3","correct":true,"confidence":1},{"trial_n":140,"span":16,"encoder":"9915271217912329","distractor":"9915271317912329","target":"absent","response":"present","rt":"8913.299999997","correct":false,"confidence":5}]