[{"trial_n":1,"n_dots":4.25,"target":"left","response":"left","rt":23683.899999999,"correct":true,"confidence":-1},{"trial_n":2,"n_dots":4.25,"target":"right","response":"left","rt":765.70000000298,"correct":false,"confidence":-1},{"trial_n":3,"n_dots":4.65,"target":"right","response":"right","rt":291.89999999851,"correct":true,"confidence":-1},{"trial_n":4,"n_dots":4.65,"target":"right","response":"right","rt":152.10000000149,"correct":true,"confidence":-1},{"trial_n":5,"n_dots":4.25,"target":"left","response":"left","rt":2077.700000003,"correct":true,"confidence":-1},{"trial_n":6,"n_dots":4.25,"target":"right","response":"right","rt":6.8000000044703,"correct":true,"confidence":-1},{"trial_n":7,"n_dots":3.85,"target":"left","response":"left","rt":146,"correct":true,"confidence":-1},{"trial_n":8,"n_dots":3.85,"target":"right","response":"right","rt":423.89999999851,"correct":true,"confidence":-1},{"trial_n":9,"n_dots":3.65,"target":"right","response":"right","rt":431.80000000447,"correct":true,"confidence":-1},{"trial_n":10,"n_dots":3.65,"target":"right","response":"left","rt":457.39999999851,"correct":false,"confidence":-1},{"trial_n":11,"n_dots":3.85,"target":"left","response":"left","rt":646.59999999404,"correct":true,"confidence":-1},{"trial_n":12,"n_dots":3.85,"target":"left","response":"left","rt":109,"correct":true,"confidence":-1},{"trial_n":13,"n_dots":3.75,"target":"left","response":"right","rt":319.89999999851,"correct":false,"confidence":-1},{"trial_n":14,"n_dots":3.85,"target":"left","response":"left","rt":308.59999999404,"correct":true,"confidence":-1},{"trial_n":15,"n_dots":3.85,"target":"right","response":"right","rt":319.39999999851,"correct":true,"confidence":-1},{"trial_n":16,"n_dots":3.75,"target":"left","response":"left","rt":366.5,"correct":true,"confidence":-1},{"trial_n":17,"n_dots":3.75,"target":"right","response":"right","rt":425.90000000596,"correct":true,"confidence":-1},{"trial_n":18,"n_dots":3.65,"target":"right","response":"right","rt":660.89999999851,"correct":true,"confidence":-1},{"trial_n":19,"n_dots":3.65,"target":"left","response":"left","rt":318.60000000149,"correct":true,"confidence":-1},{"trial_n":20,"n_dots":3.55,"target":"left","response":"left","rt":418.90000000596,"correct":true,"confidence":-1},{"trial_n":21,"n_dots":3.55,"target":"right","response":"right","rt":388.70000000298,"correct":true,"confidence":4},{"trial_n":22,"n_dots":3.45,"target":"left","response":"right","rt":3216.799999997,"correct":false,"confidence":4},{"trial_n":23,"n_dots":3.55,"target":"left","response":"left","rt":1499.1000000015,"correct":true,"confidence":3},{"trial_n":24,"n_dots":3.55,"target":"left","response":"left","rt":1165.3999999985,"correct":true,"confidence":3},{"trial_n":25,"n_dots":3.45,"target":"left","response":"left","rt":424,"correct":true,"confidence":3},{"trial_n":26,"n_dots":3.45,"target":"left","response":"left","rt":483.89999999851,"correct":true,"confidence":4},{"trial_n":27,"n_dots":3.35,"target":"right","response":"right","rt":761.79999999702,"correct":true,"confidence":4},{"trial_n":28,"n_dots":3.35,"target":"left","response":"left","rt":634.5,"correct":true,"confidence":3},{"trial_n":29,"n_dots":3.25,"target":"right","response":"right","rt":801.60000000149,"correct":true,"confidence":4},{"trial_n":30,"n_dots":3.25,"target":"left","response":"right","rt":789.29999999702,"correct":false,"confidence":5},{"trial_n":31,"n_dots":3.35,"target":"right","response":"left","rt":899.10000000149,"correct":false,"confidence":3},{"trial_n":32,"n_dots":3.45,"target":"left","response":"left","rt":728.60000000149,"correct":true,"confidence":3},{"trial_n":33,"n_dots":3.45,"target":"left","response":"right","rt":18617.799999997,"correct":false,"confidence":3},{"trial_n":34,"n_dots":3.55,"target":"left","response":"left","rt":623.30000000447,"correct":true,"confidence":4},{"trial_n":35,"n_dots":3.55,"target":"left","response":"left","rt":525.39999999851,"correct":true,"confidence":4},{"trial_n":36,"n_dots":3.45,"target":"right","response":"right","rt":557.5,"correct":true,"confidence":4},{"trial_n":37,"n_dots":3.45,"target":"left","response":"left","rt":527.20000000298,"correct":true,"confidence":3},{"trial_n":38,"n_dots":3.35,"target":"right","response":"left","rt":708.30000000447,"correct":false,"confidence":4},{"trial_n":39,"n_dots":3.45,"target":"right","response":"left","rt":1683,"correct":false,"confidence":4},{"trial_n":40,"n_dots":3.55,"target":"left","response":"left","rt":579.40000000596,"correct":true,"confidence":5},{"trial_n":41,"n_dots":3.55,"target":"left","response":"left","rt":553.10000000149,"correct":true,"confidence":3},{"trial_n":42,"n_dots":3.45,"target":"right","response":"right","rt":540.10000000149,"correct":true,"confidence":4},{"trial_n":43,"n_dots":3.45,"target":"left","response":"left","rt":1128.8000000045,"correct":true,"confidence":3},{"trial_n":44,"n_dots":3.35,"target":"right","response":"right","rt":410.39999999851,"correct":true,"confidence":5},{"trial_n":45,"n_dots":3.35,"target":"left","response":"left","rt":83.39999999851,"correct":true,"confidence":3},{"trial_n":46,"n_dots":3.25,"target":"left","response":"left","rt":608.5,"correct":true,"confidence":4},{"trial_n":47,"n_dots":3.25,"target":"left","response":"left","rt":499.29999999702,"correct":true,"confidence":4},{"trial_n":48,"n_dots":3.15,"target":"right","response":"right","rt":463.5,"correct":true,"confidence":4},{"trial_n":49,"n_dots":3.15,"target":"right","response":"right","rt":790.20000000298,"correct":true,"confidence":4},{"trial_n":50,"n_dots":3.05,"target":"right","response":"right","rt":540.5,"correct":true,"confidence":4},{"trial_n":51,"n_dots":3.05,"target":"right","response":"right","rt":505.60000000149,"correct":true,"confidence":4},{"trial_n":52,"n_dots":2.95,"target":"right","response":"right","rt":381.59999999404,"correct":true,"confidence":4},{"trial_n":53,"n_dots":2.95,"target":"right","response":"right","rt":712.79999999702,"correct":true,"confidence":4},{"trial_n":54,"n_dots":2.85,"target":"left","response":"left","rt":449.10000000149,"correct":true,"confidence":5},{"trial_n":55,"n_dots":2.85,"target":"left","response":"right","rt":381,"correct":false,"confidence":2},{"trial_n":56,"n_dots":2.95,"target":"right","response":"right","rt":315.29999999702,"correct":true,"confidence":1},{"trial_n":57,"n_dots":2.95,"target":"right","response":"right","rt":357.10000000149,"correct":true,"confidence":1},{"trial_n":58,"n_dots":2.85,"target":"right","response":"right","rt":797.5,"correct":true,"confidence":1},{"trial_n":59,"n_dots":2.85,"target":"left","response":"left","rt":359.89999999851,"correct":true,"confidence":1},{"trial_n":60,"n_dots":2.75,"target":"left","response":"left","rt":655.5,"correct":true,"confidence":1},{"trial_n":61,"n_dots":2.75,"target":"right","response":"left","rt":441.20000000298,"correct":false,"confidence":4},{"trial_n":62,"n_dots":2.85,"target":"left","response":"right","rt":61.39999999851,"correct":false,"confidence":3},{"trial_n":63,"n_dots":2.95,"target":"right","response":"left","rt":201.29999999702,"correct":false,"confidence":3},{"trial_n":64,"n_dots":3.05,"target":"right","response":"right","rt":450.09999999404,"correct":true,"confidence":4},{"trial_n":65,"n_dots":3.05,"target":"left","response":"left","rt":503.39999999851,"correct":true,"confidence":2},{"trial_n":66,"n_dots":2.95,"target":"left","response":"left","rt":710.39999999851,"correct":true,"confidence":4},{"trial_n":67,"n_dots":2.95,"target":"right","response":"right","rt":509.29999999702,"correct":true,"confidence":4},{"trial_n":68,"n_dots":2.85,"target":"right","response":"right","rt":555,"correct":true,"confidence":4},{"trial_n":69,"n_dots":2.85,"target":"right","response":"right","rt":415.20000000298,"correct":true,"confidence":4},{"trial_n":70,"n_dots":2.75,"target":"right","response":"right","rt":418.5,"correct":true,"confidence":4},{"trial_n":71,"n_dots":2.75,"target":"right","response":"right","rt":449.60000000149,"correct":true,"confidence":4},{"trial_n":72,"n_dots":2.65,"target":"right","response":"left","rt":458.70000000298,"correct":false,"confidence":4},{"trial_n":73,"n_dots":2.75,"target":"left","response":"left","rt":505.69999999553,"correct":true,"confidence":4},{"trial_n":74,"n_dots":2.75,"target":"right","response":"right","rt":367.40000000596,"correct":true,"confidence":4},{"trial_n":75,"n_dots":2.65,"target":"left","response":"left","rt":499.5,"correct":true,"confidence":4},{"trial_n":76,"n_dots":2.65,"target":"left","response":"left","rt":259.20000000298,"correct":true,"confidence":1},{"trial_n":77,"n_dots":2.55,"target":"left","response":"left","rt":145.89999999851,"correct":true,"confidence":1},{"trial_n":78,"n_dots":2.55,"target":"left","response":"right","rt":5.2000000029802,"correct":false,"confidence":1},{"trial_n":79,"n_dots":2.65,"target":"right","response":"right","rt":1399.700000003,"correct":true,"confidence":1},{"trial_n":80,"n_dots":2.65,"target":"right","response":"left","rt":1479.3999999985,"correct":false,"confidence":3},{"trial_n":81,"n_dots":2.75,"target":"left","response":"right","rt":146.20000000298,"correct":false,"confidence":3},{"trial_n":82,"n_dots":2.85,"target":"right","response":"right","rt":477.80000000447,"correct":true,"confidence":4},{"trial_n":83,"n_dots":2.85,"target":"left","response":"right","rt":846,"correct":false,"confidence":2},{"trial_n":84,"n_dots":2.95,"target":"right","response":"right","rt":456.89999999851,"correct":true,"confidence":4},{"trial_n":85,"n_dots":2.95,"target":"right","response":"left","rt":650.5,"correct":false,"confidence":3},{"trial_n":86,"n_dots":3.05,"target":"left","response":"right","rt":684.90000000596,"correct":false,"confidence":4},{"trial_n":87,"n_dots":3.15,"target":"right","response":"right","rt":547.29999999702,"correct":true,"confidence":4},{"trial_n":88,"n_dots":3.15,"target":"right","response":"right","rt":258,"correct":true,"confidence":1},{"trial_n":89,"n_dots":3.05,"target":"left","response":"left","rt":434.19999999553,"correct":true,"confidence":3},{"trial_n":90,"n_dots":3.05,"target":"left","response":"left","rt":490.19999999553,"correct":true,"confidence":1},{"trial_n":91,"n_dots":2.95,"target":"left","response":"left","rt":705.19999999553,"correct":true,"confidence":1},{"trial_n":92,"n_dots":2.95,"target":"left","response":"right","rt":244.5,"correct":false,"confidence":3},{"trial_n":93,"n_dots":3.05,"target":"right","response":"right","rt":417.89999999851,"correct":true,"confidence":4},{"trial_n":94,"n_dots":3.05,"target":"right","response":"right","rt":441,"correct":true,"confidence":4},{"trial_n":95,"n_dots":2.95,"target":"left","response":"right","rt":893.30000000447,"correct":false,"confidence":3},{"trial_n":96,"n_dots":3.05,"target":"left","response":"left","rt":160.09999999404,"correct":true,"confidence":2},{"trial_n":97,"n_dots":3.05,"target":"left","response":"left","rt":367.59999999404,"correct":true,"confidence":4},{"trial_n":98,"n_dots":2.95,"target":"left","response":"left","rt":384.90000000596,"correct":true,"confidence":3},{"trial_n":99,"n_dots":2.95,"target":"right","response":"right","rt":358.20000000298,"correct":true,"confidence":4},{"trial_n":100,"n_dots":2.85,"target":"right","response":"right","rt":426,"correct":true,"confidence":4},{"trial_n":101,"n_dots":2.85,"target":"right","response":"right","rt":473.39999999851,"correct":true,"confidence":3},{"trial_n":102,"n_dots":2.75,"target":"left","response":"right","rt":43.09999999404,"correct":false,"confidence":3},{"trial_n":103,"n_dots":2.85,"target":"left","response":"left","rt":433.29999999702,"correct":true,"confidence":2},{"trial_n":104,"n_dots":2.85,"target":"right","response":"right","rt":245,"correct":true,"confidence":4},{"trial_n":105,"n_dots":2.75,"target":"right","response":"left","rt":363.10000000149,"correct":false,"confidence":3},{"trial_n":106,"n_dots":2.85,"target":"right","response":"right","rt":393.5,"correct":true,"confidence":3},{"trial_n":107,"n_dots":2.85,"target":"left","response":"left","rt":273.20000000298,"correct":true,"confidence":3},{"trial_n":108,"n_dots":2.75,"target":"left","response":"left","rt":307.5,"correct":true,"confidence":3},{"trial_n":109,"n_dots":2.75,"target":"right","response":"left","rt":645.19999999553,"correct":false,"confidence":3},{"trial_n":110,"n_dots":2.85,"target":"right","response":"right","rt":320.39999999851,"correct":true,"confidence":3},{"trial_n":111,"n_dots":2.85,"target":"right","response":"left","rt":1020.3999999985,"correct":false,"confidence":3},{"trial_n":112,"n_dots":2.95,"target":"left","response":"left","rt":208.5,"correct":true,"confidence":3},{"trial_n":113,"n_dots":2.95,"target":"right","response":"left","rt":237.39999999851,"correct":false,"confidence":1},{"trial_n":114,"n_dots":3.05,"target":"left","response":"left","rt":458,"correct":true,"confidence":3},{"trial_n":115,"n_dots":3.05,"target":"right","response":"left","rt":1901.700000003,"correct":false,"confidence":3},{"trial_n":116,"n_dots":3.15,"target":"left","response":"left","rt":7.6000000014901,"correct":true,"confidence":3},{"trial_n":117,"n_dots":3.15,"target":"left","response":"left","rt":1163.299999997,"correct":true,"confidence":3},{"trial_n":118,"n_dots":3.05,"target":"right","response":"left","rt":683.89999999851,"correct":false,"confidence":3},{"trial_n":119,"n_dots":3.15,"target":"right","response":"left","rt":206.10000000149,"correct":false,"confidence":2},{"trial_n":120,"n_dots":3.25,"target":"left","response":"left","rt":671.60000000149,"correct":true,"confidence":3}]