[{"trial_n":1,"min":25,"max":230,"target":"present","response":"present","rt":1759.8000000045,"correct":true,"confidence":-1},{"trial_n":2,"min":25,"max":230,"target":"present","response":"present","rt":768.29999999702,"correct":true,"confidence":-1},{"trial_n":3,"min":41,"max":214,"target":"absent","response":"absent","rt":703,"correct":true,"confidence":-1},{"trial_n":4,"min":41,"max":214,"target":"absent","response":"absent","rt":543.5,"correct":true,"confidence":-1},{"trial_n":5,"min":57,"max":198,"target":"present","response":"present","rt":978.39999999851,"correct":true,"confidence":-1},{"trial_n":6,"min":57,"max":198,"target":"present","response":"present","rt":1103.8999999985,"correct":true,"confidence":-1},{"trial_n":7,"min":73,"max":182,"target":"absent","response":"present","rt":16305.5,"correct":false,"confidence":-1},{"trial_n":8,"min":57,"max":198,"target":"present","response":"present","rt":569.89999999851,"correct":true,"confidence":-1},{"trial_n":9,"min":57,"max":198,"target":"absent","response":"absent","rt":838.30000000447,"correct":true,"confidence":-1},{"trial_n":10,"min":73,"max":182,"target":"present","response":"present","rt":1160.700000003,"correct":true,"confidence":-1},{"trial_n":11,"min":73,"max":182,"target":"present","response":"absent","rt":665.30000000447,"correct":false,"confidence":-1},{"trial_n":12,"min":65,"max":190,"target":"absent","response":"absent","rt":2501.200000003,"correct":true,"confidence":-1},{"trial_n":13,"min":65,"max":190,"target":"present","response":"absent","rt":257.29999999702,"correct":false,"confidence":-1},{"trial_n":14,"min":57,"max":198,"target":"absent","response":"absent","rt":1197.8999999985,"correct":true,"confidence":-1},{"trial_n":15,"min":57,"max":198,"target":"absent","response":"absent","rt":320.5,"correct":true,"confidence":-1},{"trial_n":16,"min":65,"max":190,"target":"absent","response":"absent","rt":297.70000000298,"correct":true,"confidence":-1},{"trial_n":17,"min":65,"max":190,"target":"absent","response":"absent","rt":249,"correct":true,"confidence":-1},{"trial_n":18,"min":73,"max":182,"target":"absent","response":"absent","rt":295.19999999553,"correct":true,"confidence":-1},{"trial_n":19,"min":73,"max":182,"target":"present","response":"absent","rt":121.30000000447,"correct":false,"confidence":-1},{"trial_n":20,"min":65,"max":190,"target":"absent","response":"absent","rt":520.89999999851,"correct":true,"confidence":-1},{"trial_n":21,"min":65,"max":190,"target":"absent","response":"absent","rt":358.59999999404,"correct":true,"confidence":4},{"trial_n":22,"min":69,"max":186,"target":"present","response":"present","rt":302.10000000149,"correct":true,"confidence":3},{"trial_n":23,"min":69,"max":186,"target":"absent","response":"absent","rt":4412,"correct":true,"confidence":4},{"trial_n":24,"min":73,"max":182,"target":"present","response":"present","rt":365.69999999553,"correct":true,"confidence":4},{"trial_n":25,"min":73,"max":182,"target":"present","response":"present","rt":409.10000000149,"correct":true,"confidence":4},{"trial_n":26,"min":77,"max":178,"target":"absent","response":"absent","rt":299.90000000596,"correct":true,"confidence":4},{"trial_n":27,"min":77,"max":178,"target":"present","response":"present","rt":603.80000000447,"correct":true,"confidence":1},{"trial_n":28,"min":81,"max":174,"target":"present","response":"absent","rt":389.59999999404,"correct":false,"confidence":3},{"trial_n":29,"min":77,"max":178,"target":"absent","response":"absent","rt":395.29999999702,"correct":true,"confidence":4},{"trial_n":30,"min":77,"max":178,"target":"present","response":"present","rt":689.89999999851,"correct":true,"confidence":3},{"trial_n":31,"min":79,"max":176,"target":"present","response":"absent","rt":291.90000000596,"correct":false,"confidence":1},{"trial_n":32,"min":77,"max":178,"target":"absent","response":"absent","rt":382.5,"correct":true,"confidence":3},{"trial_n":33,"min":77,"max":178,"target":"present","response":"present","rt":289.39999999851,"correct":true,"confidence":3},{"trial_n":34,"min":79,"max":176,"target":"present","response":"present","rt":303.5,"correct":true,"confidence":3},{"trial_n":35,"min":79,"max":176,"target":"present","response":"present","rt":369.29999999702,"correct":true,"confidence":3},{"trial_n":36,"min":81,"max":174,"target":"absent","response":"absent","rt":322,"correct":true,"confidence":4},{"trial_n":37,"min":81,"max":174,"target":"present","response":"present","rt":1155.3999999985,"correct":true,"confidence":5},{"trial_n":38,"min":83,"max":172,"target":"absent","response":"absent","rt":339.20000000298,"correct":true,"confidence":4},{"trial_n":39,"min":83,"max":172,"target":"present","response":"present","rt":564.30000000447,"correct":true,"confidence":3},{"trial_n":40,"min":85,"max":170,"target":"present","response":"absent","rt":540,"correct":false,"confidence":4},{"trial_n":41,"min":84,"max":171,"target":"absent","response":"absent","rt":498.89999999851,"correct":true,"confidence":5},{"trial_n":42,"min":84,"max":171,"target":"present","response":"present","rt":615.39999999851,"correct":true,"confidence":5},{"trial_n":43,"min":85,"max":170,"target":"present","response":"present","rt":296.80000000447,"correct":true,"confidence":5},{"trial_n":44,"min":85,"max":170,"target":"present","response":"present","rt":371.60000000149,"correct":true,"confidence":5},{"trial_n":45,"min":86,"max":169,"target":"absent","response":"absent","rt":331.10000000149,"correct":true,"confidence":5},{"trial_n":46,"min":86,"max":169,"target":"present","response":"present","rt":287.20000000298,"correct":true,"confidence":4},{"trial_n":47,"min":87,"max":168,"target":"absent","response":"absent","rt":437.60000000149,"correct":true,"confidence":4},{"trial_n":48,"min":87,"max":168,"target":"absent","response":"absent","rt":419.30000000447,"correct":true,"confidence":4},{"trial_n":49,"min":88,"max":167,"target":"absent","response":"absent","rt":607.10000000149,"correct":true,"confidence":4},{"trial_n":50,"min":88,"max":167,"target":"present","response":"present","rt":519.79999999702,"correct":true,"confidence":3},{"trial_n":51,"min":89,"max":166,"target":"absent","response":"absent","rt":542.19999999553,"correct":true,"confidence":4},{"trial_n":52,"min":89,"max":166,"target":"present","response":"present","rt":444.60000000149,"correct":true,"confidence":3},{"trial_n":53,"min":90,"max":165,"target":"absent","response":"absent","rt":301,"correct":true,"confidence":4},{"trial_n":54,"min":90,"max":165,"target":"present","response":"absent","rt":396,"correct":false,"confidence":4},{"trial_n":55,"min":89,"max":166,"target":"absent","response":"absent","rt":257.70000000298,"correct":true,"confidence":4},{"trial_n":56,"min":89,"max":166,"target":"absent","response":"absent","rt":287.5,"correct":true,"confidence":4},{"trial_n":57,"min":90,"max":165,"target":"present","response":"absent","rt":315.10000000149,"correct":false,"confidence":5},{"trial_n":58,"min":89,"max":166,"target":"absent","response":"absent","rt":1847.299999997,"correct":true,"confidence":5},{"trial_n":59,"min":89,"max":166,"target":"absent","response":"absent","rt":4637.299999997,"correct":true,"confidence":4},{"trial_n":60,"min":90,"max":165,"target":"present","response":"present","rt":989.89999999851,"correct":true,"confidence":4},{"trial_n":61,"min":90,"max":165,"target":"absent","response":"present","rt":2219,"correct":false,"confidence":1},{"trial_n":62,"min":89,"max":166,"target":"absent","response":"absent","rt":483.10000000149,"correct":true,"confidence":2},{"trial_n":63,"min":89,"max":166,"target":"present","response":"absent","rt":491.5,"correct":false,"confidence":2},{"trial_n":64,"min":88,"max":167,"target":"present","response":"present","rt":335.90000000596,"correct":true,"confidence":2},{"trial_n":65,"min":88,"max":167,"target":"present","response":"absent","rt":278.5,"correct":false,"confidence":3},{"trial_n":66,"min":87,"max":168,"target":"present","response":"absent","rt":239.89999999851,"correct":false,"confidence":4},{"trial_n":67,"min":86,"max":169,"target":"absent","response":"present","rt":1593.099999994,"correct":false,"confidence":4},{"trial_n":68,"min":85,"max":170,"target":"absent","response":"absent","rt":588.39999999851,"correct":true,"confidence":4},{"trial_n":69,"min":85,"max":170,"target":"absent","response":"absent","rt":367.80000000447,"correct":true,"confidence":4},{"trial_n":70,"min":86,"max":169,"target":"present","response":"present","rt":635.60000000149,"correct":true,"confidence":5},{"trial_n":71,"min":41,"max":214,"target":"present","response":"absent","rt":4315.8000000045,"correct":false,"confidence":-1},{"trial_n":72,"min":41,"max":214,"target":"present","response":"present","rt":460.5,"correct":true,"confidence":-1},{"trial_n":73,"min":41,"max":214,"target":"absent","response":"absent","rt":450.89999999851,"correct":true,"confidence":-1},{"trial_n":74,"min":57,"max":198,"target":"absent","response":"absent","rt":325.39999999851,"correct":true,"confidence":-1},{"trial_n":75,"min":57,"max":198,"target":"present","response":"present","rt":280.70000000298,"correct":true,"confidence":-1},{"trial_n":76,"min":73,"max":182,"target":"absent","response":"absent","rt":420.89999999851,"correct":true,"confidence":-1},{"trial_n":77,"min":73,"max":182,"target":"present","response":"present","rt":402.60000000149,"correct":true,"confidence":-1},{"trial_n":78,"min":89,"max":166,"target":"present","response":"absent","rt":729.79999999702,"correct":false,"confidence":-1},{"trial_n":79,"min":73,"max":182,"target":"present","response":"present","rt":574.80000000447,"correct":true,"confidence":-1},{"trial_n":80,"min":73,"max":182,"target":"present","response":"present","rt":216.70000000298,"correct":true,"confidence":-1},{"trial_n":81,"min":81,"max":174,"target":"absent","response":"absent","rt":378.39999999851,"correct":true,"confidence":-1},{"trial_n":82,"min":81,"max":174,"target":"present","response":"present","rt":243.20000000298,"correct":true,"confidence":-1},{"trial_n":83,"min":89,"max":166,"target":"absent","response":"absent","rt":197,"correct":true,"confidence":-1},{"trial_n":84,"min":89,"max":166,"target":"present","response":"absent","rt":270.70000000298,"correct":false,"confidence":-1},{"trial_n":85,"min":81,"max":174,"target":"present","response":"present","rt":206.60000000149,"correct":true,"confidence":-1},{"trial_n":86,"min":81,"max":174,"target":"absent","response":"absent","rt":497,"correct":true,"confidence":-1},{"trial_n":87,"min":89,"max":166,"target":"absent","response":"absent","rt":1045.700000003,"correct":true,"confidence":-1},{"trial_n":88,"min":89,"max":166,"target":"absent","response":"present","rt":372.5,"correct":false,"confidence":-1},{"trial_n":89,"min":81,"max":174,"target":"present","response":"present","rt":191.70000000298,"correct":true,"confidence":-1},{"trial_n":90,"min":81,"max":174,"target":"present","response":"present","rt":298,"correct":true,"confidence":-1},{"trial_n":91,"min":85,"max":170,"target":"present","response":"present","rt":643.39999999851,"correct":true,"confidence":1},{"trial_n":92,"min":85,"max":170,"target":"absent","response":"present","rt":355.60000000149,"correct":false,"confidence":1},{"trial_n":93,"min":81,"max":174,"target":"absent","response":"absent","rt":650.79999999702,"correct":true,"confidence":4},{"trial_n":94,"min":81,"max":174,"target":"present","response":"present","rt":369.5,"correct":true,"confidence":4},{"trial_n":95,"min":85,"max":170,"target":"present","response":"present","rt":164.70000000298,"correct":true,"confidence":5},{"trial_n":96,"min":85,"max":170,"target":"absent","response":"present","rt":611.5,"correct":false,"confidence":4},{"trial_n":97,"min":81,"max":174,"target":"absent","response":"absent","rt":593.10000000149,"correct":true,"confidence":4},{"trial_n":98,"min":81,"max":174,"target":"absent","response":"present","rt":262.69999999553,"correct":false,"confidence":4},{"trial_n":99,"min":77,"max":178,"target":"present","response":"present","rt":161.20000000298,"correct":true,"confidence":5},{"trial_n":100,"min":77,"max":178,"target":"present","response":"present","rt":41,"correct":true,"confidence":4},{"trial_n":101,"min":79,"max":176,"target":"absent","response":"present","rt":778.80000000447,"correct":false,"confidence":4},{"trial_n":102,"min":77,"max":178,"target":"absent","response":"absent","rt":723.10000000149,"correct":true,"confidence":4},{"trial_n":103,"min":77,"max":178,"target":"absent","response":"absent","rt":564.5,"correct":true,"confidence":5},{"trial_n":104,"min":79,"max":176,"target":"absent","response":"absent","rt":523.19999999553,"correct":true,"confidence":2},{"trial_n":105,"min":79,"max":176,"target":"present","response":"present","rt":106.19999999553,"correct":true,"confidence":5},{"trial_n":106,"min":81,"max":174,"target":"absent","response":"absent","rt":467.89999999851,"correct":true,"confidence":4},{"trial_n":107,"min":81,"max":174,"target":"present","response":"present","rt":75.60000000149,"correct":true,"confidence":5},{"trial_n":108,"min":83,"max":172,"target":"present","response":"present","rt":179.39999999851,"correct":true,"confidence":4},{"trial_n":109,"min":83,"max":172,"target":"present","response":"present","rt":735.10000000149,"correct":true,"confidence":4},{"trial_n":110,"min":85,"max":170,"target":"absent","response":"absent","rt":513.60000000149,"correct":true,"confidence":4},{"trial_n":111,"min":85,"max":170,"target":"absent","response":"present","rt":311.60000000149,"correct":false,"confidence":5},{"trial_n":112,"min":84,"max":171,"target":"present","response":"present","rt":309.10000000149,"correct":true,"confidence":4},{"trial_n":113,"min":84,"max":171,"target":"absent","response":"absent","rt":501,"correct":true,"confidence":4},{"trial_n":114,"min":85,"max":170,"target":"absent","response":"absent","rt":437.70000000298,"correct":true,"confidence":4},{"trial_n":115,"min":85,"max":170,"target":"present","response":"present","rt":239.5,"correct":true,"confidence":5},{"trial_n":116,"min":86,"max":169,"target":"present","response":"present","rt":176.10000000149,"correct":true,"confidence":5},{"trial_n":117,"min":86,"max":169,"target":"present","response":"present","rt":260.5,"correct":true,"confidence":5},{"trial_n":118,"min":87,"max":168,"target":"absent","response":"absent","rt":1975.3000000045,"correct":true,"confidence":1},{"trial_n":119,"min":87,"max":168,"target":"absent","response":"present","rt":195.10000000149,"correct":false,"confidence":4},{"trial_n":120,"min":86,"max":169,"target":"absent","response":"absent","rt":783.59999999404,"correct":true,"confidence":5},{"trial_n":121,"min":86,"max":169,"target":"present","response":"present","rt":418.39999999851,"correct":true,"confidence":4},{"trial_n":122,"min":87,"max":168,"target":"absent","response":"absent","rt":691.5,"correct":true,"confidence":3},{"trial_n":123,"min":87,"max":168,"target":"absent","response":"present","rt":443.69999999553,"correct":false,"confidence":3},{"trial_n":124,"min":86,"max":169,"target":"absent","response":"absent","rt":626.10000000149,"correct":true,"confidence":4},{"trial_n":125,"min":86,"max":169,"target":"absent","response":"present","rt":459.20000000298,"correct":false,"confidence":4},{"trial_n":126,"min":85,"max":170,"target":"absent","response":"absent","rt":7802.3999999985,"correct":true,"confidence":4},{"trial_n":127,"min":85,"max":170,"target":"present","response":"absent","rt":500.09999999404,"correct":false,"confidence":3},{"trial_n":128,"min":84,"max":171,"target":"present","response":"absent","rt":224.79999999702,"correct":false,"confidence":4},{"trial_n":129,"min":83,"max":172,"target":"absent","response":"present","rt":604,"correct":false,"confidence":4},{"trial_n":130,"min":82,"max":173,"target":"present","response":"present","rt":197.29999999702,"correct":true,"confidence":4},{"trial_n":131,"min":82,"max":173,"target":"absent","response":"present","rt":306.60000000149,"correct":false,"confidence":3},{"trial_n":132,"min":81,"max":174,"target":"present","response":"present","rt":91.20000000298,"correct":true,"confidence":4},{"trial_n":133,"min":81,"max":174,"target":"present","response":"present","rt":304.10000000149,"correct":true,"confidence":4},{"trial_n":134,"min":82,"max":173,"target":"present","response":"present","rt":407,"correct":true,"confidence":3},{"trial_n":135,"min":82,"max":173,"target":"absent","response":"present","rt":209.70000000298,"correct":false,"confidence":4},{"trial_n":136,"min":81,"max":174,"target":"present","response":"absent","rt":534.39999999851,"correct":false,"confidence":3},{"trial_n":137,"min":80,"max":175,"target":"present","response":"present","rt":295.10000000149,"correct":true,"confidence":4},{"trial_n":138,"min":80,"max":175,"target":"absent","response":"absent","rt":9764.299999997,"correct":true,"confidence":4},{"trial_n":139,"min":81,"max":174,"target":"present","response":"present","rt":145.5,"correct":true,"confidence":3},{"trial_n":140,"min":81,"max":174,"target":"present","response":"present","rt":369.60000000149,"correct":true,"confidence":4}]