[{"trial_n":1,"span":8,"encoder":"44615609","distractor":"44615602","target":"present","response":"present","rt":"3905","correct":true,"confidence":-1},{"trial_n":2,"span":8,"encoder":"48916172","distractor":"48416172","target":"present","response":"absent","rt":"3122","correct":false,"confidence":-1},{"trial_n":3,"span":6,"encoder":"733445","distractor":"734445","target":"absent","response":"absent","rt":"3537","correct":true,"confidence":-1},{"trial_n":4,"span":6,"encoder":"091085","distractor":"091084","target":"absent","response":"present","rt":"2559","correct":false,"confidence":-1},{"trial_n":5,"span":4,"encoder":"0346","distractor":"0246","target":"present","response":"present","rt":"1334","correct":true,"confidence":-1},{"trial_n":6,"span":4,"encoder":"4567","distractor":"4562","target":"present","response":"present","rt":"1950","correct":true,"confidence":-1},{"trial_n":7,"span":6,"encoder":"219184","distractor":"216184","target":"present","response":"present","rt":"2926","correct":true,"confidence":-1},{"trial_n":8,"span":6,"encoder":"119124","distractor":"119123","target":"absent","response":"absent","rt":"2534","correct":true,"confidence":-1},{"trial_n":9,"span":8,"encoder":"58773016","distractor":"58773316","target":"absent","response":"absent","rt":"2571","correct":true,"confidence":-1},{"trial_n":10,"span":8,"encoder":"59566892","distractor":"59566842","target":"absent","response":"present","rt":"2314","correct":false,"confidence":-1},{"trial_n":11,"span":6,"encoder":"179600","distractor":"179400","target":"present","response":"present","rt":"2881","correct":true,"confidence":-1},{"trial_n":12,"span":6,"encoder":"221780","distractor":"921780","target":"present","response":"present","rt":"1418","correct":true,"confidence":-1},{"trial_n":13,"span":7,"encoder":"0793542","distractor":"0790542","target":"present","response":"present","rt":"2624","correct":true,"confidence":-1},{"trial_n":14,"span":7,"encoder":"5096109","distractor":"5093109","target":"absent","response":"present","rt":"1141","correct":false,"confidence":-1},{"trial_n":15,"span":6,"encoder":"907280","distractor":"977280","target":"present","response":"present","rt":"1800","correct":true,"confidence":-1},{"trial_n":16,"span":6,"encoder":"183911","distractor":"183914","target":"absent","response":"absent","rt":"1530","correct":true,"confidence":-1},{"trial_n":17,"span":7,"encoder":"6172542","distractor":"6170542","target":"present","response":"absent","rt":"3016","correct":false,"confidence":-1},{"trial_n":18,"span":6,"encoder":"649198","distractor":"749198","target":"present","response":"present","rt":"1327","correct":true,"confidence":-1},{"trial_n":19,"span":6,"encoder":"058042","distractor":"058542","target":"present","response":"present","rt":"1842","correct":true,"confidence":-1},{"trial_n":20,"span":7,"encoder":"1022335","distractor":"2022335","target":"present","response":"present","rt":"2143","correct":true,"confidence":-1},{"trial_n":21,"span":7,"encoder":"9005551","distractor":"9005651","target":"absent","response":"absent","rt":"2322","correct":true,"confidence":4},{"trial_n":22,"span":8,"encoder":"29530162","distractor":"39530162","target":"present","response":"present","rt":"3067","correct":true,"confidence":3},{"trial_n":23,"span":8,"encoder":"76337555","distractor":"76337558","target":"absent","response":"absent","rt":"4141","correct":true,"confidence":3},{"trial_n":24,"span":9,"encoder":"526579334","distractor":"526599334","target":"present","response":"absent","rt":"3164","correct":false,"confidence":3},{"trial_n":25,"span":8,"encoder":"42087038","distractor":"48087038","target":"present","response":"absent","rt":"4066","correct":false,"confidence":1},{"trial_n":26,"span":7,"encoder":"7378440","distractor":"7372440","target":"absent","response":"present","rt":"3441","correct":false,"confidence":2},{"trial_n":27,"span":6,"encoder":"455875","distractor":"485875","target":"present","response":"absent","rt":"3123","correct":false,"confidence":3},{"trial_n":28,"span":5,"encoder":"41944","distractor":"41344","target":"absent","response":"absent","rt":"1389","correct":true,"confidence":5},{"trial_n":29,"span":5,"encoder":"07846","distractor":"57846","target":"present","response":"present","rt":"2553","correct":true,"confidence":4},{"trial_n":30,"span":6,"encoder":"737516","distractor":"937516","target":"present","response":"present","rt":"4839","correct":true,"confidence":2},{"trial_n":31,"span":6,"encoder":"220195","distractor":"220194","target":"absent","response":"absent","rt":"1992","correct":true,"confidence":5},{"trial_n":32,"span":7,"encoder":"2550643","distractor":"2550647","target":"absent","response":"absent","rt":"2777","correct":true,"confidence":3},{"trial_n":33,"span":7,"encoder":"7058017","distractor":"8058017","target":"present","response":"present","rt":"2958","correct":true,"confidence":4},{"trial_n":34,"span":8,"encoder":"88506884","distractor":"88506684","target":"absent","response":"absent","rt":"2754","correct":true,"confidence":2},{"trial_n":35,"span":8,"encoder":"49901333","distractor":"49901331","target":"absent","response":"absent","rt":"2688","correct":true,"confidence":2},{"trial_n":36,"span":9,"encoder":"758718763","distractor":"858718763","target":"present","response":"absent","rt":"3102","correct":false,"confidence":3},{"trial_n":37,"span":8,"encoder":"99461652","distractor":"99471652","target":"present","response":"present","rt":"3448","correct":true,"confidence":4},{"trial_n":38,"span":8,"encoder":"98681661","distractor":"68681661","target":"absent","response":"absent","rt":"2840","correct":true,"confidence":1},{"trial_n":39,"span":9,"encoder":"387326469","distractor":"387326464","target":"absent","response":"absent","rt":"4045","correct":true,"confidence":4},{"trial_n":40,"span":9,"encoder":"389240952","distractor":"389240972","target":"present","response":"absent","rt":"4747","correct":false,"confidence":1},{"trial_n":41,"span":8,"encoder":"25525902","distractor":"35525902","target":"present","response":"present","rt":"2995","correct":true,"confidence":3},{"trial_n":42,"span":8,"encoder":"45769372","distractor":"05769372","target":"present","response":"present","rt":"3845","correct":true,"confidence":2},{"trial_n":43,"span":9,"encoder":"113799083","distractor":"113999083","target":"present","response":"absent","rt":"5707","correct":false,"confidence":3},{"trial_n":44,"span":8,"encoder":"24528635","distractor":"24528665","target":"absent","response":"present","rt":"5906","correct":false,"confidence":3},{"trial_n":45,"span":7,"encoder":"8436161","distractor":"8436191","target":"absent","response":"absent","rt":"3708","correct":true,"confidence":5},{"trial_n":46,"span":7,"encoder":"1959021","distractor":"1929021","target":"absent","response":"absent","rt":"4710","correct":true,"confidence":4},{"trial_n":47,"span":8,"encoder":"59531473","distractor":"59531493","target":"absent","response":"present","rt":"2681","correct":false,"confidence":3},{"trial_n":48,"span":7,"encoder":"0726810","distractor":"0726910","target":"absent","response":"absent","rt":"3479","correct":true,"confidence":2},{"trial_n":49,"span":7,"encoder":"2146721","distractor":"2146731","target":"absent","response":"present","rt":"2246","correct":false,"confidence":3},{"trial_n":50,"span":6,"encoder":"366079","distractor":"366019","target":"absent","response":"absent","rt":"2336","correct":true,"confidence":4},{"trial_n":51,"span":6,"encoder":"230875","distractor":"230872","target":"absent","response":"present","rt":"4727","correct":false,"confidence":3},{"trial_n":52,"span":5,"encoder":"99323","distractor":"49323","target":"absent","response":"absent","rt":"2299","correct":true,"confidence":4},{"trial_n":53,"span":5,"encoder":"11388","distractor":"11382","target":"present","response":"present","rt":"2102","correct":true,"confidence":5},{"trial_n":54,"span":6,"encoder":"518891","distractor":"518895","target":"absent","response":"absent","rt":"2815","correct":true,"confidence":4},{"trial_n":55,"span":6,"encoder":"538449","distractor":"538349","target":"present","response":"present","rt":"2342","correct":true,"confidence":3},{"trial_n":56,"span":7,"encoder":"6607987","distractor":"3607987","target":"absent","response":"absent","rt":"2847","correct":true,"confidence":3},{"trial_n":57,"span":7,"encoder":"6952744","distractor":"6252744","target":"present","response":"present","rt":"2781","correct":true,"confidence":4},{"trial_n":58,"span":8,"encoder":"24700519","distractor":"24790519","target":"present","response":"present","rt":"2444","correct":true,"confidence":3},{"trial_n":59,"span":8,"encoder":"22763929","distractor":"22763029","target":"present","response":"absent","rt":"2420","correct":false,"confidence":2},{"trial_n":60,"span":7,"encoder":"8127199","distractor":"8197199","target":"present","response":"absent","rt":"8808","correct":false,"confidence":3},{"trial_n":61,"span":6,"encoder":"673507","distractor":"673597","target":"present","response":"present","rt":"2893","correct":true,"confidence":3},{"trial_n":62,"span":6,"encoder":"908292","distractor":"908272","target":"absent","response":"absent","rt":"2125","correct":true,"confidence":5},{"trial_n":63,"span":7,"encoder":"4469992","distractor":"2469992","target":"absent","response":"absent","rt":"1320","correct":true,"confidence":5},{"trial_n":64,"span":7,"encoder":"8328833","distractor":"8128833","target":"absent","response":"absent","rt":"1945","correct":true,"confidence":4},{"trial_n":65,"span":8,"encoder":"72708357","distractor":"72708457","target":"present","response":"absent","rt":"2286","correct":false,"confidence":4},{"trial_n":66,"span":7,"encoder":"3583108","distractor":"3583408","target":"present","response":"absent","rt":"2676","correct":false,"confidence":1},{"trial_n":67,"span":6,"encoder":"903133","distractor":"703133","target":"absent","response":"present","rt":"1305","correct":false,"confidence":5},{"trial_n":68,"span":5,"encoder":"55418","distractor":"85418","target":"absent","response":"absent","rt":"1554","correct":true,"confidence":5},{"trial_n":69,"span":5,"encoder":"87595","distractor":"07595","target":"absent","response":"absent","rt":"1157","correct":true,"confidence":5},{"trial_n":70,"span":6,"encoder":"925423","distractor":"225423","target":"present","response":"absent","rt":"2698","correct":false,"confidence":3},{"trial_n":71,"span":8,"encoder":"01881724","distractor":"01881754","target":"present","response":"present","rt":"3275","correct":true,"confidence":-1},{"trial_n":72,"span":8,"encoder":"48951957","distractor":"88951957","target":"present","response":"present","rt":"1758","correct":true,"confidence":-1},{"trial_n":73,"span":9,"encoder":"689442677","distractor":"689442678","target":"absent","response":"absent","rt":"2026","correct":true,"confidence":-1},{"trial_n":74,"span":9,"encoder":"334501700","distractor":"334901700","target":"absent","response":"absent","rt":"2938","correct":true,"confidence":-1},{"trial_n":75,"span":10,"encoder":"2117910904","distractor":"2117010904","target":"present","response":"present","rt":"7125","correct":true,"confidence":-1},{"trial_n":76,"span":10,"encoder":"4143819176","distractor":"4143719176","target":"present","response":"present","rt":"814","correct":true,"confidence":-1},{"trial_n":77,"span":11,"encoder":"54152180324","distractor":"54652180324","target":"absent","response":"absent","rt":"3273","correct":true,"confidence":-1},{"trial_n":78,"span":11,"encoder":"67039261446","distractor":"67089261446","target":"absent","response":"absent","rt":"3002","correct":true,"confidence":-1},{"trial_n":79,"span":12,"encoder":"364376715355","distractor":"354376715355","target":"present","response":"present","rt":"1872","correct":true,"confidence":-1},{"trial_n":80,"span":12,"encoder":"756794626622","distractor":"756794626522","target":"absent","response":"present","rt":"2640","correct":false,"confidence":-1},{"trial_n":81,"span":11,"encoder":"67520424427","distractor":"07520424427","target":"present","response":"present","rt":"2406","correct":true,"confidence":-1},{"trial_n":82,"span":11,"encoder":"04748531310","distractor":"04748531010","target":"absent","response":"absent","rt":"3701","correct":true,"confidence":-1},{"trial_n":83,"span":12,"encoder":"931242541001","distractor":"931642541001","target":"absent","response":"absent","rt":"2956","correct":true,"confidence":-1},{"trial_n":84,"span":12,"encoder":"622335568023","distractor":"621335568023","target":"present","response":"present","rt":"1299","correct":true,"confidence":-1},{"trial_n":85,"span":13,"encoder":"8945099959384","distractor":"8945099959394","target":"absent","response":"absent","rt":"1153","correct":true,"confidence":-1},{"trial_n":86,"span":13,"encoder":"9197293048944","distractor":"9197293048924","target":"present","response":"absent","rt":"3592","correct":false,"confidence":-1},{"trial_n":87,"span":12,"encoder":"421233542542","distractor":"421213542542","target":"absent","response":"present","rt":"7515","correct":false,"confidence":-1},{"trial_n":88,"span":11,"encoder":"43399880445","distractor":"43399889445","target":"present","response":"absent","rt":"1103","correct":false,"confidence":-1},{"trial_n":89,"span":10,"encoder":"2088566563","distractor":"9088566563","target":"present","response":"present","rt":"2133","correct":true,"confidence":-1},{"trial_n":90,"span":10,"encoder":"4157977098","distractor":"4157977998","target":"present","response":"present","rt":"945","correct":true,"confidence":-1},{"trial_n":91,"span":11,"encoder":"95626964351","distractor":"95626969351","target":"absent","response":"absent","rt":"5312","correct":true,"confidence":2},{"trial_n":92,"span":11,"encoder":"34057851656","distractor":"34057651656","target":"absent","response":"present","rt":"5536","correct":false,"confidence":4},{"trial_n":93,"span":10,"encoder":"2207713868","distractor":"2207717868","target":"present","response":"present","rt":"6446","correct":true,"confidence":3},{"trial_n":94,"span":10,"encoder":"4235545508","distractor":"1235545508","target":"absent","response":"absent","rt":"5682","correct":true,"confidence":3},{"trial_n":95,"span":11,"encoder":"79727838347","distractor":"19727838347","target":"absent","response":"absent","rt":"4071","correct":true,"confidence":4},{"trial_n":96,"span":11,"encoder":"66571144435","distractor":"66581144435","target":"absent","response":"absent","rt":"12554","correct":true,"confidence":2},{"trial_n":97,"span":12,"encoder":"970153765719","distractor":"930153765719","target":"present","response":"present","rt":"2774","correct":true,"confidence":3},{"trial_n":98,"span":12,"encoder":"110151106983","distractor":"110351106983","target":"absent","response":"absent","rt":"6006","correct":true,"confidence":4},{"trial_n":99,"span":13,"encoder":"8426816371527","distractor":"4426816371527","target":"absent","response":"present","rt":"7128","correct":false,"confidence":3},{"trial_n":100,"span":12,"encoder":"183278462007","distractor":"183228462007","target":"present","response":"absent","rt":"4272","correct":false,"confidence":1},{"trial_n":101,"span":11,"encoder":"91740079171","distractor":"91640079171","target":"present","response":"present","rt":"3410","correct":true,"confidence":5},{"trial_n":102,"span":11,"encoder":"53918375047","distractor":"53018375047","target":"present","response":"present","rt":"2129","correct":true,"confidence":2},{"trial_n":103,"span":12,"encoder":"410562403852","distractor":"010562403852","target":"present","response":"present","rt":"2956","correct":true,"confidence":1},{"trial_n":104,"span":12,"encoder":"356289804646","distractor":"356289804656","target":"present","response":"present","rt":"9175","correct":true,"confidence":1},{"trial_n":105,"span":13,"encoder":"3700172138998","distractor":"3700172138918","target":"absent","response":"absent","rt":"2428","correct":true,"confidence":4},{"trial_n":106,"span":13,"encoder":"5078517751960","distractor":"7078517751960","target":"present","response":"present","rt":"2971","correct":true,"confidence":3},{"trial_n":107,"span":14,"encoder":"70946514190946","distractor":"70946514190936","target":"absent","response":"absent","rt":"13999","correct":true,"confidence":1},{"trial_n":108,"span":14,"encoder":"28907367750521","distractor":"48907367750521","target":"absent","response":"absent","rt":"13504","correct":true,"confidence":1},{"trial_n":109,"span":15,"encoder":"029160525398230","distractor":"029160525308230","target":"present","response":"absent","rt":"8888","correct":false,"confidence":4},{"trial_n":110,"span":14,"encoder":"37700323410741","distractor":"37700323810741","target":"absent","response":"present","rt":"5113","correct":false,"confidence":3},{"trial_n":111,"span":13,"encoder":"8502096883628","distractor":"8502096863628","target":"absent","response":"absent","rt":"8428","correct":true,"confidence":1},{"trial_n":112,"span":13,"encoder":"7636362090956","distractor":"7036362090956","target":"present","response":"present","rt":"7754","correct":true,"confidence":3},{"trial_n":113,"span":14,"encoder":"71736644137317","distractor":"71736544137317","target":"absent","response":"present","rt":"5502","correct":false,"confidence":2},{"trial_n":114,"span":13,"encoder":"0636303940573","distractor":"0646303940573","target":"present","response":"present","rt":"3488","correct":true,"confidence":3},{"trial_n":115,"span":13,"encoder":"7391279933988","distractor":"7391274933988","target":"present","response":"present","rt":"7985","correct":true,"confidence":1},{"trial_n":116,"span":14,"encoder":"80041009345012","distractor":"80045009345012","target":"present","response":"absent","rt":"10559","correct":false,"confidence":2},{"trial_n":117,"span":13,"encoder":"2977286269643","distractor":"2977286269143","target":"present","response":"absent","rt":"10016","correct":false,"confidence":3},{"trial_n":118,"span":12,"encoder":"388944578244","distractor":"388984578244","target":"present","response":"absent","rt":"15197","correct":false,"confidence":1},{"trial_n":119,"span":11,"encoder":"87907856548","distractor":"87907856348","target":"present","response":"present","rt":"9675","correct":true,"confidence":1},{"trial_n":120,"span":11,"encoder":"21297082720","distractor":"29297082720","target":"absent","response":"present","rt":"18309","correct":false,"confidence":4},{"trial_n":121,"span":10,"encoder":"3019442990","distractor":"3719442990","target":"present","response":"present","rt":"3226","correct":true,"confidence":5},{"trial_n":122,"span":10,"encoder":"5231031616","distractor":"5231036616","target":"absent","response":"absent","rt":"5242","correct":true,"confidence":4},{"trial_n":123,"span":11,"encoder":"94488108033","distractor":"94588108033","target":"present","response":"present","rt":"6864","correct":true,"confidence":2},{"trial_n":124,"span":11,"encoder":"61076387911","distractor":"51076387911","target":"present","response":"present","rt":"5099","correct":true,"confidence":5},{"trial_n":125,"span":12,"encoder":"277296396597","distractor":"277296396577","target":"absent","response":"present","rt":"8504","correct":false,"confidence":1},{"trial_n":126,"span":11,"encoder":"05989580715","distractor":"05984580715","target":"present","response":"absent","rt":"9007","correct":false,"confidence":4},{"trial_n":127,"span":10,"encoder":"7574813386","distractor":"7574883386","target":"absent","response":"present","rt":"7425","correct":false,"confidence":3},{"trial_n":128,"span":9,"encoder":"108435194","distractor":"108435199","target":"present","response":"present","rt":"4503","correct":true,"confidence":3},{"trial_n":129,"span":9,"encoder":"580958097","distractor":"580998097","target":"absent","response":"absent","rt":"11880","correct":true,"confidence":1},{"trial_n":130,"span":10,"encoder":"6761809177","distractor":"1761809177","target":"present","response":"present","rt":"1875","correct":true,"confidence":5},{"trial_n":131,"span":10,"encoder":"9821743109","distractor":"9821743179","target":"absent","response":"absent","rt":"2620","correct":true,"confidence":4},{"trial_n":132,"span":11,"encoder":"04211625904","distractor":"04216625904","target":"present","response":"absent","rt":"10240","correct":false,"confidence":3},{"trial_n":133,"span":10,"encoder":"3222216225","distractor":"3222266225","target":"absent","response":"absent","rt":"6984","correct":true,"confidence":4},{"trial_n":134,"span":10,"encoder":"7707064953","distractor":"7707064957","target":"absent","response":"present","rt":"2584","correct":false,"confidence":3},{"trial_n":135,"span":9,"encoder":"485924720","distractor":"485914720","target":"present","response":"absent","rt":"5698","correct":false,"confidence":3},{"trial_n":136,"span":8,"encoder":"67596390","distractor":"67596890","target":"absent","response":"absent","rt":"5204","correct":true,"confidence":1},{"trial_n":137,"span":8,"encoder":"68560917","distractor":"98560917","target":"absent","response":"absent","rt":"7790","correct":true,"confidence":1},{"trial_n":138,"span":9,"encoder":"390025128","distractor":"590025128","target":"absent","response":"present","rt":"2763","correct":false,"confidence":4},{"trial_n":139,"span":8,"encoder":"32321156","distractor":"32323156","target":"absent","response":"present","rt":"4415","correct":false,"confidence":2},{"trial_n":140,"span":7,"encoder":"2957098","distractor":"2957094","target":"present","response":"present","rt":"3030","correct":true,"confidence":5}]