[{"trial_n":1,"span":8,"encoder":"28022873","distractor":"28022871","target":"present","response":"absent","rt":"4843.9","correct":false,"confidence":-1},{"trial_n":2,"span":6,"encoder":"894910","distractor":"896910","target":"present","response":"present","rt":"1840.3","correct":true,"confidence":-1},{"trial_n":3,"span":6,"encoder":"197949","distractor":"997949","target":"absent","response":"absent","rt":"1788.2","correct":true,"confidence":-1},{"trial_n":4,"span":8,"encoder":"82644893","distractor":"32644893","target":"absent","response":"present","rt":"2889.9","correct":false,"confidence":-1},{"trial_n":5,"span":6,"encoder":"493786","distractor":"497786","target":"present","response":"present","rt":"1119.2","correct":true,"confidence":-1},{"trial_n":6,"span":6,"encoder":"173521","distractor":"153521","target":"present","response":"present","rt":"2935.7","correct":true,"confidence":-1},{"trial_n":7,"span":8,"encoder":"86422354","distractor":"86422304","target":"absent","response":"absent","rt":"3164.3","correct":true,"confidence":-1},{"trial_n":8,"span":8,"encoder":"98693055","distractor":"98693025","target":"present","response":"present","rt":"2545.9","correct":true,"confidence":-1},{"trial_n":9,"span":10,"encoder":"4149874115","distractor":"4142874115","target":"absent","response":"absent","rt":"3271.4","correct":true,"confidence":-1},{"trial_n":10,"span":10,"encoder":"8513815220","distractor":"8513895220","target":"absent","response":"absent","rt":"2753.6","correct":true,"confidence":-1},{"trial_n":11,"span":12,"encoder":"584740203892","distractor":"584740253892","target":"present","response":"present","rt":"3710.1","correct":true,"confidence":-1},{"trial_n":12,"span":12,"encoder":"019431970601","distractor":"919431970601","target":"present","response":"present","rt":"3507.7","correct":true,"confidence":-1},{"trial_n":13,"span":13,"encoder":"4629619010468","distractor":"4629119010468","target":"present","response":"present","rt":"5417.6","correct":true,"confidence":-1},{"trial_n":14,"span":13,"encoder":"4210117676105","distractor":"4210117676705","target":"absent","response":"absent","rt":"2199.9","correct":true,"confidence":-1},{"trial_n":15,"span":14,"encoder":"74527254948690","distractor":"74527254948610","target":"present","response":"present","rt":"2781.8","correct":true,"confidence":-1},{"trial_n":16,"span":14,"encoder":"33971299090103","distractor":"33971299091103","target":"present","response":"present","rt":"2358.1","correct":true,"confidence":-1},{"trial_n":17,"span":15,"encoder":"841718037607409","distractor":"841718037607400","target":"present","response":"present","rt":"9344.8","correct":true,"confidence":-1},{"trial_n":18,"span":15,"encoder":"973146986143054","distractor":"973146989143054","target":"present","response":"present","rt":"781.60000000003","correct":true,"confidence":-1},{"trial_n":19,"span":16,"encoder":"7697512127867650","distractor":"7697517127867650","target":"absent","response":"present","rt":"4668.2","correct":false,"confidence":-1},{"trial_n":20,"span":15,"encoder":"500654097625279","distractor":"500654097625579","target":"present","response":"present","rt":"6082.4","correct":true,"confidence":-1},{"trial_n":21,"span":15,"encoder":"041613897576607","distractor":"041613897176607","target":"present","response":"present","rt":"963.90000000002","correct":true,"confidence":1},{"trial_n":22,"span":16,"encoder":"1293040738057637","distractor":"1293040738052637","target":"absent","response":"absent","rt":"5529.3999999999","correct":true,"confidence":4},{"trial_n":23,"span":16,"encoder":"7604073227586502","distractor":"6604073227586502","target":"present","response":"present","rt":"1526","correct":true,"confidence":3},{"trial_n":24,"span":17,"encoder":"68219204844455685","distractor":"68219204244455685","target":"present","response":"present","rt":"3550.6","correct":true,"confidence":4},{"trial_n":25,"span":17,"encoder":"54037794254212824","distractor":"54037774254212824","target":"absent","response":"present","rt":"3099.1","correct":false,"confidence":4},{"trial_n":26,"span":16,"encoder":"4283813853100072","distractor":"4283813853700072","target":"absent","response":"absent","rt":"3792.8999999999","correct":true,"confidence":5},{"trial_n":27,"span":16,"encoder":"4454199233655274","distractor":"4454193233655274","target":"present","response":"absent","rt":"2457.6","correct":false,"confidence":5},{"trial_n":28,"span":15,"encoder":"260940333877869","distractor":"260940373877869","target":"absent","response":"present","rt":"2994.1","correct":false,"confidence":3},{"trial_n":29,"span":14,"encoder":"90837497089994","distractor":"90897497089994","target":"absent","response":"absent","rt":"5648.5","correct":true,"confidence":4},{"trial_n":30,"span":14,"encoder":"15652646231832","distractor":"15622646231832","target":"absent","response":"present","rt":"17392","correct":false,"confidence":3},{"trial_n":31,"span":13,"encoder":"5533428348818","distractor":"5533428348828","target":"present","response":"present","rt":"4410.2","correct":true,"confidence":5},{"trial_n":32,"span":13,"encoder":"5620338345968","distractor":"5629338345968","target":"absent","response":"absent","rt":"2782.8","correct":true,"confidence":5},{"trial_n":33,"span":14,"encoder":"36862607403655","distractor":"36862607407655","target":"present","response":"present","rt":"4326.8","correct":true,"confidence":2},{"trial_n":34,"span":14,"encoder":"28670186307777","distractor":"28670186307377","target":"present","response":"present","rt":"3909.7","correct":true,"confidence":2},{"trial_n":35,"span":15,"encoder":"746855997170370","distractor":"746255997170370","target":"absent","response":"present","rt":"3572.6000000001","correct":false,"confidence":1},{"trial_n":36,"span":14,"encoder":"56979276226414","distractor":"56979276226418","target":"absent","response":"absent","rt":"2775.0999999999","correct":true,"confidence":5},{"trial_n":37,"span":14,"encoder":"67281122793106","distractor":"67289122793106","target":"present","response":"present","rt":"4709.4000000001","correct":true,"confidence":3},{"trial_n":38,"span":15,"encoder":"957527236072900","distractor":"957127236072900","target":"present","response":"present","rt":"5902.5","correct":true,"confidence":4},{"trial_n":39,"span":15,"encoder":"657283537403505","distractor":"657283537403605","target":"present","response":"absent","rt":"10654.5","correct":false,"confidence":4},{"trial_n":40,"span":14,"encoder":"81892688377282","distractor":"81899688377282","target":"present","response":"present","rt":"2419.2999999998","correct":true,"confidence":4},{"trial_n":41,"span":14,"encoder":"02734603751443","distractor":"02730603751443","target":"present","response":"present","rt":"3391.3","correct":true,"confidence":5},{"trial_n":42,"span":15,"encoder":"881256002823679","distractor":"881256009823679","target":"present","response":"present","rt":"3237.5","correct":true,"confidence":5},{"trial_n":43,"span":15,"encoder":"420749966264759","distractor":"420749966064759","target":"absent","response":"absent","rt":"3779.7","correct":true,"confidence":3},{"trial_n":44,"span":16,"encoder":"5866260048300370","distractor":"5869260048300370","target":"absent","response":"present","rt":"3806.3999999999","correct":false,"confidence":4},{"trial_n":45,"span":15,"encoder":"098100569948364","distractor":"098106569948364","target":"absent","response":"absent","rt":"6008.1000000001","correct":true,"confidence":5},{"trial_n":46,"span":15,"encoder":"318685879499729","distractor":"328685879499729","target":"absent","response":"present","rt":"3620.9000000001","correct":false,"confidence":2},{"trial_n":47,"span":14,"encoder":"76023057626457","distractor":"76023157626457","target":"present","response":"absent","rt":"4083.1000000001","correct":false,"confidence":3},{"trial_n":48,"span":13,"encoder":"0659425489520","distractor":"0659525489520","target":"absent","response":"present","rt":"3296","correct":false,"confidence":2},{"trial_n":49,"span":12,"encoder":"547395748740","distractor":"547395748770","target":"present","response":"present","rt":"3068.8","correct":true,"confidence":4},{"trial_n":50,"span":12,"encoder":"026819447714","distractor":"026812447714","target":"present","response":"present","rt":"2938","correct":true,"confidence":5},{"trial_n":51,"span":13,"encoder":"4224420284013","distractor":"4225420284013","target":"absent","response":"absent","rt":"2779.3","correct":true,"confidence":5},{"trial_n":52,"span":13,"encoder":"8161076400234","distractor":"8161076400634","target":"present","response":"present","rt":"2924.1000000001","correct":true,"confidence":5},{"trial_n":53,"span":14,"encoder":"41974117476973","distractor":"41974117876973","target":"absent","response":"absent","rt":"2620.5","correct":true,"confidence":5},{"trial_n":54,"span":14,"encoder":"86381441442808","distractor":"86381441442838","target":"absent","response":"absent","rt":"1443.1000000001","correct":true,"confidence":5},{"trial_n":55,"span":15,"encoder":"785638035512012","distractor":"785638035212012","target":"absent","response":"absent","rt":"4830.5","correct":true,"confidence":4},{"trial_n":56,"span":15,"encoder":"163208239258073","distractor":"163208239268073","target":"absent","response":"absent","rt":"2005.5","correct":true,"confidence":5},{"trial_n":57,"span":16,"encoder":"6589594505221189","distractor":"6189594505221189","target":"absent","response":"present","rt":"1736.3","correct":false,"confidence":2},{"trial_n":58,"span":15,"encoder":"757915323605371","distractor":"757915323605071","target":"present","response":"present","rt":"1983","correct":true,"confidence":4},{"trial_n":59,"span":15,"encoder":"021966377114121","distractor":"021966377114721","target":"absent","response":"absent","rt":"2127.7","correct":true,"confidence":5},{"trial_n":60,"span":16,"encoder":"5326569099853927","distractor":"0326569099853927","target":"present","response":"present","rt":"4832.2","correct":true,"confidence":2},{"trial_n":61,"span":16,"encoder":"4580365351326720","distractor":"4580364351326720","target":"present","response":"present","rt":"2471.4000000001","correct":true,"confidence":3},{"trial_n":62,"span":17,"encoder":"54497506882469970","distractor":"54497506882969970","target":"absent","response":"present","rt":"9148.5999999999","correct":false,"confidence":4},{"trial_n":63,"span":16,"encoder":"3700571988047385","distractor":"3790571988047385","target":"absent","response":"present","rt":"1985.3","correct":false,"confidence":4},{"trial_n":64,"span":15,"encoder":"787962636044200","distractor":"787967636044200","target":"absent","response":"present","rt":"2334.3999999999","correct":false,"confidence":4},{"trial_n":65,"span":14,"encoder":"87444625919304","distractor":"81444625919304","target":"absent","response":"absent","rt":"4387.5","correct":true,"confidence":5},{"trial_n":66,"span":14,"encoder":"87918212083406","distractor":"87919212083406","target":"present","response":"present","rt":"3979.9000000001","correct":true,"confidence":2},{"trial_n":67,"span":15,"encoder":"252988341275749","distractor":"222988341275749","target":"absent","response":"present","rt":"3286.2000000002","correct":false,"confidence":3},{"trial_n":68,"span":14,"encoder":"33418506270131","distractor":"33418506271131","target":"present","response":"present","rt":"5722.9000000001","correct":true,"confidence":3},{"trial_n":69,"span":14,"encoder":"11701506745030","distractor":"11701506745035","target":"present","response":"present","rt":"3112.7","correct":true,"confidence":5},{"trial_n":70,"span":15,"encoder":"265970230950140","distractor":"205970230950140","target":"absent","response":"present","rt":"1403.4000000001","correct":false,"confidence":3},{"trial_n":71,"span":8,"encoder":"15485765","distractor":"15482765","target":"present","response":"absent","rt":"17602","correct":false,"confidence":-1},{"trial_n":72,"span":7,"encoder":"1091853","distractor":"1091453","target":"present","response":"present","rt":"7723.1000000001","correct":true,"confidence":-1},{"trial_n":73,"span":7,"encoder":"7547090","distractor":"7587090","target":"absent","response":"present","rt":"13993.8","correct":false,"confidence":-1},{"trial_n":74,"span":6,"encoder":"570889","distractor":"570789","target":"absent","response":"absent","rt":"4484.3999999999","correct":true,"confidence":-1},{"trial_n":75,"span":6,"encoder":"233648","distractor":"232648","target":"present","response":"present","rt":"7800.3999999999","correct":true,"confidence":-1},{"trial_n":76,"span":7,"encoder":"3819070","distractor":"3829070","target":"absent","response":"absent","rt":"10911.9","correct":true,"confidence":-1},{"trial_n":77,"span":7,"encoder":"0498375","distractor":"0498395","target":"absent","response":"absent","rt":"1038.5","correct":true,"confidence":-1},{"trial_n":78,"span":8,"encoder":"66951163","distractor":"68951163","target":"absent","response":"present","rt":"9116.1000000001","correct":false,"confidence":-1},{"trial_n":79,"span":7,"encoder":"0769082","distractor":"0764082","target":"present","response":"present","rt":"4267.1000000001","correct":true,"confidence":-1},{"trial_n":80,"span":7,"encoder":"2159181","distractor":"2159171","target":"present","response":"present","rt":"1187","correct":true,"confidence":-1},{"trial_n":81,"span":8,"encoder":"41971109","distractor":"41171109","target":"present","response":"present","rt":"4733.1000000001","correct":true,"confidence":-1},{"trial_n":82,"span":8,"encoder":"37072461","distractor":"47072461","target":"absent","response":"present","rt":"2073.3999999999","correct":false,"confidence":-1},{"trial_n":83,"span":7,"encoder":"5490482","distractor":"5490442","target":"present","response":"present","rt":"1318","correct":true,"confidence":-1},{"trial_n":84,"span":7,"encoder":"8232550","distractor":"8232510","target":"present","response":"present","rt":"1095.5999999999","correct":true,"confidence":-1},{"trial_n":85,"span":8,"encoder":"04877227","distractor":"04877287","target":"present","response":"present","rt":"1133.8999999999","correct":true,"confidence":-1},{"trial_n":86,"span":8,"encoder":"82173754","distractor":"82873754","target":"absent","response":"present","rt":"3133","correct":false,"confidence":-1},{"trial_n":87,"span":7,"encoder":"6255452","distractor":"6245452","target":"present","response":"present","rt":"2337.8999999999","correct":true,"confidence":-1},{"trial_n":88,"span":7,"encoder":"7541637","distractor":"7541607","target":"present","response":"present","rt":"1073.5","correct":true,"confidence":-1},{"trial_n":89,"span":8,"encoder":"28333357","distractor":"28373357","target":"present","response":"present","rt":"3382.8","correct":true,"confidence":-1},{"trial_n":90,"span":8,"encoder":"17959571","distractor":"77959571","target":"absent","response":"present","rt":"3635.7","correct":false,"confidence":-1},{"trial_n":91,"span":7,"encoder":"9012348","distractor":"9013348","target":"present","response":"absent","rt":"6267.8","correct":false,"confidence":3},{"trial_n":92,"span":6,"encoder":"215920","distractor":"215925","target":"present","response":"present","rt":"1651.3","correct":true,"confidence":5},{"trial_n":93,"span":6,"encoder":"277409","distractor":"278409","target":"present","response":"present","rt":"2907.5999999999","correct":true,"confidence":5},{"trial_n":94,"span":7,"encoder":"8179426","distractor":"8179486","target":"absent","response":"absent","rt":"1432.7","correct":true,"confidence":5},{"trial_n":95,"span":7,"encoder":"9939123","distractor":"9939125","target":"absent","response":"absent","rt":"1108.8999999999","correct":true,"confidence":5},{"trial_n":96,"span":8,"encoder":"50924306","distractor":"50924309","target":"absent","response":"absent","rt":"2101","correct":true,"confidence":5},{"trial_n":97,"span":8,"encoder":"12268261","distractor":"12208261","target":"absent","response":"present","rt":"6896.6000000001","correct":false,"confidence":2},{"trial_n":98,"span":7,"encoder":"5356719","distractor":"1356719","target":"absent","response":"absent","rt":"4382.5","correct":true,"confidence":4},{"trial_n":99,"span":7,"encoder":"6993621","distractor":"6993623","target":"present","response":"present","rt":"1408.4000000001","correct":true,"confidence":5},{"trial_n":100,"span":8,"encoder":"86643573","distractor":"89643573","target":"present","response":"present","rt":"2651.7999999998","correct":true,"confidence":5},{"trial_n":101,"span":8,"encoder":"41209828","distractor":"43209828","target":"absent","response":"present","rt":"3388.2","correct":false,"confidence":1},{"trial_n":102,"span":7,"encoder":"1707591","distractor":"1797591","target":"absent","response":"absent","rt":"2898.8999999999","correct":true,"confidence":5},{"trial_n":103,"span":7,"encoder":"7948487","distractor":"7908487","target":"present","response":"absent","rt":"7519.8000000003","correct":false,"confidence":4},{"trial_n":104,"span":6,"encoder":"020836","distractor":"020736","target":"absent","response":"absent","rt":"3904.7000000002","correct":true,"confidence":5},{"trial_n":105,"span":6,"encoder":"983725","distractor":"983728","target":"absent","response":"absent","rt":"1129.1000000001","correct":true,"confidence":5},{"trial_n":106,"span":7,"encoder":"6157030","distractor":"6154030","target":"absent","response":"absent","rt":"2224.0999999996","correct":true,"confidence":5},{"trial_n":107,"span":7,"encoder":"8235819","distractor":"8235719","target":"absent","response":"absent","rt":"1572.6999999997","correct":true,"confidence":5},{"trial_n":108,"span":8,"encoder":"33771451","distractor":"33771481","target":"present","response":"present","rt":"1532.5","correct":true,"confidence":5},{"trial_n":109,"span":8,"encoder":"30852014","distractor":"30852019","target":"present","response":"present","rt":"929.60000000009","correct":true,"confidence":5},{"trial_n":110,"span":9,"encoder":"830159870","distractor":"830157870","target":"absent","response":"absent","rt":"2511.6000000001","correct":true,"confidence":5},{"trial_n":111,"span":9,"encoder":"613923975","distractor":"613923976","target":"absent","response":"absent","rt":"7632.6999999997","correct":true,"confidence":5},{"trial_n":112,"span":10,"encoder":"8457461820","distractor":"8497461820","target":"present","response":"present","rt":"3980.6000000001","correct":true,"confidence":2},{"trial_n":113,"span":10,"encoder":"7829577738","distractor":"7829537738","target":"present","response":"present","rt":"1899.5","correct":true,"confidence":5},{"trial_n":114,"span":11,"encoder":"96786747266","distractor":"96786745266","target":"absent","response":"absent","rt":"2223.6000000001","correct":true,"confidence":5},{"trial_n":115,"span":11,"encoder":"56538884502","distractor":"56938884502","target":"present","response":"present","rt":"4576.7999999998","correct":true,"confidence":3},{"trial_n":116,"span":12,"encoder":"794365233137","distractor":"794365233107","target":"present","response":"present","rt":"1653.2999999998","correct":true,"confidence":5},{"trial_n":117,"span":12,"encoder":"839350755464","distractor":"839350765464","target":"present","response":"present","rt":"2975.3999999999","correct":true,"confidence":2},{"trial_n":118,"span":13,"encoder":"0912590860201","distractor":"0912596860201","target":"absent","response":"present","rt":"3200","correct":false,"confidence":2},{"trial_n":119,"span":12,"encoder":"063620607702","distractor":"063620600702","target":"absent","response":"absent","rt":"2263.2999999998","correct":true,"confidence":5},{"trial_n":120,"span":12,"encoder":"450640455787","distractor":"450640455783","target":"present","response":"present","rt":"2244.6999999997","correct":true,"confidence":5},{"trial_n":121,"span":13,"encoder":"7108603401715","distractor":"7108608401715","target":"absent","response":"absent","rt":"4517.6000000001","correct":true,"confidence":3},{"trial_n":122,"span":13,"encoder":"3306269696056","distractor":"3306219696056","target":"absent","response":"present","rt":"5014.9000000004","correct":false,"confidence":2},{"trial_n":123,"span":12,"encoder":"694622646609","distractor":"094622646609","target":"absent","response":"present","rt":"4201.9000000004","correct":false,"confidence":5},{"trial_n":124,"span":11,"encoder":"02593164764","distractor":"02583164764","target":"absent","response":"present","rt":"4276.5","correct":false,"confidence":2},{"trial_n":125,"span":10,"encoder":"5094572394","distractor":"5694572394","target":"absent","response":"absent","rt":"4037.3999999999","correct":true,"confidence":1},{"trial_n":126,"span":10,"encoder":"5950586790","distractor":"5950586795","target":"absent","response":"present","rt":"5293.7000000002","correct":false,"confidence":3},{"trial_n":127,"span":9,"encoder":"646564749","distractor":"646664749","target":"absent","response":"absent","rt":"2627.6000000001","correct":true,"confidence":5},{"trial_n":128,"span":9,"encoder":"399133584","distractor":"396133584","target":"present","response":"present","rt":"3692.7999999998","correct":true,"confidence":5},{"trial_n":129,"span":10,"encoder":"9051273958","distractor":"9051272958","target":"absent","response":"absent","rt":"2793.5","correct":true,"confidence":5},{"trial_n":130,"span":10,"encoder":"0752605861","distractor":"0752705861","target":"absent","response":"absent","rt":"4818","correct":true,"confidence":4},{"trial_n":131,"span":11,"encoder":"92249807235","distractor":"92249807231","target":"present","response":"present","rt":"1987.5","correct":true,"confidence":5},{"trial_n":132,"span":11,"encoder":"47903729610","distractor":"47907729610","target":"present","response":"absent","rt":"1438","correct":false,"confidence":2},{"trial_n":133,"span":10,"encoder":"7218842782","distractor":"7018842782","target":"present","response":"present","rt":"2840.6999999997","correct":true,"confidence":4},{"trial_n":134,"span":10,"encoder":"5131817082","distractor":"5131817072","target":"present","response":"present","rt":"1410.2000000002","correct":true,"confidence":5},{"trial_n":135,"span":11,"encoder":"08739303778","distractor":"08709303778","target":"present","response":"present","rt":"2982","correct":true,"confidence":2},{"trial_n":136,"span":11,"encoder":"80092205736","distractor":"80090205736","target":"present","response":"absent","rt":"3630.8999999999","correct":false,"confidence":1},{"trial_n":137,"span":10,"encoder":"1125924031","distractor":"1125924030","target":"absent","response":"absent","rt":"1700.1999999997","correct":true,"confidence":4},{"trial_n":138,"span":10,"encoder":"7284871511","distractor":"7284881511","target":"present","response":"absent","rt":"3407.8999999999","correct":false,"confidence":1},{"trial_n":139,"span":9,"encoder":"384616335","distractor":"784616335","target":"present","response":"present","rt":"5337.8999999999","correct":true,"confidence":3},{"trial_n":140,"span":9,"encoder":"495611068","distractor":"495601068","target":"present","response":"present","rt":"2562","correct":true,"confidence":5}]