[{"trial_n":1,"n_dots":4.25,"target":"left","response":"left","rt":3583.2000000002,"correct":true,"confidence":-1},{"trial_n":2,"n_dots":4.25,"target":"left","response":"right","rt":601.10000000009,"correct":false,"confidence":-1},{"trial_n":3,"n_dots":4.65,"target":"left","response":"left","rt":327.80000000028,"correct":true,"confidence":-1},{"trial_n":4,"n_dots":4.65,"target":"right","response":"right","rt":1001.6999999997,"correct":true,"confidence":-1},{"trial_n":5,"n_dots":4.25,"target":"right","response":"right","rt":434.60000000009,"correct":true,"confidence":-1},{"trial_n":6,"n_dots":4.25,"target":"left","response":"left","rt":30.699999999721,"correct":true,"confidence":-1},{"trial_n":7,"n_dots":3.85,"target":"left","response":"left","rt":380.60000000009,"correct":true,"confidence":-1},{"trial_n":8,"n_dots":3.85,"target":"left","response":"left","rt":382.40000000037,"correct":true,"confidence":-1},{"trial_n":9,"n_dots":3.65,"target":"right","response":"right","rt":462,"correct":true,"confidence":-1},{"trial_n":10,"n_dots":3.65,"target":"left","response":"left","rt":461,"correct":true,"confidence":-1},{"trial_n":11,"n_dots":3.45,"target":"right","response":"left","rt":706.80000000028,"correct":false,"confidence":-1},{"trial_n":12,"n_dots":3.65,"target":"left","response":"left","rt":965.70000000019,"correct":true,"confidence":-1},{"trial_n":13,"n_dots":3.65,"target":"left","response":"left","rt":366.89999999991,"correct":true,"confidence":-1},{"trial_n":14,"n_dots":3.55,"target":"left","response":"left","rt":817.90000000037,"correct":true,"confidence":-1},{"trial_n":15,"n_dots":3.55,"target":"right","response":"right","rt":570.89999999991,"correct":true,"confidence":-1},{"trial_n":16,"n_dots":3.45,"target":"left","response":"right","rt":463.29999999981,"correct":false,"confidence":-1},{"trial_n":17,"n_dots":3.55,"target":"left","response":"left","rt":81.300000000279,"correct":true,"confidence":-1},{"trial_n":18,"n_dots":3.55,"target":"right","response":"left","rt":200.60000000009,"correct":false,"confidence":-1},{"trial_n":19,"n_dots":3.65,"target":"right","response":"left","rt":378.20000000019,"correct":false,"confidence":-1},{"trial_n":20,"n_dots":3.75,"target":"left","response":"left","rt":520.89999999991,"correct":true,"confidence":-1},{"trial_n":21,"n_dots":3.75,"target":"right","response":"right","rt":785.79999999981,"correct":true,"confidence":4},{"trial_n":22,"n_dots":3.65,"target":"right","response":"right","rt":693,"correct":true,"confidence":2},{"trial_n":23,"n_dots":3.65,"target":"left","response":"left","rt":420.5,"correct":true,"confidence":5},{"trial_n":24,"n_dots":3.55,"target":"left","response":"left","rt":506.80000000028,"correct":true,"confidence":5},{"trial_n":25,"n_dots":3.55,"target":"right","response":"left","rt":411,"correct":false,"confidence":4},{"trial_n":26,"n_dots":3.65,"target":"right","response":"left","rt":1076.6999999997,"correct":false,"confidence":5},{"trial_n":27,"n_dots":3.75,"target":"right","response":"left","rt":706.30000000028,"correct":false,"confidence":1},{"trial_n":28,"n_dots":3.85,"target":"left","response":"left","rt":599.89999999991,"correct":true,"confidence":4},{"trial_n":29,"n_dots":3.85,"target":"right","response":"left","rt":478.69999999972,"correct":false,"confidence":4},{"trial_n":30,"n_dots":3.95,"target":"left","response":"left","rt":401.80000000028,"correct":true,"confidence":5},{"trial_n":31,"n_dots":3.95,"target":"left","response":"left","rt":994.29999999981,"correct":true,"confidence":5},{"trial_n":32,"n_dots":3.85,"target":"left","response":"left","rt":450.39999999991,"correct":true,"confidence":5},{"trial_n":33,"n_dots":3.85,"target":"left","response":"left","rt":620.39999999991,"correct":true,"confidence":5},{"trial_n":34,"n_dots":3.75,"target":"right","response":"left","rt":401,"correct":false,"confidence":5},{"trial_n":35,"n_dots":3.85,"target":"right","response":"left","rt":774.70000000019,"correct":false,"confidence":5},{"trial_n":36,"n_dots":3.95,"target":"left","response":"left","rt":478.40000000037,"correct":true,"confidence":5},{"trial_n":37,"n_dots":3.95,"target":"left","response":"left","rt":1469.3999999999,"correct":true,"confidence":3},{"trial_n":38,"n_dots":3.85,"target":"left","response":"left","rt":582,"correct":true,"confidence":4},{"trial_n":39,"n_dots":3.85,"target":"right","response":"right","rt":642.29999999981,"correct":true,"confidence":4},{"trial_n":40,"n_dots":3.75,"target":"right","response":"left","rt":1129.6000000001,"correct":false,"confidence":3},{"trial_n":41,"n_dots":3.85,"target":"right","response":"left","rt":488.29999999981,"correct":false,"confidence":3},{"trial_n":42,"n_dots":3.95,"target":"right","response":"right","rt":421.60000000009,"correct":true,"confidence":5},{"trial_n":43,"n_dots":3.95,"target":"right","response":"left","rt":447.09999999963,"correct":false,"confidence":5},{"trial_n":44,"n_dots":4.05,"target":"left","response":"left","rt":512.60000000009,"correct":true,"confidence":4},{"trial_n":45,"n_dots":4.05,"target":"right","response":"right","rt":1798.3000000003,"correct":true,"confidence":2},{"trial_n":46,"n_dots":3.95,"target":"left","response":"left","rt":398.09999999963,"correct":true,"confidence":5},{"trial_n":47,"n_dots":3.95,"target":"right","response":"left","rt":524.40000000037,"correct":false,"confidence":5},{"trial_n":48,"n_dots":4.05,"target":"right","response":"right","rt":452.19999999972,"correct":true,"confidence":4},{"trial_n":49,"n_dots":4.05,"target":"left","response":"left","rt":296.19999999972,"correct":true,"confidence":5},{"trial_n":50,"n_dots":3.95,"target":"left","response":"left","rt":382,"correct":true,"confidence":3},{"trial_n":51,"n_dots":3.95,"target":"right","response":"right","rt":454.10000000009,"correct":true,"confidence":4},{"trial_n":52,"n_dots":3.85,"target":"right","response":"right","rt":478.79999999981,"correct":true,"confidence":5},{"trial_n":53,"n_dots":3.85,"target":"left","response":"left","rt":565.29999999981,"correct":true,"confidence":4},{"trial_n":54,"n_dots":3.75,"target":"right","response":"right","rt":714.30000000028,"correct":true,"confidence":4},{"trial_n":55,"n_dots":3.75,"target":"left","response":"left","rt":526.5,"correct":true,"confidence":5},{"trial_n":56,"n_dots":3.65,"target":"right","response":"right","rt":729.09999999963,"correct":true,"confidence":5},{"trial_n":57,"n_dots":3.65,"target":"left","response":"left","rt":424.79999999981,"correct":true,"confidence":4},{"trial_n":58,"n_dots":3.55,"target":"right","response":"left","rt":515.10000000009,"correct":false,"confidence":3},{"trial_n":59,"n_dots":3.65,"target":"left","response":"left","rt":496.40000000037,"correct":true,"confidence":3},{"trial_n":60,"n_dots":3.65,"target":"left","response":"left","rt":593.60000000009,"correct":true,"confidence":2},{"trial_n":61,"n_dots":3.55,"target":"right","response":"right","rt":775.69999999972,"correct":true,"confidence":3},{"trial_n":62,"n_dots":3.55,"target":"left","response":"left","rt":327,"correct":true,"confidence":4},{"trial_n":63,"n_dots":3.45,"target":"left","response":"left","rt":447.60000000009,"correct":true,"confidence":5},{"trial_n":64,"n_dots":3.45,"target":"right","response":"left","rt":947.69999999972,"correct":false,"confidence":2},{"trial_n":65,"n_dots":3.55,"target":"right","response":"right","rt":762.29999999981,"correct":true,"confidence":4},{"trial_n":66,"n_dots":3.55,"target":"left","response":"left","rt":430.20000000019,"correct":true,"confidence":5},{"trial_n":67,"n_dots":3.45,"target":"right","response":"right","rt":505.20000000019,"correct":true,"confidence":4},{"trial_n":68,"n_dots":3.45,"target":"left","response":"left","rt":339,"correct":true,"confidence":5},{"trial_n":69,"n_dots":3.35,"target":"left","response":"right","rt":4635.7999999998,"correct":false,"confidence":1},{"trial_n":70,"n_dots":3.45,"target":"right","response":"left","rt":360.90000000037,"correct":false,"confidence":5},{"trial_n":71,"n_dots":3.55,"target":"left","response":"left","rt":79.100000000093,"correct":true,"confidence":5},{"trial_n":72,"n_dots":3.55,"target":"right","response":"right","rt":735.79999999981,"correct":true,"confidence":4},{"trial_n":73,"n_dots":3.45,"target":"right","response":"right","rt":394.20000000019,"correct":true,"confidence":4},{"trial_n":74,"n_dots":3.45,"target":"left","response":"left","rt":450.79999999981,"correct":true,"confidence":3},{"trial_n":75,"n_dots":3.35,"target":"right","response":"left","rt":471.30000000028,"correct":false,"confidence":3},{"trial_n":76,"n_dots":3.45,"target":"left","response":"left","rt":495.70000000019,"correct":true,"confidence":4},{"trial_n":77,"n_dots":3.45,"target":"right","response":"right","rt":316.80000000028,"correct":true,"confidence":4},{"trial_n":78,"n_dots":3.35,"target":"right","response":"right","rt":514.29999999981,"correct":true,"confidence":4},{"trial_n":79,"n_dots":3.35,"target":"left","response":"left","rt":411.60000000009,"correct":true,"confidence":4},{"trial_n":80,"n_dots":3.25,"target":"left","response":"left","rt":1022.6000000001,"correct":true,"confidence":2},{"trial_n":81,"n_dots":3.25,"target":"right","response":"right","rt":290.60000000009,"correct":true,"confidence":4},{"trial_n":82,"n_dots":3.15,"target":"right","response":"left","rt":1649,"correct":false,"confidence":3},{"trial_n":83,"n_dots":3.25,"target":"left","response":"right","rt":2234.2000000002,"correct":false,"confidence":4},{"trial_n":84,"n_dots":3.35,"target":"left","response":"left","rt":290.10000000009,"correct":true,"confidence":5},{"trial_n":85,"n_dots":3.35,"target":"left","response":"left","rt":1076.3999999999,"correct":true,"confidence":1},{"trial_n":86,"n_dots":3.25,"target":"left","response":"left","rt":381.79999999981,"correct":true,"confidence":4},{"trial_n":87,"n_dots":3.25,"target":"right","response":"right","rt":583.70000000019,"correct":true,"confidence":3},{"trial_n":88,"n_dots":3.15,"target":"left","response":"left","rt":504.69999999972,"correct":true,"confidence":4},{"trial_n":89,"n_dots":3.15,"target":"left","response":"right","rt":470.79999999981,"correct":false,"confidence":4},{"trial_n":90,"n_dots":3.25,"target":"right","response":"right","rt":499.60000000009,"correct":true,"confidence":3},{"trial_n":91,"n_dots":3.25,"target":"left","response":"left","rt":505.5,"correct":true,"confidence":4},{"trial_n":92,"n_dots":3.15,"target":"left","response":"left","rt":479.40000000037,"correct":true,"confidence":5},{"trial_n":93,"n_dots":3.15,"target":"left","response":"left","rt":638.80000000028,"correct":true,"confidence":4},{"trial_n":94,"n_dots":3.05,"target":"right","response":"right","rt":430.39999999991,"correct":true,"confidence":4},{"trial_n":95,"n_dots":3.05,"target":"left","response":"left","rt":440.19999999972,"correct":true,"confidence":3},{"trial_n":96,"n_dots":2.95,"target":"right","response":"right","rt":384.29999999981,"correct":true,"confidence":4},{"trial_n":97,"n_dots":2.95,"target":"right","response":"left","rt":422.5,"correct":false,"confidence":4},{"trial_n":98,"n_dots":3.05,"target":"right","response":"right","rt":463.70000000019,"correct":true,"confidence":3},{"trial_n":99,"n_dots":3.05,"target":"left","response":"left","rt":582,"correct":true,"confidence":4},{"trial_n":100,"n_dots":2.95,"target":"left","response":"left","rt":458.09999999963,"correct":true,"confidence":4},{"trial_n":101,"n_dots":2.95,"target":"right","response":"right","rt":544.60000000009,"correct":true,"confidence":4},{"trial_n":102,"n_dots":2.85,"target":"right","response":"right","rt":510,"correct":true,"confidence":4},{"trial_n":103,"n_dots":2.85,"target":"left","response":"right","rt":593.69999999972,"correct":false,"confidence":3},{"trial_n":104,"n_dots":2.95,"target":"left","response":"left","rt":525,"correct":true,"confidence":2},{"trial_n":105,"n_dots":2.95,"target":"right","response":"right","rt":625.10000000009,"correct":true,"confidence":3},{"trial_n":106,"n_dots":2.85,"target":"right","response":"right","rt":574.10000000009,"correct":true,"confidence":1},{"trial_n":107,"n_dots":2.85,"target":"right","response":"right","rt":668.60000000009,"correct":true,"confidence":4},{"trial_n":108,"n_dots":2.75,"target":"right","response":"left","rt":545.5,"correct":false,"confidence":4},{"trial_n":109,"n_dots":2.85,"target":"right","response":"right","rt":467.30000000028,"correct":true,"confidence":4},{"trial_n":110,"n_dots":2.85,"target":"right","response":"left","rt":832.39999999991,"correct":false,"confidence":1},{"trial_n":111,"n_dots":2.95,"target":"left","response":"left","rt":440.39999999991,"correct":true,"confidence":4},{"trial_n":112,"n_dots":2.95,"target":"right","response":"right","rt":298,"correct":true,"confidence":5},{"trial_n":113,"n_dots":2.85,"target":"left","response":"right","rt":420.5,"correct":false,"confidence":2},{"trial_n":114,"n_dots":2.95,"target":"right","response":"left","rt":523.89999999991,"correct":false,"confidence":1},{"trial_n":115,"n_dots":3.05,"target":"left","response":"right","rt":430.59999999963,"correct":false,"confidence":3},{"trial_n":116,"n_dots":3.15,"target":"right","response":"right","rt":487.5,"correct":true,"confidence":4},{"trial_n":117,"n_dots":3.15,"target":"right","response":"right","rt":459.39999999991,"correct":true,"confidence":4},{"trial_n":118,"n_dots":3.05,"target":"right","response":"right","rt":459.70000000019,"correct":true,"confidence":4},{"trial_n":119,"n_dots":3.05,"target":"left","response":"left","rt":355.10000000009,"correct":true,"confidence":4},{"trial_n":120,"n_dots":2.95,"target":"right","response":"right","rt":280,"correct":true,"confidence":4}]