[{"trial_n":1,"min":25,"max":230,"target":"present","response":"present","rt":7151.3000000003,"correct":true,"confidence":-1},{"trial_n":2,"min":25,"max":230,"target":"present","response":"present","rt":1943.3000000003,"correct":true,"confidence":-1},{"trial_n":3,"min":41,"max":214,"target":"absent","response":"present","rt":686.5,"correct":false,"confidence":-1},{"trial_n":4,"min":25,"max":230,"target":"absent","response":"absent","rt":1096.3999999999,"correct":true,"confidence":-1},{"trial_n":5,"min":25,"max":230,"target":"present","response":"absent","rt":1242.8999999999,"correct":false,"confidence":-1},{"trial_n":6,"min":9,"max":246,"target":"absent","response":"absent","rt":1066.5,"correct":true,"confidence":-1},{"trial_n":7,"min":9,"max":246,"target":"absent","response":"absent","rt":899.20000000019,"correct":true,"confidence":-1},{"trial_n":8,"min":25,"max":230,"target":"present","response":"present","rt":519.60000000009,"correct":true,"confidence":-1},{"trial_n":9,"min":25,"max":230,"target":"absent","response":"present","rt":620.60000000009,"correct":false,"confidence":-1},{"trial_n":10,"min":9,"max":246,"target":"absent","response":"absent","rt":627.60000000009,"correct":true,"confidence":-1},{"trial_n":11,"min":9,"max":246,"target":"present","response":"present","rt":680.89999999991,"correct":true,"confidence":-1},{"trial_n":12,"min":17,"max":238,"target":"absent","response":"absent","rt":689.39999999991,"correct":true,"confidence":-1},{"trial_n":13,"min":17,"max":238,"target":"absent","response":"absent","rt":485.39999999991,"correct":true,"confidence":-1},{"trial_n":14,"min":25,"max":230,"target":"present","response":"absent","rt":465.60000000009,"correct":false,"confidence":-1},{"trial_n":15,"min":17,"max":238,"target":"absent","response":"absent","rt":659.5,"correct":true,"confidence":-1},{"trial_n":16,"min":17,"max":238,"target":"present","response":"present","rt":372.5,"correct":true,"confidence":-1},{"trial_n":17,"min":25,"max":230,"target":"absent","response":"absent","rt":429.10000000009,"correct":true,"confidence":-1},{"trial_n":18,"min":25,"max":230,"target":"present","response":"absent","rt":550.80000000028,"correct":false,"confidence":-1},{"trial_n":19,"min":17,"max":238,"target":"absent","response":"absent","rt":675.79999999981,"correct":true,"confidence":-1},{"trial_n":20,"min":17,"max":238,"target":"absent","response":"absent","rt":723.79999999981,"correct":true,"confidence":-1},{"trial_n":21,"min":21,"max":234,"target":"present","response":"absent","rt":582.70000000019,"correct":false,"confidence":1},{"trial_n":22,"min":17,"max":238,"target":"present","response":"present","rt":671.20000000019,"correct":true,"confidence":4},{"trial_n":23,"min":17,"max":238,"target":"absent","response":"absent","rt":808.69999999972,"correct":true,"confidence":4},{"trial_n":24,"min":21,"max":234,"target":"present","response":"present","rt":677.10000000009,"correct":true,"confidence":5},{"trial_n":25,"min":21,"max":234,"target":"present","response":"present","rt":738.20000000019,"correct":true,"confidence":5},{"trial_n":26,"min":25,"max":230,"target":"present","response":"present","rt":601.30000000028,"correct":true,"confidence":5},{"trial_n":27,"min":25,"max":230,"target":"present","response":"present","rt":662.89999999991,"correct":true,"confidence":5},{"trial_n":28,"min":29,"max":226,"target":"absent","response":"absent","rt":1074.1999999997,"correct":true,"confidence":4},{"trial_n":29,"min":29,"max":226,"target":"present","response":"present","rt":650.5,"correct":true,"confidence":5},{"trial_n":30,"min":33,"max":222,"target":"absent","response":"absent","rt":1861.3000000003,"correct":true,"confidence":3},{"trial_n":31,"min":33,"max":222,"target":"present","response":"present","rt":700.20000000019,"correct":true,"confidence":5},{"trial_n":32,"min":35,"max":220,"target":"absent","response":"absent","rt":866.29999999981,"correct":true,"confidence":3},{"trial_n":33,"min":35,"max":220,"target":"absent","response":"absent","rt":768.80000000028,"correct":true,"confidence":4},{"trial_n":34,"min":37,"max":218,"target":"present","response":"present","rt":458.79999999981,"correct":true,"confidence":5},{"trial_n":35,"min":37,"max":218,"target":"absent","response":"absent","rt":919.80000000028,"correct":true,"confidence":4},{"trial_n":36,"min":39,"max":216,"target":"absent","response":"absent","rt":576.20000000019,"correct":true,"confidence":5},{"trial_n":37,"min":39,"max":216,"target":"present","response":"present","rt":546.10000000009,"correct":true,"confidence":5},{"trial_n":38,"min":41,"max":214,"target":"present","response":"present","rt":896.10000000009,"correct":true,"confidence":5},{"trial_n":39,"min":41,"max":214,"target":"present","response":"present","rt":525.20000000019,"correct":true,"confidence":5},{"trial_n":40,"min":43,"max":212,"target":"absent","response":"absent","rt":626.89999999991,"correct":true,"confidence":5},{"trial_n":41,"min":43,"max":212,"target":"present","response":"present","rt":492.5,"correct":true,"confidence":5},{"trial_n":42,"min":44,"max":211,"target":"present","response":"present","rt":296.20000000019,"correct":true,"confidence":5},{"trial_n":43,"min":44,"max":211,"target":"present","response":"present","rt":401.5,"correct":true,"confidence":5},{"trial_n":44,"min":45,"max":210,"target":"absent","response":"absent","rt":1035.6000000001,"correct":true,"confidence":5},{"trial_n":45,"min":45,"max":210,"target":"present","response":"present","rt":827.59999999963,"correct":true,"confidence":5},{"trial_n":46,"min":46,"max":209,"target":"present","response":"present","rt":736.69999999972,"correct":true,"confidence":5},{"trial_n":47,"min":46,"max":209,"target":"present","response":"present","rt":624.5,"correct":true,"confidence":5},{"trial_n":48,"min":47,"max":208,"target":"absent","response":"absent","rt":550.30000000028,"correct":true,"confidence":4},{"trial_n":49,"min":47,"max":208,"target":"present","response":"present","rt":884.30000000028,"correct":true,"confidence":3},{"trial_n":50,"min":48,"max":207,"target":"present","response":"present","rt":814.10000000009,"correct":true,"confidence":5},{"trial_n":51,"min":48,"max":207,"target":"absent","response":"absent","rt":553.39999999991,"correct":true,"confidence":4},{"trial_n":52,"min":49,"max":206,"target":"absent","response":"absent","rt":709.60000000009,"correct":true,"confidence":3},{"trial_n":53,"min":49,"max":206,"target":"absent","response":"absent","rt":483.89999999991,"correct":true,"confidence":4},{"trial_n":54,"min":50,"max":205,"target":"absent","response":"absent","rt":519.5,"correct":true,"confidence":5},{"trial_n":55,"min":50,"max":205,"target":"absent","response":"absent","rt":607.79999999981,"correct":true,"confidence":5},{"trial_n":56,"min":51,"max":204,"target":"absent","response":"absent","rt":491.29999999981,"correct":true,"confidence":5},{"trial_n":57,"min":51,"max":204,"target":"present","response":"present","rt":503.69999999972,"correct":true,"confidence":4},{"trial_n":58,"min":52,"max":203,"target":"absent","response":"absent","rt":485,"correct":true,"confidence":5},{"trial_n":59,"min":52,"max":203,"target":"present","response":"present","rt":444.29999999981,"correct":true,"confidence":5},{"trial_n":60,"min":53,"max":202,"target":"absent","response":"absent","rt":416.10000000009,"correct":true,"confidence":5},{"trial_n":61,"min":53,"max":202,"target":"present","response":"present","rt":470,"correct":true,"confidence":5},{"trial_n":62,"min":54,"max":201,"target":"present","response":"present","rt":594.80000000028,"correct":true,"confidence":4},{"trial_n":63,"min":54,"max":201,"target":"absent","response":"absent","rt":579.89999999991,"correct":true,"confidence":5},{"trial_n":64,"min":55,"max":200,"target":"present","response":"present","rt":546.60000000009,"correct":true,"confidence":3},{"trial_n":65,"min":55,"max":200,"target":"absent","response":"absent","rt":494.39999999991,"correct":true,"confidence":5},{"trial_n":66,"min":56,"max":199,"target":"absent","response":"absent","rt":664.10000000009,"correct":true,"confidence":5},{"trial_n":67,"min":56,"max":199,"target":"present","response":"absent","rt":643,"correct":false,"confidence":1},{"trial_n":68,"min":55,"max":200,"target":"present","response":"present","rt":529.20000000019,"correct":true,"confidence":5},{"trial_n":69,"min":55,"max":200,"target":"present","response":"present","rt":758,"correct":true,"confidence":5},{"trial_n":70,"min":56,"max":199,"target":"absent","response":"absent","rt":531.30000000028,"correct":true,"confidence":5},{"trial_n":71,"min":41,"max":214,"target":"present","response":"absent","rt":7846.3999999999,"correct":false,"confidence":-1},{"trial_n":72,"min":41,"max":214,"target":"present","response":"present","rt":931.40000000037,"correct":true,"confidence":-1},{"trial_n":73,"min":41,"max":214,"target":"absent","response":"absent","rt":453.5,"correct":true,"confidence":-1},{"trial_n":74,"min":57,"max":198,"target":"absent","response":"absent","rt":551.10000000009,"correct":true,"confidence":-1},{"trial_n":75,"min":57,"max":198,"target":"present","response":"present","rt":452.89999999991,"correct":true,"confidence":-1},{"trial_n":76,"min":73,"max":182,"target":"present","response":"present","rt":470.5,"correct":true,"confidence":-1},{"trial_n":77,"min":73,"max":182,"target":"present","response":"absent","rt":524.39999999991,"correct":false,"confidence":-1},{"trial_n":78,"min":57,"max":198,"target":"absent","response":"present","rt":711.40000000037,"correct":false,"confidence":-1},{"trial_n":79,"min":41,"max":214,"target":"absent","response":"absent","rt":571.39999999991,"correct":true,"confidence":-1},{"trial_n":80,"min":41,"max":214,"target":"present","response":"present","rt":645.39999999991,"correct":true,"confidence":-1},{"trial_n":81,"min":49,"max":206,"target":"present","response":"absent","rt":1522.3999999999,"correct":false,"confidence":-1},{"trial_n":82,"min":41,"max":214,"target":"present","response":"present","rt":344.5,"correct":true,"confidence":-1},{"trial_n":83,"min":41,"max":214,"target":"absent","response":"absent","rt":446.5,"correct":true,"confidence":-1},{"trial_n":84,"min":49,"max":206,"target":"absent","response":"absent","rt":314.80000000028,"correct":true,"confidence":-1},{"trial_n":85,"min":49,"max":206,"target":"present","response":"present","rt":278.20000000019,"correct":true,"confidence":-1},{"trial_n":86,"min":57,"max":198,"target":"present","response":"absent","rt":236.10000000009,"correct":false,"confidence":-1},{"trial_n":87,"min":49,"max":206,"target":"present","response":"present","rt":389.89999999991,"correct":true,"confidence":-1},{"trial_n":88,"min":49,"max":206,"target":"present","response":"present","rt":644.80000000028,"correct":true,"confidence":-1},{"trial_n":89,"min":57,"max":198,"target":"present","response":"present","rt":446.59999999963,"correct":true,"confidence":-1},{"trial_n":90,"min":57,"max":198,"target":"absent","response":"present","rt":478.79999999981,"correct":false,"confidence":-1},{"trial_n":91,"min":53,"max":202,"target":"present","response":"absent","rt":2106.1999999997,"correct":false,"confidence":3},{"trial_n":92,"min":49,"max":206,"target":"present","response":"absent","rt":19.200000000186,"correct":false,"confidence":3},{"trial_n":93,"min":45,"max":210,"target":"absent","response":"absent","rt":716.30000000028,"correct":true,"confidence":4},{"trial_n":94,"min":45,"max":210,"target":"absent","response":"absent","rt":968.69999999972,"correct":true,"confidence":5},{"trial_n":95,"min":49,"max":206,"target":"absent","response":"absent","rt":492,"correct":true,"confidence":5},{"trial_n":96,"min":49,"max":206,"target":"present","response":"present","rt":250.59999999963,"correct":true,"confidence":5},{"trial_n":97,"min":53,"max":202,"target":"absent","response":"absent","rt":478.69999999972,"correct":true,"confidence":5},{"trial_n":98,"min":53,"max":202,"target":"absent","response":"absent","rt":487.60000000009,"correct":true,"confidence":5},{"trial_n":99,"min":57,"max":198,"target":"present","response":"present","rt":399.20000000019,"correct":true,"confidence":5},{"trial_n":100,"min":57,"max":198,"target":"present","response":"present","rt":568.70000000019,"correct":true,"confidence":5},{"trial_n":101,"min":59,"max":196,"target":"absent","response":"absent","rt":520.5,"correct":true,"confidence":5},{"trial_n":102,"min":59,"max":196,"target":"absent","response":"absent","rt":340.40000000037,"correct":true,"confidence":5},{"trial_n":103,"min":61,"max":194,"target":"present","response":"present","rt":182.89999999991,"correct":true,"confidence":5},{"trial_n":104,"min":61,"max":194,"target":"absent","response":"absent","rt":228.89999999991,"correct":true,"confidence":5},{"trial_n":105,"min":63,"max":192,"target":"present","response":"present","rt":835.39999999991,"correct":true,"confidence":4},{"trial_n":106,"min":63,"max":192,"target":"present","response":"present","rt":396.59999999963,"correct":true,"confidence":5},{"trial_n":107,"min":65,"max":190,"target":"absent","response":"present","rt":352.5,"correct":false,"confidence":2},{"trial_n":108,"min":63,"max":192,"target":"absent","response":"absent","rt":556,"correct":true,"confidence":5},{"trial_n":109,"min":63,"max":192,"target":"present","response":"present","rt":298.59999999963,"correct":true,"confidence":5},{"trial_n":110,"min":65,"max":190,"target":"absent","response":"absent","rt":603,"correct":true,"confidence":4},{"trial_n":111,"min":65,"max":190,"target":"absent","response":"absent","rt":502.60000000009,"correct":true,"confidence":5},{"trial_n":112,"min":66,"max":189,"target":"absent","response":"absent","rt":520.5,"correct":true,"confidence":5},{"trial_n":113,"min":66,"max":189,"target":"present","response":"present","rt":460.10000000009,"correct":true,"confidence":5},{"trial_n":114,"min":67,"max":188,"target":"absent","response":"absent","rt":400.5,"correct":true,"confidence":5},{"trial_n":115,"min":67,"max":188,"target":"absent","response":"present","rt":508.80000000028,"correct":false,"confidence":5},{"trial_n":116,"min":66,"max":189,"target":"absent","response":"absent","rt":634,"correct":true,"confidence":5},{"trial_n":117,"min":66,"max":189,"target":"present","response":"present","rt":363.30000000028,"correct":true,"confidence":4},{"trial_n":118,"min":67,"max":188,"target":"absent","response":"absent","rt":398.5,"correct":true,"confidence":5},{"trial_n":119,"min":67,"max":188,"target":"absent","response":"absent","rt":844.60000000009,"correct":true,"confidence":3},{"trial_n":120,"min":68,"max":187,"target":"absent","response":"present","rt":474.20000000019,"correct":false,"confidence":2},{"trial_n":121,"min":67,"max":188,"target":"present","response":"present","rt":163,"correct":true,"confidence":5},{"trial_n":122,"min":67,"max":188,"target":"present","response":"absent","rt":435.89999999991,"correct":false,"confidence":1},{"trial_n":123,"min":66,"max":189,"target":"absent","response":"absent","rt":530.60000000009,"correct":true,"confidence":5},{"trial_n":124,"min":66,"max":189,"target":"absent","response":"absent","rt":1006,"correct":true,"confidence":5},{"trial_n":125,"min":67,"max":188,"target":"present","response":"present","rt":49.100000000093,"correct":true,"confidence":5},{"trial_n":126,"min":67,"max":188,"target":"present","response":"present","rt":477.19999999972,"correct":true,"confidence":5},{"trial_n":127,"min":68,"max":187,"target":"absent","response":"absent","rt":469.69999999972,"correct":true,"confidence":5},{"trial_n":128,"min":68,"max":187,"target":"present","response":"present","rt":371.29999999981,"correct":true,"confidence":5},{"trial_n":129,"min":69,"max":186,"target":"absent","response":"absent","rt":515.79999999981,"correct":true,"confidence":5},{"trial_n":130,"min":69,"max":186,"target":"present","response":"present","rt":355.20000000019,"correct":true,"confidence":5},{"trial_n":131,"min":70,"max":185,"target":"present","response":"present","rt":364.39999999991,"correct":true,"confidence":5},{"trial_n":132,"min":70,"max":185,"target":"absent","response":"absent","rt":274,"correct":true,"confidence":5},{"trial_n":133,"min":71,"max":184,"target":"present","response":"present","rt":326.30000000028,"correct":true,"confidence":5},{"trial_n":134,"min":71,"max":184,"target":"absent","response":"absent","rt":682,"correct":true,"confidence":3},{"trial_n":135,"min":72,"max":183,"target":"absent","response":"absent","rt":1071.2000000002,"correct":true,"confidence":5},{"trial_n":136,"min":72,"max":183,"target":"present","response":"present","rt":288.60000000009,"correct":true,"confidence":5},{"trial_n":137,"min":73,"max":182,"target":"present","response":"present","rt":598.80000000028,"correct":true,"confidence":5},{"trial_n":138,"min":73,"max":182,"target":"present","response":"present","rt":1917.1000000001,"correct":true,"confidence":4},{"trial_n":139,"min":74,"max":181,"target":"present","response":"present","rt":355.29999999981,"correct":true,"confidence":5},{"trial_n":140,"min":74,"max":181,"target":"absent","response":"absent","rt":909.80000000028,"correct":true,"confidence":4}]