[{"trial_n":1,"min":25,"max":230,"target":"present","response":"present","rt":11735,"correct":true,"confidence":-1},{"trial_n":2,"min":25,"max":230,"target":"present","response":"present","rt":4531,"correct":true,"confidence":-1},{"trial_n":3,"min":41,"max":214,"target":"absent","response":"absent","rt":1485,"correct":true,"confidence":-1},{"trial_n":4,"min":41,"max":214,"target":"absent","response":"absent","rt":638,"correct":true,"confidence":-1},{"trial_n":5,"min":57,"max":198,"target":"present","response":"present","rt":2004,"correct":true,"confidence":-1},{"trial_n":6,"min":57,"max":198,"target":"present","response":"present","rt":799,"correct":true,"confidence":-1},{"trial_n":7,"min":73,"max":182,"target":"absent","response":"absent","rt":514,"correct":true,"confidence":-1},{"trial_n":8,"min":73,"max":182,"target":"absent","response":"absent","rt":893,"correct":true,"confidence":-1},{"trial_n":9,"min":89,"max":166,"target":"present","response":"present","rt":667,"correct":true,"confidence":-1},{"trial_n":10,"min":89,"max":166,"target":"absent","response":"absent","rt":502,"correct":true,"confidence":-1},{"trial_n":11,"min":97,"max":158,"target":"absent","response":"absent","rt":540,"correct":true,"confidence":-1},{"trial_n":12,"min":97,"max":158,"target":"present","response":"absent","rt":516,"correct":false,"confidence":-1},{"trial_n":13,"min":89,"max":166,"target":"absent","response":"absent","rt":900,"correct":true,"confidence":-1},{"trial_n":14,"min":89,"max":166,"target":"present","response":"present","rt":614,"correct":true,"confidence":-1},{"trial_n":15,"min":97,"max":158,"target":"present","response":"absent","rt":482,"correct":false,"confidence":-1},{"trial_n":16,"min":89,"max":166,"target":"absent","response":"present","rt":847,"correct":false,"confidence":-1},{"trial_n":17,"min":81,"max":174,"target":"present","response":"present","rt":552,"correct":true,"confidence":-1},{"trial_n":18,"min":81,"max":174,"target":"present","response":"present","rt":1234,"correct":true,"confidence":-1},{"trial_n":19,"min":89,"max":166,"target":"present","response":"present","rt":664,"correct":true,"confidence":-1},{"trial_n":20,"min":89,"max":166,"target":"absent","response":"absent","rt":626,"correct":true,"confidence":-1},{"trial_n":21,"min":93,"max":162,"target":"absent","response":"absent","rt":2209,"correct":true,"confidence":3},{"trial_n":22,"min":93,"max":162,"target":"absent","response":"absent","rt":1315,"correct":true,"confidence":4},{"trial_n":23,"min":97,"max":158,"target":"absent","response":"present","rt":924,"correct":false,"confidence":5},{"trial_n":24,"min":93,"max":162,"target":"present","response":"present","rt":1257,"correct":true,"confidence":5},{"trial_n":25,"min":93,"max":162,"target":"absent","response":"absent","rt":1907,"correct":true,"confidence":3},{"trial_n":26,"min":97,"max":158,"target":"present","response":"absent","rt":1527,"correct":false,"confidence":4},{"trial_n":27,"min":93,"max":162,"target":"present","response":"present","rt":1987,"correct":true,"confidence":2},{"trial_n":28,"min":93,"max":162,"target":"absent","response":"present","rt":1269,"correct":false,"confidence":3},{"trial_n":29,"min":89,"max":166,"target":"present","response":"present","rt":1063,"correct":true,"confidence":4},{"trial_n":30,"min":89,"max":166,"target":"present","response":"present","rt":836,"correct":true,"confidence":5},{"trial_n":31,"min":91,"max":164,"target":"absent","response":"absent","rt":2304,"correct":true,"confidence":2},{"trial_n":32,"min":91,"max":164,"target":"absent","response":"present","rt":914,"correct":false,"confidence":3},{"trial_n":33,"min":89,"max":166,"target":"present","response":"present","rt":951,"correct":true,"confidence":4},{"trial_n":34,"min":89,"max":166,"target":"absent","response":"absent","rt":967,"correct":true,"confidence":5},{"trial_n":35,"min":91,"max":164,"target":"present","response":"present","rt":3270,"correct":true,"confidence":1},{"trial_n":36,"min":91,"max":164,"target":"absent","response":"absent","rt":966,"correct":true,"confidence":4},{"trial_n":37,"min":93,"max":162,"target":"present","response":"present","rt":1326,"correct":true,"confidence":5},{"trial_n":38,"min":93,"max":162,"target":"absent","response":"present","rt":947,"correct":false,"confidence":5},{"trial_n":39,"min":91,"max":164,"target":"absent","response":"absent","rt":921,"correct":true,"confidence":5},{"trial_n":40,"min":91,"max":164,"target":"present","response":"absent","rt":3480,"correct":false,"confidence":2},{"trial_n":41,"min":90,"max":165,"target":"present","response":"absent","rt":897,"correct":false,"confidence":5},{"trial_n":42,"min":89,"max":166,"target":"absent","response":"present","rt":1395,"correct":false,"confidence":3},{"trial_n":43,"min":88,"max":167,"target":"present","response":"present","rt":848,"correct":true,"confidence":4},{"trial_n":44,"min":88,"max":167,"target":"present","response":"absent","rt":919,"correct":false,"confidence":5},{"trial_n":45,"min":87,"max":168,"target":"absent","response":"present","rt":1338,"correct":false,"confidence":3},{"trial_n":46,"min":86,"max":169,"target":"present","response":"present","rt":867,"correct":true,"confidence":4},{"trial_n":47,"min":86,"max":169,"target":"present","response":"present","rt":774,"correct":true,"confidence":5},{"trial_n":48,"min":87,"max":168,"target":"absent","response":"absent","rt":1049,"correct":true,"confidence":3},{"trial_n":49,"min":87,"max":168,"target":"present","response":"present","rt":1625,"correct":true,"confidence":3},{"trial_n":50,"min":88,"max":167,"target":"present","response":"absent","rt":1072,"correct":false,"confidence":5},{"trial_n":51,"min":87,"max":168,"target":"absent","response":"absent","rt":1045,"correct":true,"confidence":5},{"trial_n":52,"min":87,"max":168,"target":"absent","response":"present","rt":2609,"correct":false,"confidence":1},{"trial_n":53,"min":86,"max":169,"target":"absent","response":"present","rt":1025,"correct":false,"confidence":4},{"trial_n":54,"min":85,"max":170,"target":"absent","response":"absent","rt":798,"correct":true,"confidence":5},{"trial_n":55,"min":85,"max":170,"target":"absent","response":"absent","rt":882,"correct":true,"confidence":5},{"trial_n":56,"min":86,"max":169,"target":"absent","response":"present","rt":2842,"correct":false,"confidence":3},{"trial_n":57,"min":85,"max":170,"target":"present","response":"absent","rt":1460,"correct":false,"confidence":3},{"trial_n":58,"min":84,"max":171,"target":"present","response":"present","rt":741,"correct":true,"confidence":5},{"trial_n":59,"min":84,"max":171,"target":"absent","response":"present","rt":1539,"correct":false,"confidence":4},{"trial_n":60,"min":83,"max":172,"target":"present","response":"present","rt":795,"correct":true,"confidence":5},{"trial_n":61,"min":83,"max":172,"target":"present","response":"present","rt":951,"correct":true,"confidence":5},{"trial_n":62,"min":84,"max":171,"target":"absent","response":"present","rt":1075,"correct":false,"confidence":1},{"trial_n":63,"min":83,"max":172,"target":"present","response":"present","rt":1822,"correct":true,"confidence":3},{"trial_n":64,"min":83,"max":172,"target":"absent","response":"absent","rt":875,"correct":true,"confidence":4},{"trial_n":65,"min":84,"max":171,"target":"present","response":"present","rt":1139,"correct":true,"confidence":4},{"trial_n":66,"min":84,"max":171,"target":"absent","response":"absent","rt":934,"correct":true,"confidence":4},{"trial_n":67,"min":85,"max":170,"target":"absent","response":"present","rt":1311,"correct":false,"confidence":3},{"trial_n":68,"min":84,"max":171,"target":"present","response":"absent","rt":1189,"correct":false,"confidence":5},{"trial_n":69,"min":83,"max":172,"target":"present","response":"absent","rt":4053,"correct":false,"confidence":2},{"trial_n":70,"min":82,"max":173,"target":"present","response":"present","rt":2056,"correct":true,"confidence":1},{"trial_n":71,"min":41,"max":214,"target":"present","response":"present","rt":2360,"correct":true,"confidence":-1},{"trial_n":72,"min":41,"max":214,"target":"present","response":"present","rt":822,"correct":true,"confidence":-1},{"trial_n":73,"min":57,"max":198,"target":"absent","response":"absent","rt":282,"correct":true,"confidence":-1},{"trial_n":74,"min":57,"max":198,"target":"absent","response":"present","rt":512,"correct":false,"confidence":-1},{"trial_n":75,"min":41,"max":214,"target":"present","response":"present","rt":446,"correct":true,"confidence":-1},{"trial_n":76,"min":41,"max":214,"target":"absent","response":"absent","rt":424,"correct":true,"confidence":-1},{"trial_n":77,"min":57,"max":198,"target":"present","response":"present","rt":686,"correct":true,"confidence":-1},{"trial_n":78,"min":57,"max":198,"target":"present","response":"present","rt":341,"correct":true,"confidence":-1},{"trial_n":79,"min":73,"max":182,"target":"absent","response":"absent","rt":397,"correct":true,"confidence":-1},{"trial_n":80,"min":73,"max":182,"target":"absent","response":"absent","rt":341,"correct":true,"confidence":-1},{"trial_n":81,"min":81,"max":174,"target":"absent","response":"absent","rt":297,"correct":true,"confidence":-1},{"trial_n":82,"min":81,"max":174,"target":"absent","response":"absent","rt":335,"correct":true,"confidence":-1},{"trial_n":83,"min":89,"max":166,"target":"absent","response":"absent","rt":1923,"correct":true,"confidence":-1},{"trial_n":84,"min":89,"max":166,"target":"absent","response":"absent","rt":501,"correct":true,"confidence":-1},{"trial_n":85,"min":97,"max":158,"target":"present","response":"absent","rt":1081,"correct":false,"confidence":-1},{"trial_n":86,"min":89,"max":166,"target":"present","response":"present","rt":796,"correct":true,"confidence":-1},{"trial_n":87,"min":89,"max":166,"target":"absent","response":"present","rt":747,"correct":false,"confidence":-1},{"trial_n":88,"min":81,"max":174,"target":"present","response":"absent","rt":365,"correct":false,"confidence":-1},{"trial_n":89,"min":73,"max":182,"target":"absent","response":"absent","rt":882,"correct":true,"confidence":-1},{"trial_n":90,"min":73,"max":182,"target":"present","response":"present","rt":665,"correct":true,"confidence":-1},{"trial_n":91,"min":77,"max":178,"target":"present","response":"present","rt":271,"correct":true,"confidence":5},{"trial_n":92,"min":77,"max":178,"target":"absent","response":"absent","rt":951,"correct":true,"confidence":4},{"trial_n":93,"min":81,"max":174,"target":"absent","response":"absent","rt":787,"correct":true,"confidence":3},{"trial_n":94,"min":81,"max":174,"target":"absent","response":"absent","rt":1692,"correct":true,"confidence":2},{"trial_n":95,"min":85,"max":170,"target":"absent","response":"present","rt":1513,"correct":false,"confidence":1},{"trial_n":96,"min":81,"max":174,"target":"absent","response":"absent","rt":788,"correct":true,"confidence":4},{"trial_n":97,"min":81,"max":174,"target":"absent","response":"present","rt":2369,"correct":false,"confidence":2},{"trial_n":98,"min":77,"max":178,"target":"present","response":"present","rt":523,"correct":true,"confidence":5},{"trial_n":99,"min":77,"max":178,"target":"absent","response":"absent","rt":620,"correct":true,"confidence":4},{"trial_n":100,"min":81,"max":174,"target":"absent","response":"absent","rt":590,"correct":true,"confidence":5},{"trial_n":101,"min":81,"max":174,"target":"present","response":"present","rt":638,"correct":true,"confidence":5},{"trial_n":102,"min":83,"max":172,"target":"present","response":"present","rt":619,"correct":true,"confidence":5},{"trial_n":103,"min":83,"max":172,"target":"absent","response":"absent","rt":1194,"correct":true,"confidence":3},{"trial_n":104,"min":85,"max":170,"target":"present","response":"present","rt":832,"correct":true,"confidence":4},{"trial_n":105,"min":85,"max":170,"target":"present","response":"present","rt":1160,"correct":true,"confidence":5},{"trial_n":106,"min":87,"max":168,"target":"absent","response":"absent","rt":717,"correct":true,"confidence":2},{"trial_n":107,"min":87,"max":168,"target":"absent","response":"present","rt":1774,"correct":false,"confidence":1},{"trial_n":108,"min":85,"max":170,"target":"present","response":"present","rt":556,"correct":true,"confidence":4},{"trial_n":109,"min":85,"max":170,"target":"present","response":"present","rt":1051,"correct":true,"confidence":4},{"trial_n":110,"min":87,"max":168,"target":"absent","response":"absent","rt":612,"correct":true,"confidence":3},{"trial_n":111,"min":87,"max":168,"target":"present","response":"present","rt":756,"correct":true,"confidence":2},{"trial_n":112,"min":88,"max":167,"target":"absent","response":"present","rt":1956,"correct":false,"confidence":2},{"trial_n":113,"min":87,"max":168,"target":"absent","response":"present","rt":616,"correct":false,"confidence":4},{"trial_n":114,"min":86,"max":169,"target":"present","response":"present","rt":442,"correct":true,"confidence":5},{"trial_n":115,"min":86,"max":169,"target":"absent","response":"absent","rt":950,"correct":true,"confidence":2},{"trial_n":116,"min":87,"max":168,"target":"present","response":"present","rt":370,"correct":true,"confidence":4},{"trial_n":117,"min":87,"max":168,"target":"present","response":"present","rt":862,"correct":true,"confidence":1},{"trial_n":118,"min":88,"max":167,"target":"absent","response":"present","rt":593,"correct":false,"confidence":1},{"trial_n":119,"min":87,"max":168,"target":"absent","response":"absent","rt":740,"correct":true,"confidence":2},{"trial_n":120,"min":87,"max":168,"target":"present","response":"present","rt":1266,"correct":true,"confidence":3},{"trial_n":121,"min":88,"max":167,"target":"present","response":"present","rt":423,"correct":true,"confidence":4},{"trial_n":122,"min":88,"max":167,"target":"present","response":"present","rt":1870,"correct":true,"confidence":4},{"trial_n":123,"min":89,"max":166,"target":"present","response":"present","rt":768,"correct":true,"confidence":2},{"trial_n":124,"min":89,"max":166,"target":"absent","response":"present","rt":4373,"correct":false,"confidence":2},{"trial_n":125,"min":88,"max":167,"target":"absent","response":"present","rt":817,"correct":false,"confidence":3},{"trial_n":126,"min":87,"max":168,"target":"present","response":"absent","rt":1110,"correct":false,"confidence":1},{"trial_n":127,"min":86,"max":169,"target":"absent","response":"present","rt":2151,"correct":false,"confidence":1},{"trial_n":128,"min":85,"max":170,"target":"present","response":"present","rt":414,"correct":true,"confidence":3},{"trial_n":129,"min":85,"max":170,"target":"present","response":"present","rt":472,"correct":true,"confidence":4},{"trial_n":130,"min":86,"max":169,"target":"present","response":"present","rt":653,"correct":true,"confidence":2},{"trial_n":131,"min":86,"max":169,"target":"present","response":"present","rt":320,"correct":true,"confidence":3},{"trial_n":132,"min":87,"max":168,"target":"absent","response":"present","rt":421,"correct":false,"confidence":3},{"trial_n":133,"min":86,"max":169,"target":"present","response":"present","rt":1153,"correct":true,"confidence":2},{"trial_n":134,"min":86,"max":169,"target":"absent","response":"present","rt":371,"correct":false,"confidence":3},{"trial_n":135,"min":85,"max":170,"target":"present","response":"present","rt":387,"correct":true,"confidence":5},{"trial_n":136,"min":85,"max":170,"target":"present","response":"present","rt":254,"correct":true,"confidence":5},{"trial_n":137,"min":86,"max":169,"target":"absent","response":"present","rt":1004,"correct":false,"confidence":2},{"trial_n":138,"min":85,"max":170,"target":"present","response":"present","rt":496,"correct":true,"confidence":4},{"trial_n":139,"min":85,"max":170,"target":"present","response":"present","rt":464,"correct":true,"confidence":4},{"trial_n":140,"min":86,"max":169,"target":"present","response":"present","rt":284,"correct":true,"confidence":5}]