[{"trial_n":1,"n_dots":4.25,"target":"right","response":"left","rt":4874,"correct":false,"confidence":-1},{"trial_n":2,"n_dots":4.25,"target":"right","response":"right","rt":542,"correct":true,"confidence":-1},{"trial_n":3,"n_dots":4.25,"target":"right","response":"right","rt":499,"correct":true,"confidence":-1},{"trial_n":4,"n_dots":3.85,"target":"right","response":"right","rt":582,"correct":true,"confidence":-1},{"trial_n":5,"n_dots":3.85,"target":"left","response":"left","rt":409,"correct":true,"confidence":-1},{"trial_n":6,"n_dots":3.45,"target":"left","response":"left","rt":475,"correct":true,"confidence":-1},{"trial_n":7,"n_dots":3.45,"target":"right","response":"left","rt":532,"correct":false,"confidence":-1},{"trial_n":8,"n_dots":3.65,"target":"right","response":"left","rt":662,"correct":false,"confidence":-1},{"trial_n":9,"n_dots":3.85,"target":"left","response":"left","rt":474,"correct":true,"confidence":-1},{"trial_n":10,"n_dots":3.85,"target":"right","response":"right","rt":430,"correct":true,"confidence":-1},{"trial_n":11,"n_dots":3.65,"target":"left","response":"left","rt":605,"correct":true,"confidence":-1},{"trial_n":12,"n_dots":3.65,"target":"right","response":"left","rt":613,"correct":false,"confidence":-1},{"trial_n":13,"n_dots":3.75,"target":"right","response":"right","rt":506,"correct":true,"confidence":-1},{"trial_n":14,"n_dots":3.75,"target":"left","response":"left","rt":478,"correct":true,"confidence":-1},{"trial_n":15,"n_dots":3.65,"target":"right","response":"right","rt":450,"correct":true,"confidence":-1},{"trial_n":16,"n_dots":3.65,"target":"left","response":"left","rt":360,"correct":true,"confidence":-1},{"trial_n":17,"n_dots":3.55,"target":"left","response":"left","rt":224,"correct":true,"confidence":-1},{"trial_n":18,"n_dots":3.55,"target":"left","response":"left","rt":268,"correct":true,"confidence":-1},{"trial_n":19,"n_dots":3.45,"target":"right","response":"left","rt":334,"correct":false,"confidence":-1},{"trial_n":20,"n_dots":3.55,"target":"left","response":"left","rt":447,"correct":true,"confidence":-1},{"trial_n":21,"n_dots":3.55,"target":"left","response":"left","rt":341,"correct":true,"confidence":5},{"trial_n":22,"n_dots":3.45,"target":"left","response":"left","rt":577,"correct":true,"confidence":4},{"trial_n":23,"n_dots":3.45,"target":"left","response":"left","rt":428,"correct":true,"confidence":4},{"trial_n":24,"n_dots":3.35,"target":"left","response":"left","rt":779,"correct":true,"confidence":5},{"trial_n":25,"n_dots":3.35,"target":"left","response":"left","rt":1115,"correct":true,"confidence":3},{"trial_n":26,"n_dots":3.25,"target":"right","response":"left","rt":775,"correct":false,"confidence":2},{"trial_n":27,"n_dots":3.35,"target":"right","response":"right","rt":719,"correct":true,"confidence":3},{"trial_n":28,"n_dots":3.35,"target":"left","response":"left","rt":525,"correct":true,"confidence":4},{"trial_n":29,"n_dots":3.25,"target":"left","response":"left","rt":486,"correct":true,"confidence":5},{"trial_n":30,"n_dots":3.25,"target":"right","response":"left","rt":489,"correct":false,"confidence":3},{"trial_n":31,"n_dots":3.35,"target":"left","response":"left","rt":433,"correct":true,"confidence":5},{"trial_n":32,"n_dots":3.35,"target":"left","response":"left","rt":437,"correct":true,"confidence":5},{"trial_n":33,"n_dots":3.25,"target":"left","response":"left","rt":445,"correct":true,"confidence":4},{"trial_n":34,"n_dots":3.25,"target":"right","response":"right","rt":680,"correct":true,"confidence":3},{"trial_n":35,"n_dots":3.15,"target":"right","response":"left","rt":570,"correct":false,"confidence":3},{"trial_n":36,"n_dots":3.25,"target":"left","response":"left","rt":432,"correct":true,"confidence":2},{"trial_n":37,"n_dots":3.25,"target":"left","response":"left","rt":452,"correct":true,"confidence":4},{"trial_n":38,"n_dots":3.15,"target":"left","response":"left","rt":455,"correct":true,"confidence":4},{"trial_n":39,"n_dots":3.15,"target":"left","response":"left","rt":445,"correct":true,"confidence":3},{"trial_n":40,"n_dots":3.05,"target":"right","response":"left","rt":372,"correct":false,"confidence":4},{"trial_n":41,"n_dots":3.15,"target":"right","response":"left","rt":673,"correct":false,"confidence":3},{"trial_n":42,"n_dots":3.25,"target":"right","response":"right","rt":1714,"correct":true,"confidence":1},{"trial_n":43,"n_dots":3.25,"target":"left","response":"left","rt":504,"correct":true,"confidence":3},{"trial_n":44,"n_dots":3.15,"target":"right","response":"right","rt":943,"correct":true,"confidence":4},{"trial_n":45,"n_dots":3.15,"target":"right","response":"right","rt":2061,"correct":true,"confidence":3},{"trial_n":46,"n_dots":3.05,"target":"right","response":"right","rt":813,"correct":true,"confidence":3},{"trial_n":47,"n_dots":3.05,"target":"right","response":"right","rt":929,"correct":true,"confidence":3},{"trial_n":48,"n_dots":2.95,"target":"left","response":"left","rt":638,"correct":true,"confidence":4},{"trial_n":49,"n_dots":2.95,"target":"right","response":"right","rt":703,"correct":true,"confidence":5},{"trial_n":50,"n_dots":2.85,"target":"left","response":"left","rt":677,"correct":true,"confidence":3},{"trial_n":51,"n_dots":2.85,"target":"right","response":"right","rt":1074,"correct":true,"confidence":3},{"trial_n":52,"n_dots":2.75,"target":"left","response":"left","rt":342,"correct":true,"confidence":4},{"trial_n":53,"n_dots":2.75,"target":"left","response":"right","rt":1868,"correct":false,"confidence":2},{"trial_n":54,"n_dots":2.85,"target":"right","response":"right","rt":943,"correct":true,"confidence":3},{"trial_n":55,"n_dots":2.85,"target":"left","response":"left","rt":417,"correct":true,"confidence":4},{"trial_n":56,"n_dots":2.75,"target":"right","response":"right","rt":862,"correct":true,"confidence":2},{"trial_n":57,"n_dots":2.75,"target":"left","response":"left","rt":464,"correct":true,"confidence":3},{"trial_n":58,"n_dots":2.65,"target":"left","response":"left","rt":950,"correct":true,"confidence":2},{"trial_n":59,"n_dots":2.65,"target":"left","response":"right","rt":1737,"correct":false,"confidence":1},{"trial_n":60,"n_dots":2.75,"target":"left","response":"left","rt":540,"correct":true,"confidence":3},{"trial_n":61,"n_dots":2.75,"target":"right","response":"left","rt":421,"correct":false,"confidence":2},{"trial_n":62,"n_dots":2.85,"target":"left","response":"left","rt":370,"correct":true,"confidence":4},{"trial_n":63,"n_dots":2.85,"target":"left","response":"right","rt":1076,"correct":false,"confidence":3},{"trial_n":64,"n_dots":2.95,"target":"left","response":"left","rt":493,"correct":true,"confidence":3},{"trial_n":65,"n_dots":2.95,"target":"left","response":"left","rt":431,"correct":true,"confidence":5},{"trial_n":66,"n_dots":2.85,"target":"right","response":"left","rt":479,"correct":false,"confidence":5},{"trial_n":67,"n_dots":2.95,"target":"left","response":"left","rt":375,"correct":true,"confidence":5},{"trial_n":68,"n_dots":2.95,"target":"left","response":"left","rt":415,"correct":true,"confidence":4},{"trial_n":69,"n_dots":2.85,"target":"right","response":"right","rt":962,"correct":true,"confidence":3},{"trial_n":70,"n_dots":2.85,"target":"right","response":"right","rt":2044,"correct":true,"confidence":3},{"trial_n":71,"n_dots":2.75,"target":"right","response":"left","rt":1942,"correct":false,"confidence":2},{"trial_n":72,"n_dots":2.85,"target":"left","response":"left","rt":466,"correct":true,"confidence":3},{"trial_n":73,"n_dots":2.85,"target":"right","response":"right","rt":798,"correct":true,"confidence":3},{"trial_n":74,"n_dots":2.75,"target":"right","response":"right","rt":574,"correct":true,"confidence":5},{"trial_n":75,"n_dots":2.75,"target":"left","response":"left","rt":875,"correct":true,"confidence":2},{"trial_n":76,"n_dots":2.65,"target":"left","response":"right","rt":944,"correct":false,"confidence":3},{"trial_n":77,"n_dots":2.75,"target":"left","response":"left","rt":277,"correct":true,"confidence":4},{"trial_n":78,"n_dots":2.75,"target":"right","response":"right","rt":1096,"correct":true,"confidence":2},{"trial_n":79,"n_dots":2.65,"target":"left","response":"left","rt":648,"correct":true,"confidence":4},{"trial_n":80,"n_dots":2.65,"target":"left","response":"left","rt":461,"correct":true,"confidence":2},{"trial_n":81,"n_dots":2.55,"target":"right","response":"right","rt":881,"correct":true,"confidence":3},{"trial_n":82,"n_dots":2.55,"target":"left","response":"left","rt":607,"correct":true,"confidence":2},{"trial_n":83,"n_dots":2.45,"target":"right","response":"left","rt":985,"correct":false,"confidence":3},{"trial_n":84,"n_dots":2.55,"target":"right","response":"right","rt":1757,"correct":true,"confidence":3},{"trial_n":85,"n_dots":2.55,"target":"right","response":"left","rt":753,"correct":false,"confidence":4},{"trial_n":86,"n_dots":2.65,"target":"left","response":"right","rt":1053,"correct":false,"confidence":3},{"trial_n":87,"n_dots":2.75,"target":"right","response":"left","rt":904,"correct":false,"confidence":2},{"trial_n":88,"n_dots":2.85,"target":"left","response":"left","rt":847,"correct":true,"confidence":4},{"trial_n":89,"n_dots":2.85,"target":"right","response":"right","rt":1514,"correct":true,"confidence":3},{"trial_n":90,"n_dots":2.75,"target":"left","response":"left","rt":610,"correct":true,"confidence":5},{"trial_n":91,"n_dots":2.75,"target":"left","response":"left","rt":693,"correct":true,"confidence":4},{"trial_n":92,"n_dots":2.65,"target":"right","response":"right","rt":1386,"correct":true,"confidence":1},{"trial_n":93,"n_dots":2.65,"target":"left","response":"left","rt":2061,"correct":true,"confidence":2},{"trial_n":94,"n_dots":2.55,"target":"left","response":"right","rt":1510,"correct":false,"confidence":3},{"trial_n":95,"n_dots":2.65,"target":"left","response":"left","rt":737,"correct":true,"confidence":2},{"trial_n":96,"n_dots":2.65,"target":"right","response":"left","rt":653,"correct":false,"confidence":2},{"trial_n":97,"n_dots":2.75,"target":"right","response":"right","rt":860,"correct":true,"confidence":3},{"trial_n":98,"n_dots":2.75,"target":"right","response":"left","rt":1179,"correct":false,"confidence":2},{"trial_n":99,"n_dots":2.85,"target":"right","response":"left","rt":747,"correct":false,"confidence":5},{"trial_n":100,"n_dots":2.95,"target":"right","response":"left","rt":689,"correct":false,"confidence":3},{"trial_n":101,"n_dots":3.05,"target":"right","response":"right","rt":869,"correct":true,"confidence":3},{"trial_n":102,"n_dots":3.05,"target":"right","response":"right","rt":758,"correct":true,"confidence":4},{"trial_n":103,"n_dots":2.95,"target":"right","response":"right","rt":732,"correct":true,"confidence":4},{"trial_n":104,"n_dots":2.95,"target":"left","response":"right","rt":1770,"correct":false,"confidence":3},{"trial_n":105,"n_dots":3.05,"target":"right","response":"left","rt":1292,"correct":false,"confidence":3},{"trial_n":106,"n_dots":3.15,"target":"left","response":"left","rt":584,"correct":true,"confidence":5},{"trial_n":107,"n_dots":3.15,"target":"right","response":"left","rt":981,"correct":false,"confidence":4},{"trial_n":108,"n_dots":3.25,"target":"right","response":"left","rt":782,"correct":false,"confidence":2},{"trial_n":109,"n_dots":3.35,"target":"right","response":"right","rt":1209,"correct":true,"confidence":3},{"trial_n":110,"n_dots":3.35,"target":"right","response":"right","rt":923,"correct":true,"confidence":3},{"trial_n":111,"n_dots":3.25,"target":"right","response":"right","rt":901,"correct":true,"confidence":3},{"trial_n":112,"n_dots":3.25,"target":"left","response":"left","rt":633,"correct":true,"confidence":4},{"trial_n":113,"n_dots":3.15,"target":"left","response":"left","rt":491,"correct":true,"confidence":5},{"trial_n":114,"n_dots":3.15,"target":"left","response":"left","rt":450,"correct":true,"confidence":5},{"trial_n":115,"n_dots":3.05,"target":"right","response":"right","rt":1113,"correct":true,"confidence":2},{"trial_n":116,"n_dots":3.05,"target":"right","response":"right","rt":687,"correct":true,"confidence":4},{"trial_n":117,"n_dots":2.95,"target":"right","response":"right","rt":801,"correct":true,"confidence":4},{"trial_n":118,"n_dots":2.95,"target":"left","response":"left","rt":666,"correct":true,"confidence":2},{"trial_n":119,"n_dots":2.85,"target":"right","response":"left","rt":466,"correct":false,"confidence":3},{"trial_n":120,"n_dots":2.95,"target":"left","response":"left","rt":1296,"correct":true,"confidence":4}]