[{"trial_n":1,"min":25,"max":230,"target":"present","response":"present","rt":5020,"correct":true,"confidence":-1},{"trial_n":2,"min":25,"max":230,"target":"present","response":"present","rt":445,"correct":true,"confidence":-1},{"trial_n":3,"min":41,"max":214,"target":"absent","response":"present","rt":133,"correct":false,"confidence":-1},{"trial_n":4,"min":25,"max":230,"target":"absent","response":"absent","rt":113,"correct":true,"confidence":-1},{"trial_n":5,"min":25,"max":230,"target":"present","response":"present","rt":167,"correct":true,"confidence":-1},{"trial_n":6,"min":41,"max":214,"target":"present","response":"present","rt":202,"correct":true,"confidence":-1},{"trial_n":7,"min":41,"max":214,"target":"present","response":"absent","rt":67,"correct":false,"confidence":-1},{"trial_n":8,"min":25,"max":230,"target":"present","response":"present","rt":158,"correct":true,"confidence":-1},{"trial_n":9,"min":25,"max":230,"target":"present","response":"present","rt":704,"correct":true,"confidence":-1},{"trial_n":10,"min":41,"max":214,"target":"absent","response":"absent","rt":801,"correct":true,"confidence":-1},{"trial_n":11,"min":41,"max":214,"target":"present","response":"absent","rt":351,"correct":false,"confidence":-1},{"trial_n":12,"min":33,"max":222,"target":"present","response":"present","rt":244,"correct":true,"confidence":-1},{"trial_n":13,"min":33,"max":222,"target":"absent","response":"present","rt":177,"correct":false,"confidence":-1},{"trial_n":14,"min":25,"max":230,"target":"present","response":"present","rt":69,"correct":true,"confidence":-1},{"trial_n":15,"min":25,"max":230,"target":"present","response":"present","rt":143,"correct":true,"confidence":-1},{"trial_n":16,"min":33,"max":222,"target":"absent","response":"present","rt":212,"correct":false,"confidence":-1},{"trial_n":17,"min":25,"max":230,"target":"present","response":"present","rt":71,"correct":true,"confidence":-1},{"trial_n":18,"min":25,"max":230,"target":"absent","response":"present","rt":139,"correct":false,"confidence":-1},{"trial_n":19,"min":17,"max":238,"target":"present","response":"absent","rt":168,"correct":false,"confidence":-1},{"trial_n":20,"min":9,"max":246,"target":"absent","response":"present","rt":642,"correct":false,"confidence":-1},{"trial_n":21,"min":5,"max":250,"target":"absent","response":"present","rt":173.99999999999,"correct":false,"confidence":1},{"trial_n":22,"min":1,"max":254,"target":"present","response":"present","rt":833.99999999999,"correct":true,"confidence":1},{"trial_n":23,"min":1,"max":254,"target":"absent","response":"present","rt":360,"correct":false,"confidence":1},{"trial_n":24,"min":0,"max":255,"target":"present","response":"present","rt":210,"correct":true,"confidence":1},{"trial_n":25,"min":0,"max":255,"target":"absent","response":"absent","rt":505,"correct":true,"confidence":1},{"trial_n":26,"min":4,"max":251,"target":"absent","response":"absent","rt":525,"correct":true,"confidence":1},{"trial_n":27,"min":4,"max":251,"target":"absent","response":"absent","rt":560,"correct":true,"confidence":1},{"trial_n":28,"min":8,"max":247,"target":"absent","response":"absent","rt":399.99999999999,"correct":true,"confidence":1},{"trial_n":29,"min":8,"max":247,"target":"present","response":"present","rt":449.00000000001,"correct":true,"confidence":1},{"trial_n":30,"min":12,"max":243,"target":"present","response":"present","rt":344.00000000001,"correct":true,"confidence":1},{"trial_n":31,"min":12,"max":243,"target":"absent","response":"absent","rt":767,"correct":true,"confidence":1},{"trial_n":32,"min":14,"max":241,"target":"present","response":"present","rt":375.99999999999,"correct":true,"confidence":1},{"trial_n":33,"min":14,"max":241,"target":"absent","response":"absent","rt":439,"correct":true,"confidence":1},{"trial_n":34,"min":16,"max":239,"target":"absent","response":"absent","rt":689,"correct":true,"confidence":1},{"trial_n":35,"min":16,"max":239,"target":"absent","response":"absent","rt":415,"correct":true,"confidence":1},{"trial_n":36,"min":18,"max":237,"target":"present","response":"present","rt":517,"correct":true,"confidence":1},{"trial_n":37,"min":18,"max":237,"target":"present","response":"present","rt":374,"correct":true,"confidence":1},{"trial_n":38,"min":20,"max":235,"target":"present","response":"present","rt":247,"correct":true,"confidence":1},{"trial_n":39,"min":20,"max":235,"target":"absent","response":"absent","rt":429,"correct":true,"confidence":1},{"trial_n":40,"min":22,"max":233,"target":"present","response":"absent","rt":473.99999999999,"correct":false,"confidence":1},{"trial_n":41,"min":21,"max":234,"target":"present","response":"absent","rt":527,"correct":false,"confidence":1},{"trial_n":42,"min":20,"max":235,"target":"present","response":"present","rt":358,"correct":true,"confidence":1},{"trial_n":43,"min":20,"max":235,"target":"present","response":"present","rt":431.99999999999,"correct":true,"confidence":1},{"trial_n":44,"min":21,"max":234,"target":"absent","response":"absent","rt":432,"correct":true,"confidence":1},{"trial_n":45,"min":21,"max":234,"target":"absent","response":"absent","rt":436,"correct":true,"confidence":1},{"trial_n":46,"min":22,"max":233,"target":"present","response":"present","rt":467,"correct":true,"confidence":1},{"trial_n":47,"min":22,"max":233,"target":"absent","response":"absent","rt":1027,"correct":true,"confidence":1},{"trial_n":48,"min":23,"max":232,"target":"present","response":"present","rt":459,"correct":true,"confidence":1},{"trial_n":49,"min":23,"max":232,"target":"absent","response":"absent","rt":565,"correct":true,"confidence":1},{"trial_n":50,"min":24,"max":231,"target":"present","response":"present","rt":256.99999999999,"correct":true,"confidence":1},{"trial_n":51,"min":24,"max":231,"target":"present","response":"present","rt":386,"correct":true,"confidence":1},{"trial_n":52,"min":25,"max":230,"target":"absent","response":"absent","rt":473,"correct":true,"confidence":1},{"trial_n":53,"min":25,"max":230,"target":"absent","response":"absent","rt":426,"correct":true,"confidence":1},{"trial_n":54,"min":26,"max":229,"target":"absent","response":"absent","rt":511.00000000001,"correct":true,"confidence":1},{"trial_n":55,"min":26,"max":229,"target":"absent","response":"absent","rt":312.99999999999,"correct":true,"confidence":1},{"trial_n":56,"min":27,"max":228,"target":"present","response":"present","rt":235,"correct":true,"confidence":1},{"trial_n":57,"min":27,"max":228,"target":"absent","response":"absent","rt":341,"correct":true,"confidence":1},{"trial_n":58,"min":28,"max":227,"target":"present","response":"present","rt":485,"correct":true,"confidence":1},{"trial_n":59,"min":28,"max":227,"target":"absent","response":"absent","rt":356,"correct":true,"confidence":1},{"trial_n":60,"min":29,"max":226,"target":"present","response":"present","rt":263,"correct":true,"confidence":1},{"trial_n":61,"min":29,"max":226,"target":"absent","response":"absent","rt":539,"correct":true,"confidence":1},{"trial_n":62,"min":30,"max":225,"target":"absent","response":"absent","rt":240.00000000001,"correct":true,"confidence":1},{"trial_n":63,"min":30,"max":225,"target":"absent","response":"absent","rt":161.99999999999,"correct":true,"confidence":1},{"trial_n":64,"min":31,"max":224,"target":"present","response":"present","rt":325.00000000001,"correct":true,"confidence":1},{"trial_n":65,"min":31,"max":224,"target":"present","response":"present","rt":225,"correct":true,"confidence":1},{"trial_n":66,"min":32,"max":223,"target":"present","response":"present","rt":175,"correct":true,"confidence":1},{"trial_n":67,"min":32,"max":223,"target":"present","response":"present","rt":201,"correct":true,"confidence":1},{"trial_n":68,"min":33,"max":222,"target":"absent","response":"absent","rt":373,"correct":true,"confidence":1},{"trial_n":69,"min":33,"max":222,"target":"absent","response":"absent","rt":211,"correct":true,"confidence":1},{"trial_n":70,"min":34,"max":221,"target":"absent","response":"absent","rt":211,"correct":true,"confidence":1},{"trial_n":71,"min":41,"max":214,"target":"present","response":"absent","rt":7490,"correct":false,"confidence":-1},{"trial_n":72,"min":41,"max":214,"target":"present","response":"present","rt":528,"correct":true,"confidence":-1},{"trial_n":73,"min":41,"max":214,"target":"absent","response":"present","rt":684.00000000001,"correct":false,"confidence":-1},{"trial_n":74,"min":25,"max":230,"target":"absent","response":"present","rt":519,"correct":false,"confidence":-1},{"trial_n":75,"min":9,"max":246,"target":"present","response":"present","rt":6180,"correct":true,"confidence":-1},{"trial_n":76,"min":9,"max":246,"target":"absent","response":"absent","rt":1913,"correct":true,"confidence":-1},{"trial_n":77,"min":25,"max":230,"target":"present","response":"absent","rt":983,"correct":false,"confidence":-1},{"trial_n":78,"min":9,"max":246,"target":"present","response":"present","rt":570,"correct":true,"confidence":-1},{"trial_n":79,"min":9,"max":246,"target":"absent","response":"absent","rt":528.00000000003,"correct":true,"confidence":-1},{"trial_n":80,"min":25,"max":230,"target":"present","response":"present","rt":619,"correct":true,"confidence":-1},{"trial_n":81,"min":25,"max":230,"target":"absent","response":"absent","rt":461,"correct":true,"confidence":-1},{"trial_n":82,"min":33,"max":222,"target":"absent","response":"absent","rt":607,"correct":true,"confidence":-1},{"trial_n":83,"min":33,"max":222,"target":"present","response":"absent","rt":583,"correct":false,"confidence":-1},{"trial_n":84,"min":25,"max":230,"target":"absent","response":"absent","rt":464,"correct":true,"confidence":-1},{"trial_n":85,"min":25,"max":230,"target":"present","response":"present","rt":176,"correct":true,"confidence":-1},{"trial_n":86,"min":33,"max":222,"target":"present","response":"present","rt":175,"correct":true,"confidence":-1},{"trial_n":87,"min":33,"max":222,"target":"present","response":"present","rt":653,"correct":true,"confidence":-1},{"trial_n":88,"min":41,"max":214,"target":"present","response":"present","rt":134,"correct":true,"confidence":-1},{"trial_n":89,"min":41,"max":214,"target":"absent","response":"absent","rt":440,"correct":true,"confidence":-1},{"trial_n":90,"min":49,"max":206,"target":"present","response":"present","rt":174.00000000003,"correct":true,"confidence":-1},{"trial_n":91,"min":49,"max":206,"target":"present","response":"absent","rt":766,"correct":false,"confidence":1},{"trial_n":92,"min":45,"max":210,"target":"absent","response":"absent","rt":588,"correct":true,"confidence":1},{"trial_n":93,"min":45,"max":210,"target":"present","response":"absent","rt":394.99999999997,"correct":false,"confidence":1},{"trial_n":94,"min":41,"max":214,"target":"absent","response":"absent","rt":706.99999999997,"correct":true,"confidence":1},{"trial_n":95,"min":41,"max":214,"target":"absent","response":"absent","rt":475,"correct":true,"confidence":1},{"trial_n":96,"min":45,"max":210,"target":"absent","response":"absent","rt":357,"correct":true,"confidence":1},{"trial_n":97,"min":45,"max":210,"target":"present","response":"present","rt":378,"correct":true,"confidence":1},{"trial_n":98,"min":49,"max":206,"target":"present","response":"present","rt":368,"correct":true,"confidence":1},{"trial_n":99,"min":49,"max":206,"target":"present","response":"present","rt":183,"correct":true,"confidence":1},{"trial_n":100,"min":53,"max":202,"target":"absent","response":"absent","rt":352,"correct":true,"confidence":1},{"trial_n":101,"min":53,"max":202,"target":"absent","response":"absent","rt":545.99999999997,"correct":true,"confidence":1},{"trial_n":102,"min":55,"max":200,"target":"present","response":"present","rt":296,"correct":true,"confidence":1},{"trial_n":103,"min":55,"max":200,"target":"absent","response":"present","rt":582,"correct":false,"confidence":1},{"trial_n":104,"min":53,"max":202,"target":"present","response":"present","rt":447,"correct":true,"confidence":1},{"trial_n":105,"min":53,"max":202,"target":"present","response":"present","rt":285,"correct":true,"confidence":1},{"trial_n":106,"min":55,"max":200,"target":"present","response":"present","rt":498,"correct":true,"confidence":1},{"trial_n":107,"min":55,"max":200,"target":"present","response":"present","rt":346,"correct":true,"confidence":1},{"trial_n":108,"min":57,"max":198,"target":"present","response":"present","rt":841,"correct":true,"confidence":1},{"trial_n":109,"min":57,"max":198,"target":"absent","response":"absent","rt":936,"correct":true,"confidence":1},{"trial_n":110,"min":59,"max":196,"target":"absent","response":"absent","rt":339.99999999997,"correct":true,"confidence":1},{"trial_n":111,"min":59,"max":196,"target":"absent","response":"absent","rt":437,"correct":true,"confidence":1},{"trial_n":112,"min":60,"max":195,"target":"present","response":"present","rt":325.99999999997,"correct":true,"confidence":1},{"trial_n":113,"min":60,"max":195,"target":"absent","response":"present","rt":641,"correct":false,"confidence":1},{"trial_n":114,"min":59,"max":196,"target":"absent","response":"absent","rt":503,"correct":true,"confidence":1},{"trial_n":115,"min":59,"max":196,"target":"absent","response":"absent","rt":263,"correct":true,"confidence":1},{"trial_n":116,"min":60,"max":195,"target":"absent","response":"absent","rt":327,"correct":true,"confidence":1},{"trial_n":117,"min":60,"max":195,"target":"absent","response":"absent","rt":406,"correct":true,"confidence":1},{"trial_n":118,"min":61,"max":194,"target":"absent","response":"absent","rt":302.00000000003,"correct":true,"confidence":1},{"trial_n":119,"min":61,"max":194,"target":"present","response":"absent","rt":111.99999999997,"correct":false,"confidence":1},{"trial_n":120,"min":60,"max":195,"target":"absent","response":"absent","rt":361,"correct":true,"confidence":1},{"trial_n":121,"min":60,"max":195,"target":"absent","response":"absent","rt":791.00000000003,"correct":true,"confidence":1},{"trial_n":122,"min":61,"max":194,"target":"present","response":"present","rt":243,"correct":true,"confidence":1},{"trial_n":123,"min":61,"max":194,"target":"present","response":"present","rt":128.99999999997,"correct":true,"confidence":1},{"trial_n":124,"min":62,"max":193,"target":"present","response":"present","rt":80,"correct":true,"confidence":1},{"trial_n":125,"min":62,"max":193,"target":"present","response":"present","rt":1185,"correct":true,"confidence":1},{"trial_n":126,"min":63,"max":192,"target":"absent","response":"absent","rt":375,"correct":true,"confidence":1},{"trial_n":127,"min":63,"max":192,"target":"absent","response":"absent","rt":258,"correct":true,"confidence":1},{"trial_n":128,"min":64,"max":191,"target":"absent","response":"absent","rt":263,"correct":true,"confidence":1},{"trial_n":129,"min":64,"max":191,"target":"present","response":"absent","rt":257,"correct":false,"confidence":1},{"trial_n":130,"min":63,"max":192,"target":"present","response":"present","rt":228,"correct":true,"confidence":1},{"trial_n":131,"min":63,"max":192,"target":"absent","response":"absent","rt":563,"correct":true,"confidence":1},{"trial_n":132,"min":64,"max":191,"target":"absent","response":"absent","rt":476,"correct":true,"confidence":1},{"trial_n":133,"min":64,"max":191,"target":"present","response":"present","rt":599,"correct":true,"confidence":1},{"trial_n":134,"min":65,"max":190,"target":"absent","response":"absent","rt":794,"correct":true,"confidence":1},{"trial_n":135,"min":65,"max":190,"target":"present","response":"present","rt":304,"correct":true,"confidence":1},{"trial_n":136,"min":66,"max":189,"target":"present","response":"present","rt":106.00000000003,"correct":true,"confidence":1},{"trial_n":137,"min":66,"max":189,"target":"absent","response":"absent","rt":557,"correct":true,"confidence":1},{"trial_n":138,"min":67,"max":188,"target":"present","response":"present","rt":548,"correct":true,"confidence":1},{"trial_n":139,"min":67,"max":188,"target":"present","response":"present","rt":473,"correct":true,"confidence":1},{"trial_n":140,"min":68,"max":187,"target":"absent","response":"present","rt":700,"correct":false,"confidence":1}]