[{"trial_n":1,"n_dots":4.25,"target":"right","response":"left","rt":5130,"correct":false,"confidence":-1},{"trial_n":2,"n_dots":4.25,"target":"left","response":"right","rt":1102,"correct":false,"confidence":-1},{"trial_n":3,"n_dots":4.65,"target":"left","response":"left","rt":988,"correct":true,"confidence":-1},{"trial_n":4,"n_dots":4.65,"target":"left","response":"left","rt":104,"correct":true,"confidence":-1},{"trial_n":5,"n_dots":4.25,"target":"left","response":"left","rt":2430,"correct":true,"confidence":-1},{"trial_n":6,"n_dots":4.25,"target":"right","response":"left","rt":77.999999999993,"correct":false,"confidence":-1},{"trial_n":7,"n_dots":4.65,"target":"right","response":"right","rt":222,"correct":true,"confidence":-1},{"trial_n":8,"n_dots":4.65,"target":"right","response":"right","rt":48,"correct":true,"confidence":-1},{"trial_n":9,"n_dots":4.45,"target":"right","response":"right","rt":864,"correct":true,"confidence":-1},{"trial_n":10,"n_dots":4.45,"target":"right","response":"right","rt":585,"correct":true,"confidence":-1},{"trial_n":11,"n_dots":4.25,"target":"right","response":"right","rt":573,"correct":true,"confidence":-1},{"trial_n":12,"n_dots":4.25,"target":"right","response":"right","rt":246,"correct":true,"confidence":-1},{"trial_n":13,"n_dots":4.15,"target":"right","response":"right","rt":274,"correct":true,"confidence":-1},{"trial_n":14,"n_dots":4.15,"target":"left","response":"left","rt":293,"correct":true,"confidence":-1},{"trial_n":15,"n_dots":4.05,"target":"left","response":"left","rt":584,"correct":true,"confidence":-1},{"trial_n":16,"n_dots":4.05,"target":"left","response":"left","rt":595,"correct":true,"confidence":-1},{"trial_n":17,"n_dots":3.95,"target":"right","response":"right","rt":349,"correct":true,"confidence":-1},{"trial_n":18,"n_dots":3.95,"target":"left","response":"left","rt":294,"correct":true,"confidence":-1},{"trial_n":19,"n_dots":3.85,"target":"right","response":"right","rt":345,"correct":true,"confidence":-1},{"trial_n":20,"n_dots":3.85,"target":"left","response":"left","rt":154,"correct":true,"confidence":-1},{"trial_n":21,"n_dots":3.75,"target":"right","response":"right","rt":366,"correct":true,"confidence":4},{"trial_n":22,"n_dots":3.75,"target":"right","response":"right","rt":387,"correct":true,"confidence":4},{"trial_n":23,"n_dots":3.65,"target":"right","response":"right","rt":448,"correct":true,"confidence":4},{"trial_n":24,"n_dots":3.65,"target":"right","response":"right","rt":455,"correct":true,"confidence":5},{"trial_n":25,"n_dots":3.55,"target":"right","response":"right","rt":350,"correct":true,"confidence":4},{"trial_n":26,"n_dots":3.55,"target":"right","response":"right","rt":684.00000000001,"correct":true,"confidence":4},{"trial_n":27,"n_dots":3.45,"target":"left","response":"right","rt":439,"correct":false,"confidence":3},{"trial_n":28,"n_dots":3.55,"target":"right","response":"right","rt":325,"correct":true,"confidence":2},{"trial_n":29,"n_dots":3.55,"target":"left","response":"left","rt":445,"correct":true,"confidence":3},{"trial_n":30,"n_dots":3.45,"target":"right","response":"right","rt":319,"correct":true,"confidence":4},{"trial_n":31,"n_dots":3.45,"target":"right","response":"right","rt":256.99999999997,"correct":true,"confidence":4},{"trial_n":32,"n_dots":3.35,"target":"left","response":"left","rt":194,"correct":true,"confidence":4},{"trial_n":33,"n_dots":3.35,"target":"left","response":"left","rt":238,"correct":true,"confidence":4},{"trial_n":34,"n_dots":3.25,"target":"left","response":"left","rt":282,"correct":true,"confidence":4},{"trial_n":35,"n_dots":3.25,"target":"right","response":"right","rt":795.99999999997,"correct":true,"confidence":1},{"trial_n":36,"n_dots":3.15,"target":"right","response":"right","rt":1061,"correct":true,"confidence":4},{"trial_n":37,"n_dots":3.15,"target":"left","response":"left","rt":320,"correct":true,"confidence":3},{"trial_n":38,"n_dots":3.05,"target":"right","response":"right","rt":386,"correct":true,"confidence":4},{"trial_n":39,"n_dots":3.05,"target":"left","response":"left","rt":624,"correct":true,"confidence":4},{"trial_n":40,"n_dots":2.95,"target":"left","response":"left","rt":418,"correct":true,"confidence":4},{"trial_n":41,"n_dots":2.95,"target":"right","response":"right","rt":380.00000000003,"correct":true,"confidence":4},{"trial_n":42,"n_dots":2.85,"target":"left","response":"left","rt":462,"correct":true,"confidence":1},{"trial_n":43,"n_dots":2.85,"target":"right","response":"right","rt":1802,"correct":true,"confidence":4},{"trial_n":44,"n_dots":2.75,"target":"right","response":"right","rt":884,"correct":true,"confidence":4},{"trial_n":45,"n_dots":2.75,"target":"right","response":"right","rt":1374,"correct":true,"confidence":3},{"trial_n":46,"n_dots":2.65,"target":"left","response":"left","rt":385,"correct":true,"confidence":3},{"trial_n":47,"n_dots":2.65,"target":"left","response":"left","rt":869,"correct":true,"confidence":3},{"trial_n":48,"n_dots":2.55,"target":"left","response":"right","rt":399,"correct":false,"confidence":3},{"trial_n":49,"n_dots":2.65,"target":"right","response":"right","rt":299.00000000003,"correct":true,"confidence":3},{"trial_n":50,"n_dots":2.65,"target":"left","response":"left","rt":643,"correct":true,"confidence":3},{"trial_n":51,"n_dots":2.55,"target":"right","response":"right","rt":438.00000000003,"correct":true,"confidence":1},{"trial_n":52,"n_dots":2.55,"target":"left","response":"left","rt":433.99999999997,"correct":true,"confidence":3},{"trial_n":53,"n_dots":2.45,"target":"right","response":"left","rt":491,"correct":false,"confidence":3},{"trial_n":54,"n_dots":2.55,"target":"left","response":"right","rt":178.00000000003,"correct":false,"confidence":3},{"trial_n":55,"n_dots":2.65,"target":"left","response":"left","rt":237.00000000003,"correct":true,"confidence":3},{"trial_n":56,"n_dots":2.65,"target":"left","response":"left","rt":346,"correct":true,"confidence":3},{"trial_n":57,"n_dots":2.55,"target":"right","response":"right","rt":1075,"correct":true,"confidence":2},{"trial_n":58,"n_dots":2.55,"target":"left","response":"left","rt":159,"correct":true,"confidence":2},{"trial_n":59,"n_dots":2.45,"target":"left","response":"left","rt":246,"correct":true,"confidence":2},{"trial_n":60,"n_dots":2.45,"target":"left","response":"left","rt":324,"correct":true,"confidence":2},{"trial_n":61,"n_dots":2.35,"target":"left","response":"left","rt":482,"correct":true,"confidence":3},{"trial_n":62,"n_dots":2.35,"target":"left","response":"left","rt":320,"correct":true,"confidence":3},{"trial_n":63,"n_dots":2.25,"target":"right","response":"right","rt":1705,"correct":true,"confidence":3},{"trial_n":64,"n_dots":2.25,"target":"left","response":"left","rt":484,"correct":true,"confidence":3},{"trial_n":65,"n_dots":2.15,"target":"right","response":"left","rt":320.00000000006,"correct":false,"confidence":3},{"trial_n":66,"n_dots":2.25,"target":"left","response":"left","rt":142,"correct":true,"confidence":3},{"trial_n":67,"n_dots":2.25,"target":"left","response":"left","rt":494,"correct":true,"confidence":3},{"trial_n":68,"n_dots":2.15,"target":"left","response":"left","rt":208,"correct":true,"confidence":2},{"trial_n":69,"n_dots":2.15,"target":"left","response":"left","rt":86,"correct":true,"confidence":4},{"trial_n":70,"n_dots":2.05,"target":"left","response":"left","rt":493,"correct":true,"confidence":4},{"trial_n":71,"n_dots":2.05,"target":"left","response":"left","rt":386,"correct":true,"confidence":4},{"trial_n":72,"n_dots":1.95,"target":"left","response":"left","rt":351,"correct":true,"confidence":3},{"trial_n":73,"n_dots":1.95,"target":"right","response":"left","rt":150,"correct":false,"confidence":3},{"trial_n":74,"n_dots":2.05,"target":"right","response":"right","rt":343.00000000006,"correct":true,"confidence":3},{"trial_n":75,"n_dots":2.05,"target":"right","response":"right","rt":292,"correct":true,"confidence":3},{"trial_n":76,"n_dots":1.95,"target":"left","response":"left","rt":570.99999999994,"correct":true,"confidence":3},{"trial_n":77,"n_dots":1.95,"target":"left","response":"left","rt":480,"correct":true,"confidence":3},{"trial_n":78,"n_dots":1.85,"target":"left","response":"left","rt":733,"correct":true,"confidence":3},{"trial_n":79,"n_dots":1.85,"target":"left","response":"left","rt":456,"correct":true,"confidence":3},{"trial_n":80,"n_dots":1.75,"target":"right","response":"left","rt":368,"correct":false,"confidence":3},{"trial_n":81,"n_dots":1.85,"target":"right","response":"left","rt":470,"correct":false,"confidence":4},{"trial_n":82,"n_dots":1.95,"target":"right","response":"right","rt":793,"correct":true,"confidence":4},{"trial_n":83,"n_dots":1.95,"target":"left","response":"left","rt":383,"correct":true,"confidence":3},{"trial_n":84,"n_dots":1.85,"target":"right","response":"left","rt":384,"correct":false,"confidence":3},{"trial_n":85,"n_dots":1.95,"target":"left","response":"left","rt":359.99999999994,"correct":true,"confidence":3},{"trial_n":86,"n_dots":1.95,"target":"left","response":"left","rt":409,"correct":true,"confidence":3},{"trial_n":87,"n_dots":1.85,"target":"right","response":"left","rt":262,"correct":false,"confidence":3},{"trial_n":88,"n_dots":1.95,"target":"left","response":"left","rt":341.00000000006,"correct":true,"confidence":3},{"trial_n":89,"n_dots":1.95,"target":"right","response":"left","rt":422,"correct":false,"confidence":3},{"trial_n":90,"n_dots":2.05,"target":"left","response":"left","rt":381,"correct":true,"confidence":3},{"trial_n":91,"n_dots":2.05,"target":"left","response":"right","rt":792.99999999994,"correct":false,"confidence":3},{"trial_n":92,"n_dots":2.15,"target":"left","response":"right","rt":1182.9999999999,"correct":false,"confidence":3},{"trial_n":93,"n_dots":2.25,"target":"right","response":"left","rt":340,"correct":false,"confidence":3},{"trial_n":94,"n_dots":2.35,"target":"right","response":"left","rt":382,"correct":false,"confidence":3},{"trial_n":95,"n_dots":2.45,"target":"left","response":"left","rt":364,"correct":true,"confidence":3},{"trial_n":96,"n_dots":2.45,"target":"right","response":"left","rt":389.99999999994,"correct":false,"confidence":3},{"trial_n":97,"n_dots":2.55,"target":"right","response":"left","rt":110,"correct":false,"confidence":2},{"trial_n":98,"n_dots":2.65,"target":"right","response":"left","rt":468,"correct":false,"confidence":2},{"trial_n":99,"n_dots":2.75,"target":"right","response":"right","rt":765,"correct":true,"confidence":2},{"trial_n":100,"n_dots":2.75,"target":"left","response":"left","rt":540,"correct":true,"confidence":2},{"trial_n":101,"n_dots":2.65,"target":"left","response":"left","rt":51.000000000058,"correct":true,"confidence":2},{"trial_n":102,"n_dots":2.65,"target":"right","response":"left","rt":353,"correct":false,"confidence":2},{"trial_n":103,"n_dots":2.75,"target":"left","response":"right","rt":564.00000000006,"correct":false,"confidence":2},{"trial_n":104,"n_dots":2.85,"target":"right","response":"right","rt":968,"correct":true,"confidence":2},{"trial_n":105,"n_dots":2.85,"target":"left","response":"right","rt":759.00000000006,"correct":false,"confidence":2},{"trial_n":106,"n_dots":2.95,"target":"right","response":"right","rt":406,"correct":true,"confidence":2},{"trial_n":107,"n_dots":2.95,"target":"left","response":"right","rt":320.00000000006,"correct":false,"confidence":1},{"trial_n":108,"n_dots":3.05,"target":"right","response":"left","rt":586,"correct":false,"confidence":2},{"trial_n":109,"n_dots":3.15,"target":"left","response":"left","rt":391,"correct":true,"confidence":2},{"trial_n":110,"n_dots":3.15,"target":"right","response":"left","rt":367.00000000006,"correct":false,"confidence":2},{"trial_n":111,"n_dots":3.25,"target":"right","response":"left","rt":304,"correct":false,"confidence":2},{"trial_n":112,"n_dots":3.35,"target":"right","response":"right","rt":413.00000000006,"correct":true,"confidence":2},{"trial_n":113,"n_dots":3.35,"target":"left","response":"right","rt":353.99999999994,"correct":false,"confidence":1},{"trial_n":114,"n_dots":3.45,"target":"right","response":"right","rt":442,"correct":true,"confidence":1},{"trial_n":115,"n_dots":3.45,"target":"right","response":"left","rt":354,"correct":false,"confidence":2},{"trial_n":116,"n_dots":3.55,"target":"right","response":"left","rt":336,"correct":false,"confidence":1},{"trial_n":117,"n_dots":3.65,"target":"left","response":"left","rt":347,"correct":true,"confidence":1},{"trial_n":118,"n_dots":3.65,"target":"right","response":"right","rt":422,"correct":true,"confidence":2},{"trial_n":119,"n_dots":3.55,"target":"right","response":"right","rt":695,"correct":true,"confidence":2},{"trial_n":120,"n_dots":3.55,"target":"left","response":"right","rt":407,"correct":false,"confidence":2}]