[{"trial_n":1,"span":8,"encoder":"60332337","distractor":"60632337","target":"present","response":"present","rt":"5137","correct":true,"confidence":-1},{"trial_n":2,"span":8,"encoder":"63651427","distractor":"60651427","target":"present","response":"present","rt":"1409","correct":true,"confidence":-1},{"trial_n":3,"span":10,"encoder":"9861222837","distractor":"9861252837","target":"absent","response":"present","rt":"362","correct":false,"confidence":-1},{"trial_n":4,"span":8,"encoder":"57893825","distractor":"87893825","target":"absent","response":"absent","rt":"392.99999999999","correct":true,"confidence":-1},{"trial_n":5,"span":8,"encoder":"70031191","distractor":"70091191","target":"present","response":"absent","rt":"2380","correct":false,"confidence":-1},{"trial_n":6,"span":6,"encoder":"462619","distractor":"472619","target":"absent","response":"absent","rt":"447","correct":true,"confidence":-1},{"trial_n":7,"span":6,"encoder":"221342","distractor":"421342","target":"present","response":"present","rt":"2771","correct":true,"confidence":-1},{"trial_n":8,"span":8,"encoder":"92188367","distractor":"32188367","target":"present","response":"absent","rt":"994","correct":false,"confidence":-1},{"trial_n":9,"span":6,"encoder":"350653","distractor":"350053","target":"absent","response":"present","rt":"531.99999999999","correct":false,"confidence":-1},{"trial_n":10,"span":4,"encoder":"7387","distractor":"7287","target":"present","response":"present","rt":"537.00000000001","correct":true,"confidence":-1},{"trial_n":11,"span":4,"encoder":"7761","distractor":"7461","target":"present","response":"absent","rt":"1322","correct":false,"confidence":-1},{"trial_n":12,"span":3,"encoder":"140","distractor":"180","target":"absent","response":"present","rt":"675","correct":false,"confidence":-1},{"trial_n":13,"span":2,"encoder":"50","distractor":"52","target":"present","response":"absent","rt":"702.00000000001","correct":false,"confidence":-1},{"trial_n":14,"span":2,"encoder":"99","distractor":"89","target":"present","response":"present","rt":"877","correct":true,"confidence":-1},{"trial_n":15,"span":2,"encoder":"48","distractor":"88","target":"absent","response":"absent","rt":"1168","correct":true,"confidence":-1},{"trial_n":16,"span":3,"encoder":"872","distractor":"812","target":"absent","response":"absent","rt":"1200","correct":true,"confidence":-1},{"trial_n":17,"span":3,"encoder":"096","distractor":"796","target":"absent","response":"absent","rt":"1170","correct":true,"confidence":-1},{"trial_n":18,"span":4,"encoder":"0886","distractor":"0885","target":"present","response":"absent","rt":"1378","correct":false,"confidence":-1},{"trial_n":19,"span":3,"encoder":"452","distractor":"152","target":"absent","response":"present","rt":"898","correct":false,"confidence":-1},{"trial_n":20,"span":2,"encoder":"78","distractor":"71","target":"absent","response":"absent","rt":"941","correct":true,"confidence":-1},{"trial_n":21,"span":2,"encoder":"58","distractor":"08","target":"present","response":"present","rt":"911","correct":true,"confidence":4},{"trial_n":22,"span":3,"encoder":"714","distractor":"715","target":"present","response":"present","rt":"1082","correct":true,"confidence":4},{"trial_n":23,"span":3,"encoder":"837","distractor":"537","target":"present","response":"present","rt":"779","correct":true,"confidence":4},{"trial_n":24,"span":4,"encoder":"4866","distractor":"4566","target":"absent","response":"present","rt":"823","correct":false,"confidence":1},{"trial_n":25,"span":3,"encoder":"524","distractor":"554","target":"absent","response":"absent","rt":"1110","correct":true,"confidence":4},{"trial_n":26,"span":3,"encoder":"048","distractor":"047","target":"present","response":"present","rt":"1091","correct":true,"confidence":4},{"trial_n":27,"span":4,"encoder":"4675","distractor":"9675","target":"present","response":"present","rt":"1735","correct":true,"confidence":4},{"trial_n":28,"span":4,"encoder":"0982","distractor":"0962","target":"absent","response":"absent","rt":"1174","correct":true,"confidence":4},{"trial_n":29,"span":5,"encoder":"06990","distractor":"06996","target":"present","response":"present","rt":"1433","correct":true,"confidence":4},{"trial_n":30,"span":5,"encoder":"42822","distractor":"42622","target":"present","response":"present","rt":"2841","correct":true,"confidence":4},{"trial_n":31,"span":6,"encoder":"519885","distractor":"519385","target":"present","response":"present","rt":"1712","correct":true,"confidence":4},{"trial_n":32,"span":6,"encoder":"809896","distractor":"209896","target":"absent","response":"absent","rt":"1177","correct":true,"confidence":4},{"trial_n":33,"span":7,"encoder":"2594314","distractor":"2591314","target":"absent","response":"present","rt":"977","correct":false,"confidence":1},{"trial_n":34,"span":6,"encoder":"958268","distractor":"958263","target":"absent","response":"present","rt":"1205","correct":false,"confidence":4},{"trial_n":35,"span":5,"encoder":"01674","distractor":"01774","target":"present","response":"present","rt":"725","correct":true,"confidence":4},{"trial_n":36,"span":5,"encoder":"76904","distractor":"76994","target":"present","response":"present","rt":"995","correct":true,"confidence":4},{"trial_n":37,"span":6,"encoder":"855698","distractor":"855798","target":"absent","response":"present","rt":"1204","correct":false,"confidence":4},{"trial_n":38,"span":5,"encoder":"09118","distractor":"09818","target":"present","response":"present","rt":"1205","correct":true,"confidence":4},{"trial_n":39,"span":5,"encoder":"56727","distractor":"53727","target":"absent","response":"absent","rt":"1649","correct":true,"confidence":4},{"trial_n":40,"span":6,"encoder":"148137","distractor":"848137","target":"present","response":"present","rt":"1127","correct":true,"confidence":4},{"trial_n":41,"span":6,"encoder":"852004","distractor":"852064","target":"present","response":"present","rt":"1226","correct":true,"confidence":4},{"trial_n":42,"span":7,"encoder":"7266396","distractor":"7966396","target":"present","response":"present","rt":"1209","correct":true,"confidence":4},{"trial_n":43,"span":7,"encoder":"7165592","distractor":"7169592","target":"absent","response":"absent","rt":"1726","correct":true,"confidence":4},{"trial_n":44,"span":8,"encoder":"15842224","distractor":"15842924","target":"present","response":"present","rt":"1397","correct":true,"confidence":4},{"trial_n":45,"span":8,"encoder":"70210257","distractor":"70200257","target":"present","response":"present","rt":"864","correct":true,"confidence":4},{"trial_n":46,"span":9,"encoder":"093668111","distractor":"093668511","target":"absent","response":"present","rt":"1212","correct":false,"confidence":4},{"trial_n":47,"span":8,"encoder":"10874483","distractor":"10374483","target":"absent","response":"present","rt":"688","correct":false,"confidence":4},{"trial_n":48,"span":7,"encoder":"9938073","distractor":"9936073","target":"present","response":"present","rt":"614","correct":true,"confidence":4},{"trial_n":49,"span":7,"encoder":"8086593","distractor":"8086599","target":"absent","response":"present","rt":"494","correct":false,"confidence":4},{"trial_n":50,"span":6,"encoder":"533977","distractor":"533975","target":"absent","response":"present","rt":"616","correct":false,"confidence":4},{"trial_n":51,"span":5,"encoder":"51505","distractor":"51585","target":"absent","response":"present","rt":"641","correct":false,"confidence":4},{"trial_n":52,"span":4,"encoder":"9148","distractor":"9948","target":"absent","response":"present","rt":"34395","correct":false,"confidence":4},{"trial_n":53,"span":3,"encoder":"482","distractor":"442","target":"absent","response":"absent","rt":"1184","correct":true,"confidence":4},{"trial_n":54,"span":3,"encoder":"394","distractor":"344","target":"present","response":"present","rt":"1481","correct":true,"confidence":4},{"trial_n":55,"span":4,"encoder":"5302","distractor":"5306","target":"present","response":"present","rt":"997.00000000006","correct":true,"confidence":4},{"trial_n":56,"span":4,"encoder":"5213","distractor":"5313","target":"absent","response":"present","rt":"640","correct":false,"confidence":4},{"trial_n":57,"span":3,"encoder":"805","distractor":"205","target":"absent","response":"absent","rt":"1060","correct":true,"confidence":4},{"trial_n":58,"span":3,"encoder":"850","distractor":"550","target":"present","response":"absent","rt":"723","correct":false,"confidence":4},{"trial_n":59,"span":2,"encoder":"11","distractor":"17","target":"absent","response":"absent","rt":"1583.0000000001","correct":true,"confidence":1},{"trial_n":60,"span":2,"encoder":"56","distractor":"46","target":"present","response":"present","rt":"1419","correct":true,"confidence":4},{"trial_n":61,"span":3,"encoder":"717","distractor":"719","target":"absent","response":"absent","rt":"1206","correct":true,"confidence":4},{"trial_n":62,"span":3,"encoder":"457","distractor":"417","target":"present","response":"present","rt":"1006","correct":true,"confidence":4},{"trial_n":63,"span":4,"encoder":"2105","distractor":"4105","target":"absent","response":"absent","rt":"953.00000000006","correct":true,"confidence":4},{"trial_n":64,"span":4,"encoder":"4258","distractor":"4058","target":"present","response":"present","rt":"958","correct":true,"confidence":4},{"trial_n":65,"span":5,"encoder":"72413","distractor":"72113","target":"present","response":"present","rt":"932","correct":true,"confidence":4},{"trial_n":66,"span":5,"encoder":"31858","distractor":"31850","target":"absent","response":"absent","rt":"2673","correct":true,"confidence":4},{"trial_n":67,"span":6,"encoder":"039609","distractor":"039604","target":"present","response":"present","rt":"1312","correct":true,"confidence":4},{"trial_n":68,"span":6,"encoder":"422655","distractor":"428655","target":"absent","response":"absent","rt":"1766","correct":true,"confidence":4},{"trial_n":69,"span":7,"encoder":"5129074","distractor":"5129078","target":"present","response":"present","rt":"1565.9999999999","correct":true,"confidence":4},{"trial_n":70,"span":7,"encoder":"8172423","distractor":"8174423","target":"absent","response":"absent","rt":"2062","correct":true,"confidence":4},{"trial_n":71,"span":8,"encoder":"89328356","distractor":"89328256","target":"present","response":"absent","rt":"1759","correct":false,"confidence":-1},{"trial_n":72,"span":7,"encoder":"4425416","distractor":"4925416","target":"present","response":"present","rt":"572","correct":true,"confidence":-1},{"trial_n":73,"span":7,"encoder":"6799841","distractor":"6399841","target":"absent","response":"absent","rt":"617.00000000006","correct":true,"confidence":-1},{"trial_n":74,"span":8,"encoder":"70376070","distractor":"78376070","target":"absent","response":"absent","rt":"411","correct":true,"confidence":-1},{"trial_n":75,"span":8,"encoder":"10103248","distractor":"10203248","target":"present","response":"present","rt":"489","correct":true,"confidence":-1},{"trial_n":76,"span":9,"encoder":"584227883","distractor":"584927883","target":"absent","response":"absent","rt":"488","correct":true,"confidence":-1},{"trial_n":77,"span":9,"encoder":"020987330","distractor":"020987630","target":"absent","response":"present","rt":"454","correct":false,"confidence":-1},{"trial_n":78,"span":8,"encoder":"87811381","distractor":"87811389","target":"absent","response":"present","rt":"404","correct":false,"confidence":-1},{"trial_n":79,"span":7,"encoder":"8556935","distractor":"8576935","target":"present","response":"present","rt":"422","correct":true,"confidence":-1},{"trial_n":80,"span":7,"encoder":"9951784","distractor":"9911784","target":"absent","response":"present","rt":"445","correct":false,"confidence":-1},{"trial_n":81,"span":6,"encoder":"006291","distractor":"606291","target":"present","response":"present","rt":"404","correct":true,"confidence":-1},{"trial_n":82,"span":6,"encoder":"906219","distractor":"906519","target":"present","response":"present","rt":"406","correct":true,"confidence":-1},{"trial_n":83,"span":7,"encoder":"5675637","distractor":"5625637","target":"absent","response":"absent","rt":"445.99999999994","correct":true,"confidence":-1},{"trial_n":84,"span":7,"encoder":"3799605","distractor":"3759605","target":"absent","response":"absent","rt":"460","correct":true,"confidence":-1},{"trial_n":85,"span":8,"encoder":"66450634","distractor":"66450644","target":"absent","response":"present","rt":"474","correct":false,"confidence":-1},{"trial_n":86,"span":7,"encoder":"2808878","distractor":"2868878","target":"present","response":"present","rt":"428","correct":true,"confidence":-1},{"trial_n":87,"span":7,"encoder":"7704806","distractor":"7701806","target":"present","response":"absent","rt":"390","correct":false,"confidence":-1},{"trial_n":88,"span":6,"encoder":"231893","distractor":"231493","target":"absent","response":"absent","rt":"401","correct":true,"confidence":-1},{"trial_n":89,"span":6,"encoder":"448753","distractor":"948753","target":"present","response":"present","rt":"1317.0000000001","correct":true,"confidence":-1},{"trial_n":90,"span":7,"encoder":"9564411","distractor":"9264411","target":"present","response":"present","rt":"2822","correct":true,"confidence":-1},{"trial_n":91,"span":7,"encoder":"8293378","distractor":"8293374","target":"present","response":"present","rt":"1617","correct":true,"confidence":4},{"trial_n":92,"span":8,"encoder":"26941193","distractor":"26901193","target":"absent","response":"absent","rt":"896","correct":true,"confidence":4},{"trial_n":93,"span":8,"encoder":"47177788","distractor":"47177188","target":"present","response":"present","rt":"3736","correct":true,"confidence":4},{"trial_n":94,"span":9,"encoder":"534296667","distractor":"534496667","target":"absent","response":"absent","rt":"4922.9999999999","correct":true,"confidence":4},{"trial_n":95,"span":9,"encoder":"032403721","distractor":"032433721","target":"absent","response":"absent","rt":"733.00000000006","correct":true,"confidence":1},{"trial_n":96,"span":10,"encoder":"3038073578","distractor":"3038073978","target":"absent","response":"absent","rt":"3542","correct":true,"confidence":1},{"trial_n":97,"span":10,"encoder":"2752821957","distractor":"2752891957","target":"present","response":"present","rt":"3984","correct":true,"confidence":1},{"trial_n":98,"span":11,"encoder":"59359178817","distractor":"59359178917","target":"present","response":"present","rt":"1884","correct":true,"confidence":1},{"trial_n":99,"span":11,"encoder":"92604010609","distractor":"92604610609","target":"present","response":"present","rt":"5656","correct":true,"confidence":1},{"trial_n":100,"span":12,"encoder":"685109010699","distractor":"685109010698","target":"present","response":"absent","rt":"6993.9999999999","correct":false,"confidence":1},{"trial_n":101,"span":11,"encoder":"90257055749","distractor":"90257055779","target":"present","response":"present","rt":"2746.9999999999","correct":true,"confidence":1},{"trial_n":102,"span":11,"encoder":"58836492476","distractor":"98836492476","target":"present","response":"present","rt":"2659","correct":true,"confidence":1},{"trial_n":103,"span":12,"encoder":"680432428775","distractor":"670432428775","target":"present","response":"present","rt":"2304.9999999999","correct":true,"confidence":1},{"trial_n":104,"span":12,"encoder":"050568949647","distractor":"050568949607","target":"absent","response":"absent","rt":"4238","correct":true,"confidence":1},{"trial_n":105,"span":13,"encoder":"4319291166882","distractor":"4319291166822","target":"absent","response":"absent","rt":"3788.0000000001","correct":true,"confidence":1},{"trial_n":106,"span":13,"encoder":"0008484052562","distractor":"0008484052563","target":"present","response":"present","rt":"1847","correct":true,"confidence":1},{"trial_n":107,"span":14,"encoder":"59040690120550","distractor":"59050690120550","target":"present","response":"absent","rt":"5369","correct":false,"confidence":1},{"trial_n":108,"span":13,"encoder":"2617462998682","distractor":"2617462998182","target":"absent","response":"absent","rt":"621","correct":true,"confidence":1},{"trial_n":109,"span":13,"encoder":"8179687429169","distractor":"8179687629169","target":"absent","response":"absent","rt":"2792","correct":true,"confidence":1},{"trial_n":110,"span":14,"encoder":"72261617506734","distractor":"72261677506734","target":"absent","response":"absent","rt":"991","correct":true,"confidence":1},{"trial_n":111,"span":14,"encoder":"89099165993018","distractor":"89099162993018","target":"present","response":"absent","rt":"3667","correct":false,"confidence":1},{"trial_n":112,"span":13,"encoder":"7758799961557","distractor":"7758749961557","target":"present","response":"absent","rt":"1767.0000000001","correct":false,"confidence":1},{"trial_n":113,"span":12,"encoder":"734913126916","distractor":"734918126916","target":"absent","response":"absent","rt":"2711","correct":true,"confidence":1},{"trial_n":114,"span":12,"encoder":"656605299672","distractor":"656705299672","target":"absent","response":"absent","rt":"5073","correct":true,"confidence":1},{"trial_n":115,"span":13,"encoder":"3976145785861","distractor":"3976145385861","target":"absent","response":"present","rt":"5338","correct":false,"confidence":1},{"trial_n":116,"span":12,"encoder":"774614102296","distractor":"774694102296","target":"present","response":"absent","rt":"4746","correct":false,"confidence":1},{"trial_n":117,"span":11,"encoder":"84005317269","distractor":"84000317269","target":"absent","response":"absent","rt":"2149","correct":true,"confidence":1},{"trial_n":118,"span":11,"encoder":"19418110206","distractor":"49418110206","target":"absent","response":"absent","rt":"3260.9999999999","correct":true,"confidence":1},{"trial_n":119,"span":12,"encoder":"201540436353","distractor":"101540436353","target":"present","response":"present","rt":"3350","correct":true,"confidence":1},{"trial_n":120,"span":12,"encoder":"665137902906","distractor":"661137902906","target":"absent","response":"absent","rt":"2991","correct":true,"confidence":1},{"trial_n":121,"span":13,"encoder":"7156989635123","distractor":"7196989635123","target":"absent","response":"present","rt":"2972","correct":false,"confidence":1},{"trial_n":122,"span":12,"encoder":"929214200979","distractor":"919214200979","target":"present","response":"present","rt":"5605","correct":true,"confidence":1},{"trial_n":123,"span":12,"encoder":"675259743969","distractor":"675259703969","target":"absent","response":"absent","rt":"5404","correct":true,"confidence":1},{"trial_n":124,"span":13,"encoder":"5054503900347","distractor":"5054513900347","target":"absent","response":"absent","rt":"3199","correct":true,"confidence":1},{"trial_n":125,"span":13,"encoder":"9939398222991","distractor":"9939338222991","target":"absent","response":"present","rt":"4434","correct":false,"confidence":1},{"trial_n":126,"span":12,"encoder":"350488144787","distractor":"350488144784","target":"absent","response":"present","rt":"916","correct":false,"confidence":1},{"trial_n":127,"span":11,"encoder":"05823149493","distractor":"05823149693","target":"present","response":"absent","rt":"1046","correct":false,"confidence":1},{"trial_n":128,"span":10,"encoder":"6354450369","distractor":"6854450369","target":"present","response":"present","rt":"1633","correct":true,"confidence":1},{"trial_n":129,"span":10,"encoder":"5026130380","distractor":"5026130480","target":"absent","response":"absent","rt":"4219","correct":true,"confidence":1},{"trial_n":130,"span":11,"encoder":"85474019037","distractor":"85474019137","target":"present","response":"absent","rt":"2597","correct":false,"confidence":1},{"trial_n":131,"span":10,"encoder":"5382779189","distractor":"5382777189","target":"present","response":"absent","rt":"4637","correct":false,"confidence":1},{"trial_n":132,"span":9,"encoder":"780250219","distractor":"780250289","target":"present","response":"absent","rt":"891.99999999988","correct":false,"confidence":1},{"trial_n":133,"span":8,"encoder":"45875281","distractor":"45815281","target":"present","response":"present","rt":"3328","correct":true,"confidence":1},{"trial_n":134,"span":8,"encoder":"99398484","distractor":"99328484","target":"present","response":"present","rt":"3096","correct":true,"confidence":1},{"trial_n":135,"span":9,"encoder":"278389689","distractor":"277389689","target":"present","response":"absent","rt":"3636","correct":false,"confidence":1},{"trial_n":136,"span":8,"encoder":"31026190","distractor":"31028190","target":"present","response":"present","rt":"2478","correct":true,"confidence":1},{"trial_n":137,"span":8,"encoder":"22874437","distractor":"27874437","target":"absent","response":"absent","rt":"4548","correct":true,"confidence":1},{"trial_n":138,"span":9,"encoder":"531604507","distractor":"531604707","target":"present","response":"absent","rt":"3457.9999999999","correct":false,"confidence":1},{"trial_n":139,"span":8,"encoder":"13612110","distractor":"13616110","target":"absent","response":"absent","rt":"2259.0000000001","correct":true,"confidence":1},{"trial_n":140,"span":8,"encoder":"51239045","distractor":"51239049","target":"absent","response":"present","rt":"8975","correct":false,"confidence":1}]