[{"trial_n":1,"n_dots":4.25,"target":"left","response":"left","rt":3504,"correct":true,"confidence":-1},{"trial_n":2,"n_dots":4.25,"target":"left","response":"right","rt":1045,"correct":false,"confidence":-1},{"trial_n":3,"n_dots":4.65,"target":"right","response":"right","rt":536,"correct":true,"confidence":-1},{"trial_n":4,"n_dots":4.65,"target":"right","response":"right","rt":527,"correct":true,"confidence":-1},{"trial_n":5,"n_dots":4.25,"target":"right","response":"right","rt":676,"correct":true,"confidence":-1},{"trial_n":6,"n_dots":4.25,"target":"right","response":"left","rt":4093,"correct":false,"confidence":-1},{"trial_n":7,"n_dots":4.65,"target":"right","response":"right","rt":293,"correct":true,"confidence":-1},{"trial_n":8,"n_dots":4.65,"target":"right","response":"right","rt":648,"correct":true,"confidence":-1},{"trial_n":9,"n_dots":4.45,"target":"left","response":"left","rt":562.99999999999,"correct":true,"confidence":-1},{"trial_n":10,"n_dots":4.45,"target":"right","response":"right","rt":852,"correct":true,"confidence":-1},{"trial_n":11,"n_dots":4.25,"target":"right","response":"right","rt":392,"correct":true,"confidence":-1},{"trial_n":12,"n_dots":4.25,"target":"right","response":"right","rt":44,"correct":true,"confidence":-1},{"trial_n":13,"n_dots":4.15,"target":"left","response":"left","rt":113,"correct":true,"confidence":-1},{"trial_n":14,"n_dots":4.15,"target":"right","response":"right","rt":517,"correct":true,"confidence":-1},{"trial_n":15,"n_dots":4.05,"target":"right","response":"right","rt":430.00000000001,"correct":true,"confidence":-1},{"trial_n":16,"n_dots":4.05,"target":"right","response":"right","rt":363,"correct":true,"confidence":-1},{"trial_n":17,"n_dots":3.95,"target":"left","response":"left","rt":1040,"correct":true,"confidence":-1},{"trial_n":18,"n_dots":3.95,"target":"right","response":"right","rt":101,"correct":true,"confidence":-1},{"trial_n":19,"n_dots":3.85,"target":"left","response":"left","rt":836,"correct":true,"confidence":-1},{"trial_n":20,"n_dots":3.85,"target":"left","response":"left","rt":499,"correct":true,"confidence":-1},{"trial_n":21,"n_dots":3.75,"target":"left","response":"left","rt":10894,"correct":true,"confidence":3},{"trial_n":22,"n_dots":3.75,"target":"right","response":"right","rt":579,"correct":true,"confidence":2},{"trial_n":23,"n_dots":3.65,"target":"left","response":"left","rt":689,"correct":true,"confidence":4},{"trial_n":24,"n_dots":3.65,"target":"right","response":"right","rt":505.00000000003,"correct":true,"confidence":4},{"trial_n":25,"n_dots":3.55,"target":"right","response":"right","rt":557,"correct":true,"confidence":2},{"trial_n":26,"n_dots":3.55,"target":"right","response":"right","rt":958,"correct":true,"confidence":2},{"trial_n":27,"n_dots":3.45,"target":"left","response":"left","rt":552,"correct":true,"confidence":3},{"trial_n":28,"n_dots":3.45,"target":"right","response":"left","rt":291,"correct":false,"confidence":3},{"trial_n":29,"n_dots":3.55,"target":"right","response":"right","rt":557,"correct":true,"confidence":3},{"trial_n":30,"n_dots":3.55,"target":"right","response":"left","rt":574,"correct":false,"confidence":2},{"trial_n":31,"n_dots":3.65,"target":"left","response":"left","rt":442,"correct":true,"confidence":3},{"trial_n":32,"n_dots":3.65,"target":"left","response":"left","rt":524,"correct":true,"confidence":3},{"trial_n":33,"n_dots":3.55,"target":"right","response":"right","rt":375,"correct":true,"confidence":2},{"trial_n":34,"n_dots":3.55,"target":"left","response":"left","rt":269,"correct":true,"confidence":4},{"trial_n":35,"n_dots":3.45,"target":"right","response":"right","rt":458,"correct":true,"confidence":4},{"trial_n":36,"n_dots":3.45,"target":"right","response":"right","rt":572,"correct":true,"confidence":3},{"trial_n":37,"n_dots":3.35,"target":"right","response":"right","rt":401,"correct":true,"confidence":3},{"trial_n":38,"n_dots":3.35,"target":"right","response":"right","rt":262,"correct":true,"confidence":4},{"trial_n":39,"n_dots":3.25,"target":"left","response":"left","rt":1061,"correct":true,"confidence":3},{"trial_n":40,"n_dots":3.25,"target":"left","response":"left","rt":304,"correct":true,"confidence":4},{"trial_n":41,"n_dots":3.15,"target":"left","response":"right","rt":1086,"correct":false,"confidence":4},{"trial_n":42,"n_dots":3.25,"target":"right","response":"left","rt":453,"correct":false,"confidence":3},{"trial_n":43,"n_dots":3.35,"target":"left","response":"left","rt":-62,"correct":true,"confidence":3},{"trial_n":44,"n_dots":3.35,"target":"left","response":"left","rt":54,"correct":true,"confidence":4},{"trial_n":45,"n_dots":3.25,"target":"left","response":"left","rt":-46,"correct":true,"confidence":4},{"trial_n":46,"n_dots":3.25,"target":"left","response":"left","rt":-22.000000000029,"correct":true,"confidence":4},{"trial_n":47,"n_dots":3.15,"target":"right","response":"left","rt":59,"correct":false,"confidence":3},{"trial_n":48,"n_dots":3.25,"target":"left","response":"left","rt":312.00000000003,"correct":true,"confidence":3},{"trial_n":49,"n_dots":3.25,"target":"left","response":"left","rt":449,"correct":true,"confidence":1},{"trial_n":50,"n_dots":3.15,"target":"left","response":"left","rt":109.00000000003,"correct":true,"confidence":3},{"trial_n":51,"n_dots":3.15,"target":"right","response":"left","rt":310,"correct":false,"confidence":2},{"trial_n":52,"n_dots":3.25,"target":"right","response":"left","rt":410,"correct":false,"confidence":3},{"trial_n":53,"n_dots":3.35,"target":"left","response":"left","rt":541,"correct":true,"confidence":3},{"trial_n":54,"n_dots":3.35,"target":"left","response":"left","rt":40.000000000029,"correct":true,"confidence":3},{"trial_n":55,"n_dots":3.25,"target":"right","response":"left","rt":510,"correct":false,"confidence":1},{"trial_n":56,"n_dots":3.35,"target":"right","response":"right","rt":75,"correct":true,"confidence":1},{"trial_n":57,"n_dots":3.35,"target":"left","response":"left","rt":91,"correct":true,"confidence":3},{"trial_n":58,"n_dots":3.25,"target":"left","response":"left","rt":106,"correct":true,"confidence":2},{"trial_n":59,"n_dots":3.25,"target":"left","response":"left","rt":286,"correct":true,"confidence":4},{"trial_n":60,"n_dots":3.15,"target":"right","response":"left","rt":419.00000000006,"correct":false,"confidence":3},{"trial_n":61,"n_dots":3.25,"target":"right","response":"right","rt":611,"correct":true,"confidence":3},{"trial_n":62,"n_dots":3.25,"target":"right","response":"left","rt":357.99999999994,"correct":false,"confidence":4},{"trial_n":63,"n_dots":3.35,"target":"left","response":"left","rt":256,"correct":true,"confidence":3},{"trial_n":64,"n_dots":3.35,"target":"left","response":"left","rt":419,"correct":true,"confidence":4},{"trial_n":65,"n_dots":3.25,"target":"left","response":"left","rt":250,"correct":true,"confidence":2},{"trial_n":66,"n_dots":3.25,"target":"right","response":"right","rt":476,"correct":true,"confidence":3},{"trial_n":67,"n_dots":3.15,"target":"right","response":"right","rt":491,"correct":true,"confidence":3},{"trial_n":68,"n_dots":3.15,"target":"left","response":"left","rt":474.99999999994,"correct":true,"confidence":3},{"trial_n":69,"n_dots":3.05,"target":"right","response":"left","rt":571,"correct":false,"confidence":4},{"trial_n":70,"n_dots":3.15,"target":"right","response":"left","rt":548,"correct":false,"confidence":3},{"trial_n":71,"n_dots":3.25,"target":"right","response":"left","rt":-91,"correct":false,"confidence":3},{"trial_n":72,"n_dots":3.35,"target":"right","response":"right","rt":204,"correct":true,"confidence":4},{"trial_n":73,"n_dots":3.35,"target":"left","response":"left","rt":-52,"correct":true,"confidence":3},{"trial_n":74,"n_dots":3.25,"target":"left","response":"left","rt":1081,"correct":true,"confidence":4},{"trial_n":75,"n_dots":3.25,"target":"left","response":"left","rt":897.99999999994,"correct":true,"confidence":4},{"trial_n":76,"n_dots":3.15,"target":"left","response":"left","rt":296.99999999994,"correct":true,"confidence":4},{"trial_n":77,"n_dots":3.15,"target":"left","response":"left","rt":-24.000000000058,"correct":true,"confidence":4},{"trial_n":78,"n_dots":3.05,"target":"left","response":"left","rt":-19,"correct":true,"confidence":1},{"trial_n":79,"n_dots":3.05,"target":"right","response":"left","rt":159,"correct":false,"confidence":3},{"trial_n":80,"n_dots":3.15,"target":"left","response":"left","rt":-1.0000000000582,"correct":true,"confidence":4},{"trial_n":81,"n_dots":3.15,"target":"left","response":"left","rt":27,"correct":true,"confidence":3},{"trial_n":82,"n_dots":3.05,"target":"right","response":"left","rt":374,"correct":false,"confidence":3},{"trial_n":83,"n_dots":3.15,"target":"right","response":"left","rt":535,"correct":false,"confidence":4},{"trial_n":84,"n_dots":3.25,"target":"left","response":"left","rt":495.00000000006,"correct":true,"confidence":3},{"trial_n":85,"n_dots":3.25,"target":"left","response":"left","rt":605,"correct":true,"confidence":4},{"trial_n":86,"n_dots":3.15,"target":"left","response":"left","rt":-43.999999999942,"correct":true,"confidence":3},{"trial_n":87,"n_dots":3.15,"target":"right","response":"right","rt":-47,"correct":true,"confidence":3},{"trial_n":88,"n_dots":3.05,"target":"right","response":"right","rt":480.00000000006,"correct":true,"confidence":4},{"trial_n":89,"n_dots":3.05,"target":"left","response":"left","rt":-67.999999999942,"correct":true,"confidence":3},{"trial_n":90,"n_dots":2.95,"target":"right","response":"left","rt":399,"correct":false,"confidence":3},{"trial_n":91,"n_dots":3.05,"target":"left","response":"left","rt":9433,"correct":true,"confidence":3},{"trial_n":92,"n_dots":3.05,"target":"left","response":"right","rt":1991.9999999999,"correct":false,"confidence":2},{"trial_n":93,"n_dots":3.15,"target":"right","response":"left","rt":203,"correct":false,"confidence":3},{"trial_n":94,"n_dots":3.25,"target":"right","response":"left","rt":147.99999999994,"correct":false,"confidence":4},{"trial_n":95,"n_dots":3.35,"target":"right","response":"left","rt":382,"correct":false,"confidence":3},{"trial_n":96,"n_dots":3.45,"target":"right","response":"left","rt":115,"correct":false,"confidence":4},{"trial_n":97,"n_dots":3.55,"target":"left","response":"left","rt":11,"correct":true,"confidence":4},{"trial_n":98,"n_dots":3.55,"target":"left","response":"left","rt":4486,"correct":true,"confidence":4},{"trial_n":99,"n_dots":3.45,"target":"right","response":"right","rt":764.00000000006,"correct":true,"confidence":3},{"trial_n":100,"n_dots":3.45,"target":"right","response":"left","rt":595,"correct":false,"confidence":3},{"trial_n":101,"n_dots":3.55,"target":"left","response":"left","rt":129,"correct":true,"confidence":3},{"trial_n":102,"n_dots":3.55,"target":"left","response":"left","rt":38356,"correct":true,"confidence":1},{"trial_n":103,"n_dots":3.45,"target":"right","response":"left","rt":381.00000000012,"correct":false,"confidence":3},{"trial_n":104,"n_dots":3.55,"target":"right","response":"right","rt":351.99999999988,"correct":true,"confidence":3},{"trial_n":105,"n_dots":3.55,"target":"right","response":"left","rt":569.99999999988,"correct":false,"confidence":3},{"trial_n":106,"n_dots":3.65,"target":"right","response":"right","rt":145,"correct":true,"confidence":3},{"trial_n":107,"n_dots":3.65,"target":"right","response":"left","rt":513,"correct":false,"confidence":4},{"trial_n":108,"n_dots":3.75,"target":"right","response":"left","rt":446,"correct":false,"confidence":2},{"trial_n":109,"n_dots":3.85,"target":"left","response":"left","rt":519,"correct":true,"confidence":3},{"trial_n":110,"n_dots":3.85,"target":"left","response":"left","rt":162,"correct":true,"confidence":2},{"trial_n":111,"n_dots":3.75,"target":"left","response":"left","rt":102,"correct":true,"confidence":5},{"trial_n":112,"n_dots":3.75,"target":"left","response":"left","rt":-48,"correct":true,"confidence":4},{"trial_n":113,"n_dots":3.65,"target":"right","response":"left","rt":1045,"correct":false,"confidence":2},{"trial_n":114,"n_dots":3.75,"target":"left","response":"left","rt":108,"correct":true,"confidence":4},{"trial_n":115,"n_dots":3.75,"target":"left","response":"left","rt":482,"correct":true,"confidence":3},{"trial_n":116,"n_dots":3.65,"target":"left","response":"left","rt":-48,"correct":true,"confidence":4},{"trial_n":117,"n_dots":3.65,"target":"right","response":"left","rt":543,"correct":false,"confidence":2},{"trial_n":118,"n_dots":3.75,"target":"left","response":"left","rt":28,"correct":true,"confidence":3},{"trial_n":119,"n_dots":3.75,"target":"left","response":"left","rt":51,"correct":true,"confidence":3},{"trial_n":120,"n_dots":3.65,"target":"left","response":"left","rt":51,"correct":true,"confidence":4}]