[{"trial_n":1,"min":25,"max":230,"target":"present","response":"present","rt":3188,"correct":true,"confidence":-1},{"trial_n":2,"min":25,"max":230,"target":"present","response":"absent","rt":105,"correct":false,"confidence":-1},{"trial_n":3,"min":9,"max":246,"target":"absent","response":"absent","rt":-28,"correct":true,"confidence":-1},{"trial_n":4,"min":9,"max":246,"target":"absent","response":"present","rt":7,"correct":false,"confidence":-1},{"trial_n":5,"min":0,"max":255,"target":"present","response":"present","rt":1782,"correct":true,"confidence":-1},{"trial_n":6,"min":0,"max":255,"target":"present","response":"present","rt":1479,"correct":true,"confidence":-1},{"trial_n":7,"min":16,"max":239,"target":"present","response":"present","rt":534,"correct":true,"confidence":-1},{"trial_n":8,"min":16,"max":239,"target":"absent","response":"absent","rt":359,"correct":true,"confidence":-1},{"trial_n":9,"min":32,"max":223,"target":"absent","response":"absent","rt":217,"correct":true,"confidence":-1},{"trial_n":10,"min":32,"max":223,"target":"present","response":"present","rt":173,"correct":true,"confidence":-1},{"trial_n":11,"min":40,"max":215,"target":"present","response":"present","rt":216,"correct":true,"confidence":-1},{"trial_n":12,"min":40,"max":215,"target":"absent","response":"absent","rt":338.00000000001,"correct":true,"confidence":-1},{"trial_n":13,"min":48,"max":207,"target":"absent","response":"absent","rt":102,"correct":true,"confidence":-1},{"trial_n":14,"min":48,"max":207,"target":"absent","response":"absent","rt":97,"correct":true,"confidence":-1},{"trial_n":15,"min":56,"max":199,"target":"absent","response":"absent","rt":60.999999999993,"correct":true,"confidence":-1},{"trial_n":16,"min":56,"max":199,"target":"absent","response":"absent","rt":82,"correct":true,"confidence":-1},{"trial_n":17,"min":64,"max":191,"target":"present","response":"absent","rt":55,"correct":false,"confidence":-1},{"trial_n":18,"min":56,"max":199,"target":"present","response":"present","rt":4659,"correct":true,"confidence":-1},{"trial_n":19,"min":56,"max":199,"target":"absent","response":"absent","rt":297.99999999999,"correct":true,"confidence":-1},{"trial_n":20,"min":64,"max":191,"target":"absent","response":"absent","rt":78,"correct":true,"confidence":-1},{"trial_n":21,"min":64,"max":191,"target":"present","response":"present","rt":1477,"correct":true,"confidence":2},{"trial_n":22,"min":68,"max":187,"target":"present","response":"absent","rt":1473,"correct":false,"confidence":1},{"trial_n":23,"min":64,"max":191,"target":"present","response":"present","rt":388,"correct":true,"confidence":1},{"trial_n":24,"min":64,"max":191,"target":"present","response":"absent","rt":271,"correct":false,"confidence":1},{"trial_n":25,"min":60,"max":195,"target":"present","response":"present","rt":60.000000000007,"correct":true,"confidence":1},{"trial_n":26,"min":60,"max":195,"target":"absent","response":"present","rt":-44,"correct":false,"confidence":1},{"trial_n":27,"min":56,"max":199,"target":"absent","response":"absent","rt":116,"correct":true,"confidence":1},{"trial_n":28,"min":56,"max":199,"target":"absent","response":"present","rt":-47.999999999993,"correct":false,"confidence":1},{"trial_n":29,"min":52,"max":203,"target":"present","response":"present","rt":-13,"correct":true,"confidence":1},{"trial_n":30,"min":52,"max":203,"target":"present","response":"absent","rt":93.999999999993,"correct":false,"confidence":1},{"trial_n":31,"min":50,"max":205,"target":"present","response":"absent","rt":7,"correct":false,"confidence":1},{"trial_n":32,"min":48,"max":207,"target":"present","response":"absent","rt":36,"correct":false,"confidence":1},{"trial_n":33,"min":46,"max":209,"target":"absent","response":"present","rt":75.000000000015,"correct":false,"confidence":1},{"trial_n":34,"min":44,"max":211,"target":"absent","response":"absent","rt":101.00000000001,"correct":true,"confidence":1},{"trial_n":35,"min":44,"max":211,"target":"present","response":"present","rt":5070,"correct":true,"confidence":1},{"trial_n":36,"min":46,"max":209,"target":"absent","response":"present","rt":111,"correct":false,"confidence":1},{"trial_n":37,"min":44,"max":211,"target":"present","response":"absent","rt":-19,"correct":false,"confidence":1},{"trial_n":38,"min":42,"max":213,"target":"present","response":"present","rt":29.000000000015,"correct":true,"confidence":1},{"trial_n":39,"min":42,"max":213,"target":"present","response":"absent","rt":126,"correct":false,"confidence":1},{"trial_n":40,"min":40,"max":215,"target":"absent","response":"present","rt":-43,"correct":false,"confidence":1},{"trial_n":41,"min":39,"max":216,"target":"present","response":"present","rt":-27,"correct":true,"confidence":1},{"trial_n":42,"min":39,"max":216,"target":"present","response":"absent","rt":76,"correct":false,"confidence":1},{"trial_n":43,"min":38,"max":217,"target":"absent","response":"present","rt":-22.999999999985,"correct":false,"confidence":1},{"trial_n":44,"min":37,"max":218,"target":"present","response":"present","rt":141,"correct":true,"confidence":1},{"trial_n":45,"min":37,"max":218,"target":"absent","response":"present","rt":24,"correct":false,"confidence":1},{"trial_n":46,"min":36,"max":219,"target":"absent","response":"absent","rt":-16,"correct":true,"confidence":1},{"trial_n":47,"min":36,"max":219,"target":"absent","response":"absent","rt":162,"correct":true,"confidence":1},{"trial_n":48,"min":37,"max":218,"target":"absent","response":"present","rt":5,"correct":false,"confidence":1},{"trial_n":49,"min":36,"max":219,"target":"absent","response":"absent","rt":117,"correct":true,"confidence":1},{"trial_n":50,"min":36,"max":219,"target":"present","response":"absent","rt":-28,"correct":false,"confidence":1},{"trial_n":51,"min":35,"max":220,"target":"present","response":"absent","rt":147,"correct":false,"confidence":1},{"trial_n":52,"min":34,"max":221,"target":"present","response":"absent","rt":-10,"correct":false,"confidence":1},{"trial_n":53,"min":33,"max":222,"target":"absent","response":"present","rt":197,"correct":false,"confidence":1},{"trial_n":54,"min":32,"max":223,"target":"present","response":"absent","rt":63,"correct":false,"confidence":1},{"trial_n":55,"min":31,"max":224,"target":"absent","response":"absent","rt":-3,"correct":true,"confidence":1},{"trial_n":56,"min":31,"max":224,"target":"present","response":"absent","rt":114,"correct":false,"confidence":1},{"trial_n":57,"min":30,"max":225,"target":"absent","response":"absent","rt":186,"correct":true,"confidence":1},{"trial_n":58,"min":30,"max":225,"target":"absent","response":"absent","rt":102.99999999999,"correct":true,"confidence":1},{"trial_n":59,"min":31,"max":224,"target":"present","response":"absent","rt":21,"correct":false,"confidence":1},{"trial_n":60,"min":30,"max":225,"target":"absent","response":"absent","rt":119,"correct":true,"confidence":1},{"trial_n":61,"min":30,"max":225,"target":"absent","response":"absent","rt":21,"correct":true,"confidence":1},{"trial_n":62,"min":31,"max":224,"target":"present","response":"present","rt":62,"correct":true,"confidence":1},{"trial_n":63,"min":31,"max":224,"target":"absent","response":"absent","rt":17,"correct":true,"confidence":1},{"trial_n":64,"min":32,"max":223,"target":"present","response":"absent","rt":84,"correct":false,"confidence":1},{"trial_n":65,"min":31,"max":224,"target":"present","response":"absent","rt":-40,"correct":false,"confidence":1},{"trial_n":66,"min":30,"max":225,"target":"absent","response":"absent","rt":11.000000000015,"correct":true,"confidence":1},{"trial_n":67,"min":30,"max":225,"target":"absent","response":"absent","rt":82,"correct":true,"confidence":1},{"trial_n":68,"min":31,"max":224,"target":"present","response":"absent","rt":44,"correct":false,"confidence":1},{"trial_n":69,"min":30,"max":225,"target":"absent","response":"present","rt":150,"correct":false,"confidence":1},{"trial_n":70,"min":29,"max":226,"target":"present","response":"absent","rt":54,"correct":false,"confidence":1},{"trial_n":71,"min":41,"max":214,"target":"present","response":"absent","rt":2959,"correct":false,"confidence":-1},{"trial_n":72,"min":41,"max":214,"target":"present","response":"absent","rt":-8,"correct":false,"confidence":-1},{"trial_n":73,"min":25,"max":230,"target":"absent","response":"present","rt":125.99999999999,"correct":false,"confidence":-1},{"trial_n":74,"min":9,"max":246,"target":"absent","response":"present","rt":19,"correct":false,"confidence":-1},{"trial_n":75,"min":0,"max":255,"target":"present","response":"present","rt":6,"correct":true,"confidence":-1},{"trial_n":76,"min":0,"max":255,"target":"absent","response":"absent","rt":-44.000000000015,"correct":true,"confidence":-1},{"trial_n":77,"min":16,"max":239,"target":"present","response":"absent","rt":22,"correct":false,"confidence":-1},{"trial_n":78,"min":0,"max":255,"target":"absent","response":"present","rt":-21,"correct":false,"confidence":-1},{"trial_n":79,"min":0,"max":255,"target":"present","response":"present","rt":115,"correct":true,"confidence":-1},{"trial_n":80,"min":0,"max":255,"target":"present","response":"absent","rt":-8,"correct":false,"confidence":-1},{"trial_n":81,"min":0,"max":255,"target":"absent","response":"present","rt":52,"correct":false,"confidence":-1},{"trial_n":82,"min":0,"max":255,"target":"absent","response":"absent","rt":21,"correct":true,"confidence":-1},{"trial_n":83,"min":0,"max":255,"target":"absent","response":"absent","rt":36,"correct":true,"confidence":-1},{"trial_n":84,"min":8,"max":247,"target":"absent","response":"absent","rt":-21,"correct":true,"confidence":-1},{"trial_n":85,"min":8,"max":247,"target":"absent","response":"absent","rt":1,"correct":true,"confidence":-1},{"trial_n":86,"min":16,"max":239,"target":"present","response":"absent","rt":-13,"correct":false,"confidence":-1},{"trial_n":87,"min":8,"max":247,"target":"absent","response":"absent","rt":-3,"correct":true,"confidence":-1},{"trial_n":88,"min":8,"max":247,"target":"present","response":"absent","rt":-34,"correct":false,"confidence":-1},{"trial_n":89,"min":0,"max":255,"target":"present","response":"absent","rt":25,"correct":false,"confidence":-1},{"trial_n":90,"min":0,"max":255,"target":"absent","response":"absent","rt":50,"correct":true,"confidence":-1},{"trial_n":91,"min":0,"max":255,"target":"absent","response":"present","rt":189,"correct":false,"confidence":2},{"trial_n":92,"min":0,"max":255,"target":"present","response":"present","rt":139,"correct":true,"confidence":3},{"trial_n":93,"min":0,"max":255,"target":"absent","response":"present","rt":120,"correct":false,"confidence":1},{"trial_n":94,"min":0,"max":255,"target":"absent","response":"absent","rt":137,"correct":true,"confidence":1},{"trial_n":95,"min":0,"max":255,"target":"present","response":"absent","rt":814,"correct":false,"confidence":4},{"trial_n":96,"min":0,"max":255,"target":"present","response":"absent","rt":61.000000000029,"correct":false,"confidence":4},{"trial_n":97,"min":0,"max":255,"target":"absent","response":"absent","rt":1177,"correct":true,"confidence":1},{"trial_n":98,"min":0,"max":255,"target":"present","response":"present","rt":447,"correct":true,"confidence":1},{"trial_n":99,"min":4,"max":251,"target":"present","response":"absent","rt":-6,"correct":false,"confidence":1},{"trial_n":100,"min":0,"max":255,"target":"absent","response":"present","rt":133,"correct":false,"confidence":2},{"trial_n":101,"min":0,"max":255,"target":"present","response":"absent","rt":90,"correct":false,"confidence":1},{"trial_n":102,"min":0,"max":255,"target":"present","response":"absent","rt":90,"correct":false,"confidence":1},{"trial_n":103,"min":0,"max":255,"target":"present","response":"absent","rt":124,"correct":false,"confidence":1},{"trial_n":104,"min":0,"max":255,"target":"absent","response":"absent","rt":167,"correct":true,"confidence":1},{"trial_n":105,"min":0,"max":255,"target":"absent","response":"present","rt":196.99999999997,"correct":false,"confidence":2},{"trial_n":106,"min":0,"max":255,"target":"present","response":"absent","rt":9,"correct":false,"confidence":1},{"trial_n":107,"min":0,"max":255,"target":"present","response":"present","rt":164,"correct":true,"confidence":1},{"trial_n":108,"min":0,"max":255,"target":"absent","response":"absent","rt":13,"correct":true,"confidence":1},{"trial_n":109,"min":2,"max":253,"target":"absent","response":"present","rt":-27,"correct":false,"confidence":2},{"trial_n":110,"min":0,"max":255,"target":"absent","response":"present","rt":-1,"correct":false,"confidence":1},{"trial_n":111,"min":0,"max":255,"target":"present","response":"absent","rt":73,"correct":false,"confidence":1},{"trial_n":112,"min":0,"max":255,"target":"present","response":"present","rt":28,"correct":true,"confidence":2},{"trial_n":113,"min":0,"max":255,"target":"present","response":"present","rt":76,"correct":true,"confidence":1},{"trial_n":114,"min":1,"max":254,"target":"absent","response":"present","rt":-18,"correct":false,"confidence":2},{"trial_n":115,"min":0,"max":255,"target":"absent","response":"absent","rt":-50,"correct":true,"confidence":2},{"trial_n":116,"min":0,"max":255,"target":"present","response":"present","rt":454.00000000003,"correct":true,"confidence":3},{"trial_n":117,"min":1,"max":254,"target":"present","response":"absent","rt":336.99999999997,"correct":false,"confidence":3},{"trial_n":118,"min":0,"max":255,"target":"absent","response":"absent","rt":78.999999999971,"correct":true,"confidence":5},{"trial_n":119,"min":0,"max":255,"target":"present","response":"absent","rt":98,"correct":false,"confidence":3},{"trial_n":120,"min":0,"max":255,"target":"absent","response":"absent","rt":-35.999999999971,"correct":true,"confidence":1},{"trial_n":121,"min":0,"max":255,"target":"present","response":"absent","rt":-8.9999999999709,"correct":false,"confidence":2},{"trial_n":122,"min":0,"max":255,"target":"present","response":"present","rt":-25.000000000029,"correct":true,"confidence":3},{"trial_n":123,"min":0,"max":255,"target":"present","response":"absent","rt":415,"correct":false,"confidence":3},{"trial_n":124,"min":0,"max":255,"target":"present","response":"absent","rt":201,"correct":false,"confidence":3},{"trial_n":125,"min":0,"max":255,"target":"absent","response":"absent","rt":122,"correct":true,"confidence":2},{"trial_n":126,"min":0,"max":255,"target":"present","response":"absent","rt":814,"correct":false,"confidence":4},{"trial_n":127,"min":0,"max":255,"target":"absent","response":"absent","rt":181,"correct":true,"confidence":3},{"trial_n":128,"min":0,"max":255,"target":"absent","response":"absent","rt":276,"correct":true,"confidence":1},{"trial_n":129,"min":1,"max":254,"target":"absent","response":"absent","rt":407,"correct":true,"confidence":3},{"trial_n":130,"min":1,"max":254,"target":"present","response":"absent","rt":314.00000000003,"correct":false,"confidence":1},{"trial_n":131,"min":0,"max":255,"target":"absent","response":"absent","rt":98,"correct":true,"confidence":1},{"trial_n":132,"min":0,"max":255,"target":"absent","response":"absent","rt":786.99999999997,"correct":true,"confidence":1},{"trial_n":133,"min":1,"max":254,"target":"absent","response":"absent","rt":1089,"correct":true,"confidence":3},{"trial_n":134,"min":1,"max":254,"target":"present","response":"absent","rt":-46,"correct":false,"confidence":1},{"trial_n":135,"min":0,"max":255,"target":"absent","response":"absent","rt":636.00000000003,"correct":true,"confidence":1},{"trial_n":136,"min":0,"max":255,"target":"present","response":"absent","rt":-4,"correct":false,"confidence":3},{"trial_n":137,"min":0,"max":255,"target":"present","response":"absent","rt":142,"correct":false,"confidence":1},{"trial_n":138,"min":0,"max":255,"target":"present","response":"absent","rt":74,"correct":false,"confidence":1},{"trial_n":139,"min":0,"max":255,"target":"present","response":"absent","rt":16,"correct":false,"confidence":3},{"trial_n":140,"min":0,"max":255,"target":"absent","response":"absent","rt":213.99999999997,"correct":true,"confidence":1}]