[{"trial_n":1,"span":8,"encoder":"32185137","distractor":"32185139","target":"present","response":"present","rt":"3070","correct":true,"confidence":-1},{"trial_n":2,"span":8,"encoder":"34316029","distractor":"31316029","target":"present","response":"present","rt":"2928","correct":true,"confidence":-1},{"trial_n":3,"span":10,"encoder":"9582166245","distractor":"9582136245","target":"absent","response":"absent","rt":"1702","correct":true,"confidence":-1},{"trial_n":4,"span":10,"encoder":"3439564630","distractor":"4439564630","target":"absent","response":"present","rt":"2578","correct":false,"confidence":-1},{"trial_n":5,"span":8,"encoder":"67893212","distractor":"37893212","target":"present","response":"present","rt":"1341","correct":true,"confidence":-1},{"trial_n":6,"span":8,"encoder":"54234920","distractor":"54230920","target":"present","response":"present","rt":"2641","correct":true,"confidence":-1},{"trial_n":7,"span":10,"encoder":"5730051035","distractor":"5730051005","target":"absent","response":"present","rt":"777","correct":false,"confidence":-1},{"trial_n":8,"span":8,"encoder":"96831614","distractor":"06831614","target":"absent","response":"present","rt":"1700","correct":false,"confidence":-1},{"trial_n":9,"span":6,"encoder":"687084","distractor":"687080","target":"present","response":"absent","rt":"1038","correct":false,"confidence":-1},{"trial_n":10,"span":4,"encoder":"3097","distractor":"3397","target":"present","response":"present","rt":"1205","correct":true,"confidence":-1},{"trial_n":11,"span":4,"encoder":"3244","distractor":"3844","target":"absent","response":"absent","rt":"1713","correct":true,"confidence":-1},{"trial_n":12,"span":5,"encoder":"57778","distractor":"57770","target":"present","response":"absent","rt":"2109","correct":false,"confidence":-1},{"trial_n":13,"span":4,"encoder":"8271","distractor":"8261","target":"present","response":"present","rt":"1626","correct":true,"confidence":-1},{"trial_n":14,"span":4,"encoder":"3624","distractor":"3324","target":"present","response":"present","rt":"900","correct":true,"confidence":-1},{"trial_n":15,"span":5,"encoder":"65068","distractor":"66068","target":"absent","response":"absent","rt":"2383","correct":true,"confidence":-1},{"trial_n":16,"span":5,"encoder":"82050","distractor":"12050","target":"present","response":"present","rt":"1378","correct":true,"confidence":-1},{"trial_n":17,"span":6,"encoder":"556214","distractor":"556014","target":"present","response":"absent","rt":"1967","correct":false,"confidence":-1},{"trial_n":18,"span":5,"encoder":"43845","distractor":"63845","target":"absent","response":"present","rt":"1131","correct":false,"confidence":-1},{"trial_n":19,"span":4,"encoder":"7167","distractor":"7160","target":"absent","response":"absent","rt":"1461","correct":true,"confidence":-1},{"trial_n":20,"span":4,"encoder":"9521","distractor":"9621","target":"present","response":"present","rt":"1341","correct":true,"confidence":-1},{"trial_n":21,"span":5,"encoder":"03675","distractor":"03665","target":"absent","response":"absent","rt":"870","correct":true,"confidence":2},{"trial_n":22,"span":5,"encoder":"14942","distractor":"64942","target":"absent","response":"present","rt":"1675","correct":false,"confidence":3},{"trial_n":23,"span":4,"encoder":"2426","distractor":"3426","target":"absent","response":"absent","rt":"2072","correct":true,"confidence":2},{"trial_n":24,"span":4,"encoder":"3344","distractor":"3340","target":"present","response":"present","rt":"1728","correct":true,"confidence":4},{"trial_n":25,"span":5,"encoder":"53561","distractor":"53568","target":"absent","response":"absent","rt":"9726","correct":true,"confidence":2},{"trial_n":26,"span":5,"encoder":"70909","distractor":"70209","target":"present","response":"present","rt":"563.99999999997","correct":true,"confidence":2},{"trial_n":27,"span":6,"encoder":"706244","distractor":"708244","target":"absent","response":"absent","rt":"1384","correct":true,"confidence":2},{"trial_n":28,"span":6,"encoder":"340007","distractor":"340307","target":"present","response":"absent","rt":"1328","correct":false,"confidence":2},{"trial_n":29,"span":5,"encoder":"99133","distractor":"99134","target":"present","response":"present","rt":"988","correct":true,"confidence":2},{"trial_n":30,"span":5,"encoder":"67777","distractor":"67677","target":"absent","response":"absent","rt":"1607","correct":true,"confidence":2},{"trial_n":31,"span":6,"encoder":"933164","distractor":"903164","target":"present","response":"absent","rt":"26248","correct":false,"confidence":2},{"trial_n":32,"span":5,"encoder":"62035","distractor":"62039","target":"present","response":"present","rt":"1202","correct":true,"confidence":2},{"trial_n":33,"span":5,"encoder":"28901","distractor":"24901","target":"present","response":"absent","rt":"1241","correct":false,"confidence":2},{"trial_n":34,"span":4,"encoder":"4398","distractor":"5398","target":"absent","response":"absent","rt":"1106","correct":true,"confidence":2},{"trial_n":35,"span":4,"encoder":"9564","distractor":"9560","target":"absent","response":"present","rt":"1520.0000000001","correct":false,"confidence":2},{"trial_n":36,"span":3,"encoder":"192","distractor":"172","target":"present","response":"present","rt":"4453","correct":true,"confidence":5},{"trial_n":37,"span":3,"encoder":"594","distractor":"514","target":"present","response":"present","rt":"1030.9999999999","correct":true,"confidence":5},{"trial_n":38,"span":4,"encoder":"6483","distractor":"5483","target":"absent","response":"absent","rt":"2761.0000000001","correct":true,"confidence":5},{"trial_n":39,"span":4,"encoder":"5761","distractor":"1761","target":"absent","response":"present","rt":"1167.9999999999","correct":false,"confidence":2},{"trial_n":40,"span":3,"encoder":"415","distractor":"475","target":"present","response":"present","rt":"1040","correct":true,"confidence":2},{"trial_n":41,"span":3,"encoder":"059","distractor":"459","target":"absent","response":"present","rt":"2134","correct":false,"confidence":3},{"trial_n":42,"span":2,"encoder":"87","distractor":"83","target":"present","response":"present","rt":"1198","correct":true,"confidence":3},{"trial_n":43,"span":2,"encoder":"59","distractor":"19","target":"absent","response":"present","rt":"1274","correct":false,"confidence":5},{"trial_n":44,"span":2,"encoder":"75","distractor":"76","target":"present","response":"present","rt":"1037","correct":true,"confidence":5},{"trial_n":45,"span":2,"encoder":"42","distractor":"82","target":"present","response":"present","rt":"928","correct":true,"confidence":5},{"trial_n":46,"span":3,"encoder":"140","distractor":"180","target":"present","response":"present","rt":"993","correct":true,"confidence":5},{"trial_n":47,"span":3,"encoder":"866","distractor":"816","target":"present","response":"present","rt":"2462","correct":true,"confidence":3},{"trial_n":48,"span":4,"encoder":"9041","distractor":"9021","target":"absent","response":"absent","rt":"1848","correct":true,"confidence":4},{"trial_n":49,"span":4,"encoder":"3262","distractor":"3260","target":"absent","response":"absent","rt":"1712.9999999999","correct":true,"confidence":3},{"trial_n":50,"span":5,"encoder":"13916","distractor":"73916","target":"absent","response":"absent","rt":"2027","correct":true,"confidence":5},{"trial_n":51,"span":5,"encoder":"40928","distractor":"90928","target":"absent","response":"absent","rt":"1774","correct":true,"confidence":5},{"trial_n":52,"span":6,"encoder":"696044","distractor":"696045","target":"absent","response":"absent","rt":"3186.0000000001","correct":true,"confidence":5},{"trial_n":53,"span":6,"encoder":"719171","distractor":"759171","target":"present","response":"absent","rt":"5772","correct":false,"confidence":3},{"trial_n":54,"span":5,"encoder":"77453","distractor":"77423","target":"present","response":"present","rt":"2141","correct":true,"confidence":4},{"trial_n":55,"span":5,"encoder":"87045","distractor":"87048","target":"absent","response":"absent","rt":"2396","correct":true,"confidence":5},{"trial_n":56,"span":6,"encoder":"596981","distractor":"596983","target":"present","response":"present","rt":"2716.9999999999","correct":true,"confidence":5},{"trial_n":57,"span":6,"encoder":"879589","distractor":"879529","target":"present","response":"present","rt":"1449","correct":true,"confidence":3},{"trial_n":58,"span":7,"encoder":"9642240","distractor":"9642040","target":"absent","response":"absent","rt":"2698","correct":true,"confidence":3},{"trial_n":59,"span":7,"encoder":"4153475","distractor":"4753475","target":"present","response":"present","rt":"1330.9999999999","correct":true,"confidence":3},{"trial_n":60,"span":8,"encoder":"76398538","distractor":"76398531","target":"present","response":"present","rt":"1758","correct":true,"confidence":2},{"trial_n":61,"span":8,"encoder":"97663294","distractor":"97663299","target":"absent","response":"absent","rt":"3158","correct":true,"confidence":2},{"trial_n":62,"span":9,"encoder":"684737107","distractor":"684737117","target":"present","response":"absent","rt":"2059.0000000001","correct":false,"confidence":3},{"trial_n":63,"span":8,"encoder":"68045695","distractor":"68049695","target":"absent","response":"present","rt":"1300","correct":false,"confidence":2},{"trial_n":64,"span":7,"encoder":"2132785","distractor":"2132780","target":"present","response":"present","rt":"1325","correct":true,"confidence":3},{"trial_n":65,"span":7,"encoder":"3987992","distractor":"3907992","target":"absent","response":"absent","rt":"3132","correct":true,"confidence":3},{"trial_n":66,"span":8,"encoder":"31197894","distractor":"31197844","target":"absent","response":"absent","rt":"1896","correct":true,"confidence":2},{"trial_n":67,"span":8,"encoder":"40905734","distractor":"40905739","target":"absent","response":"present","rt":"1258","correct":false,"confidence":4},{"trial_n":68,"span":7,"encoder":"6991357","distractor":"6991957","target":"absent","response":"present","rt":"1129","correct":false,"confidence":3},{"trial_n":69,"span":6,"encoder":"868453","distractor":"868456","target":"absent","response":"present","rt":"1176","correct":false,"confidence":3},{"trial_n":70,"span":5,"encoder":"97414","distractor":"77414","target":"present","response":"present","rt":"2071","correct":true,"confidence":3},{"trial_n":71,"span":8,"encoder":"35798927","distractor":"35698927","target":"present","response":"present","rt":"4645","correct":true,"confidence":-1},{"trial_n":72,"span":8,"encoder":"98706207","distractor":"98707207","target":"present","response":"absent","rt":"1323","correct":false,"confidence":-1},{"trial_n":73,"span":7,"encoder":"2719965","distractor":"2919965","target":"absent","response":"present","rt":"418.00000000012","correct":false,"confidence":-1},{"trial_n":74,"span":6,"encoder":"033652","distractor":"033642","target":"absent","response":"absent","rt":"244","correct":true,"confidence":-1},{"trial_n":75,"span":6,"encoder":"438167","distractor":"438177","target":"present","response":"absent","rt":"370","correct":false,"confidence":-1},{"trial_n":76,"span":5,"encoder":"14562","distractor":"54562","target":"absent","response":"present","rt":"61","correct":false,"confidence":-1},{"trial_n":77,"span":4,"encoder":"7819","distractor":"7869","target":"absent","response":"absent","rt":"-8","correct":true,"confidence":-1},{"trial_n":78,"span":4,"encoder":"1984","distractor":"2984","target":"absent","response":"absent","rt":"32","correct":true,"confidence":-1},{"trial_n":79,"span":5,"encoder":"03442","distractor":"43442","target":"present","response":"absent","rt":"20","correct":false,"confidence":-1},{"trial_n":80,"span":4,"encoder":"2936","distractor":"2906","target":"present","response":"absent","rt":"-60.999999999884","correct":false,"confidence":-1},{"trial_n":81,"span":3,"encoder":"326","distractor":"626","target":"absent","response":"present","rt":"-88","correct":false,"confidence":-1},{"trial_n":82,"span":2,"encoder":"66","distractor":"61","target":"absent","response":"absent","rt":"72","correct":true,"confidence":-1},{"trial_n":83,"span":2,"encoder":"41","distractor":"48","target":"present","response":"present","rt":"31","correct":true,"confidence":-1},{"trial_n":84,"span":3,"encoder":"561","distractor":"567","target":"absent","response":"absent","rt":"-13","correct":true,"confidence":-1},{"trial_n":85,"span":3,"encoder":"854","distractor":"814","target":"present","response":"absent","rt":"45","correct":false,"confidence":-1},{"trial_n":86,"span":2,"encoder":"85","distractor":"84","target":"absent","response":"present","rt":"-79","correct":false,"confidence":-1},{"trial_n":87,"span":2,"encoder":"12","distractor":"16","target":"present","response":"absent","rt":"-31.999999999884","correct":false,"confidence":-1},{"trial_n":88,"span":2,"encoder":"83","distractor":"63","target":"present","response":"absent","rt":"86","correct":false,"confidence":-1},{"trial_n":89,"span":2,"encoder":"36","distractor":"06","target":"absent","response":"absent","rt":"45","correct":true,"confidence":-1},{"trial_n":90,"span":2,"encoder":"11","distractor":"12","target":"absent","response":"absent","rt":"-35","correct":true,"confidence":-1},{"trial_n":91,"span":3,"encoder":"470","distractor":"476","target":"present","response":"present","rt":"-74.999999999884","correct":true,"confidence":2},{"trial_n":92,"span":3,"encoder":"427","distractor":"467","target":"present","response":"absent","rt":"486","correct":false,"confidence":1},{"trial_n":93,"span":2,"encoder":"00","distractor":"80","target":"absent","response":"absent","rt":"-9","correct":true,"confidence":1},{"trial_n":94,"span":2,"encoder":"09","distractor":"49","target":"present","response":"absent","rt":"45.000000000116","correct":false,"confidence":1},{"trial_n":95,"span":2,"encoder":"73","distractor":"75","target":"absent","response":"absent","rt":"486","correct":true,"confidence":1},{"trial_n":96,"span":2,"encoder":"99","distractor":"95","target":"present","response":"absent","rt":"-25.000000000116","correct":false,"confidence":1},{"trial_n":97,"span":2,"encoder":"16","distractor":"10","target":"absent","response":"absent","rt":"-81.000000000116","correct":true,"confidence":1},{"trial_n":98,"span":2,"encoder":"81","distractor":"87","target":"present","response":"absent","rt":"74","correct":false,"confidence":1},{"trial_n":99,"span":2,"encoder":"93","distractor":"97","target":"absent","response":"absent","rt":"-74","correct":true,"confidence":1},{"trial_n":100,"span":2,"encoder":"02","distractor":"82","target":"present","response":"absent","rt":"-52","correct":false,"confidence":1},{"trial_n":101,"span":2,"encoder":"62","distractor":"65","target":"absent","response":"present","rt":"-87.999999999884","correct":false,"confidence":1},{"trial_n":102,"span":2,"encoder":"67","distractor":"37","target":"absent","response":"absent","rt":"13","correct":true,"confidence":1},{"trial_n":103,"span":2,"encoder":"43","distractor":"41","target":"present","response":"present","rt":"1.9999999998836","correct":true,"confidence":1},{"trial_n":104,"span":3,"encoder":"109","distractor":"106","target":"absent","response":"present","rt":"857","correct":false,"confidence":1},{"trial_n":105,"span":2,"encoder":"83","distractor":"33","target":"absent","response":"absent","rt":"467","correct":true,"confidence":1},{"trial_n":106,"span":2,"encoder":"64","distractor":"66","target":"present","response":"present","rt":"-51","correct":true,"confidence":1},{"trial_n":107,"span":3,"encoder":"621","distractor":"620","target":"present","response":"absent","rt":"-82","correct":false,"confidence":1},{"trial_n":108,"span":2,"encoder":"64","distractor":"94","target":"absent","response":"present","rt":"-80","correct":false,"confidence":1},{"trial_n":109,"span":2,"encoder":"55","distractor":"95","target":"absent","response":"absent","rt":"1","correct":true,"confidence":1},{"trial_n":110,"span":2,"encoder":"44","distractor":"42","target":"present","response":"absent","rt":"-19","correct":false,"confidence":1},{"trial_n":111,"span":2,"encoder":"56","distractor":"66","target":"present","response":"absent","rt":"-40","correct":false,"confidence":1},{"trial_n":112,"span":2,"encoder":"29","distractor":"28","target":"absent","response":"absent","rt":"-81.999999999884","correct":true,"confidence":1},{"trial_n":113,"span":2,"encoder":"61","distractor":"67","target":"absent","response":"absent","rt":"-19.000000000116","correct":true,"confidence":1},{"trial_n":114,"span":3,"encoder":"428","distractor":"488","target":"absent","response":"absent","rt":"82.000000000116","correct":true,"confidence":1},{"trial_n":115,"span":3,"encoder":"884","distractor":"184","target":"present","response":"absent","rt":"88","correct":false,"confidence":1},{"trial_n":116,"span":2,"encoder":"87","distractor":"27","target":"present","response":"present","rt":"33","correct":true,"confidence":1},{"trial_n":117,"span":2,"encoder":"90","distractor":"00","target":"absent","response":"absent","rt":"-40.999999999884","correct":true,"confidence":1},{"trial_n":118,"span":3,"encoder":"520","distractor":"500","target":"present","response":"absent","rt":"81","correct":false,"confidence":1},{"trial_n":119,"span":2,"encoder":"31","distractor":"41","target":"present","response":"absent","rt":"-19","correct":false,"confidence":1},{"trial_n":120,"span":2,"encoder":"12","distractor":"13","target":"present","response":"absent","rt":"76","correct":false,"confidence":1},{"trial_n":121,"span":2,"encoder":"29","distractor":"79","target":"present","response":"absent","rt":"-49","correct":false,"confidence":1},{"trial_n":122,"span":2,"encoder":"23","distractor":"33","target":"present","response":"present","rt":"71","correct":true,"confidence":1},{"trial_n":123,"span":2,"encoder":"40","distractor":"48","target":"present","response":"present","rt":"-16","correct":true,"confidence":1},{"trial_n":124,"span":3,"encoder":"226","distractor":"223","target":"absent","response":"absent","rt":"-31","correct":true,"confidence":1},{"trial_n":125,"span":3,"encoder":"192","distractor":"492","target":"absent","response":"present","rt":"-13","correct":false,"confidence":1},{"trial_n":126,"span":2,"encoder":"55","distractor":"15","target":"absent","response":"absent","rt":"52","correct":true,"confidence":1},{"trial_n":127,"span":2,"encoder":"59","distractor":"89","target":"present","response":"absent","rt":"1","correct":false,"confidence":1},{"trial_n":128,"span":2,"encoder":"37","distractor":"87","target":"present","response":"absent","rt":"19.000000000116","correct":false,"confidence":1},{"trial_n":129,"span":2,"encoder":"66","distractor":"36","target":"present","response":"absent","rt":"115","correct":false,"confidence":1},{"trial_n":130,"span":2,"encoder":"30","distractor":"35","target":"present","response":"present","rt":"91","correct":true,"confidence":1},{"trial_n":131,"span":2,"encoder":"59","distractor":"69","target":"absent","response":"absent","rt":"-23","correct":true,"confidence":1},{"trial_n":132,"span":3,"encoder":"052","distractor":"652","target":"absent","response":"present","rt":"146","correct":false,"confidence":1},{"trial_n":133,"span":2,"encoder":"25","distractor":"65","target":"absent","response":"absent","rt":"48","correct":true,"confidence":1},{"trial_n":134,"span":2,"encoder":"19","distractor":"99","target":"present","response":"absent","rt":"-57","correct":false,"confidence":1},{"trial_n":135,"span":2,"encoder":"37","distractor":"77","target":"absent","response":"absent","rt":"3.0000000001164","correct":true,"confidence":1},{"trial_n":136,"span":2,"encoder":"82","distractor":"42","target":"present","response":"absent","rt":"45","correct":false,"confidence":1},{"trial_n":137,"span":2,"encoder":"29","distractor":"24","target":"present","response":"present","rt":"-20.999999999884","correct":true,"confidence":1},{"trial_n":138,"span":2,"encoder":"16","distractor":"19","target":"absent","response":"present","rt":"66","correct":false,"confidence":1},{"trial_n":139,"span":2,"encoder":"09","distractor":"99","target":"present","response":"absent","rt":"27","correct":false,"confidence":1},{"trial_n":140,"span":2,"encoder":"84","distractor":"86","target":"absent","response":"absent","rt":"47","correct":true,"confidence":1}]