[{"trial_n":1,"span":8,"encoder":"33269421","distractor":"33269021","target":"present","response":"absent","rt":"9668.7000000477","correct":false,"confidence":-1},{"trial_n":2,"span":6,"encoder":"829666","distractor":"429666","target":"present","response":"present","rt":"1582.5","correct":true,"confidence":-1},{"trial_n":3,"span":6,"encoder":"063595","distractor":"023595","target":"absent","response":"absent","rt":"1664","correct":true,"confidence":-1},{"trial_n":4,"span":8,"encoder":"37002001","distractor":"57002001","target":"absent","response":"absent","rt":"1416.1000000238","correct":true,"confidence":-1},{"trial_n":5,"span":8,"encoder":"92871371","distractor":"92801371","target":"present","response":"present","rt":"1452.2999999523","correct":true,"confidence":-1},{"trial_n":6,"span":10,"encoder":"1683076982","distractor":"1683076682","target":"present","response":"absent","rt":"1479.5","correct":false,"confidence":-1},{"trial_n":7,"span":8,"encoder":"22999406","distractor":"23999406","target":"present","response":"absent","rt":"994","correct":false,"confidence":-1},{"trial_n":8,"span":6,"encoder":"369693","distractor":"469693","target":"present","response":"present","rt":"1476","correct":true,"confidence":-1},{"trial_n":9,"span":6,"encoder":"644042","distractor":"644842","target":"absent","response":"present","rt":"2335.3999999762","correct":false,"confidence":-1},{"trial_n":10,"span":4,"encoder":"0543","distractor":"6543","target":"present","response":"present","rt":"1823.2999999523","correct":true,"confidence":-1},{"trial_n":11,"span":4,"encoder":"2713","distractor":"2714","target":"present","response":"present","rt":"989.39999997616","correct":true,"confidence":-1},{"trial_n":12,"span":5,"encoder":"08251","distractor":"08281","target":"absent","response":"absent","rt":"1754.5","correct":true,"confidence":-1},{"trial_n":13,"span":5,"encoder":"98780","distractor":"98080","target":"absent","response":"absent","rt":"1226.8999999762","correct":true,"confidence":-1},{"trial_n":14,"span":6,"encoder":"034848","distractor":"094848","target":"absent","response":"absent","rt":"1159","correct":true,"confidence":-1},{"trial_n":15,"span":6,"encoder":"059260","distractor":"559260","target":"absent","response":"present","rt":"1319.3000000715","correct":false,"confidence":-1},{"trial_n":16,"span":5,"encoder":"48497","distractor":"48437","target":"absent","response":"absent","rt":"1897.6999999285","correct":true,"confidence":-1},{"trial_n":17,"span":5,"encoder":"66473","distractor":"36473","target":"present","response":"present","rt":"1581.7000000477","correct":true,"confidence":-1},{"trial_n":18,"span":6,"encoder":"989331","distractor":"983331","target":"present","response":"present","rt":"2040.5999999046","correct":true,"confidence":-1},{"trial_n":19,"span":6,"encoder":"823752","distractor":"821752","target":"present","response":"present","rt":"1594.6000000238","correct":true,"confidence":-1},{"trial_n":20,"span":7,"encoder":"1961357","distractor":"1961351","target":"absent","response":"present","rt":"2727.6000000238","correct":false,"confidence":-1},{"trial_n":21,"span":6,"encoder":"344816","distractor":"344819","target":"present","response":"present","rt":"1137.2999999523","correct":true,"confidence":4},{"trial_n":22,"span":6,"encoder":"404597","distractor":"304597","target":"present","response":"present","rt":"1664.8999999762","correct":true,"confidence":4},{"trial_n":23,"span":7,"encoder":"6819683","distractor":"1819683","target":"present","response":"absent","rt":"2599.2000000477","correct":false,"confidence":3},{"trial_n":24,"span":6,"encoder":"799135","distractor":"799130","target":"absent","response":"absent","rt":"2181.2999999523","correct":true,"confidence":5},{"trial_n":25,"span":6,"encoder":"086517","distractor":"086516","target":"absent","response":"absent","rt":"6417.7000000477","correct":true,"confidence":4},{"trial_n":26,"span":7,"encoder":"0138096","distractor":"7138096","target":"present","response":"present","rt":"1545.3000000715","correct":true,"confidence":3},{"trial_n":27,"span":7,"encoder":"1371271","distractor":"1371771","target":"present","response":"present","rt":"1876.1000000238","correct":true,"confidence":3},{"trial_n":28,"span":8,"encoder":"43366469","distractor":"43366462","target":"present","response":"present","rt":"2425.3999999762","correct":true,"confidence":3},{"trial_n":29,"span":8,"encoder":"42435333","distractor":"42485333","target":"absent","response":"absent","rt":"3770.2999999523","correct":true,"confidence":2},{"trial_n":30,"span":9,"encoder":"797219008","distractor":"793219008","target":"present","response":"present","rt":"2065.3000000715","correct":true,"confidence":3},{"trial_n":31,"span":9,"encoder":"051107200","distractor":"051107209","target":"present","response":"absent","rt":"3080.1999999285","correct":false,"confidence":3},{"trial_n":32,"span":8,"encoder":"25349072","distractor":"25349042","target":"absent","response":"present","rt":"4227.0999999046","correct":false,"confidence":3},{"trial_n":33,"span":7,"encoder":"2207057","distractor":"2277057","target":"absent","response":"present","rt":"1407.5999999046","correct":false,"confidence":4},{"trial_n":34,"span":6,"encoder":"371237","distractor":"371837","target":"absent","response":"absent","rt":"2328.7999999523","correct":true,"confidence":5},{"trial_n":35,"span":6,"encoder":"342544","distractor":"342514","target":"present","response":"present","rt":"4633.2999999523","correct":true,"confidence":4},{"trial_n":36,"span":7,"encoder":"3611174","distractor":"3211174","target":"present","response":"present","rt":"2196.3999999762","correct":true,"confidence":5},{"trial_n":37,"span":7,"encoder":"5679364","distractor":"5679864","target":"present","response":"present","rt":"3125.2000000477","correct":true,"confidence":4},{"trial_n":38,"span":8,"encoder":"34009156","distractor":"34009656","target":"absent","response":"present","rt":"3347.3999999762","correct":false,"confidence":5},{"trial_n":39,"span":7,"encoder":"4167409","distractor":"4667409","target":"present","response":"present","rt":"2844.1000000238","correct":true,"confidence":4},{"trial_n":40,"span":7,"encoder":"1649756","distractor":"1649716","target":"absent","response":"present","rt":"5619.1000000238","correct":false,"confidence":2},{"trial_n":41,"span":6,"encoder":"851979","distractor":"851959","target":"present","response":"present","rt":"1249.6999999285","correct":true,"confidence":4},{"trial_n":42,"span":6,"encoder":"561545","distractor":"563545","target":"absent","response":"present","rt":"2006.3999999762","correct":false,"confidence":2},{"trial_n":43,"span":5,"encoder":"28000","distractor":"28050","target":"absent","response":"absent","rt":"1863.1000000238","correct":true,"confidence":5},{"trial_n":44,"span":5,"encoder":"76342","distractor":"76347","target":"absent","response":"absent","rt":"2406.3000000715","correct":true,"confidence":5},{"trial_n":45,"span":6,"encoder":"635417","distractor":"135417","target":"present","response":"present","rt":"2726.3999999762","correct":true,"confidence":4},{"trial_n":46,"span":6,"encoder":"167281","distractor":"167286","target":"present","response":"present","rt":"1620.8000000715","correct":true,"confidence":3},{"trial_n":47,"span":7,"encoder":"1972458","distractor":"1982458","target":"present","response":"present","rt":"1856","correct":true,"confidence":2},{"trial_n":48,"span":7,"encoder":"2561994","distractor":"2561904","target":"absent","response":"absent","rt":"1845.1000000238","correct":true,"confidence":5},{"trial_n":49,"span":8,"encoder":"58460425","distractor":"58460424","target":"absent","response":"absent","rt":"2298.9000000954","correct":true,"confidence":3},{"trial_n":50,"span":8,"encoder":"73385875","distractor":"13385875","target":"present","response":"present","rt":"4631","correct":true,"confidence":4},{"trial_n":51,"span":9,"encoder":"259602809","distractor":"259602849","target":"present","response":"present","rt":"4172.0999999046","correct":true,"confidence":3},{"trial_n":52,"span":9,"encoder":"995513583","distractor":"995503583","target":"absent","response":"present","rt":"1798.2000000477","correct":false,"confidence":3},{"trial_n":53,"span":8,"encoder":"56588628","distractor":"56588624","target":"absent","response":"absent","rt":"2191.6000000238","correct":true,"confidence":4},{"trial_n":54,"span":8,"encoder":"41105524","distractor":"41105514","target":"absent","response":"present","rt":"1367.3999999762","correct":false,"confidence":4},{"trial_n":55,"span":7,"encoder":"8070723","distractor":"8080723","target":"absent","response":"absent","rt":"1664.1999999285","correct":true,"confidence":5},{"trial_n":56,"span":7,"encoder":"2818981","distractor":"2808981","target":"absent","response":"present","rt":"1200.4000000954","correct":false,"confidence":3},{"trial_n":57,"span":6,"encoder":"965272","distractor":"965672","target":"absent","response":"absent","rt":"3537.1999999285","correct":true,"confidence":3},{"trial_n":58,"span":6,"encoder":"574179","distractor":"574479","target":"present","response":"present","rt":"2415.5","correct":true,"confidence":3},{"trial_n":59,"span":7,"encoder":"7665749","distractor":"7865749","target":"present","response":"present","rt":"2322.8999999762","correct":true,"confidence":4},{"trial_n":60,"span":7,"encoder":"8577073","distractor":"8877073","target":"absent","response":"present","rt":"3771.1000000238","correct":false,"confidence":2},{"trial_n":61,"span":6,"encoder":"407668","distractor":"406668","target":"present","response":"present","rt":"1158.7999999523","correct":true,"confidence":4},{"trial_n":62,"span":6,"encoder":"382646","distractor":"382641","target":"present","response":"present","rt":"1941.6000000238","correct":true,"confidence":5},{"trial_n":63,"span":7,"encoder":"7799286","distractor":"6799286","target":"absent","response":"present","rt":"5269.0999999046","correct":false,"confidence":2},{"trial_n":64,"span":6,"encoder":"024972","distractor":"024922","target":"absent","response":"present","rt":"1693.7999999523","correct":false,"confidence":4},{"trial_n":65,"span":5,"encoder":"30106","distractor":"30126","target":"present","response":"present","rt":"1586.6000000238","correct":true,"confidence":5},{"trial_n":66,"span":5,"encoder":"97180","distractor":"95180","target":"absent","response":"present","rt":"1175.5","correct":false,"confidence":4},{"trial_n":67,"span":4,"encoder":"8729","distractor":"8727","target":"present","response":"present","rt":"1084.6000000238","correct":true,"confidence":5},{"trial_n":68,"span":4,"encoder":"0444","distractor":"0442","target":"present","response":"present","rt":"1049.1000000238","correct":true,"confidence":5},{"trial_n":69,"span":5,"encoder":"09602","distractor":"09502","target":"absent","response":"absent","rt":"3456","correct":true,"confidence":5},{"trial_n":70,"span":5,"encoder":"77904","distractor":"77954","target":"absent","response":"absent","rt":"2493.8999999762","correct":true,"confidence":5},{"trial_n":71,"span":8,"encoder":"17261169","distractor":"17261469","target":"present","response":"present","rt":"2576.8000000715","correct":true,"confidence":-1},{"trial_n":72,"span":8,"encoder":"66539528","distractor":"66639528","target":"present","response":"present","rt":"4530.6999999285","correct":true,"confidence":-1},{"trial_n":73,"span":9,"encoder":"211879158","distractor":"211829158","target":"absent","response":"present","rt":"3646.3000000715","correct":false,"confidence":-1},{"trial_n":74,"span":8,"encoder":"33657016","distractor":"33650016","target":"absent","response":"absent","rt":"3959.6999999285","correct":true,"confidence":-1},{"trial_n":75,"span":8,"encoder":"11359233","distractor":"11359273","target":"present","response":"present","rt":"1574","correct":true,"confidence":-1},{"trial_n":76,"span":9,"encoder":"764078454","distractor":"764078451","target":"present","response":"present","rt":"4739","correct":true,"confidence":-1},{"trial_n":77,"span":9,"encoder":"042149732","distractor":"042749732","target":"absent","response":"present","rt":"4264.8999999762","correct":false,"confidence":-1},{"trial_n":78,"span":8,"encoder":"38704824","distractor":"58704824","target":"present","response":"present","rt":"4397.8999999762","correct":true,"confidence":-1},{"trial_n":79,"span":8,"encoder":"16355745","distractor":"16355715","target":"absent","response":"present","rt":"4680.7999999523","correct":false,"confidence":-1},{"trial_n":80,"span":7,"encoder":"9880962","distractor":"7880962","target":"absent","response":"present","rt":"2737.5","correct":false,"confidence":-1},{"trial_n":81,"span":6,"encoder":"683666","distractor":"687666","target":"absent","response":"absent","rt":"2742.5","correct":true,"confidence":-1},{"trial_n":82,"span":6,"encoder":"631494","distractor":"631994","target":"absent","response":"absent","rt":"4441","correct":true,"confidence":-1},{"trial_n":83,"span":7,"encoder":"9430239","distractor":"9436239","target":"present","response":"present","rt":"3105.3000000715","correct":true,"confidence":-1},{"trial_n":84,"span":7,"encoder":"2434081","distractor":"2234081","target":"absent","response":"absent","rt":"2904.2000000477","correct":true,"confidence":-1},{"trial_n":85,"span":8,"encoder":"67180615","distractor":"67680615","target":"present","response":"absent","rt":"5440.7000000477","correct":false,"confidence":-1},{"trial_n":86,"span":7,"encoder":"3699909","distractor":"3699999","target":"absent","response":"absent","rt":"1217.1000000238","correct":true,"confidence":-1},{"trial_n":87,"span":7,"encoder":"0553759","distractor":"0543759","target":"absent","response":"absent","rt":"1110.2999999523","correct":true,"confidence":-1},{"trial_n":88,"span":8,"encoder":"83579253","distractor":"85579253","target":"present","response":"present","rt":"1834.7999999523","correct":true,"confidence":-1},{"trial_n":89,"span":8,"encoder":"94790045","distractor":"94790345","target":"present","response":"present","rt":"2770.6000000238","correct":true,"confidence":-1},{"trial_n":90,"span":9,"encoder":"122158986","distractor":"122658986","target":"present","response":"absent","rt":"5343","correct":false,"confidence":-1},{"trial_n":91,"span":8,"encoder":"59176086","distractor":"59156086","target":"present","response":"present","rt":"2499.8999999762","correct":true,"confidence":4},{"trial_n":92,"span":8,"encoder":"20787338","distractor":"20787334","target":"present","response":"present","rt":"2663.5999999046","correct":true,"confidence":5},{"trial_n":93,"span":9,"encoder":"919444404","distractor":"919444304","target":"present","response":"present","rt":"2762.1999999285","correct":true,"confidence":5},{"trial_n":94,"span":9,"encoder":"417955316","distractor":"417055316","target":"absent","response":"absent","rt":"4952.2999999523","correct":true,"confidence":3},{"trial_n":95,"span":10,"encoder":"7215875242","distractor":"7215855242","target":"absent","response":"absent","rt":"5060.3999999762","correct":true,"confidence":4},{"trial_n":96,"span":10,"encoder":"6691212056","distractor":"6691212456","target":"present","response":"present","rt":"2931.6000000238","correct":true,"confidence":4},{"trial_n":97,"span":11,"encoder":"52323977300","distractor":"52323978300","target":"present","response":"present","rt":"2201.5","correct":true,"confidence":5},{"trial_n":98,"span":11,"encoder":"44925141014","distractor":"44925241014","target":"present","response":"absent","rt":"18607.600000024","correct":false,"confidence":2},{"trial_n":99,"span":10,"encoder":"7748809288","distractor":"7748809258","target":"present","response":"present","rt":"1798.4000000954","correct":true,"confidence":2},{"trial_n":100,"span":10,"encoder":"7196679181","distractor":"7196679185","target":"present","response":"present","rt":"4540.8000000715","correct":true,"confidence":4},{"trial_n":101,"span":11,"encoder":"08253798858","distractor":"58253798858","target":"present","response":"present","rt":"2826.7999999523","correct":true,"confidence":4},{"trial_n":102,"span":11,"encoder":"12002416400","distractor":"12003416400","target":"absent","response":"absent","rt":"5494.6999999285","correct":true,"confidence":2},{"trial_n":103,"span":12,"encoder":"858447120560","distractor":"858447720560","target":"absent","response":"absent","rt":"6131","correct":true,"confidence":3},{"trial_n":104,"span":12,"encoder":"617410645325","distractor":"657410645325","target":"present","response":"absent","rt":"5476.7999999523","correct":false,"confidence":3},{"trial_n":105,"span":11,"encoder":"17731654309","distractor":"17731654329","target":"present","response":"present","rt":"2551.0999999046","correct":true,"confidence":4},{"trial_n":106,"span":11,"encoder":"86344818933","distractor":"86344818913","target":"absent","response":"absent","rt":"1737.3000000715","correct":true,"confidence":5},{"trial_n":107,"span":12,"encoder":"693691171737","distractor":"693661171737","target":"absent","response":"absent","rt":"11335.399999976","correct":true,"confidence":4},{"trial_n":108,"span":12,"encoder":"909055326401","distractor":"959055326401","target":"absent","response":"present","rt":"2577.5999999046","correct":false,"confidence":4},{"trial_n":109,"span":11,"encoder":"90209759173","distractor":"91209759173","target":"absent","response":"absent","rt":"9659.6000000238","correct":true,"confidence":3},{"trial_n":110,"span":11,"encoder":"62374415943","distractor":"42374415943","target":"absent","response":"absent","rt":"3487.7999999523","correct":true,"confidence":4},{"trial_n":111,"span":12,"encoder":"892200196689","distractor":"842200196689","target":"absent","response":"absent","rt":"3951.3000000715","correct":true,"confidence":4},{"trial_n":112,"span":12,"encoder":"240334136690","distractor":"240339136690","target":"present","response":"present","rt":"5687.3999999762","correct":true,"confidence":2},{"trial_n":113,"span":13,"encoder":"1104208530601","distractor":"1104208570601","target":"absent","response":"absent","rt":"8608.0999999046","correct":true,"confidence":3},{"trial_n":114,"span":13,"encoder":"3097108701201","distractor":"3097108791201","target":"present","response":"present","rt":"6359.2000000477","correct":true,"confidence":3},{"trial_n":115,"span":14,"encoder":"64987114292830","distractor":"64987114272830","target":"absent","response":"absent","rt":"5423.8999999762","correct":true,"confidence":3},{"trial_n":116,"span":14,"encoder":"68091496444084","distractor":"68021496444084","target":"present","response":"present","rt":"4233","correct":true,"confidence":2},{"trial_n":117,"span":15,"encoder":"088832445731495","distractor":"088832445734495","target":"present","response":"present","rt":"9494.0999999046","correct":true,"confidence":2},{"trial_n":118,"span":15,"encoder":"973923866121594","distractor":"973923866121534","target":"present","response":"present","rt":"8057.8000000715","correct":true,"confidence":4},{"trial_n":119,"span":16,"encoder":"2497477991935751","distractor":"2477477991935751","target":"present","response":"present","rt":"8143.7999999523","correct":true,"confidence":3},{"trial_n":120,"span":16,"encoder":"7725651431558629","distractor":"7725691431558629","target":"absent","response":"present","rt":"3423.1000000238","correct":false,"confidence":4},{"trial_n":121,"span":15,"encoder":"933513349575959","distractor":"933813349575959","target":"absent","response":"absent","rt":"5123.6000000238","correct":true,"confidence":3},{"trial_n":122,"span":15,"encoder":"669941852845758","distractor":"669941852885758","target":"present","response":"present","rt":"10633.700000048","correct":true,"confidence":3},{"trial_n":123,"span":16,"encoder":"5716054540584984","distractor":"5916054540584984","target":"present","response":"present","rt":"6699","correct":true,"confidence":4},{"trial_n":124,"span":16,"encoder":"0736179273366164","distractor":"0036179273366164","target":"present","response":"present","rt":"4814","correct":true,"confidence":4},{"trial_n":125,"span":17,"encoder":"80245583083541134","distractor":"84245583083541134","target":"absent","response":"absent","rt":"3358.6000000238","correct":true,"confidence":4},{"trial_n":126,"span":17,"encoder":"39801855461721009","distractor":"39801855461121009","target":"absent","response":"absent","rt":"5445.1000000238","correct":true,"confidence":4},{"trial_n":127,"span":18,"encoder":"558668829057121941","distractor":"558668826057121941","target":"present","response":"absent","rt":"17733.5","correct":false,"confidence":2},{"trial_n":128,"span":17,"encoder":"21692882300344439","distractor":"21696882300344439","target":"absent","response":"absent","rt":"9814.8999999762","correct":true,"confidence":3},{"trial_n":129,"span":17,"encoder":"72897933769942426","distractor":"72897931769942426","target":"present","response":"absent","rt":"9127.7999999523","correct":false,"confidence":2},{"trial_n":130,"span":16,"encoder":"4944869981839983","distractor":"4944869981239983","target":"present","response":"absent","rt":"7785.1000000238","correct":false,"confidence":3},{"trial_n":131,"span":15,"encoder":"243568614872439","distractor":"243568614872449","target":"present","response":"present","rt":"4141.6999999285","correct":true,"confidence":4},{"trial_n":132,"span":15,"encoder":"775428285555118","distractor":"775428285558118","target":"absent","response":"absent","rt":"15733.100000024","correct":true,"confidence":2},{"trial_n":133,"span":16,"encoder":"8470670495294332","distractor":"8370670495294332","target":"absent","response":"present","rt":"15516.899999976","correct":false,"confidence":2},{"trial_n":134,"span":15,"encoder":"500155485407860","distractor":"500155485007860","target":"present","response":"absent","rt":"9506.5999999046","correct":false,"confidence":4},{"trial_n":135,"span":14,"encoder":"53246874370904","distractor":"53226874370904","target":"absent","response":"absent","rt":"4412.6000000238","correct":true,"confidence":3},{"trial_n":136,"span":14,"encoder":"41637907009207","distractor":"41657907009207","target":"present","response":"present","rt":"3445.1000000238","correct":true,"confidence":4},{"trial_n":137,"span":15,"encoder":"583924092852967","distractor":"083924092852967","target":"absent","response":"present","rt":"2892.7000000477","correct":false,"confidence":4},{"trial_n":138,"span":14,"encoder":"27425514921665","distractor":"57425514921665","target":"absent","response":"absent","rt":"2177.3999999762","correct":true,"confidence":4},{"trial_n":139,"span":14,"encoder":"85634362818659","distractor":"85634362816659","target":"absent","response":"absent","rt":"13676.899999976","correct":true,"confidence":3},{"trial_n":140,"span":15,"encoder":"104921602584665","distractor":"104921692584665","target":"absent","response":"present","rt":"5518.9000000954","correct":false,"confidence":2}]