[{"trial_n":1,"n_dots":4.25,"target":"left","response":"left","rt":3028,"correct":true,"confidence":-1},{"trial_n":2,"n_dots":4.25,"target":"left","response":"left","rt":802,"correct":true,"confidence":-1},{"trial_n":3,"n_dots":3.85,"target":"right","response":"right","rt":894,"correct":true,"confidence":-1},{"trial_n":4,"n_dots":3.85,"target":"right","response":"left","rt":966,"correct":false,"confidence":-1},{"trial_n":5,"n_dots":4.25,"target":"right","response":"right","rt":349,"correct":true,"confidence":-1},{"trial_n":6,"n_dots":4.25,"target":"left","response":"left","rt":934,"correct":true,"confidence":-1},{"trial_n":7,"n_dots":3.85,"target":"right","response":"left","rt":522,"correct":false,"confidence":-1},{"trial_n":8,"n_dots":4.05,"target":"left","response":"right","rt":1212,"correct":false,"confidence":-1},{"trial_n":9,"n_dots":4.25,"target":"left","response":"left","rt":729,"correct":true,"confidence":-1},{"trial_n":10,"n_dots":4.25,"target":"right","response":"right","rt":327,"correct":true,"confidence":-1},{"trial_n":11,"n_dots":4.05,"target":"right","response":"right","rt":322.00000000001,"correct":true,"confidence":-1},{"trial_n":12,"n_dots":4.05,"target":"left","response":"left","rt":368,"correct":true,"confidence":-1},{"trial_n":13,"n_dots":3.95,"target":"right","response":"right","rt":606,"correct":true,"confidence":-1},{"trial_n":14,"n_dots":3.95,"target":"left","response":"left","rt":976.99999999999,"correct":true,"confidence":-1},{"trial_n":15,"n_dots":3.85,"target":"right","response":"right","rt":483,"correct":true,"confidence":-1},{"trial_n":16,"n_dots":3.85,"target":"left","response":"left","rt":351,"correct":true,"confidence":-1},{"trial_n":17,"n_dots":3.75,"target":"right","response":"right","rt":98,"correct":true,"confidence":-1},{"trial_n":18,"n_dots":3.75,"target":"left","response":"left","rt":347,"correct":true,"confidence":-1},{"trial_n":19,"n_dots":3.65,"target":"left","response":"left","rt":349,"correct":true,"confidence":-1},{"trial_n":20,"n_dots":3.65,"target":"left","response":"right","rt":80.999999999993,"correct":false,"confidence":-1},{"trial_n":21,"n_dots":3.75,"target":"left","response":"left","rt":133.00000000001,"correct":true,"confidence":3},{"trial_n":22,"n_dots":3.75,"target":"left","response":"left","rt":1226,"correct":true,"confidence":3},{"trial_n":23,"n_dots":3.65,"target":"left","response":"right","rt":692.00000000001,"correct":false,"confidence":3},{"trial_n":24,"n_dots":3.75,"target":"left","response":"left","rt":997,"correct":true,"confidence":4},{"trial_n":25,"n_dots":3.75,"target":"right","response":"right","rt":787.99999999999,"correct":true,"confidence":4},{"trial_n":26,"n_dots":3.65,"target":"left","response":"left","rt":1205,"correct":true,"confidence":3},{"trial_n":27,"n_dots":3.65,"target":"left","response":"right","rt":818,"correct":false,"confidence":3},{"trial_n":28,"n_dots":3.75,"target":"left","response":"left","rt":979.99999999999,"correct":true,"confidence":3},{"trial_n":29,"n_dots":3.75,"target":"right","response":"right","rt":2481,"correct":true,"confidence":4},{"trial_n":30,"n_dots":3.65,"target":"right","response":"right","rt":876,"correct":true,"confidence":4},{"trial_n":31,"n_dots":3.65,"target":"left","response":"left","rt":789.99999999999,"correct":true,"confidence":3},{"trial_n":32,"n_dots":3.55,"target":"left","response":"left","rt":525,"correct":true,"confidence":3},{"trial_n":33,"n_dots":3.55,"target":"right","response":"right","rt":985,"correct":true,"confidence":3},{"trial_n":34,"n_dots":3.45,"target":"right","response":"right","rt":815,"correct":true,"confidence":3},{"trial_n":35,"n_dots":3.45,"target":"right","response":"right","rt":973,"correct":true,"confidence":4},{"trial_n":36,"n_dots":3.35,"target":"left","response":"left","rt":897,"correct":true,"confidence":2},{"trial_n":37,"n_dots":3.35,"target":"left","response":"left","rt":748,"correct":true,"confidence":3},{"trial_n":38,"n_dots":3.25,"target":"right","response":"left","rt":506,"correct":false,"confidence":3},{"trial_n":39,"n_dots":3.35,"target":"right","response":"right","rt":402,"correct":true,"confidence":3},{"trial_n":40,"n_dots":3.35,"target":"right","response":"left","rt":731,"correct":false,"confidence":2},{"trial_n":41,"n_dots":3.45,"target":"left","response":"right","rt":2053,"correct":false,"confidence":2},{"trial_n":42,"n_dots":3.55,"target":"left","response":"left","rt":1027,"correct":true,"confidence":2},{"trial_n":43,"n_dots":3.55,"target":"left","response":"left","rt":343,"correct":true,"confidence":3},{"trial_n":44,"n_dots":3.45,"target":"left","response":"left","rt":1090,"correct":true,"confidence":4},{"trial_n":45,"n_dots":3.45,"target":"right","response":"right","rt":607,"correct":true,"confidence":4},{"trial_n":46,"n_dots":3.35,"target":"right","response":"right","rt":529,"correct":true,"confidence":3},{"trial_n":47,"n_dots":3.35,"target":"left","response":"right","rt":632,"correct":false,"confidence":3},{"trial_n":48,"n_dots":3.45,"target":"left","response":"right","rt":521.00000000003,"correct":false,"confidence":3},{"trial_n":49,"n_dots":3.55,"target":"left","response":"right","rt":800,"correct":false,"confidence":3},{"trial_n":50,"n_dots":3.65,"target":"right","response":"right","rt":828.99999999997,"correct":true,"confidence":3},{"trial_n":51,"n_dots":3.65,"target":"left","response":"left","rt":419.99999999997,"correct":true,"confidence":3},{"trial_n":52,"n_dots":3.55,"target":"right","response":"right","rt":942,"correct":true,"confidence":1},{"trial_n":53,"n_dots":3.55,"target":"right","response":"left","rt":2990,"correct":false,"confidence":2},{"trial_n":54,"n_dots":3.65,"target":"right","response":"right","rt":978.00000000003,"correct":true,"confidence":3},{"trial_n":55,"n_dots":3.65,"target":"left","response":"right","rt":883,"correct":false,"confidence":2},{"trial_n":56,"n_dots":3.75,"target":"left","response":"right","rt":911,"correct":false,"confidence":3},{"trial_n":57,"n_dots":3.85,"target":"left","response":"right","rt":854,"correct":false,"confidence":3},{"trial_n":58,"n_dots":3.95,"target":"left","response":"left","rt":503,"correct":true,"confidence":2},{"trial_n":59,"n_dots":3.95,"target":"right","response":"right","rt":1031,"correct":true,"confidence":4},{"trial_n":60,"n_dots":3.85,"target":"right","response":"right","rt":846,"correct":true,"confidence":3},{"trial_n":61,"n_dots":3.85,"target":"left","response":"left","rt":2420,"correct":true,"confidence":3},{"trial_n":62,"n_dots":3.75,"target":"right","response":"right","rt":678,"correct":true,"confidence":3},{"trial_n":63,"n_dots":3.75,"target":"left","response":"left","rt":715,"correct":true,"confidence":3},{"trial_n":64,"n_dots":3.65,"target":"right","response":"right","rt":901,"correct":true,"confidence":3},{"trial_n":65,"n_dots":3.65,"target":"right","response":"right","rt":1157.0000000001,"correct":true,"confidence":3},{"trial_n":66,"n_dots":3.55,"target":"right","response":"right","rt":660,"correct":true,"confidence":1},{"trial_n":67,"n_dots":3.55,"target":"right","response":"left","rt":611.00000000006,"correct":false,"confidence":2},{"trial_n":68,"n_dots":3.65,"target":"left","response":"left","rt":518,"correct":true,"confidence":2},{"trial_n":69,"n_dots":3.65,"target":"left","response":"left","rt":499.00000000006,"correct":true,"confidence":3},{"trial_n":70,"n_dots":3.55,"target":"left","response":"left","rt":373,"correct":true,"confidence":4},{"trial_n":71,"n_dots":3.55,"target":"left","response":"left","rt":846,"correct":true,"confidence":2},{"trial_n":72,"n_dots":3.45,"target":"left","response":"left","rt":632.00000000006,"correct":true,"confidence":2},{"trial_n":73,"n_dots":3.45,"target":"left","response":"left","rt":309.00000000006,"correct":true,"confidence":2},{"trial_n":74,"n_dots":3.35,"target":"left","response":"left","rt":998,"correct":true,"confidence":2},{"trial_n":75,"n_dots":3.35,"target":"right","response":"right","rt":794,"correct":true,"confidence":3},{"trial_n":76,"n_dots":3.25,"target":"left","response":"left","rt":105,"correct":true,"confidence":3},{"trial_n":77,"n_dots":3.25,"target":"right","response":"right","rt":820,"correct":true,"confidence":3},{"trial_n":78,"n_dots":3.15,"target":"right","response":"right","rt":554,"correct":true,"confidence":2},{"trial_n":79,"n_dots":3.15,"target":"left","response":"right","rt":1526,"correct":false,"confidence":2},{"trial_n":80,"n_dots":3.25,"target":"right","response":"right","rt":586,"correct":true,"confidence":4},{"trial_n":81,"n_dots":3.25,"target":"right","response":"left","rt":714,"correct":false,"confidence":1},{"trial_n":82,"n_dots":3.35,"target":"left","response":"right","rt":598,"correct":false,"confidence":3},{"trial_n":83,"n_dots":3.45,"target":"left","response":"right","rt":253,"correct":false,"confidence":3},{"trial_n":84,"n_dots":3.55,"target":"left","response":"left","rt":428,"correct":true,"confidence":3},{"trial_n":85,"n_dots":3.55,"target":"right","response":"right","rt":1439,"correct":true,"confidence":4},{"trial_n":86,"n_dots":3.45,"target":"left","response":"left","rt":787.00000000006,"correct":true,"confidence":3},{"trial_n":87,"n_dots":3.45,"target":"right","response":"right","rt":449,"correct":true,"confidence":4},{"trial_n":88,"n_dots":3.35,"target":"left","response":"left","rt":234,"correct":true,"confidence":3},{"trial_n":89,"n_dots":3.35,"target":"left","response":"right","rt":1386,"correct":false,"confidence":2},{"trial_n":90,"n_dots":3.45,"target":"left","response":"left","rt":625,"correct":true,"confidence":2},{"trial_n":91,"n_dots":3.45,"target":"right","response":"right","rt":391,"correct":true,"confidence":4},{"trial_n":92,"n_dots":3.35,"target":"right","response":"right","rt":274,"correct":true,"confidence":4},{"trial_n":93,"n_dots":3.35,"target":"right","response":"right","rt":599,"correct":true,"confidence":4},{"trial_n":94,"n_dots":3.25,"target":"left","response":"left","rt":441.00000000006,"correct":true,"confidence":3},{"trial_n":95,"n_dots":3.25,"target":"right","response":"right","rt":284,"correct":true,"confidence":3},{"trial_n":96,"n_dots":3.15,"target":"right","response":"left","rt":589,"correct":false,"confidence":3},{"trial_n":97,"n_dots":3.25,"target":"right","response":"right","rt":346,"correct":true,"confidence":3},{"trial_n":98,"n_dots":3.25,"target":"right","response":"right","rt":482,"correct":true,"confidence":2},{"trial_n":99,"n_dots":3.15,"target":"right","response":"left","rt":393.00000000006,"correct":false,"confidence":2},{"trial_n":100,"n_dots":3.25,"target":"right","response":"left","rt":426,"correct":false,"confidence":2},{"trial_n":101,"n_dots":3.35,"target":"right","response":"right","rt":205,"correct":true,"confidence":3},{"trial_n":102,"n_dots":3.35,"target":"left","response":"right","rt":769.99999999994,"correct":false,"confidence":3},{"trial_n":103,"n_dots":3.45,"target":"right","response":"right","rt":711,"correct":true,"confidence":4},{"trial_n":104,"n_dots":3.45,"target":"right","response":"right","rt":651,"correct":true,"confidence":4},{"trial_n":105,"n_dots":3.35,"target":"left","response":"left","rt":711.99999999994,"correct":true,"confidence":3},{"trial_n":106,"n_dots":3.35,"target":"left","response":"left","rt":312,"correct":true,"confidence":4},{"trial_n":107,"n_dots":3.25,"target":"left","response":"left","rt":684,"correct":true,"confidence":4},{"trial_n":108,"n_dots":3.25,"target":"right","response":"right","rt":325,"correct":true,"confidence":3},{"trial_n":109,"n_dots":3.15,"target":"right","response":"left","rt":463,"correct":false,"confidence":3},{"trial_n":110,"n_dots":3.25,"target":"left","response":"left","rt":550,"correct":true,"confidence":3},{"trial_n":111,"n_dots":3.25,"target":"left","response":"right","rt":522,"correct":false,"confidence":3},{"trial_n":112,"n_dots":3.35,"target":"right","response":"left","rt":494,"correct":false,"confidence":2},{"trial_n":113,"n_dots":3.45,"target":"right","response":"right","rt":423,"correct":true,"confidence":4},{"trial_n":114,"n_dots":3.45,"target":"left","response":"left","rt":564.00000000006,"correct":true,"confidence":2},{"trial_n":115,"n_dots":3.35,"target":"right","response":"left","rt":576.00000000006,"correct":false,"confidence":2},{"trial_n":116,"n_dots":3.45,"target":"right","response":"right","rt":277.00000000006,"correct":true,"confidence":3},{"trial_n":117,"n_dots":3.45,"target":"right","response":"right","rt":375,"correct":true,"confidence":3},{"trial_n":118,"n_dots":3.35,"target":"right","response":"right","rt":603,"correct":true,"confidence":3},{"trial_n":119,"n_dots":3.35,"target":"right","response":"left","rt":260,"correct":false,"confidence":2},{"trial_n":120,"n_dots":3.45,"target":"right","response":"right","rt":424.99999999994,"correct":true,"confidence":2}]