[{"trial_n":1,"min":25,"max":230,"target":"present","response":"absent","rt":7650.1999999285,"correct":false,"confidence":-1},{"trial_n":2,"min":25,"max":230,"target":"present","response":"present","rt":908.79999995232,"correct":true,"confidence":-1},{"trial_n":3,"min":25,"max":230,"target":"absent","response":"absent","rt":1469.8000000715,"correct":true,"confidence":-1},{"trial_n":4,"min":41,"max":214,"target":"absent","response":"absent","rt":832.69999992847,"correct":true,"confidence":-1},{"trial_n":5,"min":41,"max":214,"target":"present","response":"present","rt":954.69999992847,"correct":true,"confidence":-1},{"trial_n":6,"min":57,"max":198,"target":"absent","response":"absent","rt":1330.7000000477,"correct":true,"confidence":-1},{"trial_n":7,"min":57,"max":198,"target":"present","response":"present","rt":1170.8999999762,"correct":true,"confidence":-1},{"trial_n":8,"min":73,"max":182,"target":"present","response":"absent","rt":1618.3999999762,"correct":false,"confidence":-1},{"trial_n":9,"min":57,"max":198,"target":"present","response":"present","rt":796.70000004768,"correct":true,"confidence":-1},{"trial_n":10,"min":57,"max":198,"target":"absent","response":"absent","rt":863.89999997616,"correct":true,"confidence":-1},{"trial_n":11,"min":65,"max":190,"target":"absent","response":"absent","rt":574.29999995232,"correct":true,"confidence":-1},{"trial_n":12,"min":65,"max":190,"target":"absent","response":"absent","rt":448,"correct":true,"confidence":-1},{"trial_n":13,"min":73,"max":182,"target":"present","response":"present","rt":1812.6999999285,"correct":true,"confidence":-1},{"trial_n":14,"min":73,"max":182,"target":"absent","response":"absent","rt":611.39999997616,"correct":true,"confidence":-1},{"trial_n":15,"min":81,"max":174,"target":"present","response":"present","rt":830,"correct":true,"confidence":-1},{"trial_n":16,"min":81,"max":174,"target":"present","response":"present","rt":603.5,"correct":true,"confidence":-1},{"trial_n":17,"min":89,"max":166,"target":"present","response":"absent","rt":859.30000007153,"correct":false,"confidence":-1},{"trial_n":18,"min":81,"max":174,"target":"absent","response":"absent","rt":916.60000002384,"correct":true,"confidence":-1},{"trial_n":19,"min":81,"max":174,"target":"absent","response":"absent","rt":439.09999990463,"correct":true,"confidence":-1},{"trial_n":20,"min":89,"max":166,"target":"present","response":"absent","rt":488,"correct":false,"confidence":-1},{"trial_n":21,"min":85,"max":170,"target":"absent","response":"absent","rt":651.69999992847,"correct":true,"confidence":4},{"trial_n":22,"min":85,"max":170,"target":"absent","response":"absent","rt":812.29999995232,"correct":true,"confidence":4},{"trial_n":23,"min":89,"max":166,"target":"absent","response":"absent","rt":899.09999990463,"correct":true,"confidence":3},{"trial_n":24,"min":89,"max":166,"target":"present","response":"absent","rt":4685.7000000477,"correct":false,"confidence":3},{"trial_n":25,"min":85,"max":170,"target":"present","response":"absent","rt":1253.8999999762,"correct":false,"confidence":4},{"trial_n":26,"min":81,"max":174,"target":"absent","response":"absent","rt":879.5,"correct":true,"confidence":4},{"trial_n":27,"min":81,"max":174,"target":"present","response":"absent","rt":1301.1999999285,"correct":false,"confidence":4},{"trial_n":28,"min":77,"max":178,"target":"absent","response":"absent","rt":1191.1000000238,"correct":true,"confidence":2},{"trial_n":29,"min":77,"max":178,"target":"present","response":"present","rt":1169.2999999523,"correct":true,"confidence":4},{"trial_n":30,"min":81,"max":174,"target":"absent","response":"absent","rt":919.30000007153,"correct":true,"confidence":3},{"trial_n":31,"min":81,"max":174,"target":"absent","response":"absent","rt":2883,"correct":true,"confidence":4},{"trial_n":32,"min":83,"max":172,"target":"present","response":"present","rt":781.80000007153,"correct":true,"confidence":4},{"trial_n":33,"min":83,"max":172,"target":"absent","response":"absent","rt":770.39999997616,"correct":true,"confidence":4},{"trial_n":34,"min":85,"max":170,"target":"absent","response":"absent","rt":972.39999997616,"correct":true,"confidence":3},{"trial_n":35,"min":85,"max":170,"target":"present","response":"absent","rt":1188.5,"correct":false,"confidence":3},{"trial_n":36,"min":83,"max":172,"target":"present","response":"absent","rt":1206,"correct":false,"confidence":3},{"trial_n":37,"min":81,"max":174,"target":"absent","response":"absent","rt":970.09999990463,"correct":true,"confidence":4},{"trial_n":38,"min":81,"max":174,"target":"present","response":"present","rt":3289,"correct":true,"confidence":4},{"trial_n":39,"min":83,"max":172,"target":"absent","response":"absent","rt":1093.1000000238,"correct":true,"confidence":4},{"trial_n":40,"min":83,"max":172,"target":"absent","response":"absent","rt":740.69999992847,"correct":true,"confidence":4},{"trial_n":41,"min":84,"max":171,"target":"absent","response":"absent","rt":1158.7999999523,"correct":true,"confidence":4},{"trial_n":42,"min":84,"max":171,"target":"present","response":"absent","rt":1658.7000000477,"correct":false,"confidence":2},{"trial_n":43,"min":83,"max":172,"target":"present","response":"present","rt":742,"correct":true,"confidence":4},{"trial_n":44,"min":83,"max":172,"target":"absent","response":"absent","rt":1128.3999999762,"correct":true,"confidence":4},{"trial_n":45,"min":84,"max":171,"target":"present","response":"present","rt":949.20000004768,"correct":true,"confidence":3},{"trial_n":46,"min":84,"max":171,"target":"present","response":"absent","rt":897.60000002384,"correct":false,"confidence":4},{"trial_n":47,"min":83,"max":172,"target":"absent","response":"absent","rt":708.5,"correct":true,"confidence":4},{"trial_n":48,"min":83,"max":172,"target":"present","response":"present","rt":1638.7000000477,"correct":true,"confidence":3},{"trial_n":49,"min":84,"max":171,"target":"absent","response":"absent","rt":728.5,"correct":true,"confidence":3},{"trial_n":50,"min":84,"max":171,"target":"present","response":"absent","rt":795.79999995232,"correct":false,"confidence":3},{"trial_n":51,"min":83,"max":172,"target":"present","response":"present","rt":878.89999997616,"correct":true,"confidence":4},{"trial_n":52,"min":83,"max":172,"target":"present","response":"present","rt":946.19999992847,"correct":true,"confidence":5},{"trial_n":53,"min":84,"max":171,"target":"present","response":"present","rt":1315,"correct":true,"confidence":3},{"trial_n":54,"min":84,"max":171,"target":"absent","response":"absent","rt":2936.6999999285,"correct":true,"confidence":4},{"trial_n":55,"min":85,"max":170,"target":"absent","response":"absent","rt":1064.6000000238,"correct":true,"confidence":3},{"trial_n":56,"min":85,"max":170,"target":"absent","response":"present","rt":815.5,"correct":false,"confidence":3},{"trial_n":57,"min":84,"max":171,"target":"present","response":"absent","rt":1224.2999999523,"correct":false,"confidence":5},{"trial_n":58,"min":83,"max":172,"target":"present","response":"absent","rt":1321.6000000238,"correct":false,"confidence":2},{"trial_n":59,"min":82,"max":173,"target":"present","response":"present","rt":737.40000009537,"correct":true,"confidence":5},{"trial_n":60,"min":82,"max":173,"target":"absent","response":"absent","rt":1202.2000000477,"correct":true,"confidence":3},{"trial_n":61,"min":83,"max":172,"target":"present","response":"present","rt":754.5,"correct":true,"confidence":5},{"trial_n":62,"min":83,"max":172,"target":"absent","response":"absent","rt":1356.6000000238,"correct":true,"confidence":4},{"trial_n":63,"min":84,"max":171,"target":"absent","response":"absent","rt":1011.2000000477,"correct":true,"confidence":4},{"trial_n":64,"min":84,"max":171,"target":"present","response":"present","rt":996.89999997616,"correct":true,"confidence":5},{"trial_n":65,"min":85,"max":170,"target":"present","response":"absent","rt":1493.6000000238,"correct":false,"confidence":4},{"trial_n":66,"min":84,"max":171,"target":"absent","response":"absent","rt":1184.5,"correct":true,"confidence":4},{"trial_n":67,"min":84,"max":171,"target":"absent","response":"absent","rt":856.29999995232,"correct":true,"confidence":4},{"trial_n":68,"min":85,"max":170,"target":"present","response":"absent","rt":879.29999995232,"correct":false,"confidence":3},{"trial_n":69,"min":84,"max":171,"target":"absent","response":"absent","rt":787.89999997616,"correct":true,"confidence":3},{"trial_n":70,"min":84,"max":171,"target":"present","response":"present","rt":1578.6000000238,"correct":true,"confidence":5},{"trial_n":71,"min":41,"max":214,"target":"present","response":"absent","rt":5706.1000000238,"correct":false,"confidence":-1},{"trial_n":72,"min":41,"max":214,"target":"present","response":"present","rt":967.29999995232,"correct":true,"confidence":-1},{"trial_n":73,"min":41,"max":214,"target":"absent","response":"absent","rt":737.20000004768,"correct":true,"confidence":-1},{"trial_n":74,"min":57,"max":198,"target":"absent","response":"absent","rt":748.89999997616,"correct":true,"confidence":-1},{"trial_n":75,"min":57,"max":198,"target":"present","response":"present","rt":775.80000007153,"correct":true,"confidence":-1},{"trial_n":76,"min":73,"max":182,"target":"absent","response":"absent","rt":1176,"correct":true,"confidence":-1},{"trial_n":77,"min":73,"max":182,"target":"absent","response":"present","rt":789.69999992847,"correct":false,"confidence":-1},{"trial_n":78,"min":57,"max":198,"target":"present","response":"present","rt":1331.5,"correct":true,"confidence":-1},{"trial_n":79,"min":57,"max":198,"target":"present","response":"present","rt":664.70000004768,"correct":true,"confidence":-1},{"trial_n":80,"min":73,"max":182,"target":"present","response":"present","rt":1017.7999999523,"correct":true,"confidence":-1},{"trial_n":81,"min":73,"max":182,"target":"present","response":"present","rt":621.80000007153,"correct":true,"confidence":-1},{"trial_n":82,"min":81,"max":174,"target":"absent","response":"absent","rt":882.10000002384,"correct":true,"confidence":-1},{"trial_n":83,"min":81,"max":174,"target":"present","response":"present","rt":577.70000004768,"correct":true,"confidence":-1},{"trial_n":84,"min":89,"max":166,"target":"present","response":"present","rt":1001.3999999762,"correct":true,"confidence":-1},{"trial_n":85,"min":89,"max":166,"target":"present","response":"present","rt":865.39999997616,"correct":true,"confidence":-1},{"trial_n":86,"min":97,"max":158,"target":"absent","response":"present","rt":1455.7000000477,"correct":false,"confidence":-1},{"trial_n":87,"min":89,"max":166,"target":"absent","response":"absent","rt":989.19999992847,"correct":true,"confidence":-1},{"trial_n":88,"min":89,"max":166,"target":"absent","response":"present","rt":1083.4000000954,"correct":false,"confidence":-1},{"trial_n":89,"min":81,"max":174,"target":"absent","response":"absent","rt":984.20000004768,"correct":true,"confidence":-1},{"trial_n":90,"min":81,"max":174,"target":"absent","response":"present","rt":1201.4000000954,"correct":false,"confidence":-1},{"trial_n":91,"min":77,"max":178,"target":"present","response":"present","rt":1414.3999999762,"correct":true,"confidence":3},{"trial_n":92,"min":77,"max":178,"target":"absent","response":"absent","rt":1214.3999999762,"correct":true,"confidence":5},{"trial_n":93,"min":81,"max":174,"target":"absent","response":"absent","rt":1771.1999999285,"correct":true,"confidence":4},{"trial_n":94,"min":81,"max":174,"target":"present","response":"present","rt":662.5,"correct":true,"confidence":4},{"trial_n":95,"min":85,"max":170,"target":"present","response":"absent","rt":2374,"correct":false,"confidence":2},{"trial_n":96,"min":81,"max":174,"target":"absent","response":"absent","rt":887.5,"correct":true,"confidence":3},{"trial_n":97,"min":81,"max":174,"target":"absent","response":"absent","rt":989.69999992847,"correct":true,"confidence":3},{"trial_n":98,"min":85,"max":170,"target":"present","response":"present","rt":998,"correct":true,"confidence":3},{"trial_n":99,"min":85,"max":170,"target":"present","response":"present","rt":1176,"correct":true,"confidence":5},{"trial_n":100,"min":89,"max":166,"target":"absent","response":"absent","rt":979.89999997616,"correct":true,"confidence":3},{"trial_n":101,"min":89,"max":166,"target":"present","response":"present","rt":698.29999995232,"correct":true,"confidence":4},{"trial_n":102,"min":91,"max":164,"target":"absent","response":"absent","rt":1404.2000000477,"correct":true,"confidence":4},{"trial_n":103,"min":91,"max":164,"target":"absent","response":"absent","rt":2009.7999999523,"correct":true,"confidence":2},{"trial_n":104,"min":93,"max":162,"target":"present","response":"absent","rt":1039,"correct":false,"confidence":3},{"trial_n":105,"min":91,"max":164,"target":"present","response":"present","rt":680.19999992847,"correct":true,"confidence":5},{"trial_n":106,"min":91,"max":164,"target":"present","response":"present","rt":1736.6999999285,"correct":true,"confidence":2},{"trial_n":107,"min":93,"max":162,"target":"present","response":"present","rt":764.79999995232,"correct":true,"confidence":3},{"trial_n":108,"min":93,"max":162,"target":"absent","response":"present","rt":1137.2999999523,"correct":false,"confidence":4},{"trial_n":109,"min":91,"max":164,"target":"present","response":"absent","rt":1168.5,"correct":false,"confidence":3},{"trial_n":110,"min":89,"max":166,"target":"absent","response":"absent","rt":811.5,"correct":true,"confidence":3},{"trial_n":111,"min":89,"max":166,"target":"present","response":"present","rt":1448.1000000238,"correct":true,"confidence":3},{"trial_n":112,"min":90,"max":165,"target":"present","response":"present","rt":1021.3000000715,"correct":true,"confidence":2},{"trial_n":113,"min":90,"max":165,"target":"absent","response":"present","rt":866.40000009537,"correct":false,"confidence":2},{"trial_n":114,"min":89,"max":166,"target":"present","response":"absent","rt":780.5,"correct":false,"confidence":3},{"trial_n":115,"min":88,"max":167,"target":"absent","response":"present","rt":908.59999990463,"correct":false,"confidence":3},{"trial_n":116,"min":87,"max":168,"target":"present","response":"present","rt":1072.3999999762,"correct":true,"confidence":2},{"trial_n":117,"min":87,"max":168,"target":"absent","response":"present","rt":952,"correct":false,"confidence":3},{"trial_n":118,"min":86,"max":169,"target":"present","response":"present","rt":1014.5999999046,"correct":true,"confidence":5},{"trial_n":119,"min":86,"max":169,"target":"absent","response":"absent","rt":776.5,"correct":true,"confidence":4},{"trial_n":120,"min":87,"max":168,"target":"present","response":"present","rt":1053.7000000477,"correct":true,"confidence":4},{"trial_n":121,"min":87,"max":168,"target":"present","response":"present","rt":610.40000009537,"correct":true,"confidence":5},{"trial_n":122,"min":88,"max":167,"target":"present","response":"present","rt":734.60000002384,"correct":true,"confidence":4},{"trial_n":123,"min":88,"max":167,"target":"present","response":"present","rt":728.60000002384,"correct":true,"confidence":3},{"trial_n":124,"min":89,"max":166,"target":"absent","response":"absent","rt":1619.7999999523,"correct":true,"confidence":3},{"trial_n":125,"min":89,"max":166,"target":"absent","response":"absent","rt":1043.6000000238,"correct":true,"confidence":3},{"trial_n":126,"min":90,"max":165,"target":"absent","response":"present","rt":1317.1000000238,"correct":false,"confidence":3},{"trial_n":127,"min":89,"max":166,"target":"present","response":"present","rt":875.69999992847,"correct":true,"confidence":4},{"trial_n":128,"min":89,"max":166,"target":"present","response":"present","rt":785.10000002384,"correct":true,"confidence":4},{"trial_n":129,"min":90,"max":165,"target":"absent","response":"present","rt":761.5,"correct":false,"confidence":2},{"trial_n":130,"min":89,"max":166,"target":"present","response":"absent","rt":854.79999995232,"correct":false,"confidence":2},{"trial_n":131,"min":88,"max":167,"target":"absent","response":"present","rt":661.79999995232,"correct":false,"confidence":4},{"trial_n":132,"min":87,"max":168,"target":"present","response":"present","rt":804,"correct":true,"confidence":2},{"trial_n":133,"min":87,"max":168,"target":"absent","response":"present","rt":751.80000007153,"correct":false,"confidence":4},{"trial_n":134,"min":86,"max":169,"target":"absent","response":"absent","rt":1146.6999999285,"correct":true,"confidence":4},{"trial_n":135,"min":86,"max":169,"target":"absent","response":"absent","rt":1328.2999999523,"correct":true,"confidence":3},{"trial_n":136,"min":87,"max":168,"target":"absent","response":"present","rt":728.60000002384,"correct":false,"confidence":3},{"trial_n":137,"min":86,"max":169,"target":"present","response":"present","rt":657.69999992847,"correct":true,"confidence":4},{"trial_n":138,"min":86,"max":169,"target":"absent","response":"absent","rt":1057.5,"correct":true,"confidence":5},{"trial_n":139,"min":87,"max":168,"target":"absent","response":"present","rt":1113.8999999762,"correct":false,"confidence":3},{"trial_n":140,"min":86,"max":169,"target":"present","response":"present","rt":795.10000002384,"correct":true,"confidence":2}]