[{"trial_n":1,"span":8,"encoder":"97808726","distractor":"97898726","target":"present","response":"present","rt":"2908","correct":true,"confidence":-1},{"trial_n":2,"span":8,"encoder":"25750793","distractor":"25750593","target":"present","response":"present","rt":"3813","correct":true,"confidence":-1},{"trial_n":3,"span":10,"encoder":"2195497360","distractor":"2195497363","target":"absent","response":"absent","rt":"2857","correct":true,"confidence":-1},{"trial_n":4,"span":10,"encoder":"3746987999","distractor":"3746957999","target":"absent","response":"absent","rt":"3258","correct":true,"confidence":-1},{"trial_n":5,"span":12,"encoder":"609421394229","distractor":"609422394229","target":"present","response":"present","rt":"2790","correct":true,"confidence":-1},{"trial_n":6,"span":12,"encoder":"227508082074","distractor":"227508782074","target":"absent","response":"absent","rt":"2449","correct":true,"confidence":-1},{"trial_n":7,"span":14,"encoder":"01873712372110","distractor":"01873612372110","target":"present","response":"present","rt":"1676","correct":true,"confidence":-1},{"trial_n":8,"span":14,"encoder":"49323223010943","distractor":"49343223010943","target":"present","response":"present","rt":"3117","correct":true,"confidence":-1},{"trial_n":9,"span":16,"encoder":"8007750813797807","distractor":"8007750813797887","target":"present","response":"absent","rt":"2059","correct":false,"confidence":-1},{"trial_n":10,"span":14,"encoder":"80988544771183","distractor":"80988542771183","target":"absent","response":"present","rt":"1791","correct":false,"confidence":-1},{"trial_n":11,"span":12,"encoder":"635920182993","distractor":"635920183993","target":"present","response":"present","rt":"4114","correct":true,"confidence":-1},{"trial_n":12,"span":12,"encoder":"910909623485","distractor":"910909623487","target":"absent","response":"present","rt":"7083","correct":false,"confidence":-1},{"trial_n":13,"span":11,"encoder":"43160594131","distractor":"43060594131","target":"absent","response":"present","rt":"1968","correct":false,"confidence":-1},{"trial_n":14,"span":10,"encoder":"7807739890","distractor":"7847739890","target":"absent","response":"absent","rt":"3861","correct":true,"confidence":-1},{"trial_n":15,"span":10,"encoder":"8741372762","distractor":"8541372762","target":"absent","response":"absent","rt":"5609","correct":true,"confidence":-1},{"trial_n":16,"span":11,"encoder":"20880541868","distractor":"20880141868","target":"present","response":"absent","rt":"5789","correct":false,"confidence":-1},{"trial_n":17,"span":10,"encoder":"0258571814","distractor":"0258571714","target":"present","response":"present","rt":"6600","correct":true,"confidence":-1},{"trial_n":18,"span":10,"encoder":"2235294015","distractor":"2237294015","target":"present","response":"present","rt":"7718","correct":true,"confidence":-1},{"trial_n":19,"span":11,"encoder":"11576131985","distractor":"11574131985","target":"absent","response":"absent","rt":"13223","correct":true,"confidence":-1},{"trial_n":20,"span":11,"encoder":"86117503536","distractor":"86187503536","target":"present","response":"present","rt":"13574","correct":true,"confidence":-1},{"trial_n":21,"span":12,"encoder":"163127304912","distractor":"163127305912","target":"absent","response":"absent","rt":"6635","correct":true,"confidence":3},{"trial_n":22,"span":12,"encoder":"264221256848","distractor":"264221256948","target":"present","response":"present","rt":"9634","correct":true,"confidence":4},{"trial_n":23,"span":13,"encoder":"9328113312186","distractor":"9328113312196","target":"absent","response":"present","rt":"10241","correct":false,"confidence":3},{"trial_n":24,"span":12,"encoder":"392986868904","distractor":"192986868904","target":"absent","response":"present","rt":"5107","correct":false,"confidence":3},{"trial_n":25,"span":11,"encoder":"19270167597","distractor":"19270167587","target":"present","response":"present","rt":"1420","correct":true,"confidence":3},{"trial_n":26,"span":11,"encoder":"24885035637","distractor":"24885035437","target":"present","response":"absent","rt":"3889","correct":false,"confidence":3},{"trial_n":27,"span":10,"encoder":"2982711090","distractor":"2987711090","target":"present","response":"present","rt":"4643","correct":true,"confidence":3},{"trial_n":28,"span":10,"encoder":"4486664511","distractor":"4286664511","target":"present","response":"present","rt":"2182.0000000001","correct":true,"confidence":3},{"trial_n":29,"span":11,"encoder":"41719199895","distractor":"11719199895","target":"absent","response":"absent","rt":"4207","correct":true,"confidence":4},{"trial_n":30,"span":11,"encoder":"75244269879","distractor":"79244269879","target":"present","response":"present","rt":"5005","correct":true,"confidence":3},{"trial_n":31,"span":12,"encoder":"858198426366","distractor":"858198426367","target":"present","response":"present","rt":"10839","correct":true,"confidence":3},{"trial_n":32,"span":12,"encoder":"353871063235","distractor":"353871963235","target":"absent","response":"absent","rt":"13380","correct":true,"confidence":3},{"trial_n":33,"span":13,"encoder":"3313798817026","distractor":"3313791817026","target":"present","response":"present","rt":"7527.9999999999","correct":true,"confidence":3},{"trial_n":34,"span":13,"encoder":"6421509479494","distractor":"6421609479494","target":"absent","response":"absent","rt":"15605","correct":true,"confidence":3},{"trial_n":35,"span":14,"encoder":"63049695710803","distractor":"63049895710803","target":"absent","response":"absent","rt":"12989","correct":true,"confidence":3},{"trial_n":36,"span":14,"encoder":"66498706444920","distractor":"86498706444920","target":"absent","response":"present","rt":"7982","correct":false,"confidence":2},{"trial_n":37,"span":13,"encoder":"4964216116177","distractor":"4764216116177","target":"absent","response":"present","rt":"3686","correct":false,"confidence":2},{"trial_n":38,"span":12,"encoder":"751797009430","distractor":"751797003430","target":"absent","response":"absent","rt":"16323","correct":true,"confidence":3},{"trial_n":39,"span":12,"encoder":"634844146856","distractor":"634844046856","target":"present","response":"present","rt":"3869","correct":true,"confidence":3},{"trial_n":40,"span":13,"encoder":"1943012262035","distractor":"7943012262035","target":"present","response":"present","rt":"6919.0000000001","correct":true,"confidence":3},{"trial_n":41,"span":13,"encoder":"7051077893137","distractor":"7061077893137","target":"present","response":"present","rt":"17748","correct":true,"confidence":3},{"trial_n":42,"span":14,"encoder":"73763027951880","distractor":"73763087951880","target":"absent","response":"present","rt":"37811","correct":false,"confidence":3},{"trial_n":43,"span":13,"encoder":"9634842198657","distractor":"9634862198657","target":"absent","response":"absent","rt":"11951","correct":true,"confidence":3},{"trial_n":44,"span":13,"encoder":"6528547000568","distractor":"6528547300568","target":"absent","response":"present","rt":"10008","correct":false,"confidence":4},{"trial_n":45,"span":12,"encoder":"749361207196","distractor":"749363207196","target":"absent","response":"absent","rt":"7793","correct":true,"confidence":2},{"trial_n":46,"span":12,"encoder":"865996965594","distractor":"065996965594","target":"absent","response":"absent","rt":"8072","correct":true,"confidence":4},{"trial_n":47,"span":13,"encoder":"2729999745941","distractor":"2529999745941","target":"present","response":"present","rt":"23497","correct":true,"confidence":3},{"trial_n":48,"span":13,"encoder":"1046610303292","distractor":"1046610306292","target":"present","response":"present","rt":"5676","correct":true,"confidence":4},{"trial_n":49,"span":14,"encoder":"41727869875938","distractor":"41727569875938","target":"absent","response":"absent","rt":"16471","correct":true,"confidence":4},{"trial_n":50,"span":14,"encoder":"48213041746298","distractor":"48213641746298","target":"absent","response":"absent","rt":"6120.0000000001","correct":true,"confidence":2},{"trial_n":51,"span":15,"encoder":"137399921748161","distractor":"137099921748161","target":"present","response":"present","rt":"7700.9999999999","correct":true,"confidence":4},{"trial_n":52,"span":15,"encoder":"734218335054416","distractor":"734218333054416","target":"present","response":"absent","rt":"11912","correct":false,"confidence":2},{"trial_n":53,"span":14,"encoder":"86823700553515","distractor":"86823700053515","target":"absent","response":"present","rt":"9594","correct":false,"confidence":3},{"trial_n":54,"span":13,"encoder":"6837119990726","distractor":"6837119990724","target":"absent","response":"absent","rt":"9736","correct":true,"confidence":3},{"trial_n":55,"span":13,"encoder":"8363786103273","distractor":"8393786103273","target":"present","response":"present","rt":"7480.0000000001","correct":true,"confidence":4},{"trial_n":56,"span":14,"encoder":"46552688789049","distractor":"46552688789249","target":"present","response":"present","rt":"8266","correct":true,"confidence":3},{"trial_n":57,"span":14,"encoder":"21845520862891","distractor":"21845520662891","target":"absent","response":"absent","rt":"7418","correct":true,"confidence":3},{"trial_n":58,"span":15,"encoder":"576510574044716","distractor":"576510574044719","target":"absent","response":"absent","rt":"3105","correct":true,"confidence":4},{"trial_n":59,"span":15,"encoder":"296571545686279","distractor":"296571535686279","target":"present","response":"present","rt":"6656.0000000002","correct":true,"confidence":3},{"trial_n":60,"span":16,"encoder":"0880512207212149","distractor":"0880512507212149","target":"present","response":"present","rt":"12579","correct":true,"confidence":3},{"trial_n":61,"span":16,"encoder":"5651076737587118","distractor":"5651076737587114","target":"absent","response":"absent","rt":"6033","correct":true,"confidence":3},{"trial_n":62,"span":17,"encoder":"90628463528959201","distractor":"92628463528959201","target":"present","response":"present","rt":"5607.9999999998","correct":true,"confidence":2},{"trial_n":63,"span":17,"encoder":"26113440946523792","distractor":"76113440946523792","target":"present","response":"present","rt":"8114","correct":true,"confidence":2},{"trial_n":64,"span":18,"encoder":"925618828121717838","distractor":"925618858121717838","target":"present","response":"present","rt":"9904","correct":true,"confidence":2},{"trial_n":65,"span":18,"encoder":"941897680789435092","distractor":"941897880789435092","target":"present","response":"present","rt":"14017","correct":true,"confidence":3},{"trial_n":66,"span":19,"encoder":"4204427378781368841","distractor":"4204428378781368841","target":"absent","response":"absent","rt":"27292","correct":true,"confidence":3},{"trial_n":67,"span":19,"encoder":"9085962474749594205","distractor":"9085962574749594205","target":"present","response":"present","rt":"6925","correct":true,"confidence":3},{"trial_n":68,"span":20,"encoder":"58398772204506659419","distractor":"58398772204596659419","target":"absent","response":"absent","rt":"5412","correct":true,"confidence":3},{"trial_n":69,"span":20,"encoder":"92914729239822088402","distractor":"92914729237822088402","target":"absent","response":"absent","rt":"9269","correct":true,"confidence":2},{"trial_n":70,"span":21,"encoder":"921502335483873786857","distractor":"922502335483873786857","target":"present","response":"present","rt":"3073","correct":true,"confidence":1},{"trial_n":71,"span":8,"encoder":"03785223","distractor":"03785228","target":"present","response":"present","rt":"2636","correct":true,"confidence":-1},{"trial_n":72,"span":8,"encoder":"38174082","distractor":"33174082","target":"present","response":"absent","rt":"5109","correct":false,"confidence":-1},{"trial_n":73,"span":7,"encoder":"5962719","distractor":"5962715","target":"absent","response":"absent","rt":"2308","correct":true,"confidence":-1},{"trial_n":74,"span":7,"encoder":"8666852","distractor":"8166852","target":"absent","response":"absent","rt":"1975","correct":true,"confidence":-1},{"trial_n":75,"span":8,"encoder":"98822576","distractor":"93822576","target":"present","response":"absent","rt":"2701.0000000002","correct":false,"confidence":-1},{"trial_n":76,"span":7,"encoder":"7754992","distractor":"7754092","target":"absent","response":"absent","rt":"3362.9999999995","correct":true,"confidence":-1},{"trial_n":77,"span":7,"encoder":"5262791","distractor":"4262791","target":"present","response":"present","rt":"2614","correct":true,"confidence":-1},{"trial_n":78,"span":8,"encoder":"58318484","distractor":"58418484","target":"present","response":"present","rt":"6435.9999999995","correct":true,"confidence":-1},{"trial_n":79,"span":8,"encoder":"19046038","distractor":"19066038","target":"present","response":"present","rt":"2998","correct":true,"confidence":-1},{"trial_n":80,"span":9,"encoder":"362097505","distractor":"364097505","target":"present","response":"absent","rt":"3760","correct":false,"confidence":-1},{"trial_n":81,"span":8,"encoder":"81427267","distractor":"81427277","target":"present","response":"present","rt":"2835","correct":true,"confidence":-1},{"trial_n":82,"span":8,"encoder":"21611500","distractor":"21616500","target":"absent","response":"present","rt":"4268","correct":false,"confidence":-1},{"trial_n":83,"span":7,"encoder":"5001023","distractor":"5071023","target":"absent","response":"absent","rt":"2606","correct":true,"confidence":-1},{"trial_n":84,"span":7,"encoder":"1341402","distractor":"1341472","target":"absent","response":"present","rt":"2260","correct":false,"confidence":-1},{"trial_n":85,"span":6,"encoder":"392612","distractor":"392618","target":"present","response":"absent","rt":"1950","correct":false,"confidence":-1},{"trial_n":86,"span":5,"encoder":"99501","distractor":"97501","target":"absent","response":"absent","rt":"2936","correct":true,"confidence":-1},{"trial_n":87,"span":5,"encoder":"79296","distractor":"49296","target":"absent","response":"absent","rt":"1091","correct":true,"confidence":-1},{"trial_n":88,"span":6,"encoder":"244065","distractor":"644065","target":"absent","response":"absent","rt":"2175","correct":true,"confidence":-1},{"trial_n":89,"span":6,"encoder":"155461","distractor":"155161","target":"absent","response":"absent","rt":"1791.9999999995","correct":true,"confidence":-1},{"trial_n":90,"span":7,"encoder":"2963442","distractor":"2663442","target":"absent","response":"absent","rt":"1535","correct":true,"confidence":-1},{"trial_n":91,"span":7,"encoder":"9535815","distractor":"9535810","target":"absent","response":"absent","rt":"1616.9999999995","correct":true,"confidence":4},{"trial_n":92,"span":8,"encoder":"81958755","distractor":"81958751","target":"present","response":"present","rt":"4984","correct":true,"confidence":3},{"trial_n":93,"span":8,"encoder":"82371917","distractor":"82371717","target":"present","response":"present","rt":"4234.9999999995","correct":true,"confidence":3},{"trial_n":94,"span":9,"encoder":"930876272","distractor":"960876272","target":"present","response":"present","rt":"2982","correct":true,"confidence":3},{"trial_n":95,"span":9,"encoder":"529818957","distractor":"529828957","target":"present","response":"present","rt":"3696","correct":true,"confidence":3},{"trial_n":96,"span":10,"encoder":"7123503298","distractor":"7133503298","target":"absent","response":"present","rt":"5578","correct":false,"confidence":2},{"trial_n":97,"span":9,"encoder":"624801433","distractor":"624801423","target":"present","response":"absent","rt":"4394","correct":false,"confidence":2},{"trial_n":98,"span":8,"encoder":"60108220","distractor":"60102220","target":"present","response":"present","rt":"6300.0000000005","correct":true,"confidence":2},{"trial_n":99,"span":8,"encoder":"26837464","distractor":"26737464","target":"absent","response":"absent","rt":"3011","correct":true,"confidence":4},{"trial_n":100,"span":9,"encoder":"661923488","distractor":"661926488","target":"present","response":"present","rt":"4039.9999999995","correct":true,"confidence":4},{"trial_n":101,"span":9,"encoder":"167472957","distractor":"167472907","target":"absent","response":"absent","rt":"3662.0000000298","correct":true,"confidence":3},{"trial_n":102,"span":10,"encoder":"9437770545","distractor":"9437779545","target":"absent","response":"absent","rt":"2856","correct":true,"confidence":3},{"trial_n":103,"span":10,"encoder":"7908938828","distractor":"7608938828","target":"absent","response":"absent","rt":"5648","correct":true,"confidence":2},{"trial_n":104,"span":11,"encoder":"73065183825","distractor":"73065183895","target":"absent","response":"absent","rt":"4060","correct":true,"confidence":4},{"trial_n":105,"span":11,"encoder":"16557545030","distractor":"16557595030","target":"absent","response":"absent","rt":"8526","correct":true,"confidence":4},{"trial_n":106,"span":12,"encoder":"541121695553","distractor":"541161695553","target":"present","response":"present","rt":"2769","correct":true,"confidence":4},{"trial_n":107,"span":12,"encoder":"374351249195","distractor":"374351549195","target":"present","response":"absent","rt":"6779","correct":false,"confidence":2},{"trial_n":108,"span":11,"encoder":"47703650840","distractor":"47703654840","target":"present","response":"present","rt":"6957","correct":true,"confidence":1},{"trial_n":109,"span":11,"encoder":"49815568848","distractor":"79815568848","target":"absent","response":"absent","rt":"7818","correct":true,"confidence":3},{"trial_n":110,"span":12,"encoder":"839560873125","distractor":"839560853125","target":"absent","response":"absent","rt":"3819","correct":true,"confidence":4},{"trial_n":111,"span":12,"encoder":"227457420488","distractor":"221457420488","target":"present","response":"present","rt":"5831","correct":true,"confidence":3},{"trial_n":112,"span":13,"encoder":"6767286892480","distractor":"6762286892480","target":"absent","response":"absent","rt":"2493","correct":true,"confidence":5},{"trial_n":113,"span":13,"encoder":"9736352823155","distractor":"9736352723155","target":"present","response":"present","rt":"5453","correct":true,"confidence":4},{"trial_n":114,"span":14,"encoder":"16404997236980","distractor":"16404197236980","target":"absent","response":"absent","rt":"11085","correct":true,"confidence":3},{"trial_n":115,"span":14,"encoder":"18937374802250","distractor":"18937374805250","target":"present","response":"absent","rt":"10134","correct":false,"confidence":1},{"trial_n":116,"span":13,"encoder":"5214465815616","distractor":"5514465815616","target":"present","response":"absent","rt":"17387","correct":false,"confidence":2},{"trial_n":117,"span":12,"encoder":"878386216814","distractor":"878386216819","target":"present","response":"present","rt":"3217.0000000298","correct":true,"confidence":5},{"trial_n":118,"span":12,"encoder":"324801702246","distractor":"324501702246","target":"present","response":"present","rt":"4705","correct":true,"confidence":2},{"trial_n":119,"span":13,"encoder":"7896852063657","distractor":"7896852063656","target":"present","response":"present","rt":"2099","correct":true,"confidence":5},{"trial_n":120,"span":13,"encoder":"7077448792935","distractor":"7077448792931","target":"absent","response":"absent","rt":"2016","correct":true,"confidence":5},{"trial_n":121,"span":14,"encoder":"71953038441599","distractor":"71953038441593","target":"absent","response":"absent","rt":"5368","correct":true,"confidence":5},{"trial_n":122,"span":14,"encoder":"14784214488699","distractor":"14484214488699","target":"present","response":"absent","rt":"5031","correct":false,"confidence":1},{"trial_n":123,"span":13,"encoder":"7900721836878","distractor":"7500721836878","target":"absent","response":"absent","rt":"2949","correct":true,"confidence":1},{"trial_n":124,"span":13,"encoder":"9592863829793","distractor":"9572863829793","target":"present","response":"absent","rt":"4618","correct":false,"confidence":3},{"trial_n":125,"span":12,"encoder":"698584173590","distractor":"698584176590","target":"absent","response":"absent","rt":"6563","correct":true,"confidence":4},{"trial_n":126,"span":12,"encoder":"294602037039","distractor":"294604037039","target":"present","response":"present","rt":"5774","correct":true,"confidence":3},{"trial_n":127,"span":13,"encoder":"1213456367406","distractor":"1210456367406","target":"absent","response":"present","rt":"8134","correct":false,"confidence":1},{"trial_n":128,"span":12,"encoder":"609315370627","distractor":"609915370627","target":"absent","response":"absent","rt":"6847","correct":true,"confidence":4},{"trial_n":129,"span":12,"encoder":"033973283771","distractor":"033773283771","target":"present","response":"present","rt":"9085.9999999702","correct":true,"confidence":2},{"trial_n":130,"span":13,"encoder":"7048686390668","distractor":"7048666390668","target":"present","response":"present","rt":"9175","correct":true,"confidence":4},{"trial_n":131,"span":13,"encoder":"2135137643429","distractor":"2535137643429","target":"present","response":"present","rt":"12911","correct":true,"confidence":4},{"trial_n":132,"span":14,"encoder":"14069373266095","distractor":"14069373266075","target":"present","response":"present","rt":"4394","correct":true,"confidence":1},{"trial_n":133,"span":14,"encoder":"64926982636437","distractor":"64426982636437","target":"absent","response":"absent","rt":"5356","correct":true,"confidence":2},{"trial_n":134,"span":15,"encoder":"907512840981009","distractor":"907572840981009","target":"absent","response":"present","rt":"7165","correct":false,"confidence":2},{"trial_n":135,"span":14,"encoder":"66419188420244","distractor":"66419188427244","target":"present","response":"absent","rt":"3945.9999999702","correct":false,"confidence":2},{"trial_n":136,"span":13,"encoder":"9012993479127","distractor":"9012993179127","target":"present","response":"present","rt":"4443.9999999702","correct":true,"confidence":3},{"trial_n":137,"span":13,"encoder":"7253404191591","distractor":"7253404131591","target":"absent","response":"absent","rt":"6105","correct":true,"confidence":4},{"trial_n":138,"span":14,"encoder":"47338243884329","distractor":"47338243984329","target":"absent","response":"absent","rt":"3719","correct":true,"confidence":4},{"trial_n":139,"span":14,"encoder":"22352470466656","distractor":"22352470446656","target":"absent","response":"present","rt":"5900","correct":false,"confidence":3},{"trial_n":140,"span":13,"encoder":"0278793842636","distractor":"0288793842636","target":"present","response":"present","rt":"5646.0000000298","correct":true,"confidence":3}]