[{"trial_n":1,"n_dots":4.25,"target":"left","response":"left","rt":7159.6999998093,"correct":true,"confidence":-1},{"trial_n":2,"n_dots":4.25,"target":"right","response":"right","rt":989.7000002861,"correct":true,"confidence":-1},{"trial_n":3,"n_dots":3.85,"target":"left","response":"left","rt":551,"correct":true,"confidence":-1},{"trial_n":4,"n_dots":3.85,"target":"right","response":"right","rt":722.90000009537,"correct":true,"confidence":-1},{"trial_n":5,"n_dots":3.45,"target":"right","response":"right","rt":793.19999980927,"correct":true,"confidence":-1},{"trial_n":6,"n_dots":3.45,"target":"right","response":"right","rt":454.5,"correct":true,"confidence":-1},{"trial_n":7,"n_dots":3.05,"target":"right","response":"right","rt":278.40000009537,"correct":true,"confidence":-1},{"trial_n":8,"n_dots":3.05,"target":"right","response":"right","rt":566,"correct":true,"confidence":-1},{"trial_n":9,"n_dots":2.85,"target":"right","response":"left","rt":643,"correct":false,"confidence":-1},{"trial_n":10,"n_dots":3.05,"target":"left","response":"left","rt":269.59999990463,"correct":true,"confidence":-1},{"trial_n":11,"n_dots":3.05,"target":"left","response":"left","rt":27,"correct":true,"confidence":-1},{"trial_n":12,"n_dots":2.85,"target":"left","response":"left","rt":644.59999990463,"correct":true,"confidence":-1},{"trial_n":13,"n_dots":2.85,"target":"right","response":"right","rt":39.900000095367,"correct":true,"confidence":-1},{"trial_n":14,"n_dots":2.75,"target":"right","response":"right","rt":2191.1999998093,"correct":true,"confidence":-1},{"trial_n":15,"n_dots":2.75,"target":"right","response":"right","rt":421,"correct":true,"confidence":-1},{"trial_n":16,"n_dots":2.65,"target":"left","response":"left","rt":376.40000009537,"correct":true,"confidence":-1},{"trial_n":17,"n_dots":2.65,"target":"left","response":"right","rt":591.30000019073,"correct":false,"confidence":-1},{"trial_n":18,"n_dots":2.75,"target":"right","response":"right","rt":171.10000038147,"correct":true,"confidence":-1},{"trial_n":19,"n_dots":2.75,"target":"left","response":"right","rt":205.90000009537,"correct":false,"confidence":-1},{"trial_n":20,"n_dots":2.85,"target":"right","response":"left","rt":597.69999980927,"correct":false,"confidence":-1},{"trial_n":21,"n_dots":2.95,"target":"left","response":"right","rt":426,"correct":false,"confidence":4},{"trial_n":22,"n_dots":3.05,"target":"right","response":"right","rt":1573.1000003815,"correct":true,"confidence":3},{"trial_n":23,"n_dots":3.05,"target":"left","response":"right","rt":886.7999997139,"correct":false,"confidence":3},{"trial_n":24,"n_dots":3.15,"target":"left","response":"left","rt":866.69999980927,"correct":true,"confidence":2},{"trial_n":25,"n_dots":3.15,"target":"right","response":"right","rt":961.2000002861,"correct":true,"confidence":4},{"trial_n":26,"n_dots":3.05,"target":"left","response":"left","rt":956.59999990463,"correct":true,"confidence":2},{"trial_n":27,"n_dots":3.05,"target":"left","response":"right","rt":871.30000019073,"correct":false,"confidence":3},{"trial_n":28,"n_dots":3.15,"target":"left","response":"right","rt":1753,"correct":false,"confidence":3},{"trial_n":29,"n_dots":3.25,"target":"left","response":"left","rt":1649.5,"correct":true,"confidence":2},{"trial_n":30,"n_dots":3.25,"target":"right","response":"right","rt":916.90000009537,"correct":true,"confidence":4},{"trial_n":31,"n_dots":3.15,"target":"left","response":"right","rt":573.7000002861,"correct":false,"confidence":4},{"trial_n":32,"n_dots":3.25,"target":"right","response":"right","rt":449.69999980927,"correct":true,"confidence":4},{"trial_n":33,"n_dots":3.25,"target":"right","response":"right","rt":860.69999980927,"correct":true,"confidence":4},{"trial_n":34,"n_dots":3.15,"target":"right","response":"right","rt":360.90000009537,"correct":true,"confidence":4},{"trial_n":35,"n_dots":3.15,"target":"left","response":"left","rt":891.59999990463,"correct":true,"confidence":3},{"trial_n":36,"n_dots":3.05,"target":"left","response":"right","rt":474.40000009537,"correct":false,"confidence":3},{"trial_n":37,"n_dots":3.15,"target":"right","response":"right","rt":627.59999990463,"correct":true,"confidence":3},{"trial_n":38,"n_dots":3.15,"target":"right","response":"right","rt":331.40000009537,"correct":true,"confidence":3},{"trial_n":39,"n_dots":3.05,"target":"right","response":"right","rt":721.09999990463,"correct":true,"confidence":3},{"trial_n":40,"n_dots":3.05,"target":"right","response":"right","rt":1056.0999999046,"correct":true,"confidence":3},{"trial_n":41,"n_dots":2.95,"target":"left","response":"right","rt":431.59999990463,"correct":false,"confidence":3},{"trial_n":42,"n_dots":3.05,"target":"right","response":"right","rt":884.2999997139,"correct":true,"confidence":2},{"trial_n":43,"n_dots":3.05,"target":"right","response":"right","rt":627.7999997139,"correct":true,"confidence":3},{"trial_n":44,"n_dots":2.95,"target":"right","response":"right","rt":982.19999980927,"correct":true,"confidence":3},{"trial_n":45,"n_dots":2.95,"target":"left","response":"left","rt":719.19999980927,"correct":true,"confidence":3},{"trial_n":46,"n_dots":2.85,"target":"left","response":"left","rt":869.09999990463,"correct":true,"confidence":3},{"trial_n":47,"n_dots":2.85,"target":"right","response":"right","rt":421.90000009537,"correct":true,"confidence":3},{"trial_n":48,"n_dots":2.75,"target":"right","response":"right","rt":355.80000019073,"correct":true,"confidence":3},{"trial_n":49,"n_dots":2.75,"target":"right","response":"right","rt":724.30000019073,"correct":true,"confidence":3},{"trial_n":50,"n_dots":2.65,"target":"right","response":"right","rt":2457.9000000954,"correct":true,"confidence":2},{"trial_n":51,"n_dots":2.65,"target":"left","response":"right","rt":1115.1999998093,"correct":false,"confidence":4},{"trial_n":52,"n_dots":2.75,"target":"left","response":"left","rt":1937.4000000954,"correct":true,"confidence":2},{"trial_n":53,"n_dots":2.75,"target":"left","response":"left","rt":1232.4000000954,"correct":true,"confidence":2},{"trial_n":54,"n_dots":2.65,"target":"left","response":"right","rt":1945.0999999046,"correct":false,"confidence":2},{"trial_n":55,"n_dots":2.75,"target":"right","response":"left","rt":1937,"correct":false,"confidence":3},{"trial_n":56,"n_dots":2.85,"target":"right","response":"right","rt":1151.7000002861,"correct":true,"confidence":3},{"trial_n":57,"n_dots":2.85,"target":"right","response":"right","rt":1074.7999997139,"correct":true,"confidence":4},{"trial_n":58,"n_dots":2.75,"target":"left","response":"right","rt":677,"correct":false,"confidence":4},{"trial_n":59,"n_dots":2.85,"target":"right","response":"left","rt":607.90000009537,"correct":false,"confidence":3},{"trial_n":60,"n_dots":2.95,"target":"right","response":"right","rt":586,"correct":true,"confidence":3},{"trial_n":61,"n_dots":2.95,"target":"right","response":"right","rt":730.19999980927,"correct":true,"confidence":3},{"trial_n":62,"n_dots":2.85,"target":"left","response":"left","rt":401.19999980927,"correct":true,"confidence":3},{"trial_n":63,"n_dots":2.85,"target":"right","response":"right","rt":767,"correct":true,"confidence":3},{"trial_n":64,"n_dots":2.75,"target":"left","response":"left","rt":781.39999961853,"correct":true,"confidence":2},{"trial_n":65,"n_dots":2.75,"target":"left","response":"left","rt":206.09999990463,"correct":true,"confidence":2},{"trial_n":66,"n_dots":2.65,"target":"right","response":"left","rt":619.2000002861,"correct":false,"confidence":2},{"trial_n":67,"n_dots":2.75,"target":"left","response":"right","rt":535.59999990463,"correct":false,"confidence":3},{"trial_n":68,"n_dots":2.85,"target":"left","response":"left","rt":449.5,"correct":true,"confidence":2},{"trial_n":69,"n_dots":2.85,"target":"right","response":"left","rt":1004.2999997139,"correct":false,"confidence":3},{"trial_n":70,"n_dots":2.95,"target":"right","response":"right","rt":156.40000009537,"correct":true,"confidence":4},{"trial_n":71,"n_dots":2.95,"target":"left","response":"left","rt":628.90000009537,"correct":true,"confidence":4},{"trial_n":72,"n_dots":2.85,"target":"left","response":"right","rt":1979.2000002861,"correct":false,"confidence":3},{"trial_n":73,"n_dots":2.95,"target":"left","response":"left","rt":1197.1999998093,"correct":true,"confidence":2},{"trial_n":74,"n_dots":2.95,"target":"left","response":"left","rt":894.60000038147,"correct":true,"confidence":2},{"trial_n":75,"n_dots":2.85,"target":"right","response":"right","rt":13.900000095367,"correct":true,"confidence":3},{"trial_n":76,"n_dots":2.85,"target":"right","response":"right","rt":1467.2999997139,"correct":true,"confidence":3},{"trial_n":77,"n_dots":2.75,"target":"left","response":"right","rt":1080.6000003815,"correct":false,"confidence":3},{"trial_n":78,"n_dots":2.85,"target":"right","response":"left","rt":1560.0999999046,"correct":false,"confidence":3},{"trial_n":79,"n_dots":2.95,"target":"right","response":"left","rt":1210.6999998093,"correct":false,"confidence":2},{"trial_n":80,"n_dots":3.05,"target":"left","response":"right","rt":793.69999980927,"correct":false,"confidence":3},{"trial_n":81,"n_dots":3.15,"target":"right","response":"left","rt":1528,"correct":false,"confidence":2},{"trial_n":82,"n_dots":3.25,"target":"right","response":"left","rt":864.80000019073,"correct":false,"confidence":2},{"trial_n":83,"n_dots":3.35,"target":"left","response":"right","rt":1155.9000000954,"correct":false,"confidence":3},{"trial_n":84,"n_dots":3.45,"target":"left","response":"right","rt":639.5,"correct":false,"confidence":3},{"trial_n":85,"n_dots":3.55,"target":"right","response":"right","rt":624.2999997139,"correct":true,"confidence":3},{"trial_n":86,"n_dots":3.55,"target":"left","response":"left","rt":404.39999961853,"correct":true,"confidence":3},{"trial_n":87,"n_dots":3.45,"target":"right","response":"left","rt":2190.7999997139,"correct":false,"confidence":3},{"trial_n":88,"n_dots":3.55,"target":"left","response":"right","rt":570.80000019073,"correct":false,"confidence":3},{"trial_n":89,"n_dots":3.65,"target":"left","response":"left","rt":315.7000002861,"correct":true,"confidence":2},{"trial_n":90,"n_dots":3.65,"target":"left","response":"left","rt":506.19999980927,"correct":true,"confidence":2},{"trial_n":91,"n_dots":3.55,"target":"left","response":"left","rt":234,"correct":true,"confidence":3},{"trial_n":92,"n_dots":3.55,"target":"right","response":"right","rt":720.80000019073,"correct":true,"confidence":3},{"trial_n":93,"n_dots":3.45,"target":"left","response":"left","rt":921.2999997139,"correct":true,"confidence":2},{"trial_n":94,"n_dots":3.45,"target":"left","response":"left","rt":865.80000019073,"correct":true,"confidence":2},{"trial_n":95,"n_dots":3.35,"target":"right","response":"right","rt":75.299999713898,"correct":true,"confidence":3},{"trial_n":96,"n_dots":3.35,"target":"left","response":"left","rt":1002,"correct":true,"confidence":2},{"trial_n":97,"n_dots":3.25,"target":"right","response":"right","rt":923.40000009537,"correct":true,"confidence":3},{"trial_n":98,"n_dots":3.25,"target":"right","response":"right","rt":650.80000019073,"correct":true,"confidence":3},{"trial_n":99,"n_dots":3.15,"target":"left","response":"right","rt":659.09999990463,"correct":false,"confidence":3},{"trial_n":100,"n_dots":3.25,"target":"right","response":"left","rt":944.90000009537,"correct":false,"confidence":3},{"trial_n":101,"n_dots":3.35,"target":"left","response":"right","rt":1175,"correct":false,"confidence":3},{"trial_n":102,"n_dots":3.45,"target":"right","response":"right","rt":456.90000009537,"correct":true,"confidence":3},{"trial_n":103,"n_dots":3.45,"target":"left","response":"left","rt":345.90000009537,"correct":true,"confidence":2},{"trial_n":104,"n_dots":3.35,"target":"right","response":"right","rt":563.7000002861,"correct":true,"confidence":3},{"trial_n":105,"n_dots":3.35,"target":"right","response":"right","rt":727.59999990463,"correct":true,"confidence":4},{"trial_n":106,"n_dots":3.25,"target":"left","response":"right","rt":529,"correct":false,"confidence":4},{"trial_n":107,"n_dots":3.35,"target":"left","response":"left","rt":355.5,"correct":true,"confidence":3},{"trial_n":108,"n_dots":3.35,"target":"right","response":"right","rt":891.69999980927,"correct":true,"confidence":3},{"trial_n":109,"n_dots":3.25,"target":"left","response":"left","rt":841.2999997139,"correct":true,"confidence":2},{"trial_n":110,"n_dots":3.25,"target":"left","response":"right","rt":1182.9000000954,"correct":false,"confidence":2},{"trial_n":111,"n_dots":3.35,"target":"right","response":"right","rt":892.90000009537,"correct":true,"confidence":3},{"trial_n":112,"n_dots":3.35,"target":"left","response":"right","rt":1123.9000000954,"correct":false,"confidence":3},{"trial_n":113,"n_dots":3.45,"target":"left","response":"left","rt":839.30000019073,"correct":true,"confidence":3},{"trial_n":114,"n_dots":3.45,"target":"right","response":"right","rt":1723.7999997139,"correct":true,"confidence":3},{"trial_n":115,"n_dots":3.35,"target":"left","response":"right","rt":603.2999997139,"correct":false,"confidence":3},{"trial_n":116,"n_dots":3.45,"target":"left","response":"left","rt":1537,"correct":true,"confidence":2},{"trial_n":117,"n_dots":3.45,"target":"left","response":"left","rt":317.19999980927,"correct":true,"confidence":2},{"trial_n":118,"n_dots":3.35,"target":"right","response":"right","rt":584.19999980927,"correct":true,"confidence":3},{"trial_n":119,"n_dots":3.35,"target":"left","response":"left","rt":472.80000019073,"correct":true,"confidence":3},{"trial_n":120,"n_dots":3.25,"target":"right","response":"left","rt":803.5,"correct":false,"confidence":3}]