[{"trial_n":1,"min":25,"max":230,"target":"present","response":"present","rt":6355,"correct":true,"confidence":-1},{"trial_n":2,"min":25,"max":230,"target":"present","response":"present","rt":1429,"correct":true,"confidence":-1},{"trial_n":3,"min":41,"max":214,"target":"absent","response":"absent","rt":1106,"correct":true,"confidence":-1},{"trial_n":4,"min":41,"max":214,"target":"absent","response":"absent","rt":441.99999999999,"correct":true,"confidence":-1},{"trial_n":5,"min":57,"max":198,"target":"present","response":"present","rt":917.99999999999,"correct":true,"confidence":-1},{"trial_n":6,"min":57,"max":198,"target":"absent","response":"absent","rt":991,"correct":true,"confidence":-1},{"trial_n":7,"min":73,"max":182,"target":"present","response":"present","rt":822,"correct":true,"confidence":-1},{"trial_n":8,"min":73,"max":182,"target":"present","response":"absent","rt":1267,"correct":false,"confidence":-1},{"trial_n":9,"min":57,"max":198,"target":"absent","response":"absent","rt":391,"correct":true,"confidence":-1},{"trial_n":10,"min":57,"max":198,"target":"absent","response":"absent","rt":412,"correct":true,"confidence":-1},{"trial_n":11,"min":65,"max":190,"target":"present","response":"absent","rt":543,"correct":false,"confidence":-1},{"trial_n":12,"min":57,"max":198,"target":"present","response":"present","rt":804,"correct":true,"confidence":-1},{"trial_n":13,"min":57,"max":198,"target":"absent","response":"absent","rt":766,"correct":true,"confidence":-1},{"trial_n":14,"min":65,"max":190,"target":"present","response":"present","rt":668,"correct":true,"confidence":-1},{"trial_n":15,"min":65,"max":190,"target":"absent","response":"absent","rt":715,"correct":true,"confidence":-1},{"trial_n":16,"min":73,"max":182,"target":"present","response":"present","rt":708,"correct":true,"confidence":-1},{"trial_n":17,"min":73,"max":182,"target":"present","response":"present","rt":765,"correct":true,"confidence":-1},{"trial_n":18,"min":81,"max":174,"target":"present","response":"absent","rt":602,"correct":false,"confidence":-1},{"trial_n":19,"min":73,"max":182,"target":"present","response":"present","rt":1157,"correct":true,"confidence":-1},{"trial_n":20,"min":73,"max":182,"target":"present","response":"present","rt":464,"correct":true,"confidence":-1},{"trial_n":21,"min":77,"max":178,"target":"absent","response":"absent","rt":923.99999999999,"correct":true,"confidence":3},{"trial_n":22,"min":77,"max":178,"target":"present","response":"present","rt":979,"correct":true,"confidence":5},{"trial_n":23,"min":81,"max":174,"target":"absent","response":"absent","rt":1135,"correct":true,"confidence":3},{"trial_n":24,"min":81,"max":174,"target":"present","response":"present","rt":981,"correct":true,"confidence":4},{"trial_n":25,"min":85,"max":170,"target":"absent","response":"absent","rt":1123,"correct":true,"confidence":2},{"trial_n":26,"min":85,"max":170,"target":"present","response":"absent","rt":1597,"correct":false,"confidence":3},{"trial_n":27,"min":81,"max":174,"target":"present","response":"present","rt":783.99999999999,"correct":true,"confidence":4},{"trial_n":28,"min":81,"max":174,"target":"absent","response":"absent","rt":1011,"correct":true,"confidence":4},{"trial_n":29,"min":85,"max":170,"target":"present","response":"absent","rt":1767,"correct":false,"confidence":2},{"trial_n":30,"min":81,"max":174,"target":"absent","response":"absent","rt":3073,"correct":true,"confidence":2},{"trial_n":31,"min":81,"max":174,"target":"absent","response":"absent","rt":1059,"correct":true,"confidence":3},{"trial_n":32,"min":83,"max":172,"target":"absent","response":"absent","rt":1003,"correct":true,"confidence":3},{"trial_n":33,"min":83,"max":172,"target":"present","response":"present","rt":726,"correct":true,"confidence":3},{"trial_n":34,"min":85,"max":170,"target":"present","response":"present","rt":758,"correct":true,"confidence":4},{"trial_n":35,"min":85,"max":170,"target":"absent","response":"absent","rt":724,"correct":true,"confidence":3},{"trial_n":36,"min":87,"max":168,"target":"absent","response":"absent","rt":741,"correct":true,"confidence":2},{"trial_n":37,"min":87,"max":168,"target":"absent","response":"absent","rt":1065,"correct":true,"confidence":3},{"trial_n":38,"min":89,"max":166,"target":"absent","response":"absent","rt":1123,"correct":true,"confidence":2},{"trial_n":39,"min":89,"max":166,"target":"absent","response":"present","rt":646.00000000003,"correct":false,"confidence":3},{"trial_n":40,"min":87,"max":168,"target":"present","response":"present","rt":669,"correct":true,"confidence":3},{"trial_n":41,"min":87,"max":168,"target":"absent","response":"absent","rt":655,"correct":true,"confidence":3},{"trial_n":42,"min":88,"max":167,"target":"absent","response":"absent","rt":769.99999999997,"correct":true,"confidence":3},{"trial_n":43,"min":88,"max":167,"target":"absent","response":"absent","rt":731.00000000003,"correct":true,"confidence":4},{"trial_n":44,"min":89,"max":166,"target":"present","response":"present","rt":699.00000000003,"correct":true,"confidence":3},{"trial_n":45,"min":89,"max":166,"target":"absent","response":"absent","rt":836,"correct":true,"confidence":3},{"trial_n":46,"min":90,"max":165,"target":"present","response":"absent","rt":1186,"correct":false,"confidence":3},{"trial_n":47,"min":89,"max":166,"target":"absent","response":"absent","rt":1640,"correct":true,"confidence":2},{"trial_n":48,"min":89,"max":166,"target":"present","response":"present","rt":719,"correct":true,"confidence":2},{"trial_n":49,"min":90,"max":165,"target":"present","response":"absent","rt":850,"correct":false,"confidence":3},{"trial_n":50,"min":89,"max":166,"target":"absent","response":"absent","rt":804,"correct":true,"confidence":3},{"trial_n":51,"min":89,"max":166,"target":"absent","response":"absent","rt":693,"correct":true,"confidence":3},{"trial_n":52,"min":90,"max":165,"target":"present","response":"present","rt":703.00000000003,"correct":true,"confidence":4},{"trial_n":53,"min":90,"max":165,"target":"absent","response":"absent","rt":1143,"correct":true,"confidence":3},{"trial_n":54,"min":91,"max":164,"target":"absent","response":"absent","rt":1013,"correct":true,"confidence":3},{"trial_n":55,"min":91,"max":164,"target":"absent","response":"absent","rt":1521,"correct":true,"confidence":3},{"trial_n":56,"min":92,"max":163,"target":"present","response":"absent","rt":583.99999999997,"correct":false,"confidence":3},{"trial_n":57,"min":91,"max":164,"target":"absent","response":"absent","rt":1460,"correct":true,"confidence":3},{"trial_n":58,"min":91,"max":164,"target":"absent","response":"present","rt":630,"correct":false,"confidence":4},{"trial_n":59,"min":90,"max":165,"target":"present","response":"absent","rt":607.99999999997,"correct":false,"confidence":3},{"trial_n":60,"min":89,"max":166,"target":"present","response":"present","rt":881,"correct":true,"confidence":4},{"trial_n":61,"min":89,"max":166,"target":"present","response":"present","rt":1319,"correct":true,"confidence":4},{"trial_n":62,"min":90,"max":165,"target":"present","response":"present","rt":2684,"correct":true,"confidence":4},{"trial_n":63,"min":90,"max":165,"target":"present","response":"present","rt":1111,"correct":true,"confidence":3},{"trial_n":64,"min":91,"max":164,"target":"present","response":"present","rt":926,"correct":true,"confidence":3},{"trial_n":65,"min":91,"max":164,"target":"absent","response":"absent","rt":785,"correct":true,"confidence":3},{"trial_n":66,"min":92,"max":163,"target":"absent","response":"absent","rt":775,"correct":true,"confidence":2},{"trial_n":67,"min":92,"max":163,"target":"present","response":"absent","rt":5311,"correct":false,"confidence":3},{"trial_n":68,"min":91,"max":164,"target":"present","response":"present","rt":1052,"correct":true,"confidence":3},{"trial_n":69,"min":91,"max":164,"target":"present","response":"present","rt":1260,"correct":true,"confidence":4},{"trial_n":70,"min":92,"max":163,"target":"absent","response":"present","rt":1503,"correct":false,"confidence":2},{"trial_n":71,"min":41,"max":214,"target":"present","response":"absent","rt":5497.9999999999,"correct":false,"confidence":-1},{"trial_n":72,"min":41,"max":214,"target":"present","response":"present","rt":1185,"correct":true,"confidence":-1},{"trial_n":73,"min":41,"max":214,"target":"absent","response":"absent","rt":789,"correct":true,"confidence":-1},{"trial_n":74,"min":57,"max":198,"target":"absent","response":"absent","rt":386,"correct":true,"confidence":-1},{"trial_n":75,"min":57,"max":198,"target":"present","response":"absent","rt":517,"correct":false,"confidence":-1},{"trial_n":76,"min":41,"max":214,"target":"absent","response":"absent","rt":304,"correct":true,"confidence":-1},{"trial_n":77,"min":41,"max":214,"target":"absent","response":"absent","rt":483,"correct":true,"confidence":-1},{"trial_n":78,"min":57,"max":198,"target":"absent","response":"absent","rt":384,"correct":true,"confidence":-1},{"trial_n":79,"min":57,"max":198,"target":"absent","response":"absent","rt":264,"correct":true,"confidence":-1},{"trial_n":80,"min":73,"max":182,"target":"present","response":"absent","rt":315,"correct":false,"confidence":-1},{"trial_n":81,"min":65,"max":190,"target":"absent","response":"absent","rt":594,"correct":true,"confidence":-1},{"trial_n":82,"min":65,"max":190,"target":"absent","response":"absent","rt":1050,"correct":true,"confidence":-1},{"trial_n":83,"min":73,"max":182,"target":"present","response":"present","rt":307,"correct":true,"confidence":-1},{"trial_n":84,"min":73,"max":182,"target":"present","response":"present","rt":587,"correct":true,"confidence":-1},{"trial_n":85,"min":81,"max":174,"target":"present","response":"present","rt":1178,"correct":true,"confidence":-1},{"trial_n":86,"min":81,"max":174,"target":"absent","response":"present","rt":489,"correct":false,"confidence":-1},{"trial_n":87,"min":73,"max":182,"target":"present","response":"present","rt":756,"correct":true,"confidence":-1},{"trial_n":88,"min":73,"max":182,"target":"absent","response":"absent","rt":374,"correct":true,"confidence":-1},{"trial_n":89,"min":81,"max":174,"target":"absent","response":"absent","rt":943,"correct":true,"confidence":-1},{"trial_n":90,"min":81,"max":174,"target":"absent","response":"absent","rt":1284,"correct":true,"confidence":-1},{"trial_n":91,"min":85,"max":170,"target":"present","response":"present","rt":4051.9999999999,"correct":true,"confidence":3},{"trial_n":92,"min":85,"max":170,"target":"absent","response":"absent","rt":1053,"correct":true,"confidence":3},{"trial_n":93,"min":89,"max":166,"target":"present","response":"absent","rt":3045,"correct":false,"confidence":2},{"trial_n":94,"min":85,"max":170,"target":"absent","response":"present","rt":1089,"correct":false,"confidence":2},{"trial_n":95,"min":81,"max":174,"target":"absent","response":"absent","rt":950,"correct":true,"confidence":3},{"trial_n":96,"min":81,"max":174,"target":"present","response":"present","rt":941,"correct":true,"confidence":3},{"trial_n":97,"min":85,"max":170,"target":"present","response":"present","rt":1312,"correct":true,"confidence":4},{"trial_n":98,"min":85,"max":170,"target":"absent","response":"absent","rt":910,"correct":true,"confidence":3},{"trial_n":99,"min":89,"max":166,"target":"present","response":"present","rt":1320.9999999999,"correct":true,"confidence":3},{"trial_n":100,"min":89,"max":166,"target":"absent","response":"absent","rt":992,"correct":true,"confidence":3},{"trial_n":101,"min":91,"max":164,"target":"present","response":"present","rt":816,"correct":true,"confidence":4},{"trial_n":102,"min":91,"max":164,"target":"absent","response":"absent","rt":717,"correct":true,"confidence":4},{"trial_n":103,"min":93,"max":162,"target":"present","response":"present","rt":963,"correct":true,"confidence":3},{"trial_n":104,"min":93,"max":162,"target":"present","response":"present","rt":794.00000000006,"correct":true,"confidence":3},{"trial_n":105,"min":95,"max":160,"target":"absent","response":"absent","rt":747.99999999994,"correct":true,"confidence":3},{"trial_n":106,"min":95,"max":160,"target":"absent","response":"present","rt":804,"correct":false,"confidence":4},{"trial_n":107,"min":93,"max":162,"target":"present","response":"present","rt":788,"correct":true,"confidence":3},{"trial_n":108,"min":93,"max":162,"target":"present","response":"present","rt":907,"correct":true,"confidence":3},{"trial_n":109,"min":95,"max":160,"target":"present","response":"present","rt":1578,"correct":true,"confidence":3},{"trial_n":110,"min":95,"max":160,"target":"present","response":"present","rt":766.99999999994,"correct":true,"confidence":3},{"trial_n":111,"min":96,"max":159,"target":"absent","response":"present","rt":792,"correct":false,"confidence":3},{"trial_n":112,"min":95,"max":160,"target":"present","response":"present","rt":2612,"correct":true,"confidence":3},{"trial_n":113,"min":95,"max":160,"target":"present","response":"absent","rt":673,"correct":false,"confidence":3},{"trial_n":114,"min":94,"max":161,"target":"present","response":"present","rt":745.99999999994,"correct":true,"confidence":3},{"trial_n":115,"min":94,"max":161,"target":"absent","response":"absent","rt":718,"correct":true,"confidence":3},{"trial_n":116,"min":95,"max":160,"target":"absent","response":"absent","rt":788.99999999994,"correct":true,"confidence":4},{"trial_n":117,"min":95,"max":160,"target":"present","response":"present","rt":1174,"correct":true,"confidence":3},{"trial_n":118,"min":96,"max":159,"target":"absent","response":"present","rt":1569,"correct":false,"confidence":2},{"trial_n":119,"min":95,"max":160,"target":"present","response":"present","rt":752,"correct":true,"confidence":2},{"trial_n":120,"min":95,"max":160,"target":"present","response":"absent","rt":1055,"correct":false,"confidence":3},{"trial_n":121,"min":94,"max":161,"target":"present","response":"present","rt":1272,"correct":true,"confidence":3},{"trial_n":122,"min":94,"max":161,"target":"absent","response":"present","rt":1519,"correct":false,"confidence":3},{"trial_n":123,"min":93,"max":162,"target":"present","response":"present","rt":1028,"correct":true,"confidence":3},{"trial_n":124,"min":93,"max":162,"target":"absent","response":"absent","rt":875,"correct":true,"confidence":2},{"trial_n":125,"min":94,"max":161,"target":"present","response":"absent","rt":1078,"correct":false,"confidence":2},{"trial_n":126,"min":93,"max":162,"target":"present","response":"present","rt":910,"correct":true,"confidence":3},{"trial_n":127,"min":93,"max":162,"target":"present","response":"present","rt":1024,"correct":true,"confidence":2},{"trial_n":128,"min":94,"max":161,"target":"present","response":"absent","rt":1009,"correct":false,"confidence":3},{"trial_n":129,"min":93,"max":162,"target":"present","response":"present","rt":893,"correct":true,"confidence":3},{"trial_n":130,"min":93,"max":162,"target":"absent","response":"present","rt":1124,"correct":false,"confidence":2},{"trial_n":131,"min":92,"max":163,"target":"absent","response":"present","rt":947.99999999994,"correct":false,"confidence":2},{"trial_n":132,"min":91,"max":164,"target":"absent","response":"absent","rt":875.99999999994,"correct":true,"confidence":3},{"trial_n":133,"min":91,"max":164,"target":"absent","response":"absent","rt":829,"correct":true,"confidence":3},{"trial_n":134,"min":92,"max":163,"target":"present","response":"present","rt":709,"correct":true,"confidence":4},{"trial_n":135,"min":92,"max":163,"target":"present","response":"present","rt":1034,"correct":true,"confidence":3},{"trial_n":136,"min":93,"max":162,"target":"absent","response":"present","rt":739,"correct":false,"confidence":3},{"trial_n":137,"min":92,"max":163,"target":"absent","response":"absent","rt":1715,"correct":true,"confidence":1},{"trial_n":138,"min":92,"max":163,"target":"absent","response":"absent","rt":932,"correct":true,"confidence":2},{"trial_n":139,"min":93,"max":162,"target":"present","response":"present","rt":856,"correct":true,"confidence":3},{"trial_n":140,"min":93,"max":162,"target":"absent","response":"absent","rt":1995,"correct":true,"confidence":3}]