[{"trial_n":1,"span":8,"encoder":"24473842","distractor":"24473342","target":"present","response":"present","rt":"3984.7000002861","correct":true,"confidence":-1},{"trial_n":2,"span":8,"encoder":"94634559","distractor":"94634556","target":"present","response":"present","rt":"1082","correct":true,"confidence":-1},{"trial_n":3,"span":10,"encoder":"5429707485","distractor":"5429787485","target":"absent","response":"absent","rt":"3173.8000001907","correct":true,"confidence":-1},{"trial_n":4,"span":10,"encoder":"3191731027","distractor":"5191731027","target":"absent","response":"present","rt":"2027.4000000954","correct":false,"confidence":-1},{"trial_n":5,"span":8,"encoder":"23210867","distractor":"23210847","target":"present","response":"present","rt":"964.7000002861","correct":true,"confidence":-1},{"trial_n":6,"span":8,"encoder":"14903254","distractor":"14993254","target":"absent","response":"present","rt":"1142","correct":false,"confidence":-1},{"trial_n":7,"span":6,"encoder":"149038","distractor":"149036","target":"present","response":"present","rt":"1019.9000000954","correct":true,"confidence":-1},{"trial_n":8,"span":6,"encoder":"670605","distractor":"670625","target":"absent","response":"present","rt":"2032.3999996185","correct":false,"confidence":-1},{"trial_n":9,"span":4,"encoder":"0198","distractor":"0498","target":"absent","response":"present","rt":"1459.3000001907","correct":false,"confidence":-1},{"trial_n":10,"span":2,"encoder":"14","distractor":"13","target":"absent","response":"absent","rt":"2015.5999999046","correct":true,"confidence":-1},{"trial_n":11,"span":2,"encoder":"53","distractor":"43","target":"absent","response":"absent","rt":"1849.8999996185","correct":true,"confidence":-1},{"trial_n":12,"span":3,"encoder":"416","distractor":"436","target":"absent","response":"absent","rt":"1967.0999999046","correct":true,"confidence":-1},{"trial_n":13,"span":3,"encoder":"237","distractor":"337","target":"present","response":"present","rt":"1201.3000001907","correct":true,"confidence":-1},{"trial_n":14,"span":4,"encoder":"2497","distractor":"2297","target":"absent","response":"absent","rt":"1868.1000003815","correct":true,"confidence":-1},{"trial_n":15,"span":4,"encoder":"4633","distractor":"8633","target":"absent","response":"absent","rt":"2248.9000000954","correct":true,"confidence":-1},{"trial_n":16,"span":5,"encoder":"31110","distractor":"31114","target":"present","response":"present","rt":"1762.3000001907","correct":true,"confidence":-1},{"trial_n":17,"span":5,"encoder":"09305","distractor":"09307","target":"absent","response":"absent","rt":"1529.6999998093","correct":true,"confidence":-1},{"trial_n":18,"span":6,"encoder":"650197","distractor":"650177","target":"absent","response":"absent","rt":"2257.9000000954","correct":true,"confidence":-1},{"trial_n":19,"span":6,"encoder":"230713","distractor":"230613","target":"absent","response":"absent","rt":"2416.5999999046","correct":true,"confidence":-1},{"trial_n":20,"span":7,"encoder":"5092363","distractor":"5072363","target":"present","response":"present","rt":"2160.2000002861","correct":true,"confidence":-1},{"trial_n":21,"span":7,"encoder":"1304130","distractor":"1307130","target":"present","response":"present","rt":"2199.7999997139","correct":true,"confidence":4},{"trial_n":22,"span":8,"encoder":"41820412","distractor":"41820492","target":"present","response":"absent","rt":"3296.8000001907","correct":false,"confidence":2},{"trial_n":23,"span":7,"encoder":"8080403","distractor":"8087403","target":"present","response":"present","rt":"2769.5999999046","correct":true,"confidence":5},{"trial_n":24,"span":7,"encoder":"3882125","distractor":"3882145","target":"absent","response":"absent","rt":"3136.9000000954","correct":true,"confidence":3},{"trial_n":25,"span":8,"encoder":"39218733","distractor":"39228733","target":"present","response":"present","rt":"2922.4000000954","correct":true,"confidence":3},{"trial_n":26,"span":8,"encoder":"74573961","distractor":"77573961","target":"absent","response":"absent","rt":"1709.0999999046","correct":true,"confidence":3},{"trial_n":27,"span":9,"encoder":"727081753","distractor":"727081751","target":"present","response":"present","rt":"3362.9000000954","correct":true,"confidence":3},{"trial_n":28,"span":9,"encoder":"817597832","distractor":"817497832","target":"present","response":"present","rt":"1964.0999999046","correct":true,"confidence":3},{"trial_n":29,"span":10,"encoder":"2978402965","distractor":"2978402935","target":"absent","response":"present","rt":"3451.2999997139","correct":false,"confidence":4},{"trial_n":30,"span":9,"encoder":"371918591","distractor":"371918598","target":"present","response":"absent","rt":"2842.1999998093","correct":false,"confidence":2},{"trial_n":31,"span":8,"encoder":"62228871","distractor":"42228871","target":"present","response":"present","rt":"2648.3000001907","correct":true,"confidence":4},{"trial_n":32,"span":8,"encoder":"36689291","distractor":"36686291","target":"present","response":"present","rt":"3292","correct":true,"confidence":4},{"trial_n":33,"span":9,"encoder":"632299297","distractor":"637299297","target":"present","response":"present","rt":"3177.6999998093","correct":true,"confidence":5},{"trial_n":34,"span":9,"encoder":"915358894","distractor":"915358854","target":"present","response":"present","rt":"2910.6000003815","correct":true,"confidence":3},{"trial_n":35,"span":10,"encoder":"3077496411","distractor":"3077496461","target":"present","response":"absent","rt":"3463.4000000954","correct":false,"confidence":2},{"trial_n":36,"span":9,"encoder":"956639627","distractor":"956639527","target":"absent","response":"present","rt":"5868.5999999046","correct":false,"confidence":2},{"trial_n":37,"span":8,"encoder":"39978586","distractor":"39978386","target":"absent","response":"absent","rt":"3548.3000001907","correct":true,"confidence":3},{"trial_n":38,"span":8,"encoder":"96491423","distractor":"96491428","target":"absent","response":"absent","rt":"2970.3000001907","correct":true,"confidence":3},{"trial_n":39,"span":9,"encoder":"118258626","distractor":"118258426","target":"absent","response":"present","rt":"3516.6999998093","correct":false,"confidence":3},{"trial_n":40,"span":8,"encoder":"83671867","distractor":"83672867","target":"absent","response":"absent","rt":"2719.9000000954","correct":true,"confidence":4},{"trial_n":41,"span":8,"encoder":"58993782","distractor":"58993752","target":"absent","response":"absent","rt":"2711.0999999046","correct":true,"confidence":3},{"trial_n":42,"span":9,"encoder":"303201496","distractor":"303201490","target":"present","response":"present","rt":"3779.9000000954","correct":true,"confidence":2},{"trial_n":43,"span":9,"encoder":"996223300","distractor":"996227300","target":"absent","response":"present","rt":"3430.5999999046","correct":false,"confidence":3},{"trial_n":44,"span":8,"encoder":"25079695","distractor":"55079695","target":"absent","response":"absent","rt":"2233.1999998093","correct":true,"confidence":4},{"trial_n":45,"span":8,"encoder":"81027004","distractor":"84027004","target":"absent","response":"absent","rt":"3240.2999997139","correct":true,"confidence":3},{"trial_n":46,"span":9,"encoder":"283981031","distractor":"263981031","target":"absent","response":"present","rt":"2235.3000001907","correct":false,"confidence":2},{"trial_n":47,"span":8,"encoder":"86105706","distractor":"86105606","target":"present","response":"present","rt":"3043.5","correct":true,"confidence":3},{"trial_n":48,"span":8,"encoder":"21343785","distractor":"21343685","target":"present","response":"present","rt":"3154.2000002861","correct":true,"confidence":3},{"trial_n":49,"span":9,"encoder":"326463874","distractor":"326463274","target":"absent","response":"absent","rt":"4501.3000001907","correct":true,"confidence":2},{"trial_n":50,"span":9,"encoder":"276683732","distractor":"276683738","target":"present","response":"present","rt":"4410.1999998093","correct":true,"confidence":2},{"trial_n":51,"span":10,"encoder":"4446078013","distractor":"3446078013","target":"present","response":"absent","rt":"3488.2000002861","correct":false,"confidence":2},{"trial_n":52,"span":9,"encoder":"264077817","distractor":"264077847","target":"present","response":"present","rt":"3200.9000000954","correct":true,"confidence":3},{"trial_n":53,"span":9,"encoder":"350843674","distractor":"350843664","target":"absent","response":"present","rt":"3939.6000003815","correct":false,"confidence":3},{"trial_n":54,"span":8,"encoder":"81233624","distractor":"81233224","target":"present","response":"present","rt":"2376.9000000954","correct":true,"confidence":3},{"trial_n":55,"span":8,"encoder":"82976993","distractor":"80976993","target":"absent","response":"present","rt":"2520.0999999046","correct":false,"confidence":2},{"trial_n":56,"span":7,"encoder":"5086109","distractor":"5086100","target":"absent","response":"absent","rt":"2157.0999999046","correct":true,"confidence":5},{"trial_n":57,"span":7,"encoder":"2493107","distractor":"2493105","target":"present","response":"present","rt":"3634.5","correct":true,"confidence":5},{"trial_n":58,"span":8,"encoder":"57362899","distractor":"57362199","target":"present","response":"present","rt":"3557.6999998093","correct":true,"confidence":3},{"trial_n":59,"span":8,"encoder":"36754235","distractor":"36754255","target":"present","response":"absent","rt":"3439.5","correct":false,"confidence":2},{"trial_n":60,"span":7,"encoder":"2264427","distractor":"7264427","target":"present","response":"present","rt":"2962","correct":true,"confidence":3},{"trial_n":61,"span":7,"encoder":"4847223","distractor":"4807223","target":"absent","response":"absent","rt":"2083.4000000954","correct":true,"confidence":5},{"trial_n":62,"span":8,"encoder":"22402183","distractor":"12402183","target":"present","response":"absent","rt":"2517.6000003815","correct":false,"confidence":3},{"trial_n":63,"span":7,"encoder":"8260561","distractor":"8210561","target":"absent","response":"absent","rt":"2624.7000002861","correct":true,"confidence":4},{"trial_n":64,"span":7,"encoder":"6549896","distractor":"4549896","target":"absent","response":"absent","rt":"2712.3000001907","correct":true,"confidence":2},{"trial_n":65,"span":8,"encoder":"72354070","distractor":"72054070","target":"present","response":"present","rt":"3150.4000000954","correct":true,"confidence":4},{"trial_n":66,"span":8,"encoder":"12888486","distractor":"12888886","target":"present","response":"present","rt":"2919.9000000954","correct":true,"confidence":3},{"trial_n":67,"span":9,"encoder":"112215062","distractor":"142215062","target":"present","response":"present","rt":"2857.3000001907","correct":true,"confidence":3},{"trial_n":68,"span":9,"encoder":"583523792","distractor":"573523792","target":"absent","response":"absent","rt":"2741","correct":true,"confidence":2},{"trial_n":69,"span":10,"encoder":"4292493651","distractor":"4292497651","target":"present","response":"present","rt":"4498.1999998093","correct":true,"confidence":3},{"trial_n":70,"span":10,"encoder":"7215110331","distractor":"7215110391","target":"present","response":"present","rt":"2220.7000002861","correct":true,"confidence":3},{"trial_n":71,"span":8,"encoder":"35153557","distractor":"34153557","target":"present","response":"present","rt":"4102.7999997139","correct":true,"confidence":-1},{"trial_n":72,"span":8,"encoder":"86840300","distractor":"86870300","target":"present","response":"present","rt":"5755.8000001907","correct":true,"confidence":-1},{"trial_n":73,"span":9,"encoder":"771780374","distractor":"771780324","target":"absent","response":"absent","rt":"5548.1000003815","correct":true,"confidence":-1},{"trial_n":74,"span":9,"encoder":"421954558","distractor":"427954558","target":"absent","response":"absent","rt":"4645.5","correct":true,"confidence":-1},{"trial_n":75,"span":10,"encoder":"1090421122","distractor":"1090429122","target":"present","response":"absent","rt":"2581","correct":false,"confidence":-1},{"trial_n":76,"span":9,"encoder":"931780241","distractor":"930780241","target":"absent","response":"absent","rt":"5105.5999999046","correct":true,"confidence":-1},{"trial_n":77,"span":9,"encoder":"858259773","distractor":"858859773","target":"present","response":"present","rt":"4179","correct":true,"confidence":-1},{"trial_n":78,"span":10,"encoder":"7031114451","distractor":"7031114453","target":"absent","response":"absent","rt":"6110.1999998093","correct":true,"confidence":-1},{"trial_n":79,"span":10,"encoder":"4134795760","distractor":"4134095760","target":"absent","response":"present","rt":"4112.5","correct":false,"confidence":-1},{"trial_n":80,"span":9,"encoder":"287274012","distractor":"227274012","target":"present","response":"present","rt":"4101.8000001907","correct":true,"confidence":-1},{"trial_n":81,"span":9,"encoder":"197854756","distractor":"197854456","target":"present","response":"present","rt":"5043","correct":true,"confidence":-1},{"trial_n":82,"span":10,"encoder":"0406529042","distractor":"0403529042","target":"present","response":"present","rt":"5150","correct":true,"confidence":-1},{"trial_n":83,"span":10,"encoder":"2131871124","distractor":"2131271124","target":"absent","response":"absent","rt":"4689.8000001907","correct":true,"confidence":-1},{"trial_n":84,"span":11,"encoder":"07686974440","distractor":"07686904440","target":"absent","response":"absent","rt":"3607.5","correct":true,"confidence":-1},{"trial_n":85,"span":11,"encoder":"41594794807","distractor":"41595794807","target":"absent","response":"present","rt":"5556.3000001907","correct":false,"confidence":-1},{"trial_n":86,"span":10,"encoder":"6320986981","distractor":"6320986581","target":"present","response":"present","rt":"4551.5999999046","correct":true,"confidence":-1},{"trial_n":87,"span":10,"encoder":"0812543377","distractor":"0812943377","target":"present","response":"absent","rt":"3851.4000000954","correct":false,"confidence":-1},{"trial_n":88,"span":9,"encoder":"311195615","distractor":"611195615","target":"absent","response":"present","rt":"5093.3999996185","correct":false,"confidence":-1},{"trial_n":89,"span":8,"encoder":"65319587","distractor":"65317587","target":"present","response":"present","rt":"5484","correct":true,"confidence":-1},{"trial_n":90,"span":8,"encoder":"28883714","distractor":"28873714","target":"absent","response":"absent","rt":"4838.7999997139","correct":true,"confidence":-1},{"trial_n":91,"span":9,"encoder":"427171461","distractor":"727171461","target":"absent","response":"absent","rt":"5401.7999997139","correct":true,"confidence":3},{"trial_n":92,"span":9,"encoder":"790451809","distractor":"790451209","target":"present","response":"present","rt":"4389.1999998093","correct":true,"confidence":4},{"trial_n":93,"span":10,"encoder":"7322241329","distractor":"7322291329","target":"present","response":"present","rt":"3526.5","correct":true,"confidence":4},{"trial_n":94,"span":10,"encoder":"0346397809","distractor":"0346197809","target":"absent","response":"absent","rt":"4745.4000000954","correct":true,"confidence":2},{"trial_n":95,"span":11,"encoder":"54406971196","distractor":"54406951196","target":"absent","response":"present","rt":"2735.0999999046","correct":false,"confidence":3},{"trial_n":96,"span":10,"encoder":"8006663788","distractor":"8006643788","target":"absent","response":"absent","rt":"6421","correct":true,"confidence":3},{"trial_n":97,"span":10,"encoder":"6313045129","distractor":"6313045199","target":"present","response":"absent","rt":"4694.5","correct":false,"confidence":2},{"trial_n":98,"span":9,"encoder":"606992336","distractor":"656992336","target":"present","response":"present","rt":"4251.3000001907","correct":true,"confidence":3},{"trial_n":99,"span":9,"encoder":"837192205","distractor":"837192705","target":"present","response":"present","rt":"3949.4000000954","correct":true,"confidence":4},{"trial_n":100,"span":10,"encoder":"8514623791","distractor":"8514624791","target":"present","response":"present","rt":"2994.5","correct":true,"confidence":4},{"trial_n":101,"span":10,"encoder":"6942577061","distractor":"6982577061","target":"present","response":"absent","rt":"4650.8999996185","correct":false,"confidence":3},{"trial_n":102,"span":9,"encoder":"243695147","distractor":"243695142","target":"absent","response":"absent","rt":"3692.9000000954","correct":true,"confidence":5},{"trial_n":103,"span":9,"encoder":"760084460","distractor":"769084460","target":"absent","response":"absent","rt":"4463.5","correct":true,"confidence":3},{"trial_n":104,"span":10,"encoder":"5763491907","distractor":"5763491903","target":"present","response":"absent","rt":"3917.9000000954","correct":false,"confidence":2},{"trial_n":105,"span":9,"encoder":"642020342","distractor":"642010342","target":"absent","response":"absent","rt":"3713.3000001907","correct":true,"confidence":3},{"trial_n":106,"span":9,"encoder":"856049133","distractor":"856049103","target":"present","response":"present","rt":"5267.2999997139","correct":true,"confidence":2},{"trial_n":107,"span":10,"encoder":"0992814899","distractor":"5992814899","target":"absent","response":"absent","rt":"4256.9000000954","correct":true,"confidence":3},{"trial_n":108,"span":10,"encoder":"3025835307","distractor":"8025835307","target":"absent","response":"absent","rt":"2320.4000000954","correct":true,"confidence":5},{"trial_n":109,"span":11,"encoder":"30842790732","distractor":"90842790732","target":"present","response":"present","rt":"1656.4000000954","correct":true,"confidence":5},{"trial_n":110,"span":11,"encoder":"77260946145","distractor":"70260946145","target":"absent","response":"absent","rt":"1567","correct":true,"confidence":5},{"trial_n":111,"span":12,"encoder":"621611853499","distractor":"621671853499","target":"absent","response":"present","rt":"6553.1999998093","correct":false,"confidence":2},{"trial_n":112,"span":11,"encoder":"52704451166","distractor":"52724451166","target":"present","response":"present","rt":"4996","correct":true,"confidence":3},{"trial_n":113,"span":11,"encoder":"33568829950","distractor":"33568829940","target":"present","response":"absent","rt":"3874.4000000954","correct":false,"confidence":2},{"trial_n":114,"span":10,"encoder":"2679635539","distractor":"2676635539","target":"present","response":"present","rt":"5283.3000001907","correct":true,"confidence":3},{"trial_n":115,"span":10,"encoder":"0001437192","distractor":"0001737192","target":"absent","response":"absent","rt":"2585.7000002861","correct":true,"confidence":5},{"trial_n":116,"span":11,"encoder":"48888542926","distractor":"48888542921","target":"present","response":"present","rt":"3257.5999999046","correct":true,"confidence":5},{"trial_n":117,"span":11,"encoder":"23227202912","distractor":"20227202912","target":"absent","response":"present","rt":"6464.6999998093","correct":false,"confidence":3},{"trial_n":118,"span":10,"encoder":"6423804088","distractor":"4423804088","target":"present","response":"present","rt":"2998.5999999046","correct":true,"confidence":3},{"trial_n":119,"span":10,"encoder":"2202715893","distractor":"7202715893","target":"present","response":"absent","rt":"7261","correct":false,"confidence":4},{"trial_n":120,"span":9,"encoder":"978549644","distractor":"978549344","target":"present","response":"present","rt":"4352.2999997139","correct":true,"confidence":2},{"trial_n":121,"span":9,"encoder":"429017053","distractor":"429017003","target":"present","response":"present","rt":"2642.1999998093","correct":true,"confidence":5},{"trial_n":122,"span":10,"encoder":"1283707482","distractor":"1283707480","target":"present","response":"present","rt":"4345.3000001907","correct":true,"confidence":4},{"trial_n":123,"span":10,"encoder":"5439175033","distractor":"5431175033","target":"absent","response":"absent","rt":"4388.2000002861","correct":true,"confidence":2},{"trial_n":124,"span":11,"encoder":"50405347629","distractor":"50405347929","target":"absent","response":"absent","rt":"6859.3999996185","correct":true,"confidence":3},{"trial_n":125,"span":11,"encoder":"33995935849","distractor":"33925935849","target":"absent","response":"absent","rt":"5836.7999997139","correct":true,"confidence":2},{"trial_n":126,"span":12,"encoder":"755164296826","distractor":"755164296825","target":"present","response":"present","rt":"5009.5999999046","correct":true,"confidence":3},{"trial_n":127,"span":12,"encoder":"528440863746","distractor":"528440843746","target":"present","response":"present","rt":"11949.900000095","correct":true,"confidence":3},{"trial_n":128,"span":13,"encoder":"2728838959118","distractor":"2728830959118","target":"present","response":"present","rt":"8964.6999998093","correct":true,"confidence":2},{"trial_n":129,"span":13,"encoder":"1139340592096","distractor":"1539340592096","target":"absent","response":"absent","rt":"5581.5","correct":true,"confidence":3},{"trial_n":130,"span":14,"encoder":"83978141456651","distractor":"83478141456651","target":"absent","response":"absent","rt":"6011.5999999046","correct":true,"confidence":2},{"trial_n":131,"span":14,"encoder":"51442636249126","distractor":"51443636249126","target":"absent","response":"present","rt":"8595.5","correct":false,"confidence":2},{"trial_n":132,"span":13,"encoder":"3381584343528","distractor":"3301584343528","target":"absent","response":"present","rt":"5814.8999996185","correct":false,"confidence":1},{"trial_n":133,"span":12,"encoder":"398361396531","distractor":"398361396541","target":"absent","response":"present","rt":"6428","correct":false,"confidence":1},{"trial_n":134,"span":11,"encoder":"58793011582","distractor":"58799011582","target":"absent","response":"absent","rt":"4698.3000001907","correct":true,"confidence":2},{"trial_n":135,"span":11,"encoder":"70262364374","distractor":"30262364374","target":"absent","response":"absent","rt":"5936.2000002861","correct":true,"confidence":2},{"trial_n":136,"span":12,"encoder":"216377388741","distractor":"266377388741","target":"present","response":"present","rt":"5317","correct":true,"confidence":1},{"trial_n":137,"span":12,"encoder":"591765790834","distractor":"891765790834","target":"present","response":"present","rt":"3393.9000000954","correct":true,"confidence":5},{"trial_n":138,"span":13,"encoder":"5217290026253","distractor":"5217250026253","target":"present","response":"present","rt":"3495.5","correct":true,"confidence":2},{"trial_n":139,"span":13,"encoder":"7564038619039","distractor":"7564438619039","target":"present","response":"present","rt":"3833.7000002861","correct":true,"confidence":1},{"trial_n":140,"span":14,"encoder":"11230905240014","distractor":"11230905240010","target":"absent","response":"present","rt":"5111.7000002861","correct":false,"confidence":2}]