[{"trial_n":1,"n_dots":4.25,"target":"left","response":"left","rt":2984.1000000238,"correct":true,"confidence":-1},{"trial_n":2,"n_dots":4.25,"target":"right","response":"right","rt":471.60000002384,"correct":true,"confidence":-1},{"trial_n":3,"n_dots":3.85,"target":"left","response":"left","rt":412.80000007153,"correct":true,"confidence":-1},{"trial_n":4,"n_dots":3.85,"target":"left","response":"right","rt":319.70000004768,"correct":false,"confidence":-1},{"trial_n":5,"n_dots":4.25,"target":"left","response":"left","rt":425,"correct":true,"confidence":-1},{"trial_n":6,"n_dots":4.25,"target":"left","response":"right","rt":380,"correct":false,"confidence":-1},{"trial_n":7,"n_dots":4.65,"target":"right","response":"right","rt":372,"correct":true,"confidence":-1},{"trial_n":8,"n_dots":4.65,"target":"right","response":"right","rt":417.29999995232,"correct":true,"confidence":-1},{"trial_n":9,"n_dots":4.45,"target":"left","response":"left","rt":431.70000004768,"correct":true,"confidence":-1},{"trial_n":10,"n_dots":4.45,"target":"right","response":"right","rt":1024.8999999762,"correct":true,"confidence":-1},{"trial_n":11,"n_dots":4.25,"target":"left","response":"right","rt":486,"correct":false,"confidence":-1},{"trial_n":12,"n_dots":4.45,"target":"right","response":"right","rt":230.60000002384,"correct":true,"confidence":-1},{"trial_n":13,"n_dots":4.45,"target":"right","response":"right","rt":525.39999997616,"correct":true,"confidence":-1},{"trial_n":14,"n_dots":4.35,"target":"left","response":"left","rt":590.89999997616,"correct":true,"confidence":-1},{"trial_n":15,"n_dots":4.35,"target":"left","response":"left","rt":465.69999992847,"correct":true,"confidence":-1},{"trial_n":16,"n_dots":4.25,"target":"left","response":"right","rt":592.39999997616,"correct":false,"confidence":-1},{"trial_n":17,"n_dots":4.35,"target":"right","response":"right","rt":353.60000002384,"correct":true,"confidence":-1},{"trial_n":18,"n_dots":4.35,"target":"right","response":"right","rt":374.19999992847,"correct":true,"confidence":-1},{"trial_n":19,"n_dots":4.25,"target":"left","response":"left","rt":306.19999992847,"correct":true,"confidence":-1},{"trial_n":20,"n_dots":4.25,"target":"right","response":"right","rt":293.20000004768,"correct":true,"confidence":-1},{"trial_n":21,"n_dots":4.15,"target":"left","response":"left","rt":398.5,"correct":true,"confidence":3},{"trial_n":22,"n_dots":4.15,"target":"left","response":"right","rt":583.20000004768,"correct":false,"confidence":4},{"trial_n":23,"n_dots":4.25,"target":"right","response":"right","rt":586.30000007153,"correct":true,"confidence":4},{"trial_n":24,"n_dots":4.25,"target":"left","response":"right","rt":3080,"correct":false,"confidence":2},{"trial_n":25,"n_dots":4.35,"target":"right","response":"right","rt":524.70000004768,"correct":true,"confidence":4},{"trial_n":26,"n_dots":4.35,"target":"right","response":"right","rt":990.5,"correct":true,"confidence":4},{"trial_n":27,"n_dots":4.25,"target":"left","response":"left","rt":517.39999997616,"correct":true,"confidence":4},{"trial_n":28,"n_dots":4.25,"target":"left","response":"right","rt":1083.7000000477,"correct":false,"confidence":3},{"trial_n":29,"n_dots":4.35,"target":"left","response":"left","rt":771.39999997616,"correct":true,"confidence":3},{"trial_n":30,"n_dots":4.35,"target":"left","response":"left","rt":629.60000002384,"correct":true,"confidence":4},{"trial_n":31,"n_dots":4.25,"target":"left","response":"right","rt":767.10000002384,"correct":false,"confidence":3},{"trial_n":32,"n_dots":4.35,"target":"left","response":"left","rt":501.79999995232,"correct":true,"confidence":3},{"trial_n":33,"n_dots":4.35,"target":"left","response":"left","rt":391.5,"correct":true,"confidence":4},{"trial_n":34,"n_dots":4.25,"target":"left","response":"right","rt":2260.3999999762,"correct":false,"confidence":2},{"trial_n":35,"n_dots":4.35,"target":"right","response":"right","rt":538.30000007153,"correct":true,"confidence":3},{"trial_n":36,"n_dots":4.35,"target":"right","response":"right","rt":538,"correct":true,"confidence":4},{"trial_n":37,"n_dots":4.25,"target":"right","response":"right","rt":709.89999997616,"correct":true,"confidence":4},{"trial_n":38,"n_dots":4.25,"target":"left","response":"left","rt":611.39999997616,"correct":true,"confidence":3},{"trial_n":39,"n_dots":4.15,"target":"right","response":"right","rt":488.39999997616,"correct":true,"confidence":4},{"trial_n":40,"n_dots":4.15,"target":"left","response":"left","rt":443.60000002384,"correct":true,"confidence":4},{"trial_n":41,"n_dots":4.05,"target":"right","response":"left","rt":545,"correct":false,"confidence":4},{"trial_n":42,"n_dots":4.15,"target":"left","response":"left","rt":446.60000002384,"correct":true,"confidence":3},{"trial_n":43,"n_dots":4.15,"target":"right","response":"right","rt":618.10000002384,"correct":true,"confidence":4},{"trial_n":44,"n_dots":4.05,"target":"right","response":"right","rt":570.59999990463,"correct":true,"confidence":4},{"trial_n":45,"n_dots":4.05,"target":"right","response":"right","rt":639.40000009537,"correct":true,"confidence":4},{"trial_n":46,"n_dots":3.95,"target":"right","response":"left","rt":603.39999997616,"correct":false,"confidence":3},{"trial_n":47,"n_dots":4.05,"target":"left","response":"left","rt":338.79999995232,"correct":true,"confidence":4},{"trial_n":48,"n_dots":4.05,"target":"left","response":"left","rt":331.79999995232,"correct":true,"confidence":3},{"trial_n":49,"n_dots":3.95,"target":"right","response":"right","rt":517.5,"correct":true,"confidence":3},{"trial_n":50,"n_dots":3.95,"target":"left","response":"left","rt":438.09999990463,"correct":true,"confidence":4},{"trial_n":51,"n_dots":3.85,"target":"right","response":"right","rt":696.69999992847,"correct":true,"confidence":4},{"trial_n":52,"n_dots":3.85,"target":"right","response":"right","rt":421.30000007153,"correct":true,"confidence":4},{"trial_n":53,"n_dots":3.75,"target":"left","response":"left","rt":501.39999997616,"correct":true,"confidence":3},{"trial_n":54,"n_dots":3.75,"target":"left","response":"left","rt":447.39999997616,"correct":true,"confidence":4},{"trial_n":55,"n_dots":3.65,"target":"right","response":"right","rt":382.10000002384,"correct":true,"confidence":4},{"trial_n":56,"n_dots":3.65,"target":"left","response":"left","rt":355.60000002384,"correct":true,"confidence":4},{"trial_n":57,"n_dots":3.55,"target":"left","response":"left","rt":698.90000009537,"correct":true,"confidence":4},{"trial_n":58,"n_dots":3.55,"target":"right","response":"right","rt":441.70000004768,"correct":true,"confidence":4},{"trial_n":59,"n_dots":3.45,"target":"left","response":"left","rt":393.89999997616,"correct":true,"confidence":4},{"trial_n":60,"n_dots":3.45,"target":"left","response":"left","rt":506.69999992847,"correct":true,"confidence":2},{"trial_n":61,"n_dots":3.35,"target":"left","response":"left","rt":123.39999997616,"correct":true,"confidence":4},{"trial_n":62,"n_dots":3.35,"target":"right","response":"right","rt":497.79999995232,"correct":true,"confidence":3},{"trial_n":63,"n_dots":3.25,"target":"left","response":"left","rt":467.29999995232,"correct":true,"confidence":4},{"trial_n":64,"n_dots":3.25,"target":"left","response":"left","rt":574.30000007153,"correct":true,"confidence":3},{"trial_n":65,"n_dots":3.15,"target":"right","response":"right","rt":448.30000007153,"correct":true,"confidence":4},{"trial_n":66,"n_dots":3.15,"target":"right","response":"right","rt":459.29999995232,"correct":true,"confidence":3},{"trial_n":67,"n_dots":3.05,"target":"left","response":"left","rt":604.20000004768,"correct":true,"confidence":2},{"trial_n":68,"n_dots":3.05,"target":"left","response":"left","rt":2579.9000000954,"correct":true,"confidence":2},{"trial_n":69,"n_dots":2.95,"target":"right","response":"right","rt":674.89999997616,"correct":true,"confidence":4},{"trial_n":70,"n_dots":2.95,"target":"right","response":"left","rt":418.69999992847,"correct":false,"confidence":4},{"trial_n":71,"n_dots":3.05,"target":"right","response":"left","rt":2097.5,"correct":false,"confidence":2},{"trial_n":72,"n_dots":3.15,"target":"right","response":"right","rt":575.5,"correct":true,"confidence":2},{"trial_n":73,"n_dots":3.15,"target":"left","response":"left","rt":1344.9000000954,"correct":true,"confidence":1},{"trial_n":74,"n_dots":3.05,"target":"right","response":"right","rt":421.29999995232,"correct":true,"confidence":4},{"trial_n":75,"n_dots":3.05,"target":"right","response":"right","rt":542.10000002384,"correct":true,"confidence":4},{"trial_n":76,"n_dots":2.95,"target":"right","response":"right","rt":405.20000004768,"correct":true,"confidence":4},{"trial_n":77,"n_dots":2.95,"target":"left","response":"left","rt":670.5,"correct":true,"confidence":3},{"trial_n":78,"n_dots":2.85,"target":"left","response":"left","rt":500,"correct":true,"confidence":3},{"trial_n":79,"n_dots":2.85,"target":"right","response":"right","rt":315.39999997616,"correct":true,"confidence":4},{"trial_n":80,"n_dots":2.75,"target":"right","response":"left","rt":625.89999997616,"correct":false,"confidence":3},{"trial_n":81,"n_dots":2.85,"target":"right","response":"left","rt":523.09999990463,"correct":false,"confidence":3},{"trial_n":82,"n_dots":2.95,"target":"right","response":"left","rt":442.5,"correct":false,"confidence":4},{"trial_n":83,"n_dots":3.05,"target":"right","response":"right","rt":749.09999990463,"correct":true,"confidence":2},{"trial_n":84,"n_dots":3.05,"target":"right","response":"right","rt":1029.1999999285,"correct":true,"confidence":2},{"trial_n":85,"n_dots":2.95,"target":"right","response":"right","rt":1388.8000000715,"correct":true,"confidence":2},{"trial_n":86,"n_dots":2.95,"target":"right","response":"right","rt":376.10000002384,"correct":true,"confidence":4},{"trial_n":87,"n_dots":2.85,"target":"right","response":"left","rt":346.20000004768,"correct":false,"confidence":4},{"trial_n":88,"n_dots":2.95,"target":"right","response":"right","rt":320.79999995232,"correct":true,"confidence":4},{"trial_n":89,"n_dots":2.95,"target":"right","response":"left","rt":335.30000007153,"correct":false,"confidence":4},{"trial_n":90,"n_dots":3.05,"target":"right","response":"right","rt":311.60000002384,"correct":true,"confidence":4},{"trial_n":91,"n_dots":3.05,"target":"left","response":"left","rt":379.09999990463,"correct":true,"confidence":3},{"trial_n":92,"n_dots":2.95,"target":"left","response":"right","rt":426.79999995232,"correct":false,"confidence":4},{"trial_n":93,"n_dots":3.05,"target":"left","response":"left","rt":264.60000002384,"correct":true,"confidence":4},{"trial_n":94,"n_dots":3.05,"target":"left","response":"left","rt":346.5,"correct":true,"confidence":3},{"trial_n":95,"n_dots":2.95,"target":"right","response":"right","rt":341.69999992847,"correct":true,"confidence":4},{"trial_n":96,"n_dots":2.95,"target":"right","response":"left","rt":371.19999992847,"correct":false,"confidence":3},{"trial_n":97,"n_dots":3.05,"target":"left","response":"left","rt":549.60000002384,"correct":true,"confidence":4},{"trial_n":98,"n_dots":3.05,"target":"left","response":"left","rt":415.20000004768,"correct":true,"confidence":4},{"trial_n":99,"n_dots":2.95,"target":"right","response":"right","rt":28.799999952316,"correct":true,"confidence":4},{"trial_n":100,"n_dots":2.95,"target":"right","response":"right","rt":530,"correct":true,"confidence":4},{"trial_n":101,"n_dots":2.85,"target":"right","response":"left","rt":469.69999992847,"correct":false,"confidence":3},{"trial_n":102,"n_dots":2.95,"target":"left","response":"right","rt":420.39999997616,"correct":false,"confidence":2},{"trial_n":103,"n_dots":3.05,"target":"left","response":"left","rt":374.70000004768,"correct":true,"confidence":4},{"trial_n":104,"n_dots":3.05,"target":"right","response":"right","rt":490.10000002384,"correct":true,"confidence":4},{"trial_n":105,"n_dots":2.95,"target":"left","response":"left","rt":1013.1999999285,"correct":true,"confidence":3},{"trial_n":106,"n_dots":2.95,"target":"right","response":"left","rt":1001,"correct":false,"confidence":3},{"trial_n":107,"n_dots":3.05,"target":"left","response":"right","rt":400.70000004768,"correct":false,"confidence":4},{"trial_n":108,"n_dots":3.15,"target":"right","response":"left","rt":362.10000002384,"correct":false,"confidence":4},{"trial_n":109,"n_dots":3.25,"target":"right","response":"right","rt":276.5,"correct":true,"confidence":4},{"trial_n":110,"n_dots":3.25,"target":"left","response":"right","rt":848.60000002384,"correct":false,"confidence":4},{"trial_n":111,"n_dots":3.35,"target":"left","response":"left","rt":487.60000002384,"correct":true,"confidence":3},{"trial_n":112,"n_dots":3.35,"target":"left","response":"right","rt":364.5,"correct":false,"confidence":4},{"trial_n":113,"n_dots":3.45,"target":"left","response":"left","rt":588.40000009537,"correct":true,"confidence":3},{"trial_n":114,"n_dots":3.45,"target":"right","response":"right","rt":311.30000007153,"correct":true,"confidence":4},{"trial_n":115,"n_dots":3.35,"target":"left","response":"left","rt":330.80000007153,"correct":true,"confidence":4},{"trial_n":116,"n_dots":3.35,"target":"left","response":"left","rt":410.19999992847,"correct":true,"confidence":4},{"trial_n":117,"n_dots":3.25,"target":"left","response":"left","rt":667.89999997616,"correct":true,"confidence":4},{"trial_n":118,"n_dots":3.25,"target":"right","response":"right","rt":298.29999995232,"correct":true,"confidence":4},{"trial_n":119,"n_dots":3.15,"target":"right","response":"left","rt":1317.5,"correct":false,"confidence":2},{"trial_n":120,"n_dots":3.25,"target":"left","response":"right","rt":356,"correct":false,"confidence":4}]