[{"trial_n":1,"min":25,"max":230,"target":"present","response":"present","rt":6940.5,"correct":true,"confidence":-1},{"trial_n":2,"min":25,"max":230,"target":"present","response":"present","rt":827.30000019073,"correct":true,"confidence":-1},{"trial_n":3,"min":41,"max":214,"target":"absent","response":"absent","rt":1308.5,"correct":true,"confidence":-1},{"trial_n":4,"min":41,"max":214,"target":"absent","response":"absent","rt":651.40000009537,"correct":true,"confidence":-1},{"trial_n":5,"min":57,"max":198,"target":"present","response":"present","rt":1733.9000000954,"correct":true,"confidence":-1},{"trial_n":6,"min":57,"max":198,"target":"present","response":"present","rt":686.90000009537,"correct":true,"confidence":-1},{"trial_n":7,"min":73,"max":182,"target":"present","response":"present","rt":1297.7000002861,"correct":true,"confidence":-1},{"trial_n":8,"min":73,"max":182,"target":"present","response":"present","rt":677.80000019073,"correct":true,"confidence":-1},{"trial_n":9,"min":89,"max":166,"target":"absent","response":"absent","rt":1089.7000002861,"correct":true,"confidence":-1},{"trial_n":10,"min":89,"max":166,"target":"absent","response":"absent","rt":663.90000009537,"correct":true,"confidence":-1},{"trial_n":11,"min":97,"max":158,"target":"absent","response":"absent","rt":570.60000038147,"correct":true,"confidence":-1},{"trial_n":12,"min":97,"max":158,"target":"absent","response":"absent","rt":541.30000019073,"correct":true,"confidence":-1},{"trial_n":13,"min":105,"max":150,"target":"absent","response":"absent","rt":622.40000009537,"correct":true,"confidence":-1},{"trial_n":14,"min":105,"max":150,"target":"present","response":"absent","rt":519.80000019073,"correct":false,"confidence":-1},{"trial_n":15,"min":97,"max":158,"target":"present","response":"absent","rt":803.7999997139,"correct":false,"confidence":-1},{"trial_n":16,"min":89,"max":166,"target":"present","response":"present","rt":1821.6999998093,"correct":true,"confidence":-1},{"trial_n":17,"min":89,"max":166,"target":"absent","response":"absent","rt":1293.3999996185,"correct":true,"confidence":-1},{"trial_n":18,"min":97,"max":158,"target":"present","response":"absent","rt":953.90000009537,"correct":false,"confidence":-1},{"trial_n":19,"min":89,"max":166,"target":"absent","response":"absent","rt":584.59999990463,"correct":true,"confidence":-1},{"trial_n":20,"min":89,"max":166,"target":"present","response":"present","rt":1295,"correct":true,"confidence":-1},{"trial_n":21,"min":93,"max":162,"target":"present","response":"absent","rt":1883.5,"correct":false,"confidence":3},{"trial_n":22,"min":89,"max":166,"target":"absent","response":"present","rt":911.7999997139,"correct":false,"confidence":3},{"trial_n":23,"min":85,"max":170,"target":"absent","response":"absent","rt":1148.5999999046,"correct":true,"confidence":3},{"trial_n":24,"min":85,"max":170,"target":"absent","response":"present","rt":1421,"correct":false,"confidence":2},{"trial_n":25,"min":81,"max":174,"target":"absent","response":"absent","rt":1632.7999997139,"correct":true,"confidence":2},{"trial_n":26,"min":81,"max":174,"target":"present","response":"absent","rt":9185.6999998093,"correct":false,"confidence":2},{"trial_n":27,"min":77,"max":178,"target":"present","response":"present","rt":2063.8000001907,"correct":true,"confidence":4},{"trial_n":28,"min":77,"max":178,"target":"absent","response":"present","rt":3484.9000000954,"correct":false,"confidence":2},{"trial_n":29,"min":73,"max":182,"target":"absent","response":"absent","rt":1822,"correct":true,"confidence":2},{"trial_n":30,"min":73,"max":182,"target":"present","response":"present","rt":1590.5,"correct":true,"confidence":5},{"trial_n":31,"min":75,"max":180,"target":"absent","response":"absent","rt":1983.7999997139,"correct":true,"confidence":3},{"trial_n":32,"min":75,"max":180,"target":"present","response":"present","rt":2263.2000002861,"correct":true,"confidence":4},{"trial_n":33,"min":77,"max":178,"target":"absent","response":"absent","rt":2109.5999999046,"correct":true,"confidence":2},{"trial_n":34,"min":77,"max":178,"target":"present","response":"present","rt":1392.8000001907,"correct":true,"confidence":3},{"trial_n":35,"min":79,"max":176,"target":"absent","response":"absent","rt":1490.4000000954,"correct":true,"confidence":2},{"trial_n":36,"min":79,"max":176,"target":"present","response":"present","rt":1485.4000000954,"correct":true,"confidence":5},{"trial_n":37,"min":81,"max":174,"target":"absent","response":"absent","rt":1022.3999996185,"correct":true,"confidence":3},{"trial_n":38,"min":81,"max":174,"target":"absent","response":"absent","rt":1023.8000001907,"correct":true,"confidence":3},{"trial_n":39,"min":83,"max":172,"target":"present","response":"present","rt":1477.3000001907,"correct":true,"confidence":4},{"trial_n":40,"min":83,"max":172,"target":"present","response":"present","rt":1275.3000001907,"correct":true,"confidence":3},{"trial_n":41,"min":84,"max":171,"target":"present","response":"present","rt":1289.7000002861,"correct":true,"confidence":2},{"trial_n":42,"min":84,"max":171,"target":"present","response":"present","rt":2102.8000001907,"correct":true,"confidence":3},{"trial_n":43,"min":85,"max":170,"target":"absent","response":"absent","rt":775.90000009537,"correct":true,"confidence":3},{"trial_n":44,"min":85,"max":170,"target":"absent","response":"absent","rt":773.80000019073,"correct":true,"confidence":3},{"trial_n":45,"min":86,"max":169,"target":"absent","response":"present","rt":1128.7999997139,"correct":false,"confidence":4},{"trial_n":46,"min":85,"max":170,"target":"absent","response":"absent","rt":2510.5,"correct":true,"confidence":2},{"trial_n":47,"min":85,"max":170,"target":"absent","response":"absent","rt":2065.4000000954,"correct":true,"confidence":2},{"trial_n":48,"min":86,"max":169,"target":"absent","response":"present","rt":2704.2999997139,"correct":false,"confidence":2},{"trial_n":49,"min":85,"max":170,"target":"present","response":"present","rt":1256.5999999046,"correct":true,"confidence":4},{"trial_n":50,"min":85,"max":170,"target":"absent","response":"absent","rt":1122.6999998093,"correct":true,"confidence":2},{"trial_n":51,"min":86,"max":169,"target":"absent","response":"absent","rt":1208.7999997139,"correct":true,"confidence":2},{"trial_n":52,"min":86,"max":169,"target":"present","response":"present","rt":1243.7999997139,"correct":true,"confidence":4},{"trial_n":53,"min":87,"max":168,"target":"present","response":"present","rt":1191.2999997139,"correct":true,"confidence":3},{"trial_n":54,"min":87,"max":168,"target":"present","response":"present","rt":1079.4000000954,"correct":true,"confidence":3},{"trial_n":55,"min":88,"max":167,"target":"absent","response":"absent","rt":845,"correct":true,"confidence":3},{"trial_n":56,"min":88,"max":167,"target":"absent","response":"absent","rt":1333.5999999046,"correct":true,"confidence":2},{"trial_n":57,"min":89,"max":166,"target":"absent","response":"absent","rt":833.59999990463,"correct":true,"confidence":2},{"trial_n":58,"min":89,"max":166,"target":"present","response":"present","rt":1146.7999997139,"correct":true,"confidence":2},{"trial_n":59,"min":90,"max":165,"target":"absent","response":"absent","rt":1626,"correct":true,"confidence":2},{"trial_n":60,"min":90,"max":165,"target":"present","response":"present","rt":1059,"correct":true,"confidence":3},{"trial_n":61,"min":91,"max":164,"target":"absent","response":"present","rt":947,"correct":false,"confidence":2},{"trial_n":62,"min":90,"max":165,"target":"present","response":"absent","rt":1671.7000002861,"correct":false,"confidence":2},{"trial_n":63,"min":89,"max":166,"target":"present","response":"present","rt":1097.5,"correct":true,"confidence":3},{"trial_n":64,"min":89,"max":166,"target":"present","response":"present","rt":1606.0999999046,"correct":true,"confidence":4},{"trial_n":65,"min":90,"max":165,"target":"present","response":"present","rt":1817.5,"correct":true,"confidence":2},{"trial_n":66,"min":90,"max":165,"target":"present","response":"present","rt":1811.0999999046,"correct":true,"confidence":2},{"trial_n":67,"min":91,"max":164,"target":"absent","response":"absent","rt":894.80000019073,"correct":true,"confidence":2},{"trial_n":68,"min":91,"max":164,"target":"present","response":"present","rt":1377,"correct":true,"confidence":3},{"trial_n":69,"min":92,"max":163,"target":"present","response":"present","rt":862.69999980927,"correct":true,"confidence":3},{"trial_n":70,"min":92,"max":163,"target":"present","response":"absent","rt":1396.3000001907,"correct":false,"confidence":2},{"trial_n":71,"min":41,"max":214,"target":"present","response":"present","rt":1483.2999997139,"correct":true,"confidence":-1},{"trial_n":72,"min":41,"max":214,"target":"present","response":"absent","rt":418.10000038147,"correct":false,"confidence":-1},{"trial_n":73,"min":25,"max":230,"target":"absent","response":"absent","rt":710.19999980927,"correct":true,"confidence":-1},{"trial_n":74,"min":25,"max":230,"target":"absent","response":"absent","rt":729.69999980927,"correct":true,"confidence":-1},{"trial_n":75,"min":41,"max":214,"target":"present","response":"present","rt":1144.1000003815,"correct":true,"confidence":-1},{"trial_n":76,"min":41,"max":214,"target":"present","response":"present","rt":1024.1000003815,"correct":true,"confidence":-1},{"trial_n":77,"min":57,"max":198,"target":"absent","response":"absent","rt":914.40000009537,"correct":true,"confidence":-1},{"trial_n":78,"min":57,"max":198,"target":"absent","response":"absent","rt":697.80000019073,"correct":true,"confidence":-1},{"trial_n":79,"min":73,"max":182,"target":"present","response":"present","rt":658.2999997139,"correct":true,"confidence":-1},{"trial_n":80,"min":73,"max":182,"target":"absent","response":"absent","rt":721.5,"correct":true,"confidence":-1},{"trial_n":81,"min":81,"max":174,"target":"present","response":"present","rt":898.10000038147,"correct":true,"confidence":-1},{"trial_n":82,"min":81,"max":174,"target":"absent","response":"absent","rt":723.69999980927,"correct":true,"confidence":-1},{"trial_n":83,"min":89,"max":166,"target":"absent","response":"present","rt":2769.5999999046,"correct":false,"confidence":-1},{"trial_n":84,"min":81,"max":174,"target":"present","response":"present","rt":656.89999961853,"correct":true,"confidence":-1},{"trial_n":85,"min":81,"max":174,"target":"present","response":"present","rt":660.7000002861,"correct":true,"confidence":-1},{"trial_n":86,"min":89,"max":166,"target":"absent","response":"absent","rt":935.30000019073,"correct":true,"confidence":-1},{"trial_n":87,"min":89,"max":166,"target":"absent","response":"absent","rt":671.59999990463,"correct":true,"confidence":-1},{"trial_n":88,"min":97,"max":158,"target":"present","response":"present","rt":1516.1999998093,"correct":true,"confidence":-1},{"trial_n":89,"min":97,"max":158,"target":"absent","response":"present","rt":777.40000009537,"correct":false,"confidence":-1},{"trial_n":90,"min":89,"max":166,"target":"present","response":"present","rt":608.90000009537,"correct":true,"confidence":-1},{"trial_n":91,"min":89,"max":166,"target":"absent","response":"absent","rt":884.59999990463,"correct":true,"confidence":2},{"trial_n":92,"min":93,"max":162,"target":"present","response":"present","rt":894.40000009537,"correct":true,"confidence":3},{"trial_n":93,"min":93,"max":162,"target":"present","response":"present","rt":907.5,"correct":true,"confidence":2},{"trial_n":94,"min":97,"max":158,"target":"present","response":"present","rt":1183.1999998093,"correct":true,"confidence":3},{"trial_n":95,"min":97,"max":158,"target":"present","response":"present","rt":1824.5,"correct":true,"confidence":3},{"trial_n":96,"min":101,"max":154,"target":"present","response":"present","rt":1200.8999996185,"correct":true,"confidence":2},{"trial_n":97,"min":101,"max":154,"target":"present","response":"present","rt":919.90000009537,"correct":true,"confidence":4},{"trial_n":98,"min":105,"max":150,"target":"present","response":"absent","rt":3131.7999997139,"correct":false,"confidence":1},{"trial_n":99,"min":101,"max":154,"target":"present","response":"present","rt":1825.5999999046,"correct":true,"confidence":2},{"trial_n":100,"min":101,"max":154,"target":"present","response":"present","rt":1018,"correct":true,"confidence":2},{"trial_n":101,"min":103,"max":152,"target":"absent","response":"present","rt":701.09999990463,"correct":false,"confidence":3},{"trial_n":102,"min":101,"max":154,"target":"present","response":"absent","rt":941.2000002861,"correct":false,"confidence":3},{"trial_n":103,"min":99,"max":156,"target":"absent","response":"absent","rt":935.5,"correct":true,"confidence":2},{"trial_n":104,"min":99,"max":156,"target":"absent","response":"absent","rt":857.40000009537,"correct":true,"confidence":4},{"trial_n":105,"min":101,"max":154,"target":"absent","response":"absent","rt":1032.3000001907,"correct":true,"confidence":4},{"trial_n":106,"min":101,"max":154,"target":"absent","response":"absent","rt":1586.4000000954,"correct":true,"confidence":2},{"trial_n":107,"min":103,"max":152,"target":"absent","response":"absent","rt":1369,"correct":true,"confidence":2},{"trial_n":108,"min":103,"max":152,"target":"present","response":"absent","rt":799.90000009537,"correct":false,"confidence":2},{"trial_n":109,"min":101,"max":154,"target":"absent","response":"absent","rt":982.40000009537,"correct":true,"confidence":2},{"trial_n":110,"min":101,"max":154,"target":"absent","response":"absent","rt":949.09999990463,"correct":true,"confidence":3},{"trial_n":111,"min":102,"max":153,"target":"present","response":"present","rt":732.90000009537,"correct":true,"confidence":3},{"trial_n":112,"min":102,"max":153,"target":"absent","response":"absent","rt":916.90000009537,"correct":true,"confidence":3},{"trial_n":113,"min":103,"max":152,"target":"absent","response":"absent","rt":950,"correct":true,"confidence":2},{"trial_n":114,"min":103,"max":152,"target":"absent","response":"absent","rt":948.5,"correct":true,"confidence":2},{"trial_n":115,"min":104,"max":151,"target":"present","response":"present","rt":1053.9000000954,"correct":true,"confidence":3},{"trial_n":116,"min":104,"max":151,"target":"absent","response":"present","rt":2289.5,"correct":false,"confidence":2},{"trial_n":117,"min":103,"max":152,"target":"absent","response":"absent","rt":979.19999980927,"correct":true,"confidence":3},{"trial_n":118,"min":103,"max":152,"target":"present","response":"absent","rt":1249.5,"correct":false,"confidence":3},{"trial_n":119,"min":102,"max":153,"target":"absent","response":"present","rt":1191.6000003815,"correct":false,"confidence":2},{"trial_n":120,"min":101,"max":154,"target":"present","response":"absent","rt":1085.4000000954,"correct":false,"confidence":3},{"trial_n":121,"min":100,"max":155,"target":"present","response":"present","rt":753.59999990463,"correct":true,"confidence":4},{"trial_n":122,"min":100,"max":155,"target":"present","response":"absent","rt":778.09999990463,"correct":false,"confidence":2},{"trial_n":123,"min":99,"max":156,"target":"absent","response":"absent","rt":798.80000019073,"correct":true,"confidence":1},{"trial_n":124,"min":99,"max":156,"target":"present","response":"absent","rt":1223.8000001907,"correct":false,"confidence":3},{"trial_n":125,"min":98,"max":157,"target":"absent","response":"present","rt":970.30000019073,"correct":false,"confidence":3},{"trial_n":126,"min":97,"max":158,"target":"absent","response":"present","rt":770.80000019073,"correct":false,"confidence":2},{"trial_n":127,"min":96,"max":159,"target":"present","response":"present","rt":573.7000002861,"correct":true,"confidence":3},{"trial_n":128,"min":96,"max":159,"target":"present","response":"present","rt":1222.2999997139,"correct":true,"confidence":3},{"trial_n":129,"min":97,"max":158,"target":"absent","response":"absent","rt":676.7999997139,"correct":true,"confidence":3},{"trial_n":130,"min":97,"max":158,"target":"absent","response":"absent","rt":1281.1000003815,"correct":true,"confidence":4},{"trial_n":131,"min":98,"max":157,"target":"absent","response":"present","rt":1437.2999997139,"correct":false,"confidence":2},{"trial_n":132,"min":97,"max":158,"target":"present","response":"present","rt":798,"correct":true,"confidence":2},{"trial_n":133,"min":97,"max":158,"target":"present","response":"present","rt":995.2000002861,"correct":true,"confidence":3},{"trial_n":134,"min":98,"max":157,"target":"present","response":"absent","rt":1036.8000001907,"correct":false,"confidence":3},{"trial_n":135,"min":97,"max":158,"target":"absent","response":"absent","rt":1049.1999998093,"correct":true,"confidence":3},{"trial_n":136,"min":97,"max":158,"target":"present","response":"present","rt":853.10000038147,"correct":true,"confidence":3},{"trial_n":137,"min":98,"max":157,"target":"present","response":"absent","rt":777.19999980927,"correct":false,"confidence":2},{"trial_n":138,"min":97,"max":158,"target":"present","response":"absent","rt":787,"correct":false,"confidence":2},{"trial_n":139,"min":96,"max":159,"target":"absent","response":"absent","rt":566.19999980927,"correct":true,"confidence":2},{"trial_n":140,"min":96,"max":159,"target":"absent","response":"absent","rt":1197.9000000954,"correct":true,"confidence":3}]