[{"trial_n":1,"n_dots":4.25,"target":"right","response":"right","rt":3305.900000006,"correct":true,"confidence":-1},{"trial_n":2,"n_dots":4.25,"target":"left","response":"left","rt":738,"correct":true,"confidence":-1},{"trial_n":3,"n_dots":3.85,"target":"right","response":"right","rt":582,"correct":true,"confidence":-1},{"trial_n":4,"n_dots":3.85,"target":"left","response":"left","rt":401.80000001192,"correct":true,"confidence":-1},{"trial_n":5,"n_dots":3.45,"target":"left","response":"left","rt":396.59999999404,"correct":true,"confidence":-1},{"trial_n":6,"n_dots":3.45,"target":"right","response":"left","rt":335.89999999106,"correct":false,"confidence":-1},{"trial_n":7,"n_dots":3.85,"target":"left","response":"left","rt":716.20000000298,"correct":true,"confidence":-1},{"trial_n":8,"n_dots":3.85,"target":"right","response":"right","rt":303.5,"correct":true,"confidence":-1},{"trial_n":9,"n_dots":3.65,"target":"right","response":"right","rt":374.89999999106,"correct":true,"confidence":-1},{"trial_n":10,"n_dots":3.65,"target":"right","response":"left","rt":388.59999999404,"correct":false,"confidence":-1},{"trial_n":11,"n_dots":3.85,"target":"right","response":"right","rt":262.29999999702,"correct":true,"confidence":-1},{"trial_n":12,"n_dots":3.85,"target":"right","response":"right","rt":373.5,"correct":true,"confidence":-1},{"trial_n":13,"n_dots":3.75,"target":"left","response":"left","rt":275.89999999106,"correct":true,"confidence":-1},{"trial_n":14,"n_dots":3.75,"target":"left","response":"left","rt":203.40000000596,"correct":true,"confidence":-1},{"trial_n":15,"n_dots":3.65,"target":"left","response":"left","rt":313.79999999702,"correct":true,"confidence":-1},{"trial_n":16,"n_dots":3.65,"target":"left","response":"left","rt":207.60000000894,"correct":true,"confidence":-1},{"trial_n":17,"n_dots":3.55,"target":"right","response":"left","rt":266.89999999106,"correct":false,"confidence":-1},{"trial_n":18,"n_dots":3.65,"target":"left","response":"left","rt":169,"correct":true,"confidence":-1},{"trial_n":19,"n_dots":3.65,"target":"right","response":"right","rt":148.40000000596,"correct":true,"confidence":-1},{"trial_n":20,"n_dots":3.55,"target":"right","response":"right","rt":209.5,"correct":true,"confidence":-1},{"trial_n":21,"n_dots":3.55,"target":"right","response":"right","rt":393.10000000894,"correct":true,"confidence":4},{"trial_n":22,"n_dots":3.45,"target":"left","response":"left","rt":593.89999999106,"correct":true,"confidence":3},{"trial_n":23,"n_dots":3.45,"target":"left","response":"left","rt":200.40000000596,"correct":true,"confidence":5},{"trial_n":24,"n_dots":3.35,"target":"left","response":"left","rt":421.79999999702,"correct":true,"confidence":4},{"trial_n":25,"n_dots":3.35,"target":"left","response":"left","rt":123.10000000894,"correct":true,"confidence":4},{"trial_n":26,"n_dots":3.25,"target":"right","response":"right","rt":113.10000000894,"correct":true,"confidence":4},{"trial_n":27,"n_dots":3.25,"target":"right","response":"right","rt":365.09999999404,"correct":true,"confidence":3},{"trial_n":28,"n_dots":3.15,"target":"left","response":"left","rt":531.89999999106,"correct":true,"confidence":3},{"trial_n":29,"n_dots":3.15,"target":"right","response":"right","rt":268.29999999702,"correct":true,"confidence":3},{"trial_n":30,"n_dots":3.05,"target":"left","response":"left","rt":374.29999999702,"correct":true,"confidence":3},{"trial_n":31,"n_dots":3.05,"target":"right","response":"right","rt":70.399999991059,"correct":true,"confidence":5},{"trial_n":32,"n_dots":2.95,"target":"left","response":"right","rt":441.89999999106,"correct":false,"confidence":5},{"trial_n":33,"n_dots":3.05,"target":"right","response":"right","rt":82,"correct":true,"confidence":4},{"trial_n":34,"n_dots":3.05,"target":"right","response":"right","rt":409.40000000596,"correct":true,"confidence":3},{"trial_n":35,"n_dots":2.95,"target":"right","response":"left","rt":345.39999999106,"correct":false,"confidence":3},{"trial_n":36,"n_dots":3.05,"target":"right","response":"right","rt":129.5,"correct":true,"confidence":3},{"trial_n":37,"n_dots":3.05,"target":"left","response":"left","rt":174.59999999404,"correct":true,"confidence":3},{"trial_n":38,"n_dots":2.95,"target":"right","response":"right","rt":204.40000000596,"correct":true,"confidence":3},{"trial_n":39,"n_dots":2.95,"target":"left","response":"left","rt":112.10000000894,"correct":true,"confidence":3},{"trial_n":40,"n_dots":2.85,"target":"right","response":"right","rt":334.29999999702,"correct":true,"confidence":3},{"trial_n":41,"n_dots":2.85,"target":"right","response":"right","rt":391.79999999702,"correct":true,"confidence":4},{"trial_n":42,"n_dots":2.75,"target":"left","response":"left","rt":349,"correct":true,"confidence":4},{"trial_n":43,"n_dots":2.75,"target":"left","response":"left","rt":128.40000000596,"correct":true,"confidence":4},{"trial_n":44,"n_dots":2.65,"target":"right","response":"left","rt":295.60000000894,"correct":false,"confidence":3},{"trial_n":45,"n_dots":2.75,"target":"left","response":"left","rt":92,"correct":true,"confidence":4},{"trial_n":46,"n_dots":2.75,"target":"right","response":"right","rt":477.79999999702,"correct":true,"confidence":3},{"trial_n":47,"n_dots":2.65,"target":"left","response":"left","rt":315.5,"correct":true,"confidence":3},{"trial_n":48,"n_dots":2.65,"target":"left","response":"right","rt":367.59999999404,"correct":false,"confidence":2},{"trial_n":49,"n_dots":2.75,"target":"right","response":"left","rt":170.79999999702,"correct":false,"confidence":3},{"trial_n":50,"n_dots":2.85,"target":"right","response":"right","rt":306.79999999702,"correct":true,"confidence":2},{"trial_n":51,"n_dots":2.85,"target":"right","response":"right","rt":153.40000000596,"correct":true,"confidence":4},{"trial_n":52,"n_dots":2.75,"target":"right","response":"right","rt":138.40000000596,"correct":true,"confidence":5},{"trial_n":53,"n_dots":2.75,"target":"right","response":"left","rt":311.20000000298,"correct":false,"confidence":3},{"trial_n":54,"n_dots":2.85,"target":"right","response":"right","rt":114.30000001192,"correct":true,"confidence":3},{"trial_n":55,"n_dots":2.85,"target":"right","response":"left","rt":242.89999999106,"correct":false,"confidence":2},{"trial_n":56,"n_dots":2.95,"target":"right","response":"left","rt":1308.5,"correct":false,"confidence":1},{"trial_n":57,"n_dots":3.05,"target":"right","response":"right","rt":219.5,"correct":true,"confidence":1},{"trial_n":58,"n_dots":3.05,"target":"left","response":"right","rt":243.5,"correct":false,"confidence":3},{"trial_n":59,"n_dots":3.15,"target":"left","response":"left","rt":359.20000000298,"correct":true,"confidence":3},{"trial_n":60,"n_dots":3.15,"target":"left","response":"left","rt":100.5,"correct":true,"confidence":4},{"trial_n":61,"n_dots":3.05,"target":"left","response":"left","rt":66,"correct":true,"confidence":4},{"trial_n":62,"n_dots":3.05,"target":"left","response":"right","rt":176.89999999106,"correct":false,"confidence":3},{"trial_n":63,"n_dots":3.15,"target":"left","response":"left","rt":202.20000000298,"correct":true,"confidence":2},{"trial_n":64,"n_dots":3.15,"target":"left","response":"left","rt":136.29999999702,"correct":true,"confidence":3},{"trial_n":65,"n_dots":3.05,"target":"left","response":"left","rt":192.09999999404,"correct":true,"confidence":3},{"trial_n":66,"n_dots":3.05,"target":"right","response":"right","rt":26.09999999404,"correct":true,"confidence":3},{"trial_n":67,"n_dots":2.95,"target":"right","response":"right","rt":224.79999999702,"correct":true,"confidence":3},{"trial_n":68,"n_dots":2.95,"target":"left","response":"left","rt":216.60000000894,"correct":true,"confidence":3},{"trial_n":69,"n_dots":2.85,"target":"left","response":"right","rt":259.29999999702,"correct":false,"confidence":3},{"trial_n":70,"n_dots":2.95,"target":"left","response":"left","rt":318.60000000894,"correct":true,"confidence":4},{"trial_n":71,"n_dots":2.95,"target":"left","response":"left","rt":298.40000000596,"correct":true,"confidence":5},{"trial_n":72,"n_dots":2.85,"target":"right","response":"right","rt":682.5,"correct":true,"confidence":4},{"trial_n":73,"n_dots":2.85,"target":"left","response":"left","rt":498.80000001192,"correct":true,"confidence":2},{"trial_n":74,"n_dots":2.75,"target":"left","response":"right","rt":280,"correct":false,"confidence":3},{"trial_n":75,"n_dots":2.85,"target":"left","response":"right","rt":603.29999999702,"correct":false,"confidence":3},{"trial_n":76,"n_dots":2.95,"target":"right","response":"right","rt":195.39999999106,"correct":true,"confidence":3},{"trial_n":77,"n_dots":2.95,"target":"left","response":"left","rt":113.40000000596,"correct":true,"confidence":4},{"trial_n":78,"n_dots":2.85,"target":"right","response":"left","rt":525.20000000298,"correct":false,"confidence":4},{"trial_n":79,"n_dots":2.95,"target":"left","response":"left","rt":551.20000000298,"correct":true,"confidence":4},{"trial_n":80,"n_dots":2.95,"target":"left","response":"left","rt":559.69999998808,"correct":true,"confidence":4},{"trial_n":81,"n_dots":2.85,"target":"left","response":"right","rt":369.70000000298,"correct":false,"confidence":3},{"trial_n":82,"n_dots":2.95,"target":"right","response":"right","rt":94.40000000596,"correct":true,"confidence":4},{"trial_n":83,"n_dots":2.95,"target":"left","response":"left","rt":540.39999999106,"correct":true,"confidence":5},{"trial_n":84,"n_dots":2.85,"target":"left","response":"left","rt":236.39999999106,"correct":true,"confidence":4},{"trial_n":85,"n_dots":2.85,"target":"left","response":"right","rt":71.399999991059,"correct":false,"confidence":1},{"trial_n":86,"n_dots":2.95,"target":"right","response":"left","rt":323.59999999404,"correct":false,"confidence":3},{"trial_n":87,"n_dots":3.05,"target":"left","response":"left","rt":488.29999999702,"correct":true,"confidence":3},{"trial_n":88,"n_dots":3.05,"target":"right","response":"right","rt":53.29999999702,"correct":true,"confidence":3},{"trial_n":89,"n_dots":2.95,"target":"right","response":"right","rt":67.5,"correct":true,"confidence":3},{"trial_n":90,"n_dots":2.95,"target":"left","response":"left","rt":545.5,"correct":true,"confidence":3},{"trial_n":91,"n_dots":2.85,"target":"right","response":"right","rt":6.7000000029802,"correct":true,"confidence":3},{"trial_n":92,"n_dots":2.85,"target":"right","response":"right","rt":42.29999999702,"correct":true,"confidence":3},{"trial_n":93,"n_dots":2.75,"target":"right","response":"right","rt":40.399999991059,"correct":true,"confidence":3},{"trial_n":94,"n_dots":2.75,"target":"right","response":"right","rt":117.39999999106,"correct":true,"confidence":3},{"trial_n":95,"n_dots":2.65,"target":"left","response":"right","rt":42.40000000596,"correct":false,"confidence":3},{"trial_n":96,"n_dots":2.75,"target":"right","response":"right","rt":44.90000000596,"correct":true,"confidence":3},{"trial_n":97,"n_dots":2.75,"target":"left","response":"left","rt":211.70000000298,"correct":true,"confidence":2},{"trial_n":98,"n_dots":2.65,"target":"right","response":"right","rt":528.79999999702,"correct":true,"confidence":3},{"trial_n":99,"n_dots":2.65,"target":"right","response":"right","rt":172.90000000596,"correct":true,"confidence":3},{"trial_n":100,"n_dots":2.55,"target":"right","response":"right","rt":84,"correct":true,"confidence":4},{"trial_n":101,"n_dots":2.55,"target":"left","response":"left","rt":152.29999999702,"correct":true,"confidence":4},{"trial_n":102,"n_dots":2.45,"target":"left","response":"right","rt":461.30000001192,"correct":false,"confidence":4},{"trial_n":103,"n_dots":2.55,"target":"left","response":"left","rt":500.59999999404,"correct":true,"confidence":5},{"trial_n":104,"n_dots":2.55,"target":"left","response":"left","rt":291.09999999404,"correct":true,"confidence":4},{"trial_n":105,"n_dots":2.45,"target":"left","response":"left","rt":239.90000000596,"correct":true,"confidence":4},{"trial_n":106,"n_dots":2.45,"target":"left","response":"left","rt":79.70000000298,"correct":true,"confidence":4},{"trial_n":107,"n_dots":2.35,"target":"right","response":"left","rt":564.5,"correct":false,"confidence":4},{"trial_n":108,"n_dots":2.45,"target":"left","response":"left","rt":389.70000000298,"correct":true,"confidence":4},{"trial_n":109,"n_dots":2.45,"target":"left","response":"left","rt":475.20000000298,"correct":true,"confidence":4},{"trial_n":110,"n_dots":2.35,"target":"right","response":"right","rt":627.10000000894,"correct":true,"confidence":2},{"trial_n":111,"n_dots":2.35,"target":"right","response":"left","rt":299.10000000894,"correct":false,"confidence":2},{"trial_n":112,"n_dots":2.45,"target":"left","response":"right","rt":109.40000000596,"correct":false,"confidence":3},{"trial_n":113,"n_dots":2.55,"target":"right","response":"right","rt":94.29999999702,"correct":true,"confidence":2},{"trial_n":114,"n_dots":2.55,"target":"right","response":"right","rt":47,"correct":true,"confidence":4},{"trial_n":115,"n_dots":2.45,"target":"right","response":"left","rt":297.29999999702,"correct":false,"confidence":3},{"trial_n":116,"n_dots":2.55,"target":"left","response":"right","rt":834.20000000298,"correct":false,"confidence":1},{"trial_n":117,"n_dots":2.65,"target":"right","response":"left","rt":81.100000008941,"correct":false,"confidence":2},{"trial_n":118,"n_dots":2.75,"target":"left","response":"left","rt":1.0999999940395,"correct":true,"confidence":3},{"trial_n":119,"n_dots":2.75,"target":"right","response":"right","rt":587.70000000298,"correct":true,"confidence":4},{"trial_n":120,"n_dots":2.65,"target":"right","response":"right","rt":161.30000001192,"correct":true,"confidence":3}]