[{"trial_n":1,"span":8,"encoder":"68610954","distractor":"62610954","target":"present","response":"present","rt":"3843.400000006","correct":true,"confidence":-1},{"trial_n":2,"span":8,"encoder":"11426447","distractor":"11426467","target":"present","response":"absent","rt":"2065","correct":false,"confidence":-1},{"trial_n":3,"span":6,"encoder":"756573","distractor":"753573","target":"absent","response":"absent","rt":"3227.1000000089","correct":true,"confidence":-1},{"trial_n":4,"span":6,"encoder":"975435","distractor":"978435","target":"absent","response":"absent","rt":"2517.6000000089","correct":true,"confidence":-1},{"trial_n":5,"span":8,"encoder":"76895673","distractor":"79895673","target":"present","response":"present","rt":"1300.5","correct":true,"confidence":-1},{"trial_n":6,"span":8,"encoder":"83757125","distractor":"83257125","target":"absent","response":"absent","rt":"3833.5","correct":true,"confidence":-1},{"trial_n":7,"span":10,"encoder":"6950055649","distractor":"7950055649","target":"present","response":"present","rt":"3706.5","correct":true,"confidence":-1},{"trial_n":8,"span":10,"encoder":"9923092017","distractor":"9920092017","target":"present","response":"absent","rt":"2555.5","correct":false,"confidence":-1},{"trial_n":9,"span":8,"encoder":"74513538","distractor":"74513548","target":"absent","response":"present","rt":"1226.900000006","correct":false,"confidence":-1},{"trial_n":10,"span":6,"encoder":"688582","distractor":"648582","target":"present","response":"present","rt":"1485.5","correct":true,"confidence":-1},{"trial_n":11,"span":6,"encoder":"650825","distractor":"650820","target":"present","response":"present","rt":"2733.799999997","correct":true,"confidence":-1},{"trial_n":12,"span":7,"encoder":"8851829","distractor":"1851829","target":"absent","response":"absent","rt":"1780.099999994","correct":true,"confidence":-1},{"trial_n":13,"span":7,"encoder":"6434573","distractor":"6431573","target":"present","response":"present","rt":"1070","correct":true,"confidence":-1},{"trial_n":14,"span":8,"encoder":"59017116","distractor":"59917116","target":"present","response":"present","rt":"2167.400000006","correct":true,"confidence":-1},{"trial_n":15,"span":8,"encoder":"19988391","distractor":"89988391","target":"absent","response":"absent","rt":"1444.400000006","correct":true,"confidence":-1},{"trial_n":16,"span":9,"encoder":"352141545","distractor":"352148545","target":"present","response":"present","rt":"1475.5","correct":true,"confidence":-1},{"trial_n":17,"span":9,"encoder":"655960412","distractor":"655960410","target":"present","response":"present","rt":"2045.200000003","correct":true,"confidence":-1},{"trial_n":18,"span":10,"encoder":"2780310952","distractor":"2780310950","target":"absent","response":"absent","rt":"1450.5","correct":true,"confidence":-1},{"trial_n":19,"span":10,"encoder":"5847313978","distractor":"5147313978","target":"present","response":"present","rt":"1974.299999997","correct":true,"confidence":-1},{"trial_n":20,"span":11,"encoder":"32125667145","distractor":"32825667145","target":"absent","response":"absent","rt":"2220.200000003","correct":true,"confidence":-1},{"trial_n":21,"span":11,"encoder":"04828951006","distractor":"04828921006","target":"absent","response":"present","rt":"3798.5","correct":false,"confidence":3},{"trial_n":22,"span":10,"encoder":"4276239892","distractor":"4271239892","target":"present","response":"present","rt":"4814.799999997","correct":true,"confidence":4},{"trial_n":23,"span":10,"encoder":"7585332501","distractor":"7585332701","target":"absent","response":"present","rt":"2507.700000003","correct":false,"confidence":4},{"trial_n":24,"span":9,"encoder":"749295803","distractor":"749295603","target":"present","response":"present","rt":"5464.5","correct":true,"confidence":3},{"trial_n":25,"span":9,"encoder":"438968435","distractor":"638968435","target":"present","response":"present","rt":"4666.5","correct":true,"confidence":3},{"trial_n":26,"span":10,"encoder":"0448838727","distractor":"0468838727","target":"present","response":"present","rt":"3562.5","correct":true,"confidence":5},{"trial_n":27,"span":10,"encoder":"1302251550","distractor":"1362251550","target":"absent","response":"absent","rt":"2351.400000006","correct":true,"confidence":2},{"trial_n":28,"span":11,"encoder":"63387258280","distractor":"63347258280","target":"present","response":"absent","rt":"3502.6000000089","correct":false,"confidence":2},{"trial_n":29,"span":10,"encoder":"7547415955","distractor":"2547415955","target":"absent","response":"absent","rt":"2767","correct":true,"confidence":1},{"trial_n":30,"span":10,"encoder":"2672143670","distractor":"2672943670","target":"present","response":"present","rt":"2334.5","correct":true,"confidence":2},{"trial_n":31,"span":11,"encoder":"78264037279","distractor":"78268037279","target":"present","response":"present","rt":"1942.799999997","correct":true,"confidence":3},{"trial_n":32,"span":11,"encoder":"83156302240","distractor":"83156802240","target":"present","response":"present","rt":"2489.200000003","correct":true,"confidence":2},{"trial_n":33,"span":12,"encoder":"170692208320","distractor":"170692288320","target":"present","response":"absent","rt":"1448","correct":false,"confidence":4},{"trial_n":34,"span":11,"encoder":"95488022000","distractor":"95448022000","target":"present","response":"present","rt":"2302.1999999881","correct":true,"confidence":5},{"trial_n":35,"span":11,"encoder":"13208596257","distractor":"13708596257","target":"absent","response":"present","rt":"1344.3999999911","correct":false,"confidence":3},{"trial_n":36,"span":10,"encoder":"6093944953","distractor":"6093944923","target":"present","response":"absent","rt":"5294.099999994","correct":false,"confidence":2},{"trial_n":37,"span":9,"encoder":"174739593","distractor":"174739553","target":"present","response":"present","rt":"2825.5","correct":true,"confidence":4},{"trial_n":38,"span":9,"encoder":"940506930","distractor":"940206930","target":"present","response":"present","rt":"2548.3000000119","correct":true,"confidence":5},{"trial_n":39,"span":10,"encoder":"8237277787","distractor":"8237217787","target":"absent","response":"present","rt":"1548.5","correct":false,"confidence":3},{"trial_n":40,"span":9,"encoder":"653519139","distractor":"653519137","target":"present","response":"present","rt":"8308.799999997","correct":true,"confidence":5},{"trial_n":41,"span":9,"encoder":"196424979","distractor":"996424979","target":"absent","response":"absent","rt":"2833.8999999911","correct":true,"confidence":4},{"trial_n":42,"span":10,"encoder":"8854771037","distractor":"8854771017","target":"present","response":"present","rt":"7066.799999997","correct":true,"confidence":5},{"trial_n":43,"span":10,"encoder":"8138482570","distractor":"8138482530","target":"absent","response":"absent","rt":"7089.5","correct":true,"confidence":4},{"trial_n":44,"span":11,"encoder":"54728420738","distractor":"54728420728","target":"absent","response":"absent","rt":"868.5","correct":true,"confidence":2},{"trial_n":45,"span":11,"encoder":"15767269826","distractor":"15767269827","target":"absent","response":"absent","rt":"10684.900000006","correct":true,"confidence":4},{"trial_n":46,"span":12,"encoder":"845025972600","distractor":"845025972603","target":"absent","response":"absent","rt":"2834.400000006","correct":true,"confidence":5},{"trial_n":47,"span":12,"encoder":"857859524722","distractor":"857859524720","target":"present","response":"present","rt":"2619.1999999881","correct":true,"confidence":2},{"trial_n":48,"span":13,"encoder":"9156970399270","distractor":"9156978399270","target":"absent","response":"absent","rt":"2680.400000006","correct":true,"confidence":1},{"trial_n":49,"span":13,"encoder":"9489147171627","distractor":"9489147171327","target":"present","response":"present","rt":"6745.099999994","correct":true,"confidence":3},{"trial_n":50,"span":14,"encoder":"68095491333562","distractor":"68095491333512","target":"present","response":"present","rt":"7433.6999999881","correct":true,"confidence":4},{"trial_n":51,"span":14,"encoder":"17415534124028","distractor":"17415534124023","target":"absent","response":"absent","rt":"4173.099999994","correct":true,"confidence":5},{"trial_n":52,"span":15,"encoder":"874835828121667","distractor":"874835828151667","target":"absent","response":"present","rt":"3044.400000006","correct":false,"confidence":3},{"trial_n":53,"span":14,"encoder":"31342639854848","distractor":"31342639854828","target":"absent","response":"absent","rt":"3724.1000000089","correct":true,"confidence":3},{"trial_n":54,"span":14,"encoder":"27267351464444","distractor":"22267351464444","target":"present","response":"present","rt":"2459.700000003","correct":true,"confidence":4},{"trial_n":55,"span":15,"encoder":"283199123304648","distractor":"283199123304640","target":"present","response":"present","rt":"1974.200000003","correct":true,"confidence":4},{"trial_n":56,"span":15,"encoder":"557712354316228","distractor":"557712354616228","target":"present","response":"present","rt":"2310.400000006","correct":true,"confidence":4},{"trial_n":57,"span":16,"encoder":"6233534681340734","distractor":"6233534681320734","target":"absent","response":"absent","rt":"2219.3999999911","correct":true,"confidence":2},{"trial_n":58,"span":16,"encoder":"1135363494428685","distractor":"5135363494428685","target":"present","response":"absent","rt":"1466.400000006","correct":false,"confidence":3},{"trial_n":59,"span":15,"encoder":"859403866137255","distractor":"859403863137255","target":"absent","response":"present","rt":"1878.3999999911","correct":false,"confidence":3},{"trial_n":60,"span":14,"encoder":"28518409211436","distractor":"28518409251436","target":"present","response":"present","rt":"2915","correct":true,"confidence":4},{"trial_n":61,"span":14,"encoder":"26091674122322","distractor":"26091674126322","target":"absent","response":"present","rt":"2708.8999999911","correct":false,"confidence":3},{"trial_n":62,"span":13,"encoder":"0112797667313","distractor":"0112797667323","target":"absent","response":"present","rt":"4826.8000000119","correct":false,"confidence":3},{"trial_n":63,"span":12,"encoder":"689031807346","distractor":"684031807346","target":"absent","response":"absent","rt":"8170.400000006","correct":true,"confidence":2},{"trial_n":64,"span":12,"encoder":"619863037034","distractor":"679863037034","target":"absent","response":"present","rt":"6320.200000003","correct":false,"confidence":4},{"trial_n":65,"span":11,"encoder":"81876186425","distractor":"81876186422","target":"absent","response":"absent","rt":"2877.5","correct":true,"confidence":5},{"trial_n":66,"span":11,"encoder":"56932854855","distractor":"50932854855","target":"absent","response":"present","rt":"2796.700000003","correct":false,"confidence":4},{"trial_n":67,"span":10,"encoder":"0683233683","distractor":"0683233673","target":"absent","response":"absent","rt":"2980.6000000089","correct":true,"confidence":5},{"trial_n":68,"span":10,"encoder":"0851178787","distractor":"0853178787","target":"present","response":"absent","rt":"4101.5","correct":false,"confidence":4},{"trial_n":69,"span":9,"encoder":"436885294","distractor":"436885394","target":"absent","response":"present","rt":"6710.8999999911","correct":false,"confidence":3},{"trial_n":70,"span":8,"encoder":"13236499","distractor":"13236099","target":"absent","response":"present","rt":"4610.700000003","correct":false,"confidence":4},{"trial_n":71,"span":8,"encoder":"86166693","distractor":"86166493","target":"present","response":"present","rt":"7943.799999997","correct":true,"confidence":-1},{"trial_n":72,"span":8,"encoder":"06244725","distractor":"26244725","target":"present","response":"present","rt":"6570.400000006","correct":true,"confidence":-1},{"trial_n":73,"span":9,"encoder":"006968307","distractor":"006468307","target":"absent","response":"absent","rt":"7178.3000000119","correct":true,"confidence":-1},{"trial_n":74,"span":9,"encoder":"983331776","distractor":"983331706","target":"absent","response":"present","rt":"1598.400000006","correct":false,"confidence":-1},{"trial_n":75,"span":8,"encoder":"52442145","distractor":"53442145","target":"present","response":"present","rt":"5022.1000000089","correct":true,"confidence":-1},{"trial_n":76,"span":8,"encoder":"45775623","distractor":"46775623","target":"absent","response":"absent","rt":"3610.8999999911","correct":true,"confidence":-1},{"trial_n":77,"span":9,"encoder":"099633164","distractor":"019633164","target":"absent","response":"absent","rt":"2591","correct":true,"confidence":-1},{"trial_n":78,"span":9,"encoder":"208066811","distractor":"208066111","target":"absent","response":"absent","rt":"4586.299999997","correct":true,"confidence":-1},{"trial_n":79,"span":10,"encoder":"2376013805","distractor":"2376033805","target":"present","response":"absent","rt":"4609.5","correct":false,"confidence":-1},{"trial_n":80,"span":9,"encoder":"727563511","distractor":"707563511","target":"absent","response":"absent","rt":"3582.3999999911","correct":true,"confidence":-1},{"trial_n":81,"span":9,"encoder":"478057456","distractor":"476057456","target":"absent","response":"present","rt":"6144.700000003","correct":false,"confidence":-1},{"trial_n":82,"span":8,"encoder":"76389830","distractor":"76389330","target":"present","response":"present","rt":"7197.599999994","correct":true,"confidence":-1},{"trial_n":83,"span":8,"encoder":"65928715","distractor":"65928515","target":"absent","response":"absent","rt":"3429.400000006","correct":true,"confidence":-1},{"trial_n":84,"span":9,"encoder":"965187789","distractor":"965787789","target":"absent","response":"absent","rt":"3552.3999999911","correct":true,"confidence":-1},{"trial_n":85,"span":9,"encoder":"706809563","distractor":"706809567","target":"present","response":"present","rt":"1235.700000003","correct":true,"confidence":-1},{"trial_n":86,"span":10,"encoder":"4473441477","distractor":"4473449477","target":"absent","response":"absent","rt":"6687.5","correct":true,"confidence":-1},{"trial_n":87,"span":10,"encoder":"4083580929","distractor":"4083570929","target":"absent","response":"absent","rt":"4357.3999999911","correct":true,"confidence":-1},{"trial_n":88,"span":11,"encoder":"08122363689","distractor":"08122366689","target":"absent","response":"absent","rt":"5889.299999997","correct":true,"confidence":-1},{"trial_n":89,"span":11,"encoder":"61991984426","distractor":"61391984426","target":"present","response":"present","rt":"3103.599999994","correct":true,"confidence":-1},{"trial_n":90,"span":12,"encoder":"798801610714","distractor":"798801610724","target":"absent","response":"present","rt":"17123.199999988","correct":false,"confidence":-1},{"trial_n":91,"span":11,"encoder":"61328288974","distractor":"61388288974","target":"present","response":"present","rt":"10669.299999997","correct":true,"confidence":5},{"trial_n":92,"span":11,"encoder":"42573445167","distractor":"42573445467","target":"present","response":"present","rt":"3527","correct":true,"confidence":5},{"trial_n":93,"span":12,"encoder":"017635134829","distractor":"017636134829","target":"absent","response":"absent","rt":"7555.099999994","correct":true,"confidence":4},{"trial_n":94,"span":12,"encoder":"438966521916","distractor":"431966521916","target":"present","response":"present","rt":"3422.299999997","correct":true,"confidence":3},{"trial_n":95,"span":13,"encoder":"7691791542308","distractor":"7691741542308","target":"absent","response":"present","rt":"2815.200000003","correct":false,"confidence":2},{"trial_n":96,"span":12,"encoder":"918822601156","distractor":"918822101156","target":"present","response":"present","rt":"12589.599999994","correct":true,"confidence":5},{"trial_n":97,"span":12,"encoder":"152664776145","distractor":"152664771145","target":"present","response":"present","rt":"6331","correct":true,"confidence":4},{"trial_n":98,"span":13,"encoder":"2550125731877","distractor":"2550175731877","target":"absent","response":"absent","rt":"27458.200000003","correct":true,"confidence":4},{"trial_n":99,"span":13,"encoder":"8577101478898","distractor":"8577101479898","target":"absent","response":"present","rt":"3132.5","correct":false,"confidence":2},{"trial_n":100,"span":12,"encoder":"554949139322","distractor":"554949139332","target":"present","response":"present","rt":"15473.5","correct":true,"confidence":5},{"trial_n":101,"span":12,"encoder":"003209448072","distractor":"703209448072","target":"present","response":"present","rt":"3690.299999997","correct":true,"confidence":5},{"trial_n":102,"span":13,"encoder":"9464154666407","distractor":"1464154666407","target":"absent","response":"absent","rt":"4130","correct":true,"confidence":5},{"trial_n":103,"span":13,"encoder":"3404735131990","distractor":"3404735136990","target":"present","response":"present","rt":"20282.699999988","correct":true,"confidence":4},{"trial_n":104,"span":14,"encoder":"13911844263232","distractor":"13971844263232","target":"absent","response":"absent","rt":"5465.099999994","correct":true,"confidence":5},{"trial_n":105,"span":14,"encoder":"02996331599504","distractor":"02996331499504","target":"present","response":"present","rt":"33196.099999994","correct":true,"confidence":3},{"trial_n":106,"span":15,"encoder":"586041945224826","distractor":"586041945224866","target":"absent","response":"absent","rt":"6497.900000006","correct":true,"confidence":4},{"trial_n":107,"span":15,"encoder":"401418636353900","distractor":"401618636353900","target":"absent","response":"absent","rt":"6649.400000006","correct":true,"confidence":3},{"trial_n":108,"span":16,"encoder":"4966055615081299","distractor":"4963055615081299","target":"present","response":"present","rt":"2848.5","correct":true,"confidence":4},{"trial_n":109,"span":16,"encoder":"3023998989351421","distractor":"3023998689351421","target":"present","response":"absent","rt":"6665.799999997","correct":false,"confidence":3},{"trial_n":110,"span":15,"encoder":"459656431719224","distractor":"459656431719264","target":"present","response":"present","rt":"10447.899999991","correct":true,"confidence":2},{"trial_n":111,"span":15,"encoder":"834671680406979","distractor":"934671680406979","target":"absent","response":"absent","rt":"6963.200000003","correct":true,"confidence":2},{"trial_n":112,"span":16,"encoder":"6308231666765575","distractor":"6308231666765573","target":"absent","response":"present","rt":"13676.199999988","correct":false,"confidence":3},{"trial_n":113,"span":15,"encoder":"565124436889008","distractor":"595124436889008","target":"present","response":"present","rt":"5985.1999999881","correct":true,"confidence":2},{"trial_n":114,"span":15,"encoder":"234442516476320","distractor":"234442316476320","target":"present","response":"present","rt":"5461.299999997","correct":true,"confidence":3},{"trial_n":115,"span":16,"encoder":"1786791963646833","distractor":"1787791963646833","target":"present","response":"present","rt":"9264.099999994","correct":true,"confidence":4},{"trial_n":116,"span":16,"encoder":"8311963985383060","distractor":"8311963685383060","target":"present","response":"absent","rt":"9263.400000006","correct":false,"confidence":3},{"trial_n":117,"span":15,"encoder":"159305865053294","distractor":"159305869053294","target":"present","response":"absent","rt":"12813.200000003","correct":false,"confidence":3},{"trial_n":118,"span":14,"encoder":"50158188712200","distractor":"50158688712200","target":"absent","response":"present","rt":"6122.200000003","correct":false,"confidence":3},{"trial_n":119,"span":13,"encoder":"2944741323890","distractor":"2944741323790","target":"absent","response":"present","rt":"7164.1999999881","correct":false,"confidence":2},{"trial_n":120,"span":12,"encoder":"298010140803","distractor":"298040140803","target":"absent","response":"present","rt":"3742.8000000119","correct":false,"confidence":2},{"trial_n":121,"span":11,"encoder":"44605821956","distractor":"44665821956","target":"absent","response":"absent","rt":"3554.200000003","correct":true,"confidence":4},{"trial_n":122,"span":11,"encoder":"02117494148","distractor":"02117491148","target":"present","response":"absent","rt":"11104","correct":false,"confidence":2},{"trial_n":123,"span":10,"encoder":"0035873565","distractor":"0035823565","target":"present","response":"present","rt":"6389.700000003","correct":true,"confidence":3},{"trial_n":124,"span":10,"encoder":"6958913066","distractor":"6958913064","target":"absent","response":"absent","rt":"1931.700000003","correct":true,"confidence":5},{"trial_n":125,"span":11,"encoder":"33597216256","distractor":"33597216656","target":"present","response":"absent","rt":"7116.5","correct":false,"confidence":4},{"trial_n":126,"span":10,"encoder":"4983428918","distractor":"4983428948","target":"absent","response":"absent","rt":"3945.299999997","correct":true,"confidence":5},{"trial_n":127,"span":10,"encoder":"2852766954","distractor":"2892766954","target":"present","response":"absent","rt":"9634.5","correct":false,"confidence":4},{"trial_n":128,"span":9,"encoder":"534940585","distractor":"534990585","target":"present","response":"present","rt":"4673","correct":true,"confidence":3},{"trial_n":129,"span":9,"encoder":"959839406","distractor":"949839406","target":"present","response":"present","rt":"3330.8999999911","correct":true,"confidence":3},{"trial_n":130,"span":10,"encoder":"8301200057","distractor":"8301200157","target":"absent","response":"absent","rt":"2347.1000000089","correct":true,"confidence":4},{"trial_n":131,"span":10,"encoder":"3812542138","distractor":"3412542138","target":"present","response":"absent","rt":"3083.3999999911","correct":false,"confidence":4},{"trial_n":132,"span":9,"encoder":"969092658","distractor":"969032658","target":"absent","response":"present","rt":"6253.799999997","correct":false,"confidence":2},{"trial_n":133,"span":8,"encoder":"30145727","distractor":"30145724","target":"present","response":"present","rt":"2903.5","correct":true,"confidence":5},{"trial_n":134,"span":8,"encoder":"54760748","distractor":"54720748","target":"present","response":"present","rt":"3661.900000006","correct":true,"confidence":3},{"trial_n":135,"span":9,"encoder":"330295371","distractor":"330215371","target":"absent","response":"present","rt":"2756.400000006","correct":false,"confidence":3},{"trial_n":136,"span":8,"encoder":"78982484","distractor":"78962484","target":"present","response":"present","rt":"5145.599999994","correct":true,"confidence":4},{"trial_n":137,"span":8,"encoder":"16893515","distractor":"26893515","target":"present","response":"present","rt":"3245.1000000089","correct":true,"confidence":4},{"trial_n":138,"span":9,"encoder":"917035848","distractor":"917036848","target":"absent","response":"present","rt":"6357.700000003","correct":false,"confidence":3},{"trial_n":139,"span":8,"encoder":"53026122","distractor":"53029122","target":"absent","response":"present","rt":"5123.700000003","correct":false,"confidence":2},{"trial_n":140,"span":7,"encoder":"6678100","distractor":"2678100","target":"present","response":"present","rt":"3237.200000003","correct":true,"confidence":4}]