[{"trial_n":1,"min":25,"max":230,"target":"present","response":"absent","rt":10397.400000006,"correct":false,"confidence":-1},{"trial_n":2,"min":25,"max":230,"target":"present","response":"present","rt":1185.099999994,"correct":true,"confidence":-1},{"trial_n":3,"min":25,"max":230,"target":"absent","response":"absent","rt":635.70000000298,"correct":true,"confidence":-1},{"trial_n":4,"min":41,"max":214,"target":"absent","response":"absent","rt":440,"correct":true,"confidence":-1},{"trial_n":5,"min":41,"max":214,"target":"present","response":"present","rt":388.60000000894,"correct":true,"confidence":-1},{"trial_n":6,"min":57,"max":198,"target":"present","response":"present","rt":236.5,"correct":true,"confidence":-1},{"trial_n":7,"min":57,"max":198,"target":"present","response":"present","rt":193.40000000596,"correct":true,"confidence":-1},{"trial_n":8,"min":73,"max":182,"target":"absent","response":"absent","rt":369.70000000298,"correct":true,"confidence":-1},{"trial_n":9,"min":73,"max":182,"target":"present","response":"present","rt":592.29999999702,"correct":true,"confidence":-1},{"trial_n":10,"min":89,"max":166,"target":"absent","response":"absent","rt":371.30000001192,"correct":true,"confidence":-1},{"trial_n":11,"min":89,"max":166,"target":"present","response":"absent","rt":765.70000000298,"correct":false,"confidence":-1},{"trial_n":12,"min":81,"max":174,"target":"present","response":"present","rt":418,"correct":true,"confidence":-1},{"trial_n":13,"min":81,"max":174,"target":"absent","response":"absent","rt":399.29999999702,"correct":true,"confidence":-1},{"trial_n":14,"min":89,"max":166,"target":"absent","response":"absent","rt":347.29999999702,"correct":true,"confidence":-1},{"trial_n":15,"min":89,"max":166,"target":"present","response":"present","rt":440.40000000596,"correct":true,"confidence":-1},{"trial_n":16,"min":97,"max":158,"target":"absent","response":"absent","rt":1033.599999994,"correct":true,"confidence":-1},{"trial_n":17,"min":97,"max":158,"target":"present","response":"absent","rt":596.70000000298,"correct":false,"confidence":-1},{"trial_n":18,"min":89,"max":166,"target":"absent","response":"present","rt":385.5,"correct":false,"confidence":-1},{"trial_n":19,"min":81,"max":174,"target":"absent","response":"absent","rt":1267,"correct":true,"confidence":-1},{"trial_n":20,"min":81,"max":174,"target":"absent","response":"absent","rt":513.69999998808,"correct":true,"confidence":-1},{"trial_n":21,"min":85,"max":170,"target":"absent","response":"absent","rt":873.89999999106,"correct":true,"confidence":3},{"trial_n":22,"min":85,"max":170,"target":"present","response":"present","rt":947.70000000298,"correct":true,"confidence":3},{"trial_n":23,"min":89,"max":166,"target":"absent","response":"absent","rt":551,"correct":true,"confidence":3},{"trial_n":24,"min":89,"max":166,"target":"present","response":"present","rt":881.89999999106,"correct":true,"confidence":4},{"trial_n":25,"min":93,"max":162,"target":"absent","response":"absent","rt":2685.299999997,"correct":true,"confidence":2},{"trial_n":26,"min":93,"max":162,"target":"present","response":"present","rt":1118.3999999911,"correct":true,"confidence":2},{"trial_n":27,"min":97,"max":158,"target":"present","response":"absent","rt":583.5,"correct":false,"confidence":3},{"trial_n":28,"min":93,"max":162,"target":"present","response":"absent","rt":487.79999999702,"correct":false,"confidence":3},{"trial_n":29,"min":89,"max":166,"target":"absent","response":"absent","rt":896.40000000596,"correct":true,"confidence":3},{"trial_n":30,"min":89,"max":166,"target":"absent","response":"present","rt":589.70000000298,"correct":false,"confidence":3},{"trial_n":31,"min":87,"max":168,"target":"present","response":"present","rt":433.79999999702,"correct":true,"confidence":5},{"trial_n":32,"min":87,"max":168,"target":"absent","response":"present","rt":1442.900000006,"correct":false,"confidence":3},{"trial_n":33,"min":85,"max":170,"target":"present","response":"present","rt":304.60000000894,"correct":true,"confidence":4},{"trial_n":34,"min":85,"max":170,"target":"absent","response":"absent","rt":558.5,"correct":true,"confidence":5},{"trial_n":35,"min":87,"max":168,"target":"present","response":"absent","rt":928,"correct":false,"confidence":5},{"trial_n":36,"min":85,"max":170,"target":"absent","response":"present","rt":338.20000000298,"correct":false,"confidence":5},{"trial_n":37,"min":83,"max":172,"target":"present","response":"present","rt":384.89999999106,"correct":true,"confidence":5},{"trial_n":38,"min":83,"max":172,"target":"present","response":"present","rt":287.39999999106,"correct":true,"confidence":5},{"trial_n":39,"min":85,"max":170,"target":"absent","response":"absent","rt":839.90000000596,"correct":true,"confidence":4},{"trial_n":40,"min":85,"max":170,"target":"present","response":"present","rt":251.60000000894,"correct":true,"confidence":5},{"trial_n":41,"min":86,"max":169,"target":"absent","response":"absent","rt":377.30000001192,"correct":true,"confidence":4},{"trial_n":42,"min":86,"max":169,"target":"absent","response":"absent","rt":333.5,"correct":true,"confidence":4},{"trial_n":43,"min":87,"max":168,"target":"present","response":"present","rt":1081.599999994,"correct":true,"confidence":2},{"trial_n":44,"min":87,"max":168,"target":"absent","response":"present","rt":1721.1000000089,"correct":false,"confidence":1},{"trial_n":45,"min":86,"max":169,"target":"present","response":"present","rt":387.39999999106,"correct":true,"confidence":3},{"trial_n":46,"min":86,"max":169,"target":"present","response":"present","rt":704.10000000894,"correct":true,"confidence":2},{"trial_n":47,"min":87,"max":168,"target":"absent","response":"present","rt":639.40000000596,"correct":false,"confidence":3},{"trial_n":48,"min":86,"max":169,"target":"absent","response":"absent","rt":490.29999999702,"correct":true,"confidence":3},{"trial_n":49,"min":86,"max":169,"target":"present","response":"absent","rt":312.29999999702,"correct":false,"confidence":4},{"trial_n":50,"min":85,"max":170,"target":"absent","response":"absent","rt":600.90000000596,"correct":true,"confidence":2},{"trial_n":51,"min":85,"max":170,"target":"present","response":"absent","rt":362.40000000596,"correct":false,"confidence":2},{"trial_n":52,"min":84,"max":171,"target":"absent","response":"present","rt":253.09999999404,"correct":false,"confidence":2},{"trial_n":53,"min":83,"max":172,"target":"absent","response":"absent","rt":740.40000000596,"correct":true,"confidence":2},{"trial_n":54,"min":83,"max":172,"target":"present","response":"present","rt":328.80000001192,"correct":true,"confidence":5},{"trial_n":55,"min":84,"max":171,"target":"absent","response":"present","rt":1221.599999994,"correct":false,"confidence":2},{"trial_n":56,"min":83,"max":172,"target":"absent","response":"present","rt":285.70000000298,"correct":false,"confidence":4},{"trial_n":57,"min":82,"max":173,"target":"absent","response":"present","rt":505.79999999702,"correct":false,"confidence":4},{"trial_n":58,"min":81,"max":174,"target":"present","response":"present","rt":2092.6000000089,"correct":true,"confidence":3},{"trial_n":59,"min":81,"max":174,"target":"present","response":"present","rt":241.79999999702,"correct":true,"confidence":5},{"trial_n":60,"min":82,"max":173,"target":"present","response":"present","rt":195.5,"correct":true,"confidence":5},{"trial_n":61,"min":82,"max":173,"target":"absent","response":"present","rt":1045.3000000119,"correct":false,"confidence":2},{"trial_n":62,"min":81,"max":174,"target":"present","response":"present","rt":208.5,"correct":true,"confidence":4},{"trial_n":63,"min":81,"max":174,"target":"present","response":"present","rt":759.20000000298,"correct":true,"confidence":4},{"trial_n":64,"min":82,"max":173,"target":"absent","response":"present","rt":262.29999999702,"correct":false,"confidence":5},{"trial_n":65,"min":81,"max":174,"target":"absent","response":"present","rt":444.59999999404,"correct":false,"confidence":4},{"trial_n":66,"min":80,"max":175,"target":"absent","response":"absent","rt":451.20000000298,"correct":true,"confidence":3},{"trial_n":67,"min":80,"max":175,"target":"present","response":"present","rt":317.09999999404,"correct":true,"confidence":4},{"trial_n":68,"min":81,"max":174,"target":"present","response":"present","rt":212.90000000596,"correct":true,"confidence":5},{"trial_n":69,"min":81,"max":174,"target":"present","response":"present","rt":211.29999999702,"correct":true,"confidence":5},{"trial_n":70,"min":82,"max":173,"target":"present","response":"present","rt":145.20000000298,"correct":true,"confidence":5},{"trial_n":71,"min":41,"max":214,"target":"present","response":"present","rt":5429,"correct":true,"confidence":-1},{"trial_n":72,"min":41,"max":214,"target":"present","response":"present","rt":1538.5,"correct":true,"confidence":-1},{"trial_n":73,"min":57,"max":198,"target":"absent","response":"absent","rt":436.20000000298,"correct":true,"confidence":-1},{"trial_n":74,"min":57,"max":198,"target":"absent","response":"absent","rt":555,"correct":true,"confidence":-1},{"trial_n":75,"min":73,"max":182,"target":"present","response":"present","rt":758,"correct":true,"confidence":-1},{"trial_n":76,"min":73,"max":182,"target":"absent","response":"present","rt":431.80000001192,"correct":false,"confidence":-1},{"trial_n":77,"min":57,"max":198,"target":"absent","response":"absent","rt":600.5,"correct":true,"confidence":-1},{"trial_n":78,"min":57,"max":198,"target":"present","response":"present","rt":582.70000000298,"correct":true,"confidence":-1},{"trial_n":79,"min":73,"max":182,"target":"present","response":"present","rt":548.29999999702,"correct":true,"confidence":-1},{"trial_n":80,"min":73,"max":182,"target":"present","response":"present","rt":627.70000000298,"correct":true,"confidence":-1},{"trial_n":81,"min":81,"max":174,"target":"present","response":"absent","rt":530.59999999404,"correct":false,"confidence":-1},{"trial_n":82,"min":73,"max":182,"target":"present","response":"present","rt":788.90000000596,"correct":true,"confidence":-1},{"trial_n":83,"min":73,"max":182,"target":"absent","response":"absent","rt":2440.900000006,"correct":true,"confidence":-1},{"trial_n":84,"min":81,"max":174,"target":"absent","response":"present","rt":2863.700000003,"correct":false,"confidence":-1},{"trial_n":85,"min":73,"max":182,"target":"absent","response":"absent","rt":765.70000000298,"correct":true,"confidence":-1},{"trial_n":86,"min":73,"max":182,"target":"present","response":"absent","rt":620.89999999106,"correct":false,"confidence":-1},{"trial_n":87,"min":65,"max":190,"target":"present","response":"present","rt":1288.299999997,"correct":true,"confidence":-1},{"trial_n":88,"min":65,"max":190,"target":"absent","response":"absent","rt":810.90000000596,"correct":true,"confidence":-1},{"trial_n":89,"min":73,"max":182,"target":"absent","response":"absent","rt":875,"correct":true,"confidence":-1},{"trial_n":90,"min":73,"max":182,"target":"present","response":"present","rt":434.79999999702,"correct":true,"confidence":-1},{"trial_n":91,"min":77,"max":178,"target":"present","response":"present","rt":685.20000000298,"correct":true,"confidence":5},{"trial_n":92,"min":77,"max":178,"target":"absent","response":"absent","rt":787,"correct":true,"confidence":5},{"trial_n":93,"min":81,"max":174,"target":"present","response":"present","rt":1603.900000006,"correct":true,"confidence":4},{"trial_n":94,"min":81,"max":174,"target":"present","response":"present","rt":566.5,"correct":true,"confidence":4},{"trial_n":95,"min":85,"max":170,"target":"absent","response":"present","rt":1195.6000000089,"correct":false,"confidence":3},{"trial_n":96,"min":81,"max":174,"target":"absent","response":"absent","rt":883.40000000596,"correct":true,"confidence":2},{"trial_n":97,"min":81,"max":174,"target":"present","response":"present","rt":363,"correct":true,"confidence":5},{"trial_n":98,"min":85,"max":170,"target":"present","response":"present","rt":692.5,"correct":true,"confidence":5},{"trial_n":99,"min":85,"max":170,"target":"present","response":"absent","rt":1439,"correct":false,"confidence":1},{"trial_n":100,"min":81,"max":174,"target":"absent","response":"absent","rt":967.29999999702,"correct":true,"confidence":2},{"trial_n":101,"min":81,"max":174,"target":"absent","response":"absent","rt":1275.1999999881,"correct":true,"confidence":1},{"trial_n":102,"min":83,"max":172,"target":"present","response":"present","rt":370.79999999702,"correct":true,"confidence":5},{"trial_n":103,"min":83,"max":172,"target":"absent","response":"present","rt":1467.299999997,"correct":false,"confidence":1},{"trial_n":104,"min":81,"max":174,"target":"present","response":"present","rt":534.90000000596,"correct":true,"confidence":3},{"trial_n":105,"min":81,"max":174,"target":"present","response":"present","rt":763.70000000298,"correct":true,"confidence":4},{"trial_n":106,"min":83,"max":172,"target":"present","response":"present","rt":470.5,"correct":true,"confidence":5},{"trial_n":107,"min":83,"max":172,"target":"present","response":"absent","rt":778.29999999702,"correct":false,"confidence":3},{"trial_n":108,"min":81,"max":174,"target":"absent","response":"present","rt":1165.700000003,"correct":false,"confidence":1},{"trial_n":109,"min":79,"max":176,"target":"present","response":"present","rt":386.09999999404,"correct":true,"confidence":4},{"trial_n":110,"min":79,"max":176,"target":"absent","response":"absent","rt":908.70000000298,"correct":true,"confidence":2},{"trial_n":111,"min":80,"max":175,"target":"absent","response":"absent","rt":521.5,"correct":true,"confidence":2},{"trial_n":112,"min":80,"max":175,"target":"present","response":"present","rt":609.5,"correct":true,"confidence":3},{"trial_n":113,"min":81,"max":174,"target":"absent","response":"absent","rt":739.10000000894,"correct":true,"confidence":4},{"trial_n":114,"min":81,"max":174,"target":"absent","response":"absent","rt":455.5,"correct":true,"confidence":4},{"trial_n":115,"min":82,"max":173,"target":"present","response":"present","rt":522.60000000894,"correct":true,"confidence":5},{"trial_n":116,"min":82,"max":173,"target":"present","response":"present","rt":536.20000000298,"correct":true,"confidence":5},{"trial_n":117,"min":83,"max":172,"target":"absent","response":"absent","rt":478.5,"correct":true,"confidence":5},{"trial_n":118,"min":83,"max":172,"target":"absent","response":"absent","rt":359.70000000298,"correct":true,"confidence":5},{"trial_n":119,"min":84,"max":171,"target":"present","response":"present","rt":391.5,"correct":true,"confidence":5},{"trial_n":120,"min":84,"max":171,"target":"present","response":"present","rt":615.29999999702,"correct":true,"confidence":4},{"trial_n":121,"min":85,"max":170,"target":"present","response":"present","rt":605.29999999702,"correct":true,"confidence":4},{"trial_n":122,"min":85,"max":170,"target":"absent","response":"present","rt":566.40000000596,"correct":false,"confidence":4},{"trial_n":123,"min":84,"max":171,"target":"absent","response":"present","rt":1569.200000003,"correct":false,"confidence":1},{"trial_n":124,"min":83,"max":172,"target":"absent","response":"absent","rt":859.79999999702,"correct":true,"confidence":3},{"trial_n":125,"min":83,"max":172,"target":"absent","response":"absent","rt":950.39999999106,"correct":true,"confidence":2},{"trial_n":126,"min":84,"max":171,"target":"absent","response":"absent","rt":451.5,"correct":true,"confidence":2},{"trial_n":127,"min":84,"max":171,"target":"absent","response":"absent","rt":423.40000000596,"correct":true,"confidence":3},{"trial_n":128,"min":85,"max":170,"target":"present","response":"present","rt":229.30000001192,"correct":true,"confidence":4},{"trial_n":129,"min":85,"max":170,"target":"absent","response":"absent","rt":669.09999999404,"correct":true,"confidence":5},{"trial_n":130,"min":86,"max":169,"target":"absent","response":"absent","rt":1260.599999994,"correct":true,"confidence":2},{"trial_n":131,"min":86,"max":169,"target":"present","response":"present","rt":492.09999999404,"correct":true,"confidence":4},{"trial_n":132,"min":87,"max":168,"target":"present","response":"absent","rt":839.30000001192,"correct":false,"confidence":5},{"trial_n":133,"min":86,"max":169,"target":"absent","response":"absent","rt":1122.8999999911,"correct":true,"confidence":3},{"trial_n":134,"min":86,"max":169,"target":"present","response":"present","rt":435.20000000298,"correct":true,"confidence":4},{"trial_n":135,"min":87,"max":168,"target":"absent","response":"absent","rt":1176.5,"correct":true,"confidence":4},{"trial_n":136,"min":87,"max":168,"target":"absent","response":"absent","rt":635.30000001192,"correct":true,"confidence":4},{"trial_n":137,"min":88,"max":167,"target":"absent","response":"absent","rt":1010.200000003,"correct":true,"confidence":2},{"trial_n":138,"min":88,"max":167,"target":"present","response":"present","rt":364,"correct":true,"confidence":5},{"trial_n":139,"min":89,"max":166,"target":"present","response":"present","rt":1639.1999999881,"correct":true,"confidence":4},{"trial_n":140,"min":89,"max":166,"target":"present","response":"present","rt":2232.799999997,"correct":true,"confidence":2}]