[{"trial_n":1,"span":8,"encoder":"26858239","distractor":"26858238","target":"present","response":"present","rt":"10551.600000024","correct":true,"confidence":-1},{"trial_n":2,"span":8,"encoder":"27047223","distractor":"27049223","target":"present","response":"present","rt":"5320.5","correct":true,"confidence":-1},{"trial_n":3,"span":10,"encoder":"5416171440","distractor":"5416161440","target":"absent","response":"present","rt":"5954.2000000477","correct":false,"confidence":-1},{"trial_n":4,"span":8,"encoder":"64697011","distractor":"64697031","target":"absent","response":"present","rt":"4528.4000000954","correct":false,"confidence":-1},{"trial_n":5,"span":6,"encoder":"288304","distractor":"388304","target":"present","response":"absent","rt":"3302.6999999285","correct":false,"confidence":-1},{"trial_n":6,"span":4,"encoder":"9038","distractor":"9028","target":"present","response":"present","rt":"1820.8999999762","correct":true,"confidence":-1},{"trial_n":7,"span":4,"encoder":"6204","distractor":"6205","target":"absent","response":"absent","rt":"1853.1000000238","correct":true,"confidence":-1},{"trial_n":8,"span":6,"encoder":"549764","distractor":"549464","target":"present","response":"present","rt":"2708.4000000954","correct":true,"confidence":-1},{"trial_n":9,"span":6,"encoder":"576528","distractor":"576828","target":"absent","response":"absent","rt":"3056.2999999523","correct":true,"confidence":-1},{"trial_n":10,"span":8,"encoder":"17134474","distractor":"17134479","target":"present","response":"absent","rt":"4574.3999999762","correct":false,"confidence":-1},{"trial_n":11,"span":6,"encoder":"397086","distractor":"391086","target":"absent","response":"absent","rt":"2635.2000000477","correct":true,"confidence":-1},{"trial_n":12,"span":6,"encoder":"324880","distractor":"324800","target":"present","response":"present","rt":"5451.5","correct":true,"confidence":-1},{"trial_n":13,"span":7,"encoder":"7343154","distractor":"7343155","target":"present","response":"absent","rt":"4106.6000000238","correct":false,"confidence":-1},{"trial_n":14,"span":6,"encoder":"757248","distractor":"757240","target":"absent","response":"present","rt":"3699.5","correct":false,"confidence":-1},{"trial_n":15,"span":5,"encoder":"31208","distractor":"31808","target":"present","response":"present","rt":"2023.3000000715","correct":true,"confidence":-1},{"trial_n":16,"span":5,"encoder":"77100","distractor":"77106","target":"present","response":"absent","rt":"4580.1999999285","correct":false,"confidence":-1},{"trial_n":17,"span":4,"encoder":"9950","distractor":"9900","target":"absent","response":"absent","rt":"2530.6000000238","correct":true,"confidence":-1},{"trial_n":18,"span":4,"encoder":"0602","distractor":"0608","target":"absent","response":"absent","rt":"3496.2000000477","correct":true,"confidence":-1},{"trial_n":19,"span":5,"encoder":"13022","distractor":"13422","target":"absent","response":"absent","rt":"2441.7000000477","correct":true,"confidence":-1},{"trial_n":20,"span":5,"encoder":"15108","distractor":"15188","target":"present","response":"present","rt":"3170.0999999046","correct":true,"confidence":-1},{"trial_n":21,"span":6,"encoder":"988580","distractor":"978580","target":"absent","response":"absent","rt":"3178","correct":true,"confidence":3},{"trial_n":22,"span":6,"encoder":"807030","distractor":"807036","target":"present","response":"present","rt":"2445.8999999762","correct":true,"confidence":4},{"trial_n":23,"span":7,"encoder":"4767262","distractor":"4727262","target":"present","response":"absent","rt":"3398.3000000715","correct":false,"confidence":3},{"trial_n":24,"span":6,"encoder":"259935","distractor":"254935","target":"absent","response":"present","rt":"5403.8000000715","correct":false,"confidence":2},{"trial_n":25,"span":5,"encoder":"48832","distractor":"48838","target":"absent","response":"absent","rt":"3987.1000000238","correct":true,"confidence":3},{"trial_n":26,"span":5,"encoder":"64443","distractor":"64453","target":"absent","response":"absent","rt":"2713.2999999523","correct":true,"confidence":5},{"trial_n":27,"span":6,"encoder":"151591","distractor":"159591","target":"absent","response":"present","rt":"4379.8000000715","correct":false,"confidence":3},{"trial_n":28,"span":5,"encoder":"82589","distractor":"82569","target":"present","response":"present","rt":"3061.8999999762","correct":true,"confidence":4},{"trial_n":29,"span":5,"encoder":"49018","distractor":"40018","target":"absent","response":"absent","rt":"3737.8000000715","correct":true,"confidence":3},{"trial_n":30,"span":6,"encoder":"192300","distractor":"192307","target":"absent","response":"absent","rt":"3141.8999999762","correct":true,"confidence":4},{"trial_n":31,"span":6,"encoder":"240124","distractor":"440124","target":"absent","response":"absent","rt":"2472.8999999762","correct":true,"confidence":4},{"trial_n":32,"span":7,"encoder":"4234787","distractor":"4234717","target":"absent","response":"absent","rt":"5923.3000000715","correct":true,"confidence":2},{"trial_n":33,"span":7,"encoder":"7819958","distractor":"7319958","target":"present","response":"present","rt":"2813.3000000715","correct":true,"confidence":3},{"trial_n":34,"span":8,"encoder":"33591978","distractor":"33598978","target":"present","response":"present","rt":"4342.1999999285","correct":true,"confidence":2},{"trial_n":35,"span":8,"encoder":"54446697","distractor":"54446695","target":"present","response":"present","rt":"5375.3999999762","correct":true,"confidence":2},{"trial_n":36,"span":9,"encoder":"731931716","distractor":"731930716","target":"present","response":"present","rt":"4793.3999999762","correct":true,"confidence":2},{"trial_n":37,"span":9,"encoder":"478557992","distractor":"478557995","target":"absent","response":"present","rt":"7547.8999999762","correct":false,"confidence":2},{"trial_n":38,"span":8,"encoder":"76694417","distractor":"76691417","target":"present","response":"present","rt":"3944","correct":true,"confidence":3},{"trial_n":39,"span":8,"encoder":"53070164","distractor":"53070168","target":"present","response":"present","rt":"4427.6999999285","correct":true,"confidence":3},{"trial_n":40,"span":9,"encoder":"538983467","distractor":"538903467","target":"present","response":"present","rt":"3252.3999999762","correct":true,"confidence":3},{"trial_n":41,"span":9,"encoder":"057290238","distractor":"057290288","target":"present","response":"absent","rt":"4309.5","correct":false,"confidence":3},{"trial_n":42,"span":8,"encoder":"54101775","distractor":"50101775","target":"present","response":"present","rt":"3446.6999999285","correct":true,"confidence":3},{"trial_n":43,"span":8,"encoder":"96768982","distractor":"96788982","target":"present","response":"present","rt":"7343","correct":true,"confidence":3},{"trial_n":44,"span":9,"encoder":"273402478","distractor":"373402478","target":"present","response":"absent","rt":"4195.8000000715","correct":false,"confidence":2},{"trial_n":45,"span":8,"encoder":"13358854","distractor":"13358844","target":"absent","response":"absent","rt":"2433","correct":true,"confidence":4},{"trial_n":46,"span":8,"encoder":"63294800","distractor":"63284800","target":"present","response":"absent","rt":"9335.8999999762","correct":false,"confidence":2},{"trial_n":47,"span":7,"encoder":"1800062","distractor":"1800064","target":"absent","response":"absent","rt":"2307.6000000238","correct":true,"confidence":3},{"trial_n":48,"span":7,"encoder":"7205304","distractor":"7204304","target":"absent","response":"present","rt":"5726.5","correct":false,"confidence":2},{"trial_n":49,"span":6,"encoder":"724344","distractor":"724144","target":"present","response":"present","rt":"4102.5","correct":true,"confidence":3},{"trial_n":50,"span":6,"encoder":"488495","distractor":"488497","target":"absent","response":"absent","rt":"2226","correct":true,"confidence":4},{"trial_n":51,"span":7,"encoder":"7467112","distractor":"7467172","target":"absent","response":"absent","rt":"4183.4000000954","correct":true,"confidence":4},{"trial_n":52,"span":7,"encoder":"5563441","distractor":"5563141","target":"present","response":"present","rt":"7596.0999999046","correct":true,"confidence":2},{"trial_n":53,"span":8,"encoder":"27709803","distractor":"27709883","target":"present","response":"present","rt":"4030.9000000954","correct":true,"confidence":2},{"trial_n":54,"span":8,"encoder":"87246126","distractor":"87446126","target":"absent","response":"absent","rt":"2374.8000000715","correct":true,"confidence":3},{"trial_n":55,"span":9,"encoder":"899828433","distractor":"899828403","target":"present","response":"present","rt":"4008.1000000238","correct":true,"confidence":3},{"trial_n":56,"span":9,"encoder":"930394804","distractor":"930394304","target":"absent","response":"absent","rt":"4304","correct":true,"confidence":3},{"trial_n":57,"span":10,"encoder":"6043554046","distractor":"6043554006","target":"present","response":"present","rt":"4805","correct":true,"confidence":2},{"trial_n":58,"span":10,"encoder":"9134666447","distractor":"9134666487","target":"absent","response":"absent","rt":"2410.5999999046","correct":true,"confidence":4},{"trial_n":59,"span":11,"encoder":"25870846938","distractor":"25880846938","target":"absent","response":"absent","rt":"2374.0999999046","correct":true,"confidence":2},{"trial_n":60,"span":11,"encoder":"85048309219","distractor":"85048109219","target":"absent","response":"absent","rt":"3428.4000000954","correct":true,"confidence":2},{"trial_n":61,"span":12,"encoder":"055172980441","distractor":"055172980941","target":"present","response":"absent","rt":"9854.6000000238","correct":false,"confidence":2},{"trial_n":62,"span":11,"encoder":"12798874339","distractor":"13798874339","target":"present","response":"present","rt":"5230.6000000238","correct":true,"confidence":3},{"trial_n":63,"span":11,"encoder":"50952472192","distractor":"50952472092","target":"absent","response":"present","rt":"4897.8000000715","correct":false,"confidence":2},{"trial_n":64,"span":10,"encoder":"6786707545","distractor":"6786717545","target":"present","response":"present","rt":"7355.1000000238","correct":true,"confidence":2},{"trial_n":65,"span":10,"encoder":"5076875736","distractor":"5076975736","target":"absent","response":"absent","rt":"3968.6000000238","correct":true,"confidence":4},{"trial_n":66,"span":11,"encoder":"33411442054","distractor":"33411442058","target":"present","response":"absent","rt":"5445.2000000477","correct":false,"confidence":3},{"trial_n":67,"span":10,"encoder":"8822053168","distractor":"2822053168","target":"present","response":"present","rt":"4338.3999999762","correct":true,"confidence":3},{"trial_n":68,"span":10,"encoder":"5104859601","distractor":"5101859601","target":"absent","response":"absent","rt":"2769.0999999046","correct":true,"confidence":3},{"trial_n":69,"span":11,"encoder":"41172512831","distractor":"41172512931","target":"absent","response":"absent","rt":"2497.5","correct":true,"confidence":5},{"trial_n":70,"span":11,"encoder":"07992240453","distractor":"67992240453","target":"absent","response":"absent","rt":"9706.3999999762","correct":true,"confidence":2},{"trial_n":71,"span":8,"encoder":"66046462","distractor":"66046262","target":"present","response":"present","rt":"26005.600000024","correct":true,"confidence":-1},{"trial_n":72,"span":8,"encoder":"25964509","distractor":"27964509","target":"present","response":"present","rt":"10810.600000024","correct":true,"confidence":-1},{"trial_n":73,"span":9,"encoder":"386697545","distractor":"386699545","target":"absent","response":"absent","rt":"7187.3999999762","correct":true,"confidence":-1},{"trial_n":74,"span":9,"encoder":"587314094","distractor":"587314004","target":"absent","response":"absent","rt":"11431.600000024","correct":true,"confidence":-1},{"trial_n":75,"span":10,"encoder":"0396587983","distractor":"0396587963","target":"present","response":"present","rt":"3545.3999999762","correct":true,"confidence":-1},{"trial_n":76,"span":10,"encoder":"9345165294","distractor":"4345165294","target":"present","response":"present","rt":"15518.299999952","correct":true,"confidence":-1},{"trial_n":77,"span":11,"encoder":"67771128224","distractor":"67771128234","target":"present","response":"present","rt":"6164.8999999762","correct":true,"confidence":-1},{"trial_n":78,"span":11,"encoder":"32726774048","distractor":"37726774048","target":"present","response":"absent","rt":"5943.2000000477","correct":false,"confidence":-1},{"trial_n":79,"span":10,"encoder":"3956450954","distractor":"3956450984","target":"present","response":"present","rt":"4583.8000000715","correct":true,"confidence":-1},{"trial_n":80,"span":10,"encoder":"4094744785","distractor":"4094714785","target":"present","response":"present","rt":"4203.8999999762","correct":true,"confidence":-1},{"trial_n":81,"span":11,"encoder":"07225273928","distractor":"07225272928","target":"present","response":"present","rt":"5512.6000000238","correct":true,"confidence":-1},{"trial_n":82,"span":11,"encoder":"65786432217","distractor":"65386432217","target":"absent","response":"absent","rt":"9630.5","correct":true,"confidence":-1},{"trial_n":83,"span":12,"encoder":"086887935410","distractor":"086887935490","target":"absent","response":"absent","rt":"2166.6999999285","correct":true,"confidence":-1},{"trial_n":84,"span":12,"encoder":"110332751805","distractor":"110335751805","target":"present","response":"present","rt":"5291.1000000238","correct":true,"confidence":-1},{"trial_n":85,"span":13,"encoder":"6194671613486","distractor":"6194371613486","target":"absent","response":"present","rt":"19697","correct":false,"confidence":-1},{"trial_n":86,"span":12,"encoder":"782110352045","distractor":"682110352045","target":"absent","response":"present","rt":"4956.1999999285","correct":false,"confidence":-1},{"trial_n":87,"span":11,"encoder":"90470389236","distractor":"90470339236","target":"absent","response":"present","rt":"11595","correct":false,"confidence":-1},{"trial_n":88,"span":10,"encoder":"2150034537","distractor":"0150034537","target":"absent","response":"present","rt":"6526.5999999046","correct":false,"confidence":-1},{"trial_n":89,"span":9,"encoder":"531015805","distractor":"531015803","target":"present","response":"present","rt":"4194.9000000954","correct":true,"confidence":-1},{"trial_n":90,"span":9,"encoder":"754833942","distractor":"754873942","target":"absent","response":"absent","rt":"7623.0999999046","correct":true,"confidence":-1},{"trial_n":91,"span":10,"encoder":"7590240651","distractor":"7590140651","target":"absent","response":"absent","rt":"5024.5","correct":true,"confidence":4},{"trial_n":92,"span":10,"encoder":"6517063935","distractor":"6517063835","target":"present","response":"present","rt":"3429.3000000715","correct":true,"confidence":4},{"trial_n":93,"span":11,"encoder":"50710096318","distractor":"50710066318","target":"absent","response":"absent","rt":"3554.5","correct":true,"confidence":4},{"trial_n":94,"span":11,"encoder":"95888053287","distractor":"95888053217","target":"present","response":"present","rt":"3869.3000000715","correct":true,"confidence":5},{"trial_n":95,"span":12,"encoder":"203231173456","distractor":"203231573456","target":"present","response":"present","rt":"7303.2000000477","correct":true,"confidence":3},{"trial_n":96,"span":12,"encoder":"897604261594","distractor":"097604261594","target":"present","response":"absent","rt":"11715.199999928","correct":false,"confidence":2},{"trial_n":97,"span":11,"encoder":"25527789107","distractor":"25527749107","target":"absent","response":"absent","rt":"4852.2999999523","correct":true,"confidence":3},{"trial_n":98,"span":11,"encoder":"74973465540","distractor":"77973465540","target":"absent","response":"absent","rt":"5305.3999999762","correct":true,"confidence":2},{"trial_n":99,"span":12,"encoder":"269334341775","distractor":"269331341775","target":"present","response":"present","rt":"11008.799999952","correct":true,"confidence":1},{"trial_n":100,"span":12,"encoder":"898043953936","distractor":"898073953936","target":"absent","response":"absent","rt":"9529.8999999762","correct":true,"confidence":2},{"trial_n":101,"span":13,"encoder":"0768876439084","distractor":"0768876439094","target":"present","response":"present","rt":"8319.2000000477","correct":true,"confidence":3},{"trial_n":102,"span":13,"encoder":"7823480517496","distractor":"7823460517496","target":"absent","response":"present","rt":"14434.199999928","correct":false,"confidence":2},{"trial_n":103,"span":12,"encoder":"226005611310","distractor":"226405611310","target":"present","response":"present","rt":"5627.6000000238","correct":true,"confidence":3},{"trial_n":104,"span":12,"encoder":"453940393509","distractor":"453940393209","target":"present","response":"present","rt":"4705","correct":true,"confidence":4},{"trial_n":105,"span":13,"encoder":"8942673024374","distractor":"8842673024374","target":"present","response":"present","rt":"13654.399999976","correct":true,"confidence":2},{"trial_n":106,"span":13,"encoder":"5796480264389","distractor":"5766480264389","target":"present","response":"present","rt":"11544.700000048","correct":true,"confidence":1},{"trial_n":107,"span":14,"encoder":"10647774798235","distractor":"10647744798235","target":"present","response":"absent","rt":"19212.899999976","correct":false,"confidence":2},{"trial_n":108,"span":13,"encoder":"2765806316168","distractor":"3765806316168","target":"absent","response":"present","rt":"4337.2000000477","correct":false,"confidence":3},{"trial_n":109,"span":12,"encoder":"647450647167","distractor":"647450847167","target":"present","response":"present","rt":"6807.5","correct":true,"confidence":3},{"trial_n":110,"span":12,"encoder":"103764838803","distractor":"103464838803","target":"absent","response":"absent","rt":"10155.799999952","correct":true,"confidence":2},{"trial_n":111,"span":13,"encoder":"1693624595177","distractor":"1693624595157","target":"absent","response":"present","rt":"8584.8000000715","correct":false,"confidence":3},{"trial_n":112,"span":12,"encoder":"692246618743","distractor":"692286618743","target":"absent","response":"present","rt":"7977.8000000715","correct":false,"confidence":2},{"trial_n":113,"span":11,"encoder":"98547898329","distractor":"98547891329","target":"present","response":"present","rt":"10933.199999928","correct":true,"confidence":3},{"trial_n":114,"span":11,"encoder":"67395722330","distractor":"67395722830","target":"absent","response":"absent","rt":"3996.2000000477","correct":true,"confidence":4},{"trial_n":115,"span":12,"encoder":"549978295934","distractor":"549978295994","target":"present","response":"present","rt":"3779.9000000954","correct":true,"confidence":5},{"trial_n":116,"span":12,"encoder":"038364870666","distractor":"038364870166","target":"present","response":"present","rt":"13144.5","correct":true,"confidence":2},{"trial_n":117,"span":13,"encoder":"6002219597437","distractor":"6082219597437","target":"absent","response":"absent","rt":"10498.300000072","correct":true,"confidence":3},{"trial_n":118,"span":13,"encoder":"4952005474404","distractor":"9952005474404","target":"present","response":"present","rt":"10480.199999928","correct":true,"confidence":2},{"trial_n":119,"span":14,"encoder":"59147909114189","distractor":"59147929114189","target":"absent","response":"absent","rt":"12185","correct":true,"confidence":3},{"trial_n":120,"span":14,"encoder":"91377927954384","distractor":"91377927951384","target":"absent","response":"present","rt":"15929.899999976","correct":false,"confidence":2},{"trial_n":121,"span":13,"encoder":"4657113277932","distractor":"4757113277932","target":"absent","response":"absent","rt":"8035.1000000238","correct":true,"confidence":3},{"trial_n":122,"span":13,"encoder":"4376311271337","distractor":"4376311271037","target":"present","response":"present","rt":"13951.899999976","correct":true,"confidence":3},{"trial_n":123,"span":14,"encoder":"18605610643522","distractor":"48605610643522","target":"absent","response":"present","rt":"9397.2000000477","correct":false,"confidence":2},{"trial_n":124,"span":13,"encoder":"6939311253981","distractor":"6939911253981","target":"absent","response":"absent","rt":"10454.199999928","correct":true,"confidence":3},{"trial_n":125,"span":13,"encoder":"4890648820640","distractor":"4890248820640","target":"absent","response":"absent","rt":"5686.1000000238","correct":true,"confidence":3},{"trial_n":126,"span":14,"encoder":"17361465522766","distractor":"17361465522761","target":"absent","response":"absent","rt":"5631.8999999762","correct":true,"confidence":5},{"trial_n":127,"span":14,"encoder":"61558126880286","distractor":"61558156880286","target":"absent","response":"present","rt":"21238","correct":false,"confidence":2},{"trial_n":128,"span":13,"encoder":"4068008648450","distractor":"4068008648650","target":"present","response":"present","rt":"17815","correct":true,"confidence":2},{"trial_n":129,"span":13,"encoder":"7272697191290","distractor":"7272997191290","target":"present","response":"absent","rt":"11099","correct":false,"confidence":3},{"trial_n":130,"span":12,"encoder":"861579690906","distractor":"861579650906","target":"absent","response":"present","rt":"24304","correct":false,"confidence":2},{"trial_n":131,"span":11,"encoder":"23829384341","distractor":"23829384641","target":"absent","response":"absent","rt":"15439.5","correct":true,"confidence":3},{"trial_n":132,"span":11,"encoder":"44525172039","distractor":"24525172039","target":"present","response":"present","rt":"8065.1999999285","correct":true,"confidence":3},{"trial_n":133,"span":12,"encoder":"843472981124","distractor":"863472981124","target":"present","response":"present","rt":"4687.8999999762","correct":true,"confidence":4},{"trial_n":134,"span":12,"encoder":"699991204498","distractor":"799991204498","target":"present","response":"present","rt":"5896.2999999523","correct":true,"confidence":5},{"trial_n":135,"span":13,"encoder":"7941683700230","distractor":"7941633700230","target":"present","response":"present","rt":"16489.200000048","correct":true,"confidence":2},{"trial_n":136,"span":13,"encoder":"1708177297879","distractor":"1208177297879","target":"absent","response":"present","rt":"6056","correct":false,"confidence":3},{"trial_n":137,"span":12,"encoder":"475529637973","distractor":"075529637973","target":"absent","response":"absent","rt":"23427.299999952","correct":true,"confidence":1},{"trial_n":138,"span":12,"encoder":"649664290429","distractor":"649864290429","target":"present","response":"present","rt":"17501.100000024","correct":true,"confidence":3},{"trial_n":139,"span":13,"encoder":"9564337801113","distractor":"9564437801113","target":"absent","response":"absent","rt":"15766.800000072","correct":true,"confidence":3},{"trial_n":140,"span":13,"encoder":"3405898790455","distractor":"3405898760455","target":"present","response":"present","rt":"4594.5","correct":true,"confidence":4}]