[{"trial_n":1,"span":8,"encoder":"86651219","distractor":"86651211","target":"present","response":"present","rt":"6111.7999999821","correct":true,"confidence":-1},{"trial_n":2,"span":8,"encoder":"54880676","distractor":"94880676","target":"present","response":"absent","rt":"3335.400000006","correct":false,"confidence":-1},{"trial_n":3,"span":6,"encoder":"842746","distractor":"642746","target":"absent","response":"present","rt":"2209.400000006","correct":false,"confidence":-1},{"trial_n":4,"span":4,"encoder":"6554","distractor":"6553","target":"absent","response":"absent","rt":"2740.099999994","correct":true,"confidence":-1},{"trial_n":5,"span":4,"encoder":"3649","distractor":"8649","target":"present","response":"present","rt":"2396.2999999821","correct":true,"confidence":-1},{"trial_n":6,"span":6,"encoder":"996601","distractor":"996621","target":"absent","response":"absent","rt":"1985.1999999881","correct":true,"confidence":-1},{"trial_n":7,"span":6,"encoder":"087827","distractor":"087823","target":"absent","response":"absent","rt":"3329.900000006","correct":true,"confidence":-1},{"trial_n":8,"span":8,"encoder":"69736496","distractor":"69736396","target":"present","response":"present","rt":"3381.7000000179","correct":true,"confidence":-1},{"trial_n":9,"span":8,"encoder":"07133340","distractor":"08133340","target":"absent","response":"absent","rt":"2589.5","correct":true,"confidence":-1},{"trial_n":10,"span":10,"encoder":"9753450178","distractor":"9753400178","target":"absent","response":"absent","rt":"2078.8000000119","correct":true,"confidence":-1},{"trial_n":11,"span":10,"encoder":"3317671233","distractor":"3317674233","target":"absent","response":"absent","rt":"2075.5","correct":true,"confidence":-1},{"trial_n":12,"span":11,"encoder":"81328071795","distractor":"81328071095","target":"present","response":"absent","rt":"1485.6999999881","correct":false,"confidence":-1},{"trial_n":13,"span":10,"encoder":"7858467284","distractor":"3858467284","target":"absent","response":"absent","rt":"1916.1999999881","correct":true,"confidence":-1},{"trial_n":14,"span":10,"encoder":"5995757284","distractor":"5795757284","target":"absent","response":"absent","rt":"1143.6000000238","correct":true,"confidence":-1},{"trial_n":15,"span":11,"encoder":"05384360325","distractor":"05384361325","target":"absent","response":"absent","rt":"1103.400000006","correct":true,"confidence":-1},{"trial_n":16,"span":11,"encoder":"32239968674","distractor":"52239968674","target":"absent","response":"absent","rt":"1167.6999999881","correct":true,"confidence":-1},{"trial_n":17,"span":12,"encoder":"026720371751","distractor":"022720371751","target":"absent","response":"absent","rt":"1100.900000006","correct":true,"confidence":-1},{"trial_n":18,"span":12,"encoder":"373513928127","distractor":"373510928127","target":"absent","response":"absent","rt":"933.19999998808","correct":true,"confidence":-1},{"trial_n":19,"span":13,"encoder":"3157977434783","distractor":"3151977434783","target":"absent","response":"absent","rt":"794.90000000596","correct":true,"confidence":-1},{"trial_n":20,"span":13,"encoder":"6267503035046","distractor":"6267503035041","target":"absent","response":"absent","rt":"743.19999998808","correct":true,"confidence":-1},{"trial_n":21,"span":14,"encoder":"43246842164458","distractor":"43246844164458","target":"present","response":"absent","rt":"2332.5","correct":false,"confidence":2},{"trial_n":22,"span":13,"encoder":"7672878219779","distractor":"7679878219779","target":"present","response":"absent","rt":"5276.5","correct":false,"confidence":1},{"trial_n":23,"span":12,"encoder":"818595972253","distractor":"818595772253","target":"absent","response":"absent","rt":"2417.900000006","correct":true,"confidence":4},{"trial_n":24,"span":12,"encoder":"671229822525","distractor":"671239822525","target":"absent","response":"absent","rt":"7278.900000006","correct":true,"confidence":3},{"trial_n":25,"span":13,"encoder":"6729690380748","distractor":"6729790380748","target":"absent","response":"absent","rt":"1861.400000006","correct":true,"confidence":5},{"trial_n":26,"span":13,"encoder":"2477894143946","distractor":"2477894113946","target":"present","response":"present","rt":"5311","correct":true,"confidence":4},{"trial_n":27,"span":14,"encoder":"61938584323245","distractor":"61338584323245","target":"present","response":"present","rt":"9883.8999999762","correct":true,"confidence":3},{"trial_n":28,"span":14,"encoder":"86802549282797","distractor":"46802549282797","target":"present","response":"absent","rt":"12393.700000018","correct":false,"confidence":2},{"trial_n":29,"span":13,"encoder":"9515668581620","distractor":"9515688581620","target":"present","response":"present","rt":"2206.900000006","correct":true,"confidence":3},{"trial_n":30,"span":13,"encoder":"6588542652299","distractor":"6588542152299","target":"present","response":"absent","rt":"4065.8000000119","correct":false,"confidence":3},{"trial_n":31,"span":12,"encoder":"971964964479","distractor":"971966964479","target":"present","response":"present","rt":"2678","correct":true,"confidence":4},{"trial_n":32,"span":12,"encoder":"850190257470","distractor":"850190250470","target":"present","response":"present","rt":"3281.6999999881","correct":true,"confidence":3},{"trial_n":33,"span":13,"encoder":"9161720470310","distractor":"9161720970310","target":"absent","response":"present","rt":"6213","correct":false,"confidence":3},{"trial_n":34,"span":12,"encoder":"341410369870","distractor":"341410369270","target":"absent","response":"absent","rt":"3372.900000006","correct":true,"confidence":4},{"trial_n":35,"span":12,"encoder":"266821385483","distractor":"263821385483","target":"absent","response":"absent","rt":"4544.1999999881","correct":true,"confidence":4},{"trial_n":36,"span":13,"encoder":"7196240069504","distractor":"7196240069604","target":"present","response":"absent","rt":"21903.199999988","correct":false,"confidence":3},{"trial_n":37,"span":12,"encoder":"177041600670","distractor":"177041620670","target":"present","response":"present","rt":"4064.3000000119","correct":true,"confidence":3},{"trial_n":38,"span":12,"encoder":"422001753976","distractor":"422001763976","target":"present","response":"present","rt":"5019.1999999881","correct":true,"confidence":3},{"trial_n":39,"span":13,"encoder":"2644091995897","distractor":"2644091995887","target":"present","response":"present","rt":"2752.900000006","correct":true,"confidence":4},{"trial_n":40,"span":13,"encoder":"4670652686524","distractor":"4370652686524","target":"present","response":"present","rt":"3038.2000000179","correct":true,"confidence":3},{"trial_n":41,"span":14,"encoder":"34761188979910","distractor":"34761186979910","target":"present","response":"present","rt":"2904.1999999881","correct":true,"confidence":4},{"trial_n":42,"span":14,"encoder":"36713966312393","distractor":"36613966312393","target":"absent","response":"present","rt":"5603.099999994","correct":false,"confidence":3},{"trial_n":43,"span":13,"encoder":"3567997618880","distractor":"3566997618880","target":"present","response":"present","rt":"3330.3999999762","correct":true,"confidence":2},{"trial_n":44,"span":13,"encoder":"4970969557077","distractor":"4970969557477","target":"absent","response":"absent","rt":"1840.5","correct":true,"confidence":4},{"trial_n":45,"span":14,"encoder":"85702709968333","distractor":"85702709928333","target":"present","response":"present","rt":"3393","correct":true,"confidence":3},{"trial_n":46,"span":14,"encoder":"69730857841156","distractor":"99730857841156","target":"present","response":"present","rt":"1883.3000000119","correct":true,"confidence":2},{"trial_n":47,"span":15,"encoder":"812987742841747","distractor":"812987742849747","target":"absent","response":"absent","rt":"2094.8000000119","correct":true,"confidence":5},{"trial_n":48,"span":15,"encoder":"371660062469857","distractor":"371610062469857","target":"present","response":"present","rt":"6450.3000000119","correct":true,"confidence":2},{"trial_n":49,"span":16,"encoder":"9363999997442042","distractor":"9363999997442048","target":"present","response":"absent","rt":"5071","correct":false,"confidence":3},{"trial_n":50,"span":15,"encoder":"802861978224991","distractor":"802861978214991","target":"absent","response":"present","rt":"4119","correct":false,"confidence":3},{"trial_n":51,"span":14,"encoder":"53852168531505","distractor":"53852168531005","target":"absent","response":"absent","rt":"2650.599999994","correct":true,"confidence":3},{"trial_n":52,"span":14,"encoder":"51007647121498","distractor":"01007647121498","target":"absent","response":"present","rt":"3572.099999994","correct":false,"confidence":3},{"trial_n":53,"span":13,"encoder":"8581982461814","distractor":"8581982461314","target":"present","response":"present","rt":"2894.599999994","correct":true,"confidence":3},{"trial_n":54,"span":13,"encoder":"5084710920328","distractor":"5084510920328","target":"absent","response":"present","rt":"19065","correct":false,"confidence":3},{"trial_n":55,"span":12,"encoder":"050420021581","distractor":"050420021521","target":"present","response":"present","rt":"3029.599999994","correct":true,"confidence":3},{"trial_n":56,"span":12,"encoder":"909003402622","distractor":"909003702622","target":"absent","response":"absent","rt":"1725","correct":true,"confidence":4},{"trial_n":57,"span":13,"encoder":"2876458970585","distractor":"2876558970585","target":"absent","response":"absent","rt":"6541.2000000179","correct":true,"confidence":2},{"trial_n":58,"span":13,"encoder":"0280568164242","distractor":"0280568164248","target":"present","response":"present","rt":"6144.6000000238","correct":true,"confidence":4},{"trial_n":59,"span":14,"encoder":"15428450212684","distractor":"15428454212684","target":"absent","response":"absent","rt":"6567.099999994","correct":true,"confidence":5},{"trial_n":60,"span":14,"encoder":"99506198394920","distractor":"99506198394980","target":"absent","response":"absent","rt":"9580.599999994","correct":true,"confidence":1},{"trial_n":61,"span":15,"encoder":"898259692202828","distractor":"898259692202888","target":"present","response":"absent","rt":"6015.2000000179","correct":false,"confidence":2},{"trial_n":62,"span":14,"encoder":"29978712729772","distractor":"29978782729772","target":"present","response":"present","rt":"13022.5","correct":true,"confidence":3},{"trial_n":63,"span":14,"encoder":"47631695767391","distractor":"47631695767301","target":"present","response":"present","rt":"1886.7000000179","correct":true,"confidence":3},{"trial_n":64,"span":15,"encoder":"264083035759451","distractor":"264083035559451","target":"present","response":"present","rt":"4102.6000000238","correct":true,"confidence":3},{"trial_n":65,"span":15,"encoder":"525743180841755","distractor":"525753180841755","target":"absent","response":"present","rt":"1922.900000006","correct":false,"confidence":4},{"trial_n":66,"span":14,"encoder":"54951767460119","distractor":"54951167460119","target":"present","response":"present","rt":"2413.7999999821","correct":true,"confidence":4},{"trial_n":67,"span":14,"encoder":"18848873075158","distractor":"18848673075158","target":"present","response":"present","rt":"3674.5","correct":true,"confidence":4},{"trial_n":68,"span":15,"encoder":"687663421745669","distractor":"687663421746669","target":"present","response":"present","rt":"5548.3999999762","correct":true,"confidence":3},{"trial_n":69,"span":15,"encoder":"608533447928717","distractor":"602533447928717","target":"present","response":"present","rt":"1839.1999999881","correct":true,"confidence":3},{"trial_n":70,"span":16,"encoder":"4134687835814251","distractor":"4134687835514251","target":"absent","response":"present","rt":"1469.6999999881","correct":false,"confidence":4},{"trial_n":71,"span":8,"encoder":"46951741","distractor":"26951741","target":"present","response":"present","rt":"5785.400000006","correct":true,"confidence":-1},{"trial_n":72,"span":8,"encoder":"27532521","distractor":"27532591","target":"present","response":"present","rt":"1074.7999999821","correct":true,"confidence":-1},{"trial_n":73,"span":9,"encoder":"148040134","distractor":"148080134","target":"absent","response":"absent","rt":"3229.1999999881","correct":true,"confidence":-1},{"trial_n":74,"span":9,"encoder":"245565724","distractor":"345565724","target":"absent","response":"absent","rt":"4303.8000000119","correct":true,"confidence":-1},{"trial_n":75,"span":10,"encoder":"1310985015","distractor":"1314985015","target":"present","response":"present","rt":"2995.599999994","correct":true,"confidence":-1},{"trial_n":76,"span":10,"encoder":"2867015791","distractor":"2862015791","target":"present","response":"present","rt":"3587.7999999821","correct":true,"confidence":-1},{"trial_n":77,"span":11,"encoder":"73639140870","distractor":"23639140870","target":"present","response":"present","rt":"2455.599999994","correct":true,"confidence":-1},{"trial_n":78,"span":11,"encoder":"71889652202","distractor":"70889652202","target":"present","response":"present","rt":"3676.1999999881","correct":true,"confidence":-1},{"trial_n":79,"span":12,"encoder":"733875591714","distractor":"733875091714","target":"present","response":"absent","rt":"7064.599999994","correct":false,"confidence":-1},{"trial_n":80,"span":11,"encoder":"65725318042","distractor":"65725308042","target":"present","response":"present","rt":"3428.3999999762","correct":true,"confidence":-1},{"trial_n":81,"span":11,"encoder":"18035197757","distractor":"18935197757","target":"absent","response":"absent","rt":"4233.900000006","correct":true,"confidence":-1},{"trial_n":82,"span":12,"encoder":"181309056126","distractor":"186309056126","target":"present","response":"present","rt":"4905.900000006","correct":true,"confidence":-1},{"trial_n":83,"span":12,"encoder":"620558945444","distractor":"620158945444","target":"present","response":"present","rt":"2472.2000000179","correct":true,"confidence":-1},{"trial_n":84,"span":13,"encoder":"1219941698717","distractor":"1419941698717","target":"present","response":"absent","rt":"25442.400000006","correct":false,"confidence":-1},{"trial_n":85,"span":12,"encoder":"640735360049","distractor":"640738360049","target":"absent","response":"present","rt":"14188.300000012","correct":false,"confidence":-1},{"trial_n":86,"span":11,"encoder":"38781356112","distractor":"37781356112","target":"absent","response":"present","rt":"3298.5","correct":false,"confidence":-1},{"trial_n":87,"span":10,"encoder":"5097055741","distractor":"5077055741","target":"present","response":"present","rt":"9917","correct":true,"confidence":-1},{"trial_n":88,"span":10,"encoder":"4763497483","distractor":"4753497483","target":"present","response":"present","rt":"3530.099999994","correct":true,"confidence":-1},{"trial_n":89,"span":11,"encoder":"45491830910","distractor":"45591830910","target":"absent","response":"absent","rt":"2159.900000006","correct":true,"confidence":-1},{"trial_n":90,"span":11,"encoder":"96180646493","distractor":"96180642493","target":"present","response":"absent","rt":"2985","correct":false,"confidence":-1},{"trial_n":91,"span":10,"encoder":"4951633001","distractor":"4351633001","target":"absent","response":"absent","rt":"5807.599999994","correct":true,"confidence":5},{"trial_n":92,"span":10,"encoder":"9056720591","distractor":"9056790591","target":"present","response":"present","rt":"2284.599999994","correct":true,"confidence":4},{"trial_n":93,"span":11,"encoder":"46520050891","distractor":"56520050891","target":"absent","response":"absent","rt":"1464.1999999881","correct":true,"confidence":5},{"trial_n":94,"span":11,"encoder":"67208960464","distractor":"67208960467","target":"present","response":"present","rt":"7111.6999999881","correct":true,"confidence":5},{"trial_n":95,"span":12,"encoder":"104493800524","distractor":"104493800574","target":"absent","response":"absent","rt":"9496.900000006","correct":true,"confidence":2},{"trial_n":96,"span":12,"encoder":"664302448525","distractor":"644302448525","target":"absent","response":"present","rt":"1924.900000006","correct":false,"confidence":5},{"trial_n":97,"span":11,"encoder":"37466084264","distractor":"37466084664","target":"present","response":"absent","rt":"401870.59999999","correct":false,"confidence":1},{"trial_n":98,"span":10,"encoder":"2137031270","distractor":"2137031260","target":"absent","response":"absent","rt":"1603.8000000119","correct":true,"confidence":5},{"trial_n":99,"span":10,"encoder":"3422648857","distractor":"3442648857","target":"absent","response":"absent","rt":"17330.699999988","correct":true,"confidence":3},{"trial_n":100,"span":11,"encoder":"16222257485","distractor":"16022257485","target":"absent","response":"absent","rt":"2141.6999999881","correct":true,"confidence":5},{"trial_n":101,"span":11,"encoder":"71690372337","distractor":"61690372337","target":"present","response":"present","rt":"5441.5","correct":true,"confidence":4},{"trial_n":102,"span":12,"encoder":"115174373740","distractor":"115174373749","target":"present","response":"present","rt":"1722.599999994","correct":true,"confidence":5},{"trial_n":103,"span":12,"encoder":"739500571020","distractor":"769500571020","target":"absent","response":"absent","rt":"3454","correct":true,"confidence":4},{"trial_n":104,"span":13,"encoder":"9519445898866","distractor":"9519442898866","target":"present","response":"present","rt":"8331.8000000119","correct":true,"confidence":1},{"trial_n":105,"span":13,"encoder":"1853374327878","distractor":"1851374327878","target":"absent","response":"absent","rt":"3565.7000000179","correct":true,"confidence":4},{"trial_n":106,"span":14,"encoder":"98243265150428","distractor":"98243265250428","target":"present","response":"present","rt":"12107.800000012","correct":true,"confidence":3},{"trial_n":107,"span":14,"encoder":"50558385678558","distractor":"50538385678558","target":"absent","response":"present","rt":"5864.6999999881","correct":false,"confidence":3},{"trial_n":108,"span":13,"encoder":"5163922678075","distractor":"5163922678475","target":"absent","response":"present","rt":"13283.900000006","correct":false,"confidence":3},{"trial_n":109,"span":12,"encoder":"974027595981","distractor":"974027695981","target":"absent","response":"present","rt":"6152.400000006","correct":false,"confidence":2},{"trial_n":110,"span":11,"encoder":"89430255272","distractor":"89330255272","target":"absent","response":"absent","rt":"3447.599999994","correct":true,"confidence":2},{"trial_n":111,"span":11,"encoder":"60166282608","distractor":"60166282604","target":"absent","response":"absent","rt":"5524.7999999821","correct":true,"confidence":3},{"trial_n":112,"span":12,"encoder":"679925286328","distractor":"676925286328","target":"absent","response":"absent","rt":"4383.1999999881","correct":true,"confidence":2},{"trial_n":113,"span":12,"encoder":"100151158851","distractor":"100151858851","target":"absent","response":"present","rt":"8722.2000000179","correct":false,"confidence":2},{"trial_n":114,"span":11,"encoder":"79375980511","distractor":"79375981511","target":"absent","response":"absent","rt":"762.19999998808","correct":true,"confidence":4},{"trial_n":115,"span":11,"encoder":"90040868452","distractor":"90044868452","target":"present","response":"present","rt":"7326.7999999821","correct":true,"confidence":3},{"trial_n":116,"span":12,"encoder":"958291749674","distractor":"958294749674","target":"absent","response":"absent","rt":"4386.3000000119","correct":true,"confidence":4},{"trial_n":117,"span":12,"encoder":"491907342359","distractor":"491907342351","target":"present","response":"present","rt":"1546.3000000119","correct":true,"confidence":5},{"trial_n":118,"span":13,"encoder":"5789651386088","distractor":"5789651356088","target":"absent","response":"present","rt":"8558.2000000179","correct":false,"confidence":1},{"trial_n":119,"span":12,"encoder":"568622564110","distractor":"568722564110","target":"present","response":"absent","rt":"7454.900000006","correct":false,"confidence":2},{"trial_n":120,"span":11,"encoder":"03651904725","distractor":"03631904725","target":"present","response":"present","rt":"2999.2999999821","correct":true,"confidence":4},{"trial_n":121,"span":11,"encoder":"57995209002","distractor":"07995209002","target":"present","response":"present","rt":"2077.5","correct":true,"confidence":5},{"trial_n":122,"span":12,"encoder":"581108120804","distractor":"581108170804","target":"absent","response":"absent","rt":"5042.5","correct":true,"confidence":3},{"trial_n":123,"span":12,"encoder":"290348445314","distractor":"250348445314","target":"absent","response":"absent","rt":"3566.1000000238","correct":true,"confidence":3},{"trial_n":124,"span":13,"encoder":"7491322551784","distractor":"7492322551784","target":"present","response":"absent","rt":"6093.7000000179","correct":false,"confidence":4},{"trial_n":125,"span":12,"encoder":"327230722188","distractor":"327260722188","target":"present","response":"present","rt":"3837.1999999881","correct":true,"confidence":4},{"trial_n":126,"span":12,"encoder":"510674826792","distractor":"510674846792","target":"present","response":"present","rt":"3380.6999999881","correct":true,"confidence":5},{"trial_n":127,"span":13,"encoder":"0140459928027","distractor":"0140459528027","target":"present","response":"present","rt":"9083.3000000119","correct":true,"confidence":2},{"trial_n":128,"span":13,"encoder":"6877337614885","distractor":"6877337614865","target":"absent","response":"absent","rt":"4208.400000006","correct":true,"confidence":5},{"trial_n":129,"span":14,"encoder":"08277526533965","distractor":"08277526537965","target":"present","response":"present","rt":"7997","correct":true,"confidence":3},{"trial_n":130,"span":14,"encoder":"48356734937982","distractor":"48356734939982","target":"absent","response":"absent","rt":"2262.400000006","correct":true,"confidence":3},{"trial_n":131,"span":15,"encoder":"978255808286073","distractor":"978255818286073","target":"present","response":"present","rt":"5511.400000006","correct":true,"confidence":3},{"trial_n":132,"span":15,"encoder":"126348266959344","distractor":"126338266959344","target":"present","response":"absent","rt":"4400.099999994","correct":false,"confidence":3},{"trial_n":133,"span":14,"encoder":"32880732360472","distractor":"32870732360472","target":"absent","response":"present","rt":"5160","correct":false,"confidence":2},{"trial_n":134,"span":13,"encoder":"0940901573401","distractor":"0940901573407","target":"present","response":"present","rt":"3900.3999999762","correct":true,"confidence":4},{"trial_n":135,"span":13,"encoder":"8089329385890","distractor":"8089329385810","target":"present","response":"present","rt":"2843.900000006","correct":true,"confidence":4},{"trial_n":136,"span":14,"encoder":"00597066616598","distractor":"00597066616698","target":"present","response":"present","rt":"2899.1999999881","correct":true,"confidence":3},{"trial_n":137,"span":14,"encoder":"33950006951160","distractor":"33957006951160","target":"absent","response":"absent","rt":"3264.099999994","correct":true,"confidence":4},{"trial_n":138,"span":15,"encoder":"382344697400781","distractor":"382344697405781","target":"absent","response":"absent","rt":"3609.5","correct":true,"confidence":4},{"trial_n":139,"span":15,"encoder":"423252690743264","distractor":"423952690743264","target":"absent","response":"present","rt":"5505.900000006","correct":false,"confidence":2},{"trial_n":140,"span":14,"encoder":"16777417549360","distractor":"16777417549300","target":"absent","response":"absent","rt":"1870.400000006","correct":true,"confidence":5}]