[{"trial_n":1,"n_dots":4.25,"target":"left","response":"left","rt":2436.1000000238,"correct":true,"confidence":-1},{"trial_n":2,"n_dots":4.25,"target":"right","response":"right","rt":677.40000009537,"correct":true,"confidence":-1},{"trial_n":3,"n_dots":3.85,"target":"right","response":"right","rt":629.70000004768,"correct":true,"confidence":-1},{"trial_n":4,"n_dots":3.85,"target":"right","response":"right","rt":641.5,"correct":true,"confidence":-1},{"trial_n":5,"n_dots":3.45,"target":"right","response":"right","rt":1266.2000000477,"correct":true,"confidence":-1},{"trial_n":6,"n_dots":3.45,"target":"left","response":"left","rt":607.5,"correct":true,"confidence":-1},{"trial_n":7,"n_dots":3.05,"target":"left","response":"left","rt":560.20000004768,"correct":true,"confidence":-1},{"trial_n":8,"n_dots":3.05,"target":"right","response":"left","rt":806.70000004768,"correct":false,"confidence":-1},{"trial_n":9,"n_dots":3.25,"target":"right","response":"right","rt":842.69999992847,"correct":true,"confidence":-1},{"trial_n":10,"n_dots":3.25,"target":"left","response":"right","rt":1112.6000000238,"correct":false,"confidence":-1},{"trial_n":11,"n_dots":3.45,"target":"right","response":"right","rt":959.70000004768,"correct":true,"confidence":-1},{"trial_n":12,"n_dots":3.45,"target":"right","response":"right","rt":472.5,"correct":true,"confidence":-1},{"trial_n":13,"n_dots":3.35,"target":"left","response":"right","rt":1086.7000000477,"correct":false,"confidence":-1},{"trial_n":14,"n_dots":3.45,"target":"right","response":"right","rt":398.89999997616,"correct":true,"confidence":-1},{"trial_n":15,"n_dots":3.45,"target":"left","response":"right","rt":1776.1000000238,"correct":false,"confidence":-1},{"trial_n":16,"n_dots":3.55,"target":"right","response":"right","rt":640.5,"correct":true,"confidence":-1},{"trial_n":17,"n_dots":3.55,"target":"right","response":"right","rt":592.70000004768,"correct":true,"confidence":-1},{"trial_n":18,"n_dots":3.45,"target":"left","response":"left","rt":1214.1000000238,"correct":true,"confidence":-1},{"trial_n":19,"n_dots":3.45,"target":"left","response":"right","rt":946.59999990463,"correct":false,"confidence":-1},{"trial_n":20,"n_dots":3.55,"target":"right","response":"left","rt":475.60000002384,"correct":false,"confidence":-1},{"trial_n":21,"n_dots":3.65,"target":"left","response":"right","rt":529.89999997616,"correct":false,"confidence":3},{"trial_n":22,"n_dots":3.75,"target":"right","response":"right","rt":617.29999995232,"correct":true,"confidence":3},{"trial_n":23,"n_dots":3.75,"target":"right","response":"right","rt":1881.0999999046,"correct":true,"confidence":4},{"trial_n":24,"n_dots":3.65,"target":"right","response":"right","rt":2723.3999999762,"correct":true,"confidence":2},{"trial_n":25,"n_dots":3.65,"target":"left","response":"left","rt":2399.7999999523,"correct":true,"confidence":3},{"trial_n":26,"n_dots":3.55,"target":"right","response":"left","rt":488,"correct":false,"confidence":4},{"trial_n":27,"n_dots":3.65,"target":"left","response":"left","rt":952.69999992847,"correct":true,"confidence":3},{"trial_n":28,"n_dots":3.65,"target":"left","response":"right","rt":1886.8999999762,"correct":false,"confidence":2},{"trial_n":29,"n_dots":3.75,"target":"left","response":"left","rt":1956.3000000715,"correct":true,"confidence":3},{"trial_n":30,"n_dots":3.75,"target":"left","response":"right","rt":3147,"correct":false,"confidence":2},{"trial_n":31,"n_dots":3.85,"target":"left","response":"right","rt":1839.3999999762,"correct":false,"confidence":2},{"trial_n":32,"n_dots":3.95,"target":"left","response":"left","rt":1758.7000000477,"correct":true,"confidence":4},{"trial_n":33,"n_dots":3.95,"target":"left","response":"right","rt":1336.2000000477,"correct":false,"confidence":4},{"trial_n":34,"n_dots":4.05,"target":"left","response":"left","rt":1279,"correct":true,"confidence":4},{"trial_n":35,"n_dots":4.05,"target":"right","response":"right","rt":1283.6999999285,"correct":true,"confidence":4},{"trial_n":36,"n_dots":3.95,"target":"right","response":"right","rt":1362.3999999762,"correct":true,"confidence":5},{"trial_n":37,"n_dots":3.95,"target":"left","response":"left","rt":2142.2000000477,"correct":true,"confidence":2},{"trial_n":38,"n_dots":3.85,"target":"left","response":"left","rt":3754.3999999762,"correct":true,"confidence":2},{"trial_n":39,"n_dots":3.85,"target":"right","response":"right","rt":879.09999990463,"correct":true,"confidence":3},{"trial_n":40,"n_dots":3.75,"target":"right","response":"right","rt":683.70000004768,"correct":true,"confidence":3},{"trial_n":41,"n_dots":3.75,"target":"right","response":"right","rt":931,"correct":true,"confidence":3},{"trial_n":42,"n_dots":3.65,"target":"left","response":"right","rt":4141.8999999762,"correct":false,"confidence":2},{"trial_n":43,"n_dots":3.75,"target":"right","response":"right","rt":3154.1000000238,"correct":true,"confidence":2},{"trial_n":44,"n_dots":3.75,"target":"right","response":"right","rt":566,"correct":true,"confidence":3},{"trial_n":45,"n_dots":3.65,"target":"left","response":"left","rt":895.60000002384,"correct":true,"confidence":4},{"trial_n":46,"n_dots":3.65,"target":"left","response":"left","rt":1097.6000000238,"correct":true,"confidence":4},{"trial_n":47,"n_dots":3.55,"target":"left","response":"left","rt":782.39999997616,"correct":true,"confidence":3},{"trial_n":48,"n_dots":3.55,"target":"right","response":"right","rt":1292.2999999523,"correct":true,"confidence":4},{"trial_n":49,"n_dots":3.45,"target":"right","response":"left","rt":846.79999995232,"correct":false,"confidence":3},{"trial_n":50,"n_dots":3.55,"target":"left","response":"left","rt":737.60000002384,"correct":true,"confidence":3},{"trial_n":51,"n_dots":3.55,"target":"right","response":"left","rt":968.19999992847,"correct":false,"confidence":3},{"trial_n":52,"n_dots":3.65,"target":"right","response":"right","rt":749.40000009537,"correct":true,"confidence":2},{"trial_n":53,"n_dots":3.65,"target":"left","response":"left","rt":1110.3000000715,"correct":true,"confidence":2},{"trial_n":54,"n_dots":3.55,"target":"right","response":"right","rt":2011.9000000954,"correct":true,"confidence":2},{"trial_n":55,"n_dots":3.55,"target":"left","response":"right","rt":1614.8000000715,"correct":false,"confidence":3},{"trial_n":56,"n_dots":3.65,"target":"right","response":"right","rt":2324.8999999762,"correct":true,"confidence":2},{"trial_n":57,"n_dots":3.65,"target":"right","response":"left","rt":945,"correct":false,"confidence":2},{"trial_n":58,"n_dots":3.75,"target":"left","response":"left","rt":1777.6000000238,"correct":true,"confidence":3},{"trial_n":59,"n_dots":3.75,"target":"left","response":"left","rt":1041.8000000715,"correct":true,"confidence":4},{"trial_n":60,"n_dots":3.65,"target":"left","response":"right","rt":1911.8999999762,"correct":false,"confidence":3},{"trial_n":61,"n_dots":3.75,"target":"right","response":"right","rt":667.89999997616,"correct":true,"confidence":3},{"trial_n":62,"n_dots":3.75,"target":"left","response":"left","rt":849,"correct":true,"confidence":4},{"trial_n":63,"n_dots":3.65,"target":"right","response":"left","rt":2992.7000000477,"correct":false,"confidence":2},{"trial_n":64,"n_dots":3.75,"target":"right","response":"left","rt":2130.2000000477,"correct":false,"confidence":2},{"trial_n":65,"n_dots":3.85,"target":"left","response":"left","rt":1177.8000000715,"correct":true,"confidence":4},{"trial_n":66,"n_dots":3.85,"target":"right","response":"right","rt":4668.1999999285,"correct":true,"confidence":2},{"trial_n":67,"n_dots":3.75,"target":"right","response":"right","rt":939,"correct":true,"confidence":2},{"trial_n":68,"n_dots":3.75,"target":"right","response":"right","rt":1234.1000000238,"correct":true,"confidence":4},{"trial_n":69,"n_dots":3.65,"target":"left","response":"left","rt":1224.5,"correct":true,"confidence":5},{"trial_n":70,"n_dots":3.65,"target":"right","response":"right","rt":1234.6999999285,"correct":true,"confidence":4},{"trial_n":71,"n_dots":3.55,"target":"right","response":"left","rt":3676.2000000477,"correct":false,"confidence":2},{"trial_n":72,"n_dots":3.65,"target":"right","response":"right","rt":1288.2999999523,"correct":true,"confidence":3},{"trial_n":73,"n_dots":3.65,"target":"right","response":"right","rt":1037.8000000715,"correct":true,"confidence":3},{"trial_n":74,"n_dots":3.55,"target":"left","response":"left","rt":757.30000007153,"correct":true,"confidence":4},{"trial_n":75,"n_dots":3.55,"target":"left","response":"left","rt":786.89999997616,"correct":true,"confidence":3},{"trial_n":76,"n_dots":3.45,"target":"left","response":"right","rt":507.60000002384,"correct":false,"confidence":4},{"trial_n":77,"n_dots":3.55,"target":"left","response":"left","rt":449.39999997616,"correct":true,"confidence":4},{"trial_n":78,"n_dots":3.55,"target":"left","response":"left","rt":650.70000004768,"correct":true,"confidence":4},{"trial_n":79,"n_dots":3.45,"target":"right","response":"right","rt":888.70000004768,"correct":true,"confidence":4},{"trial_n":80,"n_dots":3.45,"target":"right","response":"right","rt":2868.6999999285,"correct":true,"confidence":2},{"trial_n":81,"n_dots":3.35,"target":"left","response":"left","rt":641.20000004768,"correct":true,"confidence":3},{"trial_n":82,"n_dots":3.35,"target":"left","response":"left","rt":1250.6000000238,"correct":true,"confidence":2},{"trial_n":83,"n_dots":3.25,"target":"left","response":"left","rt":1385.2000000477,"correct":true,"confidence":3},{"trial_n":84,"n_dots":3.25,"target":"left","response":"left","rt":2650.2000000477,"correct":true,"confidence":2},{"trial_n":85,"n_dots":3.15,"target":"left","response":"left","rt":1876.3999999762,"correct":true,"confidence":2},{"trial_n":86,"n_dots":3.15,"target":"left","response":"left","rt":676.30000007153,"correct":true,"confidence":3},{"trial_n":87,"n_dots":3.05,"target":"right","response":"right","rt":532.80000007153,"correct":true,"confidence":4},{"trial_n":88,"n_dots":3.05,"target":"left","response":"left","rt":906.90000009537,"correct":true,"confidence":3},{"trial_n":89,"n_dots":2.95,"target":"right","response":"right","rt":529.30000007153,"correct":true,"confidence":3},{"trial_n":90,"n_dots":2.95,"target":"left","response":"left","rt":539.39999997616,"correct":true,"confidence":4},{"trial_n":91,"n_dots":2.85,"target":"right","response":"right","rt":983.79999995232,"correct":true,"confidence":3},{"trial_n":92,"n_dots":2.85,"target":"left","response":"right","rt":1316.7999999523,"correct":false,"confidence":3},{"trial_n":93,"n_dots":2.95,"target":"right","response":"right","rt":3163.0999999046,"correct":true,"confidence":2},{"trial_n":94,"n_dots":2.95,"target":"left","response":"left","rt":927.30000007153,"correct":true,"confidence":3},{"trial_n":95,"n_dots":2.85,"target":"right","response":"left","rt":4333.6000000238,"correct":false,"confidence":1},{"trial_n":96,"n_dots":2.95,"target":"left","response":"left","rt":1549.6999999285,"correct":true,"confidence":3},{"trial_n":97,"n_dots":2.95,"target":"left","response":"left","rt":1408,"correct":true,"confidence":2},{"trial_n":98,"n_dots":2.85,"target":"left","response":"left","rt":1218.5,"correct":true,"confidence":4},{"trial_n":99,"n_dots":2.85,"target":"left","response":"right","rt":3388.2999999523,"correct":false,"confidence":1},{"trial_n":100,"n_dots":2.95,"target":"left","response":"left","rt":2787.2999999523,"correct":true,"confidence":1},{"trial_n":101,"n_dots":2.95,"target":"right","response":"right","rt":2064.0999999046,"correct":true,"confidence":2},{"trial_n":102,"n_dots":2.85,"target":"left","response":"left","rt":975.79999995232,"correct":true,"confidence":2},{"trial_n":103,"n_dots":2.85,"target":"right","response":"right","rt":693.10000002384,"correct":true,"confidence":3},{"trial_n":104,"n_dots":2.75,"target":"right","response":"left","rt":3368.1000000238,"correct":false,"confidence":2},{"trial_n":105,"n_dots":2.85,"target":"left","response":"left","rt":1171.3999999762,"correct":true,"confidence":2},{"trial_n":106,"n_dots":2.85,"target":"right","response":"right","rt":799.29999995232,"correct":true,"confidence":3},{"trial_n":107,"n_dots":2.75,"target":"right","response":"left","rt":1171.2000000477,"correct":false,"confidence":4},{"trial_n":108,"n_dots":2.85,"target":"right","response":"right","rt":814.29999995232,"correct":true,"confidence":4},{"trial_n":109,"n_dots":2.85,"target":"right","response":"right","rt":3349.7999999523,"correct":true,"confidence":1},{"trial_n":110,"n_dots":2.75,"target":"left","response":"left","rt":1341.8999999762,"correct":true,"confidence":3},{"trial_n":111,"n_dots":2.75,"target":"right","response":"right","rt":1096.3000000715,"correct":true,"confidence":3},{"trial_n":112,"n_dots":2.65,"target":"left","response":"left","rt":3491.7000000477,"correct":true,"confidence":1},{"trial_n":113,"n_dots":2.65,"target":"right","response":"right","rt":1056.8000000715,"correct":true,"confidence":1},{"trial_n":114,"n_dots":2.55,"target":"left","response":"right","rt":956,"correct":false,"confidence":1},{"trial_n":115,"n_dots":2.65,"target":"right","response":"right","rt":1137.8999999762,"correct":true,"confidence":4},{"trial_n":116,"n_dots":2.65,"target":"right","response":"right","rt":623.5,"correct":true,"confidence":3},{"trial_n":117,"n_dots":2.55,"target":"left","response":"right","rt":1610.3999999762,"correct":false,"confidence":3},{"trial_n":118,"n_dots":2.65,"target":"right","response":"right","rt":1875.5,"correct":true,"confidence":2},{"trial_n":119,"n_dots":2.65,"target":"right","response":"right","rt":633.39999997616,"correct":true,"confidence":3},{"trial_n":120,"n_dots":2.55,"target":"left","response":"right","rt":478.89999997616,"correct":false,"confidence":4}]