[{"trial_n":1,"n_dots":4.25,"target":"left","response":"left","rt":10310.800000012,"correct":true,"confidence":-1},{"trial_n":2,"n_dots":4.25,"target":"right","response":"right","rt":1335,"correct":true,"confidence":-1},{"trial_n":3,"n_dots":3.85,"target":"right","response":"right","rt":654.19999998808,"correct":true,"confidence":-1},{"trial_n":4,"n_dots":3.85,"target":"right","response":"left","rt":1197.8000000119,"correct":false,"confidence":-1},{"trial_n":5,"n_dots":4.25,"target":"right","response":"left","rt":1179.599999994,"correct":false,"confidence":-1},{"trial_n":6,"n_dots":4.65,"target":"right","response":"right","rt":803.5,"correct":true,"confidence":-1},{"trial_n":7,"n_dots":4.65,"target":"right","response":"right","rt":273.09999999404,"correct":true,"confidence":-1},{"trial_n":8,"n_dots":4.45,"target":"right","response":"right","rt":498.29999998212,"correct":true,"confidence":-1},{"trial_n":9,"n_dots":4.45,"target":"left","response":"left","rt":507.19999998808,"correct":true,"confidence":-1},{"trial_n":10,"n_dots":4.25,"target":"left","response":"left","rt":495.19999998808,"correct":true,"confidence":-1},{"trial_n":11,"n_dots":4.25,"target":"left","response":"left","rt":457.79999998212,"correct":true,"confidence":-1},{"trial_n":12,"n_dots":4.05,"target":"right","response":"right","rt":398.5,"correct":true,"confidence":-1},{"trial_n":13,"n_dots":4.05,"target":"left","response":"left","rt":358.40000000596,"correct":true,"confidence":-1},{"trial_n":14,"n_dots":3.95,"target":"left","response":"right","rt":836.69999998808,"correct":false,"confidence":-1},{"trial_n":15,"n_dots":4.05,"target":"right","response":"right","rt":53.40000000596,"correct":true,"confidence":-1},{"trial_n":16,"n_dots":4.05,"target":"left","response":"left","rt":271.39999997616,"correct":true,"confidence":-1},{"trial_n":17,"n_dots":3.95,"target":"right","response":"right","rt":293,"correct":true,"confidence":-1},{"trial_n":18,"n_dots":3.95,"target":"right","response":"right","rt":443.5,"correct":true,"confidence":-1},{"trial_n":19,"n_dots":3.85,"target":"right","response":"left","rt":1292.900000006,"correct":false,"confidence":-1},{"trial_n":20,"n_dots":3.95,"target":"left","response":"left","rt":2.6999999880791,"correct":true,"confidence":-1},{"trial_n":21,"n_dots":3.95,"target":"right","response":"right","rt":112.30000001192,"correct":true,"confidence":5},{"trial_n":22,"n_dots":3.85,"target":"right","response":"right","rt":450.19999998808,"correct":true,"confidence":5},{"trial_n":23,"n_dots":3.85,"target":"left","response":"left","rt":1024.3999999762,"correct":true,"confidence":3},{"trial_n":24,"n_dots":3.75,"target":"left","response":"left","rt":934.69999998808,"correct":true,"confidence":3},{"trial_n":25,"n_dots":3.75,"target":"left","response":"left","rt":356.80000001192,"correct":true,"confidence":5},{"trial_n":26,"n_dots":3.65,"target":"left","response":"left","rt":907.69999998808,"correct":true,"confidence":2},{"trial_n":27,"n_dots":3.65,"target":"left","response":"left","rt":190,"correct":true,"confidence":5},{"trial_n":28,"n_dots":3.55,"target":"right","response":"right","rt":533.40000000596,"correct":true,"confidence":5},{"trial_n":29,"n_dots":3.55,"target":"right","response":"right","rt":676.39999997616,"correct":true,"confidence":3},{"trial_n":30,"n_dots":3.45,"target":"right","response":"right","rt":617.19999998808,"correct":true,"confidence":2},{"trial_n":31,"n_dots":3.45,"target":"right","response":"right","rt":514,"correct":true,"confidence":5},{"trial_n":32,"n_dots":3.35,"target":"right","response":"right","rt":1644.599999994,"correct":true,"confidence":3},{"trial_n":33,"n_dots":3.35,"target":"left","response":"left","rt":1335.8999999762,"correct":true,"confidence":3},{"trial_n":34,"n_dots":3.25,"target":"right","response":"right","rt":347.40000000596,"correct":true,"confidence":5},{"trial_n":35,"n_dots":3.25,"target":"left","response":"right","rt":1648.5,"correct":false,"confidence":2},{"trial_n":36,"n_dots":3.35,"target":"right","response":"right","rt":480.09999999404,"correct":true,"confidence":3},{"trial_n":37,"n_dots":3.35,"target":"left","response":"left","rt":796.39999997616,"correct":true,"confidence":3},{"trial_n":38,"n_dots":3.25,"target":"left","response":"right","rt":816.40000000596,"correct":false,"confidence":2},{"trial_n":39,"n_dots":3.35,"target":"left","response":"right","rt":1587.5,"correct":false,"confidence":3},{"trial_n":40,"n_dots":3.45,"target":"left","response":"left","rt":1041.8999999762,"correct":true,"confidence":3},{"trial_n":41,"n_dots":3.45,"target":"right","response":"right","rt":509.29999998212,"correct":true,"confidence":5},{"trial_n":42,"n_dots":3.35,"target":"right","response":"right","rt":512.29999998212,"correct":true,"confidence":5},{"trial_n":43,"n_dots":3.35,"target":"left","response":"left","rt":2503.7999999821,"correct":true,"confidence":3},{"trial_n":44,"n_dots":3.25,"target":"right","response":"right","rt":318.19999998808,"correct":true,"confidence":5},{"trial_n":45,"n_dots":3.25,"target":"right","response":"right","rt":558.69999998808,"correct":true,"confidence":5},{"trial_n":46,"n_dots":3.15,"target":"right","response":"right","rt":3014.900000006,"correct":true,"confidence":5},{"trial_n":47,"n_dots":3.15,"target":"left","response":"left","rt":1294.2999999821,"correct":true,"confidence":3},{"trial_n":48,"n_dots":3.05,"target":"left","response":"right","rt":575.59999999404,"correct":false,"confidence":5},{"trial_n":49,"n_dots":3.15,"target":"left","response":"right","rt":537.79999998212,"correct":false,"confidence":5},{"trial_n":50,"n_dots":3.25,"target":"left","response":"right","rt":853.19999998808,"correct":false,"confidence":5},{"trial_n":51,"n_dots":3.35,"target":"left","response":"left","rt":726.29999998212,"correct":true,"confidence":3},{"trial_n":52,"n_dots":3.35,"target":"left","response":"right","rt":1177.3999999762,"correct":false,"confidence":3},{"trial_n":53,"n_dots":3.45,"target":"left","response":"left","rt":817.20000001788,"correct":true,"confidence":3},{"trial_n":54,"n_dots":3.45,"target":"right","response":"left","rt":12200.800000012,"correct":false,"confidence":4},{"trial_n":55,"n_dots":3.55,"target":"left","response":"right","rt":658.40000000596,"correct":false,"confidence":3},{"trial_n":56,"n_dots":3.65,"target":"left","response":"right","rt":3846.5,"correct":false,"confidence":1},{"trial_n":57,"n_dots":3.75,"target":"left","response":"left","rt":714.09999999404,"correct":true,"confidence":4},{"trial_n":58,"n_dots":3.75,"target":"left","response":"left","rt":539.5,"correct":true,"confidence":4},{"trial_n":59,"n_dots":3.65,"target":"left","response":"left","rt":536.79999998212,"correct":true,"confidence":4},{"trial_n":60,"n_dots":3.65,"target":"right","response":"right","rt":762.89999997616,"correct":true,"confidence":3},{"trial_n":61,"n_dots":3.55,"target":"right","response":"right","rt":748.5,"correct":true,"confidence":3},{"trial_n":62,"n_dots":3.55,"target":"right","response":"left","rt":498.19999998808,"correct":false,"confidence":1},{"trial_n":63,"n_dots":3.65,"target":"left","response":"left","rt":1257.5,"correct":true,"confidence":2},{"trial_n":64,"n_dots":3.65,"target":"right","response":"right","rt":813,"correct":true,"confidence":3},{"trial_n":65,"n_dots":3.55,"target":"left","response":"left","rt":689,"correct":true,"confidence":2},{"trial_n":66,"n_dots":3.55,"target":"right","response":"right","rt":803.19999998808,"correct":true,"confidence":1},{"trial_n":67,"n_dots":3.45,"target":"right","response":"right","rt":1054.1999999881,"correct":true,"confidence":3},{"trial_n":68,"n_dots":3.45,"target":"left","response":"right","rt":715.40000000596,"correct":false,"confidence":3},{"trial_n":69,"n_dots":3.55,"target":"right","response":"right","rt":779.5,"correct":true,"confidence":3},{"trial_n":70,"n_dots":3.55,"target":"left","response":"right","rt":664.90000000596,"correct":false,"confidence":3},{"trial_n":71,"n_dots":3.65,"target":"right","response":"left","rt":13468.300000012,"correct":false,"confidence":1},{"trial_n":72,"n_dots":3.75,"target":"right","response":"right","rt":615.89999997616,"correct":true,"confidence":4},{"trial_n":73,"n_dots":3.75,"target":"left","response":"right","rt":1516.2999999821,"correct":false,"confidence":2},{"trial_n":74,"n_dots":3.85,"target":"right","response":"right","rt":818.69999998808,"correct":true,"confidence":3},{"trial_n":75,"n_dots":3.85,"target":"right","response":"right","rt":726.59999999404,"correct":true,"confidence":3},{"trial_n":76,"n_dots":3.75,"target":"left","response":"right","rt":768.69999998808,"correct":false,"confidence":3},{"trial_n":77,"n_dots":3.85,"target":"left","response":"left","rt":1207.900000006,"correct":true,"confidence":4},{"trial_n":78,"n_dots":3.85,"target":"left","response":"left","rt":873.19999998808,"correct":true,"confidence":3},{"trial_n":79,"n_dots":3.75,"target":"left","response":"left","rt":1336,"correct":true,"confidence":3},{"trial_n":80,"n_dots":3.75,"target":"left","response":"left","rt":770.19999998808,"correct":true,"confidence":3},{"trial_n":81,"n_dots":3.65,"target":"right","response":"left","rt":680.5,"correct":false,"confidence":3},{"trial_n":82,"n_dots":3.75,"target":"right","response":"left","rt":389.70000001788,"correct":false,"confidence":5},{"trial_n":83,"n_dots":3.85,"target":"left","response":"left","rt":328,"correct":true,"confidence":5},{"trial_n":84,"n_dots":3.85,"target":"left","response":"left","rt":189.80000001192,"correct":true,"confidence":5},{"trial_n":85,"n_dots":3.75,"target":"right","response":"right","rt":681.20000001788,"correct":true,"confidence":3},{"trial_n":86,"n_dots":3.75,"target":"right","response":"right","rt":514.29999998212,"correct":true,"confidence":3},{"trial_n":87,"n_dots":3.65,"target":"right","response":"right","rt":438.09999999404,"correct":true,"confidence":3},{"trial_n":88,"n_dots":3.65,"target":"right","response":"right","rt":484.90000000596,"correct":true,"confidence":4},{"trial_n":89,"n_dots":3.55,"target":"left","response":"left","rt":795.39999997616,"correct":true,"confidence":4},{"trial_n":90,"n_dots":3.55,"target":"right","response":"right","rt":1678.5,"correct":true,"confidence":2},{"trial_n":91,"n_dots":3.45,"target":"left","response":"left","rt":633.5,"correct":true,"confidence":3},{"trial_n":92,"n_dots":3.45,"target":"left","response":"right","rt":868.39999997616,"correct":false,"confidence":2},{"trial_n":93,"n_dots":3.55,"target":"right","response":"right","rt":9896.7999999821,"correct":true,"confidence":2},{"trial_n":94,"n_dots":3.55,"target":"right","response":"right","rt":711.5,"correct":true,"confidence":4},{"trial_n":95,"n_dots":3.45,"target":"left","response":"left","rt":899.5,"correct":true,"confidence":4},{"trial_n":96,"n_dots":3.45,"target":"left","response":"left","rt":426.59999999404,"correct":true,"confidence":4},{"trial_n":97,"n_dots":3.35,"target":"left","response":"left","rt":813.20000001788,"correct":true,"confidence":4},{"trial_n":98,"n_dots":3.35,"target":"left","response":"right","rt":666.09999999404,"correct":false,"confidence":5},{"trial_n":99,"n_dots":3.45,"target":"right","response":"right","rt":572.09999999404,"correct":true,"confidence":5},{"trial_n":100,"n_dots":3.45,"target":"right","response":"right","rt":473.09999999404,"correct":true,"confidence":5},{"trial_n":101,"n_dots":3.35,"target":"right","response":"right","rt":1207.2999999821,"correct":true,"confidence":1},{"trial_n":102,"n_dots":3.35,"target":"left","response":"left","rt":1398.900000006,"correct":true,"confidence":2},{"trial_n":103,"n_dots":3.25,"target":"right","response":"right","rt":654.20000001788,"correct":true,"confidence":3},{"trial_n":104,"n_dots":3.25,"target":"right","response":"right","rt":544.40000000596,"correct":true,"confidence":3},{"trial_n":105,"n_dots":3.15,"target":"right","response":"right","rt":538.80000001192,"correct":true,"confidence":4},{"trial_n":106,"n_dots":3.15,"target":"right","response":"right","rt":1099.8999999762,"correct":true,"confidence":4},{"trial_n":107,"n_dots":3.05,"target":"left","response":"right","rt":857.5,"correct":false,"confidence":3},{"trial_n":108,"n_dots":3.15,"target":"left","response":"right","rt":1143.5,"correct":false,"confidence":3},{"trial_n":109,"n_dots":3.25,"target":"left","response":"right","rt":492.19999998808,"correct":false,"confidence":3},{"trial_n":110,"n_dots":3.35,"target":"right","response":"right","rt":707.90000000596,"correct":true,"confidence":4},{"trial_n":111,"n_dots":3.35,"target":"right","response":"right","rt":857.89999997616,"correct":true,"confidence":3},{"trial_n":112,"n_dots":3.25,"target":"right","response":"right","rt":1177.5,"correct":true,"confidence":2},{"trial_n":113,"n_dots":3.25,"target":"right","response":"left","rt":899.20000001788,"correct":false,"confidence":3},{"trial_n":114,"n_dots":3.35,"target":"left","response":"left","rt":314,"correct":true,"confidence":3},{"trial_n":115,"n_dots":3.35,"target":"left","response":"right","rt":984.19999998808,"correct":false,"confidence":3},{"trial_n":116,"n_dots":3.45,"target":"left","response":"left","rt":1206.7999999821,"correct":true,"confidence":3},{"trial_n":117,"n_dots":3.45,"target":"left","response":"right","rt":628.5,"correct":false,"confidence":4},{"trial_n":118,"n_dots":3.55,"target":"left","response":"left","rt":857.80000001192,"correct":true,"confidence":3},{"trial_n":119,"n_dots":3.55,"target":"right","response":"right","rt":816.09999999404,"correct":true,"confidence":4},{"trial_n":120,"n_dots":3.45,"target":"right","response":"right","rt":673.39999997616,"correct":true,"confidence":5}]