[{"trial_n":1,"min":25,"max":230,"target":"present","response":"present","rt":35116.700000018,"correct":true,"confidence":-1},{"trial_n":2,"min":25,"max":230,"target":"present","response":"absent","rt":3061.900000006,"correct":false,"confidence":-1},{"trial_n":3,"min":9,"max":246,"target":"absent","response":"absent","rt":640.5,"correct":true,"confidence":-1},{"trial_n":4,"min":9,"max":246,"target":"absent","response":"absent","rt":643.09999999404,"correct":true,"confidence":-1},{"trial_n":5,"min":25,"max":230,"target":"present","response":"present","rt":793.09999999404,"correct":true,"confidence":-1},{"trial_n":6,"min":25,"max":230,"target":"present","response":"present","rt":465.39999997616,"correct":true,"confidence":-1},{"trial_n":7,"min":41,"max":214,"target":"absent","response":"absent","rt":875.40000000596,"correct":true,"confidence":-1},{"trial_n":8,"min":41,"max":214,"target":"present","response":"present","rt":653.5,"correct":true,"confidence":-1},{"trial_n":9,"min":57,"max":198,"target":"present","response":"present","rt":448.59999999404,"correct":true,"confidence":-1},{"trial_n":10,"min":57,"max":198,"target":"present","response":"absent","rt":963,"correct":false,"confidence":-1},{"trial_n":11,"min":49,"max":206,"target":"absent","response":"absent","rt":2199.1999999881,"correct":true,"confidence":-1},{"trial_n":12,"min":49,"max":206,"target":"absent","response":"absent","rt":629.90000000596,"correct":true,"confidence":-1},{"trial_n":13,"min":57,"max":198,"target":"absent","response":"absent","rt":10777.900000006,"correct":true,"confidence":-1},{"trial_n":14,"min":57,"max":198,"target":"absent","response":"absent","rt":580.80000001192,"correct":true,"confidence":-1},{"trial_n":15,"min":65,"max":190,"target":"absent","response":"absent","rt":515.30000001192,"correct":true,"confidence":-1},{"trial_n":16,"min":65,"max":190,"target":"present","response":"present","rt":716.79999998212,"correct":true,"confidence":-1},{"trial_n":17,"min":73,"max":182,"target":"absent","response":"absent","rt":787.5,"correct":true,"confidence":-1},{"trial_n":18,"min":73,"max":182,"target":"absent","response":"absent","rt":524.20000001788,"correct":true,"confidence":-1},{"trial_n":19,"min":81,"max":174,"target":"present","response":"absent","rt":486.90000000596,"correct":false,"confidence":-1},{"trial_n":20,"min":73,"max":182,"target":"present","response":"absent","rt":1374.2999999821,"correct":false,"confidence":-1},{"trial_n":21,"min":69,"max":186,"target":"present","response":"present","rt":916.09999999404,"correct":true,"confidence":5},{"trial_n":22,"min":69,"max":186,"target":"absent","response":"absent","rt":869.09999999404,"correct":true,"confidence":3},{"trial_n":23,"min":73,"max":182,"target":"absent","response":"absent","rt":1323.5,"correct":true,"confidence":1},{"trial_n":24,"min":73,"max":182,"target":"absent","response":"absent","rt":2110.5,"correct":true,"confidence":4},{"trial_n":25,"min":77,"max":178,"target":"present","response":"present","rt":1367.8000000119,"correct":true,"confidence":4},{"trial_n":26,"min":77,"max":178,"target":"present","response":"absent","rt":1784.6999999881,"correct":false,"confidence":1},{"trial_n":27,"min":73,"max":182,"target":"absent","response":"absent","rt":1207.3000000119,"correct":true,"confidence":1},{"trial_n":28,"min":73,"max":182,"target":"absent","response":"present","rt":785.70000001788,"correct":false,"confidence":3},{"trial_n":29,"min":69,"max":186,"target":"absent","response":"absent","rt":2403.7999999821,"correct":true,"confidence":3},{"trial_n":30,"min":69,"max":186,"target":"absent","response":"absent","rt":1657.6999999881,"correct":true,"confidence":1},{"trial_n":31,"min":71,"max":184,"target":"absent","response":"present","rt":1538.3999999762,"correct":false,"confidence":3},{"trial_n":32,"min":69,"max":186,"target":"absent","response":"present","rt":1103.099999994,"correct":false,"confidence":3},{"trial_n":33,"min":67,"max":188,"target":"present","response":"present","rt":1459.2999999821,"correct":true,"confidence":3},{"trial_n":34,"min":67,"max":188,"target":"present","response":"present","rt":725.30000001192,"correct":true,"confidence":4},{"trial_n":35,"min":69,"max":186,"target":"absent","response":"present","rt":1181.7999999821,"correct":false,"confidence":3},{"trial_n":36,"min":67,"max":188,"target":"present","response":"present","rt":1112.7999999821,"correct":true,"confidence":3},{"trial_n":37,"min":67,"max":188,"target":"present","response":"present","rt":791.30000001192,"correct":true,"confidence":3},{"trial_n":38,"min":69,"max":186,"target":"absent","response":"absent","rt":728.80000001192,"correct":true,"confidence":3},{"trial_n":39,"min":69,"max":186,"target":"present","response":"present","rt":811.69999998808,"correct":true,"confidence":4},{"trial_n":40,"min":71,"max":184,"target":"absent","response":"absent","rt":1014.900000006,"correct":true,"confidence":2},{"trial_n":41,"min":71,"max":184,"target":"absent","response":"absent","rt":1025.6999999881,"correct":true,"confidence":2},{"trial_n":42,"min":72,"max":183,"target":"absent","response":"absent","rt":1090.900000006,"correct":true,"confidence":2},{"trial_n":43,"min":72,"max":183,"target":"absent","response":"absent","rt":2204.8000000119,"correct":true,"confidence":3},{"trial_n":44,"min":73,"max":182,"target":"absent","response":"absent","rt":878.90000000596,"correct":true,"confidence":4},{"trial_n":45,"min":73,"max":182,"target":"absent","response":"absent","rt":692.40000000596,"correct":true,"confidence":4},{"trial_n":46,"min":74,"max":181,"target":"present","response":"present","rt":893.69999998808,"correct":true,"confidence":4},{"trial_n":47,"min":74,"max":181,"target":"present","response":"present","rt":6066.099999994,"correct":true,"confidence":4},{"trial_n":48,"min":75,"max":180,"target":"absent","response":"absent","rt":1846.2999999821,"correct":true,"confidence":3},{"trial_n":49,"min":75,"max":180,"target":"present","response":"present","rt":746.69999998808,"correct":true,"confidence":3},{"trial_n":50,"min":76,"max":179,"target":"present","response":"present","rt":986.19999998808,"correct":true,"confidence":4},{"trial_n":51,"min":76,"max":179,"target":"present","response":"present","rt":706.09999999404,"correct":true,"confidence":3},{"trial_n":52,"min":77,"max":178,"target":"absent","response":"absent","rt":1155.2999999821,"correct":true,"confidence":4},{"trial_n":53,"min":77,"max":178,"target":"present","response":"absent","rt":858.90000000596,"correct":false,"confidence":2},{"trial_n":54,"min":76,"max":179,"target":"present","response":"absent","rt":818.5,"correct":false,"confidence":3},{"trial_n":55,"min":75,"max":180,"target":"present","response":"present","rt":910.5,"correct":true,"confidence":3},{"trial_n":56,"min":75,"max":180,"target":"present","response":"absent","rt":1054.1999999881,"correct":false,"confidence":2},{"trial_n":57,"min":74,"max":181,"target":"present","response":"absent","rt":1459.7999999821,"correct":false,"confidence":3},{"trial_n":58,"min":73,"max":182,"target":"absent","response":"absent","rt":781.29999998212,"correct":true,"confidence":3},{"trial_n":59,"min":73,"max":182,"target":"absent","response":"absent","rt":1310.099999994,"correct":true,"confidence":4},{"trial_n":60,"min":74,"max":181,"target":"present","response":"absent","rt":1532.900000006,"correct":false,"confidence":2},{"trial_n":61,"min":73,"max":182,"target":"absent","response":"absent","rt":1140.3999999762,"correct":true,"confidence":2},{"trial_n":62,"min":73,"max":182,"target":"present","response":"present","rt":1066.400000006,"correct":true,"confidence":2},{"trial_n":63,"min":74,"max":181,"target":"absent","response":"absent","rt":949.40000000596,"correct":true,"confidence":2},{"trial_n":64,"min":74,"max":181,"target":"present","response":"present","rt":691.19999998808,"correct":true,"confidence":3},{"trial_n":65,"min":75,"max":180,"target":"present","response":"present","rt":1024.3000000119,"correct":true,"confidence":3},{"trial_n":66,"min":75,"max":180,"target":"present","response":"absent","rt":1637.2999999821,"correct":false,"confidence":3},{"trial_n":67,"min":74,"max":181,"target":"absent","response":"absent","rt":891.69999998808,"correct":true,"confidence":4},{"trial_n":68,"min":74,"max":181,"target":"present","response":"absent","rt":1303.5,"correct":false,"confidence":2},{"trial_n":69,"min":73,"max":182,"target":"present","response":"absent","rt":813.39999997616,"correct":false,"confidence":3},{"trial_n":70,"min":72,"max":183,"target":"present","response":"absent","rt":904,"correct":false,"confidence":3},{"trial_n":71,"min":41,"max":214,"target":"present","response":"present","rt":824,"correct":true,"confidence":-1},{"trial_n":72,"min":41,"max":214,"target":"present","response":"present","rt":513.19999998808,"correct":true,"confidence":-1},{"trial_n":73,"min":57,"max":198,"target":"absent","response":"absent","rt":850.19999998808,"correct":true,"confidence":-1},{"trial_n":74,"min":57,"max":198,"target":"absent","response":"absent","rt":1405.599999994,"correct":true,"confidence":-1},{"trial_n":75,"min":73,"max":182,"target":"present","response":"present","rt":545.69999998808,"correct":true,"confidence":-1},{"trial_n":76,"min":73,"max":182,"target":"absent","response":"absent","rt":675.40000000596,"correct":true,"confidence":-1},{"trial_n":77,"min":89,"max":166,"target":"present","response":"absent","rt":828.19999998808,"correct":false,"confidence":-1},{"trial_n":78,"min":73,"max":182,"target":"present","response":"present","rt":518.80000001192,"correct":true,"confidence":-1},{"trial_n":79,"min":73,"max":182,"target":"present","response":"present","rt":457.19999998808,"correct":true,"confidence":-1},{"trial_n":80,"min":89,"max":166,"target":"absent","response":"absent","rt":1042.7999999821,"correct":true,"confidence":-1},{"trial_n":81,"min":89,"max":166,"target":"absent","response":"present","rt":4344.6999999881,"correct":false,"confidence":-1},{"trial_n":82,"min":81,"max":174,"target":"absent","response":"absent","rt":1878.900000006,"correct":true,"confidence":-1},{"trial_n":83,"min":81,"max":174,"target":"absent","response":"absent","rt":746.30000001192,"correct":true,"confidence":-1},{"trial_n":84,"min":89,"max":166,"target":"present","response":"absent","rt":24347.099999994,"correct":false,"confidence":-1},{"trial_n":85,"min":81,"max":174,"target":"present","response":"present","rt":785.39999997616,"correct":true,"confidence":-1},{"trial_n":86,"min":81,"max":174,"target":"absent","response":"absent","rt":939.19999998808,"correct":true,"confidence":-1},{"trial_n":87,"min":89,"max":166,"target":"absent","response":"absent","rt":688.09999999404,"correct":true,"confidence":-1},{"trial_n":88,"min":89,"max":166,"target":"absent","response":"absent","rt":473.19999998808,"correct":true,"confidence":-1},{"trial_n":89,"min":97,"max":158,"target":"absent","response":"present","rt":1280.6999999881,"correct":false,"confidence":-1},{"trial_n":90,"min":89,"max":166,"target":"present","response":"present","rt":587,"correct":true,"confidence":-1},{"trial_n":91,"min":89,"max":166,"target":"absent","response":"present","rt":551.59999999404,"correct":false,"confidence":3},{"trial_n":92,"min":85,"max":170,"target":"present","response":"present","rt":715.5,"correct":true,"confidence":3},{"trial_n":93,"min":85,"max":170,"target":"present","response":"absent","rt":1210.7000000179,"correct":false,"confidence":1},{"trial_n":94,"min":81,"max":174,"target":"present","response":"present","rt":1028.1000000238,"correct":true,"confidence":1},{"trial_n":95,"min":81,"max":174,"target":"present","response":"present","rt":660.19999998808,"correct":true,"confidence":5},{"trial_n":96,"min":85,"max":170,"target":"present","response":"present","rt":1103.2999999821,"correct":true,"confidence":2},{"trial_n":97,"min":85,"max":170,"target":"present","response":"present","rt":693.79999998212,"correct":true,"confidence":3},{"trial_n":98,"min":89,"max":166,"target":"absent","response":"absent","rt":1222.5,"correct":true,"confidence":1},{"trial_n":99,"min":89,"max":166,"target":"absent","response":"absent","rt":963.40000000596,"correct":true,"confidence":1},{"trial_n":100,"min":93,"max":162,"target":"present","response":"present","rt":731.59999999404,"correct":true,"confidence":1},{"trial_n":101,"min":93,"max":162,"target":"present","response":"present","rt":594,"correct":true,"confidence":2},{"trial_n":102,"min":95,"max":160,"target":"absent","response":"present","rt":802.40000000596,"correct":false,"confidence":2},{"trial_n":103,"min":93,"max":162,"target":"absent","response":"present","rt":2002.7999999821,"correct":false,"confidence":3},{"trial_n":104,"min":91,"max":164,"target":"present","response":"present","rt":1246.8000000119,"correct":true,"confidence":1},{"trial_n":105,"min":91,"max":164,"target":"present","response":"present","rt":851.59999999404,"correct":true,"confidence":3},{"trial_n":106,"min":93,"max":162,"target":"present","response":"present","rt":886.19999998808,"correct":true,"confidence":3},{"trial_n":107,"min":93,"max":162,"target":"present","response":"present","rt":952.5,"correct":true,"confidence":2},{"trial_n":108,"min":95,"max":160,"target":"present","response":"present","rt":1130.8000000119,"correct":true,"confidence":1},{"trial_n":109,"min":95,"max":160,"target":"present","response":"absent","rt":1148.7999999821,"correct":false,"confidence":1},{"trial_n":110,"min":93,"max":162,"target":"absent","response":"present","rt":951.79999998212,"correct":false,"confidence":1},{"trial_n":111,"min":92,"max":163,"target":"absent","response":"absent","rt":1121.5,"correct":true,"confidence":1},{"trial_n":112,"min":92,"max":163,"target":"absent","response":"present","rt":850,"correct":false,"confidence":3},{"trial_n":113,"min":91,"max":164,"target":"absent","response":"present","rt":1288.7999999821,"correct":false,"confidence":2},{"trial_n":114,"min":90,"max":165,"target":"present","response":"present","rt":1029.3999999762,"correct":true,"confidence":2},{"trial_n":115,"min":90,"max":165,"target":"present","response":"present","rt":632.09999999404,"correct":true,"confidence":3},{"trial_n":116,"min":91,"max":164,"target":"absent","response":"absent","rt":1441.5,"correct":true,"confidence":1},{"trial_n":117,"min":91,"max":164,"target":"absent","response":"present","rt":691.89999997616,"correct":false,"confidence":1},{"trial_n":118,"min":90,"max":165,"target":"absent","response":"absent","rt":1018.599999994,"correct":true,"confidence":1},{"trial_n":119,"min":90,"max":165,"target":"present","response":"present","rt":1080.7999999821,"correct":true,"confidence":2},{"trial_n":120,"min":91,"max":164,"target":"absent","response":"present","rt":1159.5,"correct":false,"confidence":2},{"trial_n":121,"min":90,"max":165,"target":"absent","response":"present","rt":1167.900000006,"correct":false,"confidence":2},{"trial_n":122,"min":89,"max":166,"target":"present","response":"present","rt":800.60000002384,"correct":true,"confidence":3},{"trial_n":123,"min":89,"max":166,"target":"present","response":"absent","rt":2962.5,"correct":false,"confidence":2},{"trial_n":124,"min":88,"max":167,"target":"present","response":"present","rt":718.59999999404,"correct":true,"confidence":4},{"trial_n":125,"min":88,"max":167,"target":"absent","response":"absent","rt":1762.599999994,"correct":true,"confidence":3},{"trial_n":126,"min":89,"max":166,"target":"present","response":"present","rt":725.30000001192,"correct":true,"confidence":4},{"trial_n":127,"min":89,"max":166,"target":"absent","response":"present","rt":1081.3000000119,"correct":false,"confidence":1},{"trial_n":128,"min":88,"max":167,"target":"absent","response":"present","rt":1058,"correct":false,"confidence":1},{"trial_n":129,"min":87,"max":168,"target":"present","response":"present","rt":848.29999998212,"correct":true,"confidence":3},{"trial_n":130,"min":87,"max":168,"target":"absent","response":"present","rt":1117.599999994,"correct":false,"confidence":3},{"trial_n":131,"min":86,"max":169,"target":"absent","response":"absent","rt":1166.7999999821,"correct":true,"confidence":3},{"trial_n":132,"min":86,"max":169,"target":"present","response":"present","rt":707.89999997616,"correct":true,"confidence":3},{"trial_n":133,"min":87,"max":168,"target":"absent","response":"absent","rt":1056.6000000238,"correct":true,"confidence":3},{"trial_n":134,"min":87,"max":168,"target":"absent","response":"present","rt":1192.3000000119,"correct":false,"confidence":3},{"trial_n":135,"min":86,"max":169,"target":"absent","response":"absent","rt":938.90000000596,"correct":true,"confidence":2},{"trial_n":136,"min":86,"max":169,"target":"present","response":"present","rt":756.30000001192,"correct":true,"confidence":2},{"trial_n":137,"min":87,"max":168,"target":"present","response":"present","rt":1266.400000006,"correct":true,"confidence":3},{"trial_n":138,"min":87,"max":168,"target":"present","response":"present","rt":757.5,"correct":true,"confidence":3},{"trial_n":139,"min":88,"max":167,"target":"present","response":"present","rt":678.5,"correct":true,"confidence":4},{"trial_n":140,"min":88,"max":167,"target":"absent","response":"present","rt":1085.599999994,"correct":false,"confidence":3}]