[{"trial_n":1,"n_dots":4.25,"target":"left","response":"left","rt":7231.3000000715,"correct":true,"confidence":-1},{"trial_n":2,"n_dots":4.25,"target":"right","response":"right","rt":1010.6000000238,"correct":true,"confidence":-1},{"trial_n":3,"n_dots":3.85,"target":"left","response":"left","rt":167.60000002384,"correct":true,"confidence":-1},{"trial_n":4,"n_dots":3.85,"target":"right","response":"right","rt":3429.2000000477,"correct":true,"confidence":-1},{"trial_n":5,"n_dots":3.45,"target":"left","response":"left","rt":645.89999997616,"correct":true,"confidence":-1},{"trial_n":6,"n_dots":3.45,"target":"left","response":"left","rt":764.79999995232,"correct":true,"confidence":-1},{"trial_n":7,"n_dots":3.05,"target":"left","response":"left","rt":224.70000004768,"correct":true,"confidence":-1},{"trial_n":8,"n_dots":3.05,"target":"left","response":"left","rt":250.39999997616,"correct":true,"confidence":-1},{"trial_n":9,"n_dots":2.85,"target":"left","response":"right","rt":100.39999997616,"correct":false,"confidence":-1},{"trial_n":10,"n_dots":3.05,"target":"left","response":"left","rt":43.600000023842,"correct":true,"confidence":-1},{"trial_n":11,"n_dots":3.05,"target":"right","response":"right","rt":385.89999997616,"correct":true,"confidence":-1},{"trial_n":12,"n_dots":2.85,"target":"right","response":"left","rt":44.5,"correct":false,"confidence":-1},{"trial_n":13,"n_dots":2.95,"target":"left","response":"left","rt":283.5,"correct":true,"confidence":-1},{"trial_n":14,"n_dots":2.95,"target":"right","response":"left","rt":530.20000004768,"correct":false,"confidence":-1},{"trial_n":15,"n_dots":3.05,"target":"left","response":"left","rt":83.400000095367,"correct":true,"confidence":-1},{"trial_n":16,"n_dots":3.05,"target":"left","response":"right","rt":139.80000007153,"correct":false,"confidence":-1},{"trial_n":17,"n_dots":3.15,"target":"right","response":"right","rt":431.19999992847,"correct":true,"confidence":-1},{"trial_n":18,"n_dots":3.15,"target":"right","response":"left","rt":50.899999976158,"correct":false,"confidence":-1},{"trial_n":19,"n_dots":3.25,"target":"right","response":"left","rt":193.39999997616,"correct":false,"confidence":-1},{"trial_n":20,"n_dots":3.35,"target":"left","response":"left","rt":63,"correct":true,"confidence":-1},{"trial_n":21,"n_dots":3.35,"target":"left","response":"left","rt":806.19999992847,"correct":true,"confidence":5},{"trial_n":22,"n_dots":3.25,"target":"left","response":"left","rt":241,"correct":true,"confidence":4},{"trial_n":23,"n_dots":3.25,"target":"left","response":"left","rt":2171.7999999523,"correct":true,"confidence":4},{"trial_n":24,"n_dots":3.15,"target":"left","response":"right","rt":1467.7000000477,"correct":false,"confidence":1},{"trial_n":25,"n_dots":3.25,"target":"left","response":"left","rt":50.200000047684,"correct":true,"confidence":4},{"trial_n":26,"n_dots":3.25,"target":"right","response":"right","rt":103.60000002384,"correct":true,"confidence":4},{"trial_n":27,"n_dots":3.15,"target":"left","response":"left","rt":905.69999992847,"correct":true,"confidence":4},{"trial_n":28,"n_dots":3.15,"target":"left","response":"left","rt":608.80000007153,"correct":true,"confidence":4},{"trial_n":29,"n_dots":3.05,"target":"left","response":"left","rt":542.89999997616,"correct":true,"confidence":5},{"trial_n":30,"n_dots":3.05,"target":"left","response":"left","rt":457.79999995232,"correct":true,"confidence":5},{"trial_n":31,"n_dots":2.95,"target":"right","response":"left","rt":1973.2999999523,"correct":false,"confidence":3},{"trial_n":32,"n_dots":3.05,"target":"left","response":"left","rt":948.60000002384,"correct":true,"confidence":4},{"trial_n":33,"n_dots":3.05,"target":"left","response":"left","rt":996.10000002384,"correct":true,"confidence":4},{"trial_n":34,"n_dots":2.95,"target":"left","response":"left","rt":1662.6999999285,"correct":true,"confidence":4},{"trial_n":35,"n_dots":2.95,"target":"left","response":"left","rt":1421,"correct":true,"confidence":3},{"trial_n":36,"n_dots":2.85,"target":"right","response":"left","rt":819.30000007153,"correct":false,"confidence":3},{"trial_n":37,"n_dots":2.95,"target":"left","response":"left","rt":947.80000007153,"correct":true,"confidence":3},{"trial_n":38,"n_dots":2.95,"target":"right","response":"right","rt":762.5,"correct":true,"confidence":3},{"trial_n":39,"n_dots":2.85,"target":"right","response":"right","rt":1061.2999999523,"correct":true,"confidence":3},{"trial_n":40,"n_dots":2.85,"target":"right","response":"left","rt":1082.0999999046,"correct":false,"confidence":2},{"trial_n":41,"n_dots":2.95,"target":"left","response":"left","rt":832.20000004768,"correct":true,"confidence":3},{"trial_n":42,"n_dots":2.95,"target":"right","response":"right","rt":408.70000004768,"correct":true,"confidence":3},{"trial_n":43,"n_dots":2.85,"target":"left","response":"left","rt":1662.8999999762,"correct":true,"confidence":4},{"trial_n":44,"n_dots":2.85,"target":"left","response":"right","rt":1070.3000000715,"correct":false,"confidence":2},{"trial_n":45,"n_dots":2.95,"target":"left","response":"left","rt":687.5,"correct":true,"confidence":4},{"trial_n":46,"n_dots":2.95,"target":"right","response":"right","rt":838.80000007153,"correct":true,"confidence":3},{"trial_n":47,"n_dots":2.85,"target":"right","response":"right","rt":1159.9000000954,"correct":true,"confidence":1},{"trial_n":48,"n_dots":2.85,"target":"right","response":"right","rt":1941,"correct":true,"confidence":2},{"trial_n":49,"n_dots":2.75,"target":"right","response":"right","rt":538.89999997616,"correct":true,"confidence":4},{"trial_n":50,"n_dots":2.75,"target":"left","response":"left","rt":1434.6999999285,"correct":true,"confidence":2},{"trial_n":51,"n_dots":2.65,"target":"left","response":"left","rt":672.10000002384,"correct":true,"confidence":2},{"trial_n":52,"n_dots":2.65,"target":"left","response":"left","rt":1165.2000000477,"correct":true,"confidence":3},{"trial_n":53,"n_dots":2.55,"target":"right","response":"left","rt":1794.2999999523,"correct":false,"confidence":3},{"trial_n":54,"n_dots":2.65,"target":"right","response":"left","rt":755,"correct":false,"confidence":4},{"trial_n":55,"n_dots":2.75,"target":"right","response":"left","rt":1305.3999999762,"correct":false,"confidence":3},{"trial_n":56,"n_dots":2.85,"target":"right","response":"left","rt":1652.8000000715,"correct":false,"confidence":4},{"trial_n":57,"n_dots":2.95,"target":"right","response":"right","rt":1055.6999999285,"correct":true,"confidence":4},{"trial_n":58,"n_dots":2.95,"target":"right","response":"left","rt":2325.9000000954,"correct":false,"confidence":4},{"trial_n":59,"n_dots":3.05,"target":"left","response":"left","rt":7960.6000000238,"correct":true,"confidence":4},{"trial_n":60,"n_dots":3.05,"target":"right","response":"right","rt":308.09999990463,"correct":true,"confidence":3},{"trial_n":61,"n_dots":2.95,"target":"right","response":"right","rt":428.70000004768,"correct":true,"confidence":3},{"trial_n":62,"n_dots":2.95,"target":"right","response":"right","rt":372.5,"correct":true,"confidence":3},{"trial_n":63,"n_dots":2.85,"target":"right","response":"left","rt":1254.3999999762,"correct":false,"confidence":4},{"trial_n":64,"n_dots":2.95,"target":"right","response":"right","rt":1748.1000000238,"correct":true,"confidence":4},{"trial_n":65,"n_dots":2.95,"target":"right","response":"right","rt":458.30000007153,"correct":true,"confidence":4},{"trial_n":66,"n_dots":2.85,"target":"right","response":"left","rt":1063,"correct":false,"confidence":1},{"trial_n":67,"n_dots":2.95,"target":"right","response":"left","rt":1255.1999999285,"correct":false,"confidence":3},{"trial_n":68,"n_dots":3.05,"target":"right","response":"right","rt":993.89999997616,"correct":true,"confidence":3},{"trial_n":69,"n_dots":3.05,"target":"left","response":"right","rt":1591.8000000715,"correct":false,"confidence":4},{"trial_n":70,"n_dots":3.15,"target":"left","response":"left","rt":1209.0999999046,"correct":true,"confidence":4},{"trial_n":71,"n_dots":3.15,"target":"left","response":"left","rt":967.60000002384,"correct":true,"confidence":4},{"trial_n":72,"n_dots":3.05,"target":"left","response":"right","rt":1032.6999999285,"correct":false,"confidence":4},{"trial_n":73,"n_dots":3.15,"target":"right","response":"right","rt":419.5,"correct":true,"confidence":4},{"trial_n":74,"n_dots":3.15,"target":"left","response":"left","rt":2491.6000000238,"correct":true,"confidence":3},{"trial_n":75,"n_dots":3.05,"target":"right","response":"right","rt":639.59999990463,"correct":true,"confidence":4},{"trial_n":76,"n_dots":3.05,"target":"right","response":"left","rt":754.60000002384,"correct":false,"confidence":3},{"trial_n":77,"n_dots":3.15,"target":"right","response":"right","rt":444.20000004768,"correct":true,"confidence":4},{"trial_n":78,"n_dots":3.15,"target":"right","response":"right","rt":362.60000002384,"correct":true,"confidence":4},{"trial_n":79,"n_dots":3.05,"target":"left","response":"left","rt":668.20000004768,"correct":true,"confidence":4},{"trial_n":80,"n_dots":3.05,"target":"left","response":"left","rt":518.69999992847,"correct":true,"confidence":3},{"trial_n":81,"n_dots":2.95,"target":"left","response":"right","rt":413.60000002384,"correct":false,"confidence":4},{"trial_n":82,"n_dots":3.05,"target":"left","response":"left","rt":632.40000009537,"correct":true,"confidence":3},{"trial_n":83,"n_dots":3.05,"target":"right","response":"right","rt":303.10000002384,"correct":true,"confidence":4},{"trial_n":84,"n_dots":2.95,"target":"right","response":"right","rt":781.10000002384,"correct":true,"confidence":4},{"trial_n":85,"n_dots":2.95,"target":"left","response":"right","rt":1230.8999999762,"correct":false,"confidence":3},{"trial_n":86,"n_dots":3.05,"target":"left","response":"left","rt":1145.2999999523,"correct":true,"confidence":4},{"trial_n":87,"n_dots":3.05,"target":"right","response":"right","rt":347.80000007153,"correct":true,"confidence":3},{"trial_n":88,"n_dots":2.95,"target":"right","response":"right","rt":374.29999995232,"correct":true,"confidence":3},{"trial_n":89,"n_dots":2.95,"target":"left","response":"left","rt":344.29999995232,"correct":true,"confidence":3},{"trial_n":90,"n_dots":2.85,"target":"left","response":"left","rt":524.30000007153,"correct":true,"confidence":3},{"trial_n":91,"n_dots":2.85,"target":"right","response":"right","rt":634.70000004768,"correct":true,"confidence":4},{"trial_n":92,"n_dots":2.75,"target":"right","response":"left","rt":462.39999997616,"correct":false,"confidence":2},{"trial_n":93,"n_dots":2.85,"target":"left","response":"left","rt":1015.7999999523,"correct":true,"confidence":3},{"trial_n":94,"n_dots":2.85,"target":"right","response":"right","rt":267.5,"correct":true,"confidence":4},{"trial_n":95,"n_dots":2.75,"target":"right","response":"right","rt":845.09999990463,"correct":true,"confidence":5},{"trial_n":96,"n_dots":2.75,"target":"right","response":"right","rt":676.20000004768,"correct":true,"confidence":5},{"trial_n":97,"n_dots":2.65,"target":"left","response":"left","rt":1571.7000000477,"correct":true,"confidence":4},{"trial_n":98,"n_dots":2.65,"target":"right","response":"left","rt":741,"correct":false,"confidence":1},{"trial_n":99,"n_dots":2.75,"target":"left","response":"left","rt":1120.8999999762,"correct":true,"confidence":2},{"trial_n":100,"n_dots":2.75,"target":"left","response":"left","rt":838.60000002384,"correct":true,"confidence":3},{"trial_n":101,"n_dots":2.65,"target":"right","response":"left","rt":997.59999990463,"correct":false,"confidence":3},{"trial_n":102,"n_dots":2.75,"target":"right","response":"left","rt":876,"correct":false,"confidence":3},{"trial_n":103,"n_dots":2.85,"target":"left","response":"left","rt":355.79999995232,"correct":true,"confidence":4},{"trial_n":104,"n_dots":2.85,"target":"right","response":"right","rt":450.5,"correct":true,"confidence":4},{"trial_n":105,"n_dots":2.75,"target":"left","response":"left","rt":1171.6000000238,"correct":true,"confidence":3},{"trial_n":106,"n_dots":2.75,"target":"right","response":"left","rt":796.89999997616,"correct":false,"confidence":2},{"trial_n":107,"n_dots":2.85,"target":"right","response":"right","rt":437.79999995232,"correct":true,"confidence":3},{"trial_n":108,"n_dots":2.85,"target":"left","response":"left","rt":872.10000002384,"correct":true,"confidence":3},{"trial_n":109,"n_dots":2.75,"target":"left","response":"left","rt":1693,"correct":true,"confidence":3},{"trial_n":110,"n_dots":2.75,"target":"right","response":"right","rt":1605.8999999762,"correct":true,"confidence":3},{"trial_n":111,"n_dots":2.65,"target":"right","response":"left","rt":546.70000004768,"correct":false,"confidence":3},{"trial_n":112,"n_dots":2.75,"target":"right","response":"left","rt":360.20000004768,"correct":false,"confidence":3},{"trial_n":113,"n_dots":2.85,"target":"right","response":"left","rt":800.20000004768,"correct":false,"confidence":3},{"trial_n":114,"n_dots":2.95,"target":"left","response":"left","rt":286.80000007153,"correct":true,"confidence":3},{"trial_n":115,"n_dots":2.95,"target":"right","response":"left","rt":467.29999995232,"correct":false,"confidence":3},{"trial_n":116,"n_dots":3.05,"target":"left","response":"left","rt":318.39999997616,"correct":true,"confidence":4},{"trial_n":117,"n_dots":3.05,"target":"left","response":"left","rt":318.10000002384,"correct":true,"confidence":4},{"trial_n":118,"n_dots":2.95,"target":"left","response":"left","rt":2210.7000000477,"correct":true,"confidence":3},{"trial_n":119,"n_dots":2.95,"target":"left","response":"left","rt":628.70000004768,"correct":true,"confidence":3},{"trial_n":120,"n_dots":2.85,"target":"right","response":"left","rt":1299.2000000477,"correct":false,"confidence":4}]