[{"trial_n":1,"n_dots":4.25,"target":"left","response":"right","rt":2540.2999999523,"correct":false,"confidence":-1},{"trial_n":2,"n_dots":4.25,"target":"left","response":"left","rt":337.20000004768,"correct":true,"confidence":-1},{"trial_n":3,"n_dots":4.25,"target":"left","response":"left","rt":201.29999995232,"correct":true,"confidence":-1},{"trial_n":4,"n_dots":3.85,"target":"left","response":"left","rt":275.20000004768,"correct":true,"confidence":-1},{"trial_n":5,"n_dots":3.85,"target":"right","response":"right","rt":64.099999904633,"correct":true,"confidence":-1},{"trial_n":6,"n_dots":3.45,"target":"right","response":"right","rt":106.59999990463,"correct":true,"confidence":-1},{"trial_n":7,"n_dots":3.45,"target":"right","response":"right","rt":60.799999952316,"correct":true,"confidence":-1},{"trial_n":8,"n_dots":3.25,"target":"left","response":"left","rt":889,"correct":true,"confidence":-1},{"trial_n":9,"n_dots":3.25,"target":"right","response":"right","rt":297.79999995232,"correct":true,"confidence":-1},{"trial_n":10,"n_dots":3.05,"target":"left","response":"right","rt":396.40000009537,"correct":false,"confidence":-1},{"trial_n":11,"n_dots":3.25,"target":"right","response":"right","rt":644.89999985695,"correct":true,"confidence":-1},{"trial_n":12,"n_dots":3.25,"target":"right","response":"right","rt":44.399999856949,"correct":true,"confidence":-1},{"trial_n":13,"n_dots":3.15,"target":"left","response":"left","rt":129.60000014305,"correct":true,"confidence":-1},{"trial_n":14,"n_dots":3.15,"target":"right","response":"right","rt":115.69999980927,"correct":true,"confidence":-1},{"trial_n":15,"n_dots":3.05,"target":"left","response":"right","rt":446.89999985695,"correct":false,"confidence":-1},{"trial_n":16,"n_dots":3.15,"target":"right","response":"right","rt":263,"correct":true,"confidence":-1},{"trial_n":17,"n_dots":3.15,"target":"right","response":"right","rt":-69.800000190735,"correct":true,"confidence":-1},{"trial_n":18,"n_dots":3.05,"target":"left","response":"left","rt":151.69999980927,"correct":true,"confidence":-1},{"trial_n":19,"n_dots":3.05,"target":"right","response":"right","rt":649.29999995232,"correct":true,"confidence":-1},{"trial_n":20,"n_dots":2.95,"target":"right","response":"left","rt":586.90000009537,"correct":false,"confidence":-1},{"trial_n":21,"n_dots":3.05,"target":"right","response":"right","rt":593.09999990463,"correct":true,"confidence":3},{"trial_n":22,"n_dots":3.05,"target":"right","response":"right","rt":1401.2000000477,"correct":true,"confidence":3},{"trial_n":23,"n_dots":2.95,"target":"left","response":"right","rt":1122.8999998569,"correct":false,"confidence":2},{"trial_n":24,"n_dots":3.05,"target":"right","response":"right","rt":506.09999990463,"correct":true,"confidence":2},{"trial_n":25,"n_dots":3.05,"target":"left","response":"right","rt":428.39999985695,"correct":false,"confidence":2},{"trial_n":26,"n_dots":3.15,"target":"left","response":"right","rt":641.60000014305,"correct":false,"confidence":2},{"trial_n":27,"n_dots":3.25,"target":"right","response":"right","rt":466.09999990463,"correct":true,"confidence":3},{"trial_n":28,"n_dots":3.25,"target":"right","response":"right","rt":431,"correct":true,"confidence":2},{"trial_n":29,"n_dots":3.15,"target":"left","response":"left","rt":1480.7999999523,"correct":true,"confidence":1},{"trial_n":30,"n_dots":3.15,"target":"right","response":"left","rt":1670.2000000477,"correct":false,"confidence":1},{"trial_n":31,"n_dots":3.25,"target":"right","response":"right","rt":327.90000009537,"correct":true,"confidence":2},{"trial_n":32,"n_dots":3.25,"target":"right","response":"right","rt":479.09999990463,"correct":true,"confidence":2},{"trial_n":33,"n_dots":3.15,"target":"right","response":"left","rt":915.29999995232,"correct":false,"confidence":1},{"trial_n":34,"n_dots":3.25,"target":"right","response":"right","rt":674,"correct":true,"confidence":1},{"trial_n":35,"n_dots":3.25,"target":"left","response":"left","rt":608,"correct":true,"confidence":2},{"trial_n":36,"n_dots":3.15,"target":"left","response":"left","rt":999.10000014305,"correct":true,"confidence":2},{"trial_n":37,"n_dots":3.15,"target":"right","response":"right","rt":383.90000009537,"correct":true,"confidence":2},{"trial_n":38,"n_dots":3.05,"target":"left","response":"left","rt":427.09999990463,"correct":true,"confidence":2},{"trial_n":39,"n_dots":3.05,"target":"right","response":"right","rt":117.29999995232,"correct":true,"confidence":3},{"trial_n":40,"n_dots":2.95,"target":"left","response":"left","rt":903.90000009537,"correct":true,"confidence":2},{"trial_n":41,"n_dots":2.95,"target":"right","response":"right","rt":402.70000004768,"correct":true,"confidence":2},{"trial_n":42,"n_dots":2.85,"target":"left","response":"right","rt":285.39999985695,"correct":false,"confidence":2},{"trial_n":43,"n_dots":2.95,"target":"right","response":"right","rt":361.39999985695,"correct":true,"confidence":2},{"trial_n":44,"n_dots":2.95,"target":"left","response":"left","rt":342,"correct":true,"confidence":2},{"trial_n":45,"n_dots":2.85,"target":"right","response":"right","rt":386.40000009537,"correct":true,"confidence":2},{"trial_n":46,"n_dots":2.85,"target":"right","response":"right","rt":608.29999995232,"correct":true,"confidence":4},{"trial_n":47,"n_dots":2.75,"target":"left","response":"right","rt":1200.8999998569,"correct":false,"confidence":1},{"trial_n":48,"n_dots":2.85,"target":"right","response":"right","rt":601.59999990463,"correct":true,"confidence":2},{"trial_n":49,"n_dots":2.85,"target":"left","response":"right","rt":29.899999856949,"correct":false,"confidence":2},{"trial_n":50,"n_dots":2.95,"target":"left","response":"right","rt":412.70000004768,"correct":false,"confidence":1},{"trial_n":51,"n_dots":3.05,"target":"left","response":"left","rt":3346.5,"correct":true,"confidence":1},{"trial_n":52,"n_dots":3.05,"target":"right","response":"right","rt":135.70000004768,"correct":true,"confidence":2},{"trial_n":53,"n_dots":2.95,"target":"left","response":"left","rt":928.5,"correct":true,"confidence":2},{"trial_n":54,"n_dots":2.95,"target":"right","response":"right","rt":98.700000047684,"correct":true,"confidence":2},{"trial_n":55,"n_dots":2.85,"target":"left","response":"right","rt":305.70000004768,"correct":false,"confidence":2},{"trial_n":56,"n_dots":2.95,"target":"left","response":"right","rt":675.40000009537,"correct":false,"confidence":2},{"trial_n":57,"n_dots":3.05,"target":"left","response":"left","rt":351.5,"correct":true,"confidence":3},{"trial_n":58,"n_dots":3.05,"target":"left","response":"left","rt":476.59999990463,"correct":true,"confidence":2},{"trial_n":59,"n_dots":2.95,"target":"left","response":"right","rt":576.29999995232,"correct":false,"confidence":2},{"trial_n":60,"n_dots":3.05,"target":"left","response":"right","rt":308.30000019073,"correct":false,"confidence":2},{"trial_n":61,"n_dots":3.15,"target":"right","response":"right","rt":9,"correct":true,"confidence":4},{"trial_n":62,"n_dots":3.15,"target":"left","response":"right","rt":123.29999995232,"correct":false,"confidence":2},{"trial_n":63,"n_dots":3.25,"target":"right","response":"right","rt":1066.2000000477,"correct":true,"confidence":3},{"trial_n":64,"n_dots":3.25,"target":"right","response":"right","rt":836.59999990463,"correct":true,"confidence":4},{"trial_n":65,"n_dots":3.15,"target":"right","response":"right","rt":329.79999995232,"correct":true,"confidence":4},{"trial_n":66,"n_dots":3.15,"target":"right","response":"right","rt":66.599999904633,"correct":true,"confidence":3},{"trial_n":67,"n_dots":3.05,"target":"right","response":"right","rt":6.5,"correct":true,"confidence":3},{"trial_n":68,"n_dots":3.05,"target":"left","response":"right","rt":955.19999980927,"correct":false,"confidence":2},{"trial_n":69,"n_dots":3.15,"target":"left","response":"left","rt":2000.0999999046,"correct":true,"confidence":2},{"trial_n":70,"n_dots":3.15,"target":"left","response":"left","rt":471.29999995232,"correct":true,"confidence":2},{"trial_n":71,"n_dots":3.05,"target":"left","response":"left","rt":494.29999995232,"correct":true,"confidence":2},{"trial_n":72,"n_dots":3.05,"target":"right","response":"left","rt":1485.2999999523,"correct":false,"confidence":2},{"trial_n":73,"n_dots":3.15,"target":"left","response":"right","rt":1297.1000001431,"correct":false,"confidence":3},{"trial_n":74,"n_dots":3.25,"target":"right","response":"right","rt":258.29999995232,"correct":true,"confidence":3},{"trial_n":75,"n_dots":3.25,"target":"right","response":"right","rt":511.40000009537,"correct":true,"confidence":2},{"trial_n":76,"n_dots":3.15,"target":"left","response":"right","rt":567.60000014305,"correct":false,"confidence":2},{"trial_n":77,"n_dots":3.25,"target":"left","response":"right","rt":587.90000009537,"correct":false,"confidence":2},{"trial_n":78,"n_dots":3.35,"target":"right","response":"right","rt":695.40000009537,"correct":true,"confidence":2},{"trial_n":79,"n_dots":3.35,"target":"right","response":"right","rt":840.5,"correct":true,"confidence":4},{"trial_n":80,"n_dots":3.25,"target":"left","response":"right","rt":250.59999990463,"correct":false,"confidence":2},{"trial_n":81,"n_dots":3.35,"target":"right","response":"right","rt":109.5,"correct":true,"confidence":2},{"trial_n":82,"n_dots":3.35,"target":"right","response":"right","rt":650.20000004768,"correct":true,"confidence":3},{"trial_n":83,"n_dots":3.25,"target":"right","response":"right","rt":441.5,"correct":true,"confidence":3},{"trial_n":84,"n_dots":3.25,"target":"right","response":"right","rt":69.599999904633,"correct":true,"confidence":3},{"trial_n":85,"n_dots":3.15,"target":"right","response":"right","rt":65.099999904633,"correct":true,"confidence":3},{"trial_n":86,"n_dots":3.15,"target":"left","response":"left","rt":1221.2999999523,"correct":true,"confidence":2},{"trial_n":87,"n_dots":3.05,"target":"right","response":"right","rt":211.70000004768,"correct":true,"confidence":3},{"trial_n":88,"n_dots":3.05,"target":"left","response":"right","rt":16.799999952316,"correct":false,"confidence":2},{"trial_n":89,"n_dots":3.15,"target":"left","response":"left","rt":861.29999995232,"correct":true,"confidence":1},{"trial_n":90,"n_dots":3.15,"target":"right","response":"right","rt":621.29999995232,"correct":true,"confidence":3},{"trial_n":91,"n_dots":3.05,"target":"left","response":"right","rt":36.900000095367,"correct":false,"confidence":2},{"trial_n":92,"n_dots":3.15,"target":"left","response":"left","rt":1511.2999999523,"correct":true,"confidence":2},{"trial_n":93,"n_dots":3.15,"target":"left","response":"left","rt":2987.7999999523,"correct":true,"confidence":1},{"trial_n":94,"n_dots":3.05,"target":"left","response":"right","rt":374.10000014305,"correct":false,"confidence":1},{"trial_n":95,"n_dots":3.15,"target":"left","response":"right","rt":394.59999990463,"correct":false,"confidence":2},{"trial_n":96,"n_dots":3.25,"target":"left","response":"left","rt":708.19999980927,"correct":true,"confidence":2},{"trial_n":97,"n_dots":3.25,"target":"right","response":"right","rt":59.5,"correct":true,"confidence":3},{"trial_n":98,"n_dots":3.15,"target":"left","response":"left","rt":965.40000009537,"correct":true,"confidence":2},{"trial_n":99,"n_dots":3.15,"target":"left","response":"left","rt":643.20000004768,"correct":true,"confidence":3},{"trial_n":100,"n_dots":3.05,"target":"right","response":"right","rt":170.59999990463,"correct":true,"confidence":3},{"trial_n":101,"n_dots":3.05,"target":"left","response":"right","rt":500.40000009537,"correct":false,"confidence":2},{"trial_n":102,"n_dots":3.15,"target":"right","response":"right","rt":355.19999980927,"correct":true,"confidence":2},{"trial_n":103,"n_dots":3.15,"target":"right","response":"right","rt":441.29999995232,"correct":true,"confidence":3},{"trial_n":104,"n_dots":3.05,"target":"left","response":"left","rt":290.89999985695,"correct":true,"confidence":3},{"trial_n":105,"n_dots":3.05,"target":"right","response":"right","rt":1615.7000000477,"correct":true,"confidence":3},{"trial_n":106,"n_dots":2.95,"target":"left","response":"right","rt":145.09999990463,"correct":false,"confidence":3},{"trial_n":107,"n_dots":3.05,"target":"right","response":"right","rt":386.5,"correct":true,"confidence":3},{"trial_n":108,"n_dots":3.05,"target":"left","response":"right","rt":613.59999990463,"correct":false,"confidence":2},{"trial_n":109,"n_dots":3.15,"target":"right","response":"right","rt":39.299999952316,"correct":true,"confidence":4},{"trial_n":110,"n_dots":3.15,"target":"right","response":"right","rt":83.599999904633,"correct":true,"confidence":4},{"trial_n":111,"n_dots":3.05,"target":"left","response":"right","rt":845.79999995232,"correct":false,"confidence":2},{"trial_n":112,"n_dots":3.15,"target":"right","response":"right","rt":100.29999995232,"correct":true,"confidence":2},{"trial_n":113,"n_dots":3.15,"target":"right","response":"right","rt":631,"correct":true,"confidence":3},{"trial_n":114,"n_dots":3.05,"target":"left","response":"left","rt":1769.9000000954,"correct":true,"confidence":2},{"trial_n":115,"n_dots":3.05,"target":"left","response":"left","rt":1205.7000000477,"correct":true,"confidence":2},{"trial_n":116,"n_dots":2.95,"target":"right","response":"right","rt":174.79999995232,"correct":true,"confidence":2},{"trial_n":117,"n_dots":2.95,"target":"left","response":"right","rt":858.70000004768,"correct":false,"confidence":1},{"trial_n":118,"n_dots":3.05,"target":"left","response":"right","rt":645.79999995232,"correct":false,"confidence":1},{"trial_n":119,"n_dots":3.15,"target":"right","response":"right","rt":654.20000004768,"correct":true,"confidence":2},{"trial_n":120,"n_dots":3.15,"target":"left","response":"right","rt":679.70000004768,"correct":false,"confidence":1}]