[{"trial_n":1,"span":8,"encoder":"84073679","distractor":"84077679","target":"present","response":"present","rt":"2927.1999999881","correct":true,"confidence":-1},{"trial_n":2,"span":8,"encoder":"54847349","distractor":"54847949","target":"present","response":"present","rt":"2493","correct":true,"confidence":-1},{"trial_n":3,"span":10,"encoder":"0759264501","distractor":"0759264541","target":"absent","response":"present","rt":"3683.1999999881","correct":false,"confidence":-1},{"trial_n":4,"span":8,"encoder":"36920056","distractor":"36927056","target":"absent","response":"absent","rt":"1892.9000000358","correct":true,"confidence":-1},{"trial_n":5,"span":8,"encoder":"15774094","distractor":"15774091","target":"present","response":"present","rt":"1765.5999999642","correct":true,"confidence":-1},{"trial_n":6,"span":10,"encoder":"3199851314","distractor":"3199852314","target":"absent","response":"present","rt":"1852.8000000119","correct":false,"confidence":-1},{"trial_n":7,"span":8,"encoder":"48194894","distractor":"48994894","target":"present","response":"present","rt":"2383.1000000238","correct":true,"confidence":-1},{"trial_n":8,"span":8,"encoder":"17107966","distractor":"17107965","target":"present","response":"present","rt":"1411.3999999762","correct":true,"confidence":-1},{"trial_n":9,"span":10,"encoder":"1589866496","distractor":"1589866796","target":"absent","response":"present","rt":"1996.6999999881","correct":false,"confidence":-1},{"trial_n":10,"span":8,"encoder":"94185208","distractor":"94285208","target":"absent","response":"present","rt":"1666.9000000358","correct":false,"confidence":-1},{"trial_n":11,"span":6,"encoder":"122814","distractor":"122815","target":"absent","response":"absent","rt":"1638.5","correct":true,"confidence":-1},{"trial_n":12,"span":6,"encoder":"125944","distractor":"115944","target":"present","response":"present","rt":"1926.6000000238","correct":true,"confidence":-1},{"trial_n":13,"span":7,"encoder":"0420773","distractor":"0020773","target":"absent","response":"present","rt":"1385.6000000238","correct":false,"confidence":-1},{"trial_n":14,"span":6,"encoder":"395451","distractor":"395459","target":"absent","response":"absent","rt":"1466","correct":true,"confidence":-1},{"trial_n":15,"span":6,"encoder":"684029","distractor":"654029","target":"present","response":"present","rt":"1571.2999999523","correct":true,"confidence":-1},{"trial_n":16,"span":7,"encoder":"2158136","distractor":"1158136","target":"present","response":"absent","rt":"2403.8999999762","correct":false,"confidence":-1},{"trial_n":17,"span":6,"encoder":"073679","distractor":"073879","target":"present","response":"present","rt":"1445.0999999642","correct":true,"confidence":-1},{"trial_n":18,"span":6,"encoder":"928589","distractor":"924589","target":"absent","response":"present","rt":"1738.3999999762","correct":false,"confidence":-1},{"trial_n":19,"span":5,"encoder":"67671","distractor":"67651","target":"absent","response":"present","rt":"1270.8999999762","correct":false,"confidence":-1},{"trial_n":20,"span":4,"encoder":"5857","distractor":"5850","target":"present","response":"present","rt":"1447.8000000119","correct":true,"confidence":-1},{"trial_n":21,"span":4,"encoder":"1756","distractor":"1256","target":"absent","response":"absent","rt":"1851.5","correct":true,"confidence":5},{"trial_n":22,"span":5,"encoder":"18160","distractor":"18169","target":"present","response":"present","rt":"1455.6999999881","correct":true,"confidence":5},{"trial_n":23,"span":5,"encoder":"23650","distractor":"23610","target":"absent","response":"present","rt":"1535.5999999642","correct":false,"confidence":5},{"trial_n":24,"span":4,"encoder":"8714","distractor":"6714","target":"present","response":"present","rt":"1896.3000000119","correct":true,"confidence":5},{"trial_n":25,"span":4,"encoder":"3231","distractor":"3234","target":"present","response":"present","rt":"2024.4000000358","correct":true,"confidence":5},{"trial_n":26,"span":5,"encoder":"70517","distractor":"70527","target":"present","response":"present","rt":"2136.3000000119","correct":true,"confidence":5},{"trial_n":27,"span":5,"encoder":"65251","distractor":"65651","target":"absent","response":"absent","rt":"2813.8000000119","correct":true,"confidence":4},{"trial_n":28,"span":6,"encoder":"989211","distractor":"989201","target":"absent","response":"absent","rt":"1706.6000000238","correct":true,"confidence":5},{"trial_n":29,"span":6,"encoder":"330614","distractor":"330714","target":"absent","response":"absent","rt":"2683","correct":true,"confidence":4},{"trial_n":30,"span":7,"encoder":"0660073","distractor":"0660673","target":"present","response":"present","rt":"1495.1999999881","correct":true,"confidence":5},{"trial_n":31,"span":7,"encoder":"7725644","distractor":"7725694","target":"present","response":"present","rt":"1939.6000000238","correct":true,"confidence":4},{"trial_n":32,"span":8,"encoder":"27099917","distractor":"07099917","target":"present","response":"present","rt":"2030","correct":true,"confidence":4},{"trial_n":33,"span":8,"encoder":"60353697","distractor":"60353693","target":"present","response":"absent","rt":"1988.3999999762","correct":false,"confidence":2},{"trial_n":34,"span":7,"encoder":"6597930","distractor":"6590930","target":"absent","response":"absent","rt":"2962.1000000238","correct":true,"confidence":5},{"trial_n":35,"span":7,"encoder":"0829073","distractor":"0839073","target":"present","response":"present","rt":"4110.5","correct":true,"confidence":4},{"trial_n":36,"span":8,"encoder":"86488106","distractor":"82488106","target":"absent","response":"present","rt":"2368.6000000238","correct":false,"confidence":3},{"trial_n":37,"span":7,"encoder":"8000654","distractor":"8000659","target":"absent","response":"absent","rt":"4088.3000000119","correct":true,"confidence":5},{"trial_n":38,"span":7,"encoder":"1273867","distractor":"1273567","target":"absent","response":"absent","rt":"3285.6000000238","correct":true,"confidence":3},{"trial_n":39,"span":8,"encoder":"33099018","distractor":"33099016","target":"present","response":"present","rt":"3520.3000000119","correct":true,"confidence":2},{"trial_n":40,"span":8,"encoder":"57052580","distractor":"57052582","target":"absent","response":"present","rt":"4276.1999999881","correct":false,"confidence":3},{"trial_n":41,"span":7,"encoder":"3846980","distractor":"3846982","target":"absent","response":"absent","rt":"1611.6000000238","correct":true,"confidence":5},{"trial_n":42,"span":7,"encoder":"9765017","distractor":"9765097","target":"present","response":"present","rt":"3299.5","correct":true,"confidence":3},{"trial_n":43,"span":8,"encoder":"19370001","distractor":"69370001","target":"present","response":"present","rt":"2368.6999999881","correct":true,"confidence":3},{"trial_n":44,"span":8,"encoder":"16126871","distractor":"11126871","target":"absent","response":"absent","rt":"7979.8000000119","correct":true,"confidence":2},{"trial_n":45,"span":9,"encoder":"158242572","distractor":"158142572","target":"absent","response":"present","rt":"2409.1000000238","correct":false,"confidence":3},{"trial_n":46,"span":8,"encoder":"08927842","distractor":"18927842","target":"present","response":"present","rt":"2046.8999999762","correct":true,"confidence":4},{"trial_n":47,"span":8,"encoder":"80499405","distractor":"80299405","target":"absent","response":"present","rt":"2007","correct":false,"confidence":2},{"trial_n":48,"span":7,"encoder":"3846956","distractor":"3846356","target":"present","response":"present","rt":"4097.1000000238","correct":true,"confidence":4},{"trial_n":49,"span":7,"encoder":"6827376","distractor":"6887376","target":"present","response":"present","rt":"3206","correct":true,"confidence":4},{"trial_n":50,"span":8,"encoder":"75709372","distractor":"25709372","target":"absent","response":"present","rt":"2310.1999999881","correct":false,"confidence":2},{"trial_n":51,"span":7,"encoder":"0165056","distractor":"0165556","target":"present","response":"present","rt":"3704.5","correct":true,"confidence":2},{"trial_n":52,"span":7,"encoder":"5605219","distractor":"5603219","target":"present","response":"present","rt":"3451.4000000358","correct":true,"confidence":3},{"trial_n":53,"span":8,"encoder":"39597135","distractor":"32597135","target":"absent","response":"absent","rt":"2532.2000000477","correct":true,"confidence":3},{"trial_n":54,"span":8,"encoder":"94786195","distractor":"94716195","target":"absent","response":"present","rt":"4141.8000000119","correct":false,"confidence":3},{"trial_n":55,"span":7,"encoder":"8589227","distractor":"1589227","target":"absent","response":"present","rt":"7816.6999999881","correct":false,"confidence":2},{"trial_n":56,"span":6,"encoder":"547511","distractor":"577511","target":"absent","response":"present","rt":"6025.8000000119","correct":false,"confidence":2},{"trial_n":57,"span":5,"encoder":"41440","distractor":"42440","target":"absent","response":"present","rt":"1637.3999999762","correct":false,"confidence":5},{"trial_n":58,"span":4,"encoder":"6519","distractor":"6512","target":"present","response":"present","rt":"1574.7000000477","correct":true,"confidence":1},{"trial_n":59,"span":4,"encoder":"9317","distractor":"9017","target":"present","response":"present","rt":"1430.5","correct":true,"confidence":5},{"trial_n":60,"span":5,"encoder":"32152","distractor":"32052","target":"present","response":"present","rt":"3216.5999999642","correct":true,"confidence":2},{"trial_n":61,"span":5,"encoder":"16686","distractor":"18686","target":"absent","response":"absent","rt":"2031.2000000477","correct":true,"confidence":2},{"trial_n":62,"span":6,"encoder":"806022","distractor":"806122","target":"absent","response":"present","rt":"1538.5","correct":false,"confidence":4},{"trial_n":63,"span":5,"encoder":"15506","distractor":"05506","target":"present","response":"present","rt":"1623","correct":true,"confidence":5},{"trial_n":64,"span":5,"encoder":"74893","distractor":"54893","target":"present","response":"present","rt":"1957.5","correct":true,"confidence":5},{"trial_n":65,"span":6,"encoder":"550601","distractor":"580601","target":"present","response":"present","rt":"2635.5","correct":true,"confidence":4},{"trial_n":66,"span":6,"encoder":"464438","distractor":"864438","target":"absent","response":"absent","rt":"2431.7999999523","correct":true,"confidence":5},{"trial_n":67,"span":7,"encoder":"1053107","distractor":"1553107","target":"absent","response":"absent","rt":"4370.5","correct":true,"confidence":3},{"trial_n":68,"span":7,"encoder":"8900067","distractor":"8100067","target":"present","response":"present","rt":"1844.3000000119","correct":true,"confidence":4},{"trial_n":69,"span":8,"encoder":"45349680","distractor":"45349686","target":"present","response":"present","rt":"1768.6000000238","correct":true,"confidence":4},{"trial_n":70,"span":8,"encoder":"27920136","distractor":"77920136","target":"present","response":"present","rt":"4251.0999999642","correct":true,"confidence":3},{"trial_n":71,"span":8,"encoder":"63431700","distractor":"63435700","target":"present","response":"present","rt":"8255.5","correct":true,"confidence":-1},{"trial_n":72,"span":8,"encoder":"42212571","distractor":"42812571","target":"present","response":"present","rt":"3106.1999999881","correct":true,"confidence":-1},{"trial_n":73,"span":9,"encoder":"753170152","distractor":"753130152","target":"absent","response":"present","rt":"5951.4000000358","correct":false,"confidence":-1},{"trial_n":74,"span":8,"encoder":"01677958","distractor":"01677957","target":"absent","response":"present","rt":"6525.6000000238","correct":false,"confidence":-1},{"trial_n":75,"span":7,"encoder":"7681688","distractor":"7681698","target":"present","response":"present","rt":"11581.300000012","correct":true,"confidence":-1},{"trial_n":76,"span":7,"encoder":"1898604","distractor":"4898604","target":"present","response":"present","rt":"4044.8999999762","correct":true,"confidence":-1},{"trial_n":77,"span":8,"encoder":"65224679","distractor":"65224639","target":"present","response":"absent","rt":"5082.9000000358","correct":false,"confidence":-1},{"trial_n":78,"span":7,"encoder":"4639208","distractor":"4639508","target":"present","response":"present","rt":"7684.7000000477","correct":true,"confidence":-1},{"trial_n":79,"span":7,"encoder":"4652147","distractor":"4652187","target":"present","response":"present","rt":"3062.1000000238","correct":true,"confidence":-1},{"trial_n":80,"span":8,"encoder":"37928939","distractor":"37958939","target":"present","response":"absent","rt":"6596.5999999642","correct":false,"confidence":-1},{"trial_n":81,"span":7,"encoder":"6168468","distractor":"6167468","target":"absent","response":"present","rt":"7084.8999999762","correct":false,"confidence":-1},{"trial_n":82,"span":6,"encoder":"340524","distractor":"310524","target":"present","response":"present","rt":"4652.6000000238","correct":true,"confidence":-1},{"trial_n":83,"span":6,"encoder":"233918","distractor":"733918","target":"absent","response":"absent","rt":"5653.5","correct":true,"confidence":-1},{"trial_n":84,"span":7,"encoder":"3019197","distractor":"3019297","target":"present","response":"present","rt":"3737.1000000238","correct":true,"confidence":-1},{"trial_n":85,"span":7,"encoder":"5822464","distractor":"5822404","target":"absent","response":"absent","rt":"2276.5","correct":true,"confidence":-1},{"trial_n":86,"span":8,"encoder":"08320619","distractor":"08320611","target":"absent","response":"absent","rt":"2043.3999999762","correct":true,"confidence":-1},{"trial_n":87,"span":8,"encoder":"61717622","distractor":"31717622","target":"present","response":"absent","rt":"3181.0999999642","correct":false,"confidence":-1},{"trial_n":88,"span":7,"encoder":"0657879","distractor":"0657679","target":"present","response":"present","rt":"4507.2000000477","correct":true,"confidence":-1},{"trial_n":89,"span":7,"encoder":"5628573","distractor":"5628673","target":"absent","response":"present","rt":"9296.6000000238","correct":false,"confidence":-1},{"trial_n":90,"span":6,"encoder":"133610","distractor":"133410","target":"absent","response":"absent","rt":"3450.3999999762","correct":true,"confidence":-1},{"trial_n":91,"span":6,"encoder":"168935","distractor":"161935","target":"absent","response":"present","rt":"6335.6999999881","correct":false,"confidence":3},{"trial_n":92,"span":5,"encoder":"68533","distractor":"68593","target":"present","response":"present","rt":"2466.4000000358","correct":true,"confidence":5},{"trial_n":93,"span":5,"encoder":"08005","distractor":"08002","target":"absent","response":"absent","rt":"3277.4000000358","correct":true,"confidence":5},{"trial_n":94,"span":6,"encoder":"120388","distractor":"120488","target":"absent","response":"absent","rt":"4388.1000000238","correct":true,"confidence":3},{"trial_n":95,"span":6,"encoder":"808311","distractor":"708311","target":"absent","response":"absent","rt":"4727.6000000238","correct":true,"confidence":4},{"trial_n":96,"span":7,"encoder":"9123716","distractor":"9723716","target":"absent","response":"absent","rt":"7532","correct":true,"confidence":4},{"trial_n":97,"span":7,"encoder":"8200173","distractor":"8700173","target":"absent","response":"absent","rt":"4399.3999999762","correct":true,"confidence":5},{"trial_n":98,"span":8,"encoder":"31682457","distractor":"31642457","target":"absent","response":"absent","rt":"5705.6999999881","correct":true,"confidence":4},{"trial_n":99,"span":8,"encoder":"32461607","distractor":"32461907","target":"present","response":"present","rt":"2905.2999999523","correct":true,"confidence":4},{"trial_n":100,"span":9,"encoder":"401389653","distractor":"401589653","target":"present","response":"present","rt":"8026.6999999881","correct":true,"confidence":1},{"trial_n":101,"span":9,"encoder":"351678643","distractor":"351678633","target":"present","response":"present","rt":"8894.7999999523","correct":true,"confidence":3},{"trial_n":102,"span":10,"encoder":"1427019687","distractor":"1427119687","target":"present","response":"present","rt":"10897.5","correct":true,"confidence":3},{"trial_n":103,"span":10,"encoder":"3330557618","distractor":"3330557818","target":"present","response":"absent","rt":"14242.800000012","correct":false,"confidence":2},{"trial_n":104,"span":9,"encoder":"905235036","distractor":"904235036","target":"absent","response":"present","rt":"11657.399999976","correct":false,"confidence":2},{"trial_n":105,"span":8,"encoder":"26190177","distractor":"26190179","target":"present","response":"present","rt":"2293.4000000358","correct":true,"confidence":4},{"trial_n":106,"span":8,"encoder":"93774769","distractor":"93774765","target":"absent","response":"absent","rt":"4449.3999999762","correct":true,"confidence":3},{"trial_n":107,"span":9,"encoder":"142004376","distractor":"142014376","target":"present","response":"present","rt":"4378.3999999762","correct":true,"confidence":4},{"trial_n":108,"span":9,"encoder":"798713345","distractor":"768713345","target":"absent","response":"present","rt":"4869.1999999881","correct":false,"confidence":2},{"trial_n":109,"span":8,"encoder":"03646447","distractor":"06646447","target":"present","response":"present","rt":"5542.2000000477","correct":true,"confidence":4},{"trial_n":110,"span":8,"encoder":"79911726","distractor":"79911727","target":"present","response":"present","rt":"4825.5","correct":true,"confidence":3},{"trial_n":111,"span":9,"encoder":"658153036","distractor":"638153036","target":"absent","response":"absent","rt":"8971.6999999881","correct":true,"confidence":3},{"trial_n":112,"span":9,"encoder":"601989404","distractor":"601989804","target":"absent","response":"absent","rt":"4318.4000000358","correct":true,"confidence":5},{"trial_n":113,"span":10,"encoder":"7381418358","distractor":"7381418356","target":"absent","response":"absent","rt":"6630.3999999762","correct":true,"confidence":5},{"trial_n":114,"span":10,"encoder":"7446680711","distractor":"7446680911","target":"present","response":"present","rt":"5405.5999999642","correct":true,"confidence":5},{"trial_n":115,"span":11,"encoder":"51784045909","distractor":"51784045989","target":"absent","response":"absent","rt":"4046.3000000119","correct":true,"confidence":5},{"trial_n":116,"span":11,"encoder":"39135988430","distractor":"39235988430","target":"present","response":"present","rt":"18105","correct":true,"confidence":2},{"trial_n":117,"span":12,"encoder":"760735094238","distractor":"860735094238","target":"absent","response":"present","rt":"13587.100000024","correct":false,"confidence":1},{"trial_n":118,"span":11,"encoder":"63136514888","distractor":"63136514878","target":"absent","response":"absent","rt":"7421.8000000119","correct":true,"confidence":3},{"trial_n":119,"span":11,"encoder":"53661864940","distractor":"53661834940","target":"absent","response":"absent","rt":"8222.3000000119","correct":true,"confidence":4},{"trial_n":120,"span":12,"encoder":"661187829164","distractor":"661187829154","target":"absent","response":"absent","rt":"8076.0999999642","correct":true,"confidence":1},{"trial_n":121,"span":12,"encoder":"552059326635","distractor":"552059426635","target":"present","response":"absent","rt":"10796.800000012","correct":false,"confidence":1},{"trial_n":122,"span":11,"encoder":"22175708403","distractor":"72175708403","target":"present","response":"present","rt":"9375.5","correct":true,"confidence":2},{"trial_n":123,"span":11,"encoder":"68341704196","distractor":"68341704191","target":"present","response":"present","rt":"3122.5","correct":true,"confidence":5},{"trial_n":124,"span":12,"encoder":"893519060121","distractor":"893519560121","target":"present","response":"present","rt":"4332.5","correct":true,"confidence":4},{"trial_n":125,"span":12,"encoder":"790686596473","distractor":"790686546473","target":"absent","response":"present","rt":"4559.0999999642","correct":false,"confidence":1},{"trial_n":126,"span":11,"encoder":"73770785724","distractor":"63770785724","target":"present","response":"absent","rt":"4561.6000000238","correct":false,"confidence":2},{"trial_n":127,"span":10,"encoder":"2777316378","distractor":"2177316378","target":"present","response":"absent","rt":"8379.1999999881","correct":false,"confidence":2},{"trial_n":128,"span":9,"encoder":"890149793","distractor":"890149783","target":"absent","response":"present","rt":"10058","correct":false,"confidence":1},{"trial_n":129,"span":8,"encoder":"75592521","distractor":"75592571","target":"present","response":"present","rt":"3488.7000000477","correct":true,"confidence":5},{"trial_n":130,"span":8,"encoder":"61596460","distractor":"21596460","target":"absent","response":"absent","rt":"7555.5","correct":true,"confidence":3},{"trial_n":131,"span":9,"encoder":"158969197","distractor":"158969196","target":"present","response":"present","rt":"3669.7999999523","correct":true,"confidence":3},{"trial_n":132,"span":9,"encoder":"711990086","distractor":"711990886","target":"absent","response":"absent","rt":"5530.4000000358","correct":true,"confidence":5},{"trial_n":133,"span":10,"encoder":"5319878243","distractor":"5319871243","target":"absent","response":"present","rt":"6491.3000000119","correct":false,"confidence":2},{"trial_n":134,"span":9,"encoder":"530022082","distractor":"530022081","target":"present","response":"present","rt":"3923.5","correct":true,"confidence":4},{"trial_n":135,"span":9,"encoder":"287640953","distractor":"887640953","target":"absent","response":"absent","rt":"6144.6999999881","correct":true,"confidence":4},{"trial_n":136,"span":10,"encoder":"9635544916","distractor":"9635544926","target":"present","response":"present","rt":"2947.6000000238","correct":true,"confidence":5},{"trial_n":137,"span":10,"encoder":"4870787808","distractor":"4870787818","target":"absent","response":"absent","rt":"5931.5","correct":true,"confidence":3},{"trial_n":138,"span":11,"encoder":"96841444403","distractor":"96841444483","target":"present","response":"absent","rt":"5911.1000000238","correct":false,"confidence":2},{"trial_n":139,"span":10,"encoder":"7818939803","distractor":"7818439803","target":"absent","response":"present","rt":"4615.5","correct":false,"confidence":1},{"trial_n":140,"span":9,"encoder":"190480245","distractor":"790480245","target":"present","response":"present","rt":"4636.1000000238","correct":true,"confidence":5}]