[{"trial_n":1,"span":8,"encoder":"19718824","distractor":"39718824","target":"present","response":"present","rt":"4266.5","correct":true,"confidence":-1},{"trial_n":2,"span":8,"encoder":"19125464","distractor":"16125464","target":"present","response":"present","rt":"2927.3000001907","correct":true,"confidence":-1},{"trial_n":3,"span":10,"encoder":"5053654948","distractor":"9053654948","target":"absent","response":"present","rt":"4718.5","correct":false,"confidence":-1},{"trial_n":4,"span":8,"encoder":"56914600","distractor":"58914600","target":"absent","response":"absent","rt":"3346.1999998093","correct":true,"confidence":-1},{"trial_n":5,"span":8,"encoder":"15135651","distractor":"15135652","target":"present","response":"present","rt":"1614.2000000477","correct":true,"confidence":-1},{"trial_n":6,"span":10,"encoder":"4505193631","distractor":"4505193651","target":"absent","response":"absent","rt":"1753.4000000954","correct":true,"confidence":-1},{"trial_n":7,"span":10,"encoder":"2160666626","distractor":"9160666626","target":"absent","response":"absent","rt":"2309.2999999523","correct":true,"confidence":-1},{"trial_n":8,"span":12,"encoder":"320320258125","distractor":"320320254125","target":"present","response":"present","rt":"1867.2999999523","correct":true,"confidence":-1},{"trial_n":9,"span":12,"encoder":"585528012719","distractor":"585528012729","target":"present","response":"present","rt":"2865.4000000954","correct":true,"confidence":-1},{"trial_n":10,"span":14,"encoder":"71736265596263","distractor":"71756265596263","target":"present","response":"present","rt":"2455.9000000954","correct":true,"confidence":-1},{"trial_n":11,"span":14,"encoder":"78290679082532","distractor":"78290779082532","target":"absent","response":"present","rt":"2009.5999999046","correct":false,"confidence":-1},{"trial_n":12,"span":13,"encoder":"1971796990718","distractor":"1911796990718","target":"absent","response":"present","rt":"2698.6999998093","correct":false,"confidence":-1},{"trial_n":13,"span":12,"encoder":"924134576881","distractor":"924136576881","target":"present","response":"present","rt":"2058.6000001431","correct":true,"confidence":-1},{"trial_n":14,"span":12,"encoder":"633927041330","distractor":"633937041330","target":"present","response":"present","rt":"1617.3000001907","correct":true,"confidence":-1},{"trial_n":15,"span":13,"encoder":"4279311467718","distractor":"4279311467712","target":"absent","response":"absent","rt":"2255.5999999046","correct":true,"confidence":-1},{"trial_n":16,"span":13,"encoder":"3281098874326","distractor":"3281998874326","target":"absent","response":"absent","rt":"1584.7000000477","correct":true,"confidence":-1},{"trial_n":17,"span":14,"encoder":"49993259496669","distractor":"49993251496669","target":"absent","response":"absent","rt":"3398.1000001431","correct":true,"confidence":-1},{"trial_n":18,"span":14,"encoder":"28138687799678","distractor":"28138687799608","target":"absent","response":"absent","rt":"2123.7000000477","correct":true,"confidence":-1},{"trial_n":19,"span":15,"encoder":"263519069737945","distractor":"263519069737145","target":"present","response":"absent","rt":"1977.7000000477","correct":false,"confidence":-1},{"trial_n":20,"span":14,"encoder":"86158454261239","distractor":"06158454261239","target":"present","response":"present","rt":"1467.5","correct":true,"confidence":-1},{"trial_n":21,"span":14,"encoder":"96516519543885","distractor":"98516519543885","target":"absent","response":"present","rt":"2315.4000000954","correct":false,"confidence":3},{"trial_n":22,"span":13,"encoder":"7809035193127","distractor":"7809045193127","target":"absent","response":"present","rt":"4344.7000000477","correct":false,"confidence":2},{"trial_n":23,"span":12,"encoder":"087586850789","distractor":"087586150789","target":"present","response":"present","rt":"3124.2000000477","correct":true,"confidence":2},{"trial_n":24,"span":12,"encoder":"518402684490","distractor":"518402684390","target":"absent","response":"absent","rt":"2227.1000001431","correct":true,"confidence":4},{"trial_n":25,"span":13,"encoder":"5724935881725","distractor":"5724945881725","target":"present","response":"present","rt":"3712.5","correct":true,"confidence":2},{"trial_n":26,"span":13,"encoder":"7984487923208","distractor":"7984489923208","target":"present","response":"present","rt":"3237.2999999523","correct":true,"confidence":2},{"trial_n":27,"span":14,"encoder":"51928076804929","distractor":"51928046804929","target":"absent","response":"present","rt":"3949.8999998569","correct":false,"confidence":2},{"trial_n":28,"span":13,"encoder":"2160403618061","distractor":"2190403618061","target":"absent","response":"present","rt":"2537.5","correct":false,"confidence":1},{"trial_n":29,"span":12,"encoder":"909711089580","distractor":"909721089580","target":"absent","response":"absent","rt":"2678.3999998569","correct":true,"confidence":3},{"trial_n":30,"span":12,"encoder":"227095893657","distractor":"227095893647","target":"present","response":"present","rt":"3258.6999998093","correct":true,"confidence":1},{"trial_n":31,"span":13,"encoder":"7137261614160","distractor":"6137261614160","target":"present","response":"present","rt":"4068.5999999046","correct":true,"confidence":2},{"trial_n":32,"span":13,"encoder":"1475055626535","distractor":"1475055626935","target":"present","response":"present","rt":"7621.4000000954","correct":true,"confidence":3},{"trial_n":33,"span":14,"encoder":"93445835027890","distractor":"93445834027890","target":"absent","response":"present","rt":"6164.7999999523","correct":false,"confidence":2},{"trial_n":34,"span":13,"encoder":"0210560690419","distractor":"0210560690489","target":"absent","response":"absent","rt":"2295.5","correct":true,"confidence":1},{"trial_n":35,"span":13,"encoder":"7693207847885","distractor":"7693207887885","target":"absent","response":"absent","rt":"3307.0999999046","correct":true,"confidence":3},{"trial_n":36,"span":14,"encoder":"66915561441105","distractor":"66915568441105","target":"present","response":"present","rt":"6018.9000000954","correct":true,"confidence":3},{"trial_n":37,"span":14,"encoder":"86101192802617","distractor":"86107192802617","target":"present","response":"absent","rt":"8382.7999999523","correct":false,"confidence":1},{"trial_n":38,"span":13,"encoder":"3447675976049","distractor":"3447605976049","target":"present","response":"present","rt":"6467.7999999523","correct":true,"confidence":2},{"trial_n":39,"span":13,"encoder":"7821955080000","distractor":"7801955080000","target":"absent","response":"present","rt":"3046","correct":false,"confidence":2},{"trial_n":40,"span":12,"encoder":"290620852471","distractor":"250620852471","target":"absent","response":"present","rt":"5184.7999999523","correct":false,"confidence":2},{"trial_n":41,"span":11,"encoder":"73068201361","distractor":"53068201361","target":"absent","response":"present","rt":"3741.3999998569","correct":false,"confidence":2},{"trial_n":42,"span":10,"encoder":"0054777644","distractor":"3054777644","target":"absent","response":"present","rt":"5288","correct":false,"confidence":3},{"trial_n":43,"span":9,"encoder":"046156518","distractor":"056156518","target":"absent","response":"present","rt":"4123.7000000477","correct":false,"confidence":4},{"trial_n":44,"span":8,"encoder":"98053574","distractor":"98953574","target":"absent","response":"present","rt":"3851.7000000477","correct":false,"confidence":3},{"trial_n":45,"span":7,"encoder":"2105781","distractor":"2105181","target":"present","response":"absent","rt":"5663.4000000954","correct":false,"confidence":3},{"trial_n":46,"span":6,"encoder":"722193","distractor":"722195","target":"absent","response":"absent","rt":"7275","correct":true,"confidence":1},{"trial_n":47,"span":6,"encoder":"112048","distractor":"110048","target":"absent","response":"absent","rt":"3324","correct":true,"confidence":4},{"trial_n":48,"span":7,"encoder":"0645928","distractor":"0645998","target":"present","response":"present","rt":"4274.9000000954","correct":true,"confidence":4},{"trial_n":49,"span":7,"encoder":"6055342","distractor":"4055342","target":"present","response":"present","rt":"1667.3000001907","correct":true,"confidence":2},{"trial_n":50,"span":8,"encoder":"04385385","distractor":"07385385","target":"present","response":"present","rt":"2646.2999999523","correct":true,"confidence":1},{"trial_n":51,"span":8,"encoder":"41345726","distractor":"41365726","target":"absent","response":"absent","rt":"5375.5","correct":true,"confidence":2},{"trial_n":52,"span":9,"encoder":"330071658","distractor":"337071658","target":"present","response":"present","rt":"3482.5","correct":true,"confidence":4},{"trial_n":53,"span":9,"encoder":"861054278","distractor":"861054258","target":"present","response":"present","rt":"4403.9000000954","correct":true,"confidence":3},{"trial_n":54,"span":10,"encoder":"0690695726","distractor":"0690625726","target":"present","response":"present","rt":"3900.5","correct":true,"confidence":3},{"trial_n":55,"span":10,"encoder":"3261636657","distractor":"3261636687","target":"present","response":"present","rt":"5241.9000000954","correct":true,"confidence":3},{"trial_n":56,"span":11,"encoder":"10934579410","distractor":"10934779410","target":"present","response":"absent","rt":"4290.2000000477","correct":false,"confidence":2},{"trial_n":57,"span":10,"encoder":"0408645665","distractor":"0468645665","target":"present","response":"present","rt":"8456.4000000954","correct":true,"confidence":3},{"trial_n":58,"span":10,"encoder":"1840800774","distractor":"1840860774","target":"present","response":"present","rt":"5045.0999999046","correct":true,"confidence":3},{"trial_n":59,"span":11,"encoder":"04064413476","distractor":"04664413476","target":"present","response":"absent","rt":"3792.2000000477","correct":false,"confidence":2},{"trial_n":60,"span":10,"encoder":"9828315025","distractor":"9828015025","target":"present","response":"present","rt":"5364.7000000477","correct":true,"confidence":2},{"trial_n":61,"span":10,"encoder":"0565858898","distractor":"0505858898","target":"absent","response":"present","rt":"4436.7000000477","correct":false,"confidence":3},{"trial_n":62,"span":9,"encoder":"240489667","distractor":"240488667","target":"present","response":"present","rt":"4674.1000001431","correct":true,"confidence":3},{"trial_n":63,"span":9,"encoder":"332947501","distractor":"332947401","target":"present","response":"present","rt":"3054.7999999523","correct":true,"confidence":3},{"trial_n":64,"span":10,"encoder":"3759996391","distractor":"3759496391","target":"present","response":"present","rt":"5823.5999999046","correct":true,"confidence":3},{"trial_n":65,"span":10,"encoder":"1522110689","distractor":"1522110609","target":"absent","response":"present","rt":"5074.5","correct":false,"confidence":3},{"trial_n":66,"span":9,"encoder":"614736179","distractor":"644736179","target":"absent","response":"absent","rt":"2466.4000000954","correct":true,"confidence":4},{"trial_n":67,"span":9,"encoder":"567107852","distractor":"567107858","target":"absent","response":"absent","rt":"1607.7999999523","correct":true,"confidence":5},{"trial_n":68,"span":10,"encoder":"7875082823","distractor":"7875082820","target":"absent","response":"absent","rt":"4082.8999998569","correct":true,"confidence":5},{"trial_n":69,"span":10,"encoder":"7115590418","distractor":"1115590418","target":"present","response":"present","rt":"4864.3999998569","correct":true,"confidence":3},{"trial_n":70,"span":11,"encoder":"97240631136","distractor":"97240631936","target":"absent","response":"absent","rt":"2276.7000000477","correct":true,"confidence":5},{"trial_n":71,"span":8,"encoder":"96198136","distractor":"96199136","target":"present","response":"present","rt":"4426.5","correct":true,"confidence":-1},{"trial_n":72,"span":8,"encoder":"93379502","distractor":"93479502","target":"present","response":"present","rt":"3367.4000000954","correct":true,"confidence":-1},{"trial_n":73,"span":9,"encoder":"906036637","distractor":"906036633","target":"absent","response":"absent","rt":"2909.7000000477","correct":true,"confidence":-1},{"trial_n":74,"span":9,"encoder":"568073288","distractor":"568077288","target":"absent","response":"present","rt":"3844.1000001431","correct":false,"confidence":-1},{"trial_n":75,"span":8,"encoder":"43345699","distractor":"46345699","target":"present","response":"absent","rt":"5993.9000000954","correct":false,"confidence":-1},{"trial_n":76,"span":7,"encoder":"4243351","distractor":"2243351","target":"present","response":"present","rt":"3366.3999998569","correct":true,"confidence":-1},{"trial_n":77,"span":7,"encoder":"7016065","distractor":"7016035","target":"present","response":"present","rt":"4517.8000001907","correct":true,"confidence":-1},{"trial_n":78,"span":8,"encoder":"21328555","distractor":"22328555","target":"absent","response":"absent","rt":"6826.7000000477","correct":true,"confidence":-1},{"trial_n":79,"span":8,"encoder":"95646732","distractor":"95646832","target":"absent","response":"absent","rt":"2621.7999999523","correct":true,"confidence":-1},{"trial_n":80,"span":9,"encoder":"273761821","distractor":"273765821","target":"absent","response":"absent","rt":"5077.5","correct":true,"confidence":-1},{"trial_n":81,"span":9,"encoder":"977844226","distractor":"977344226","target":"absent","response":"absent","rt":"3443.8999998569","correct":true,"confidence":-1},{"trial_n":82,"span":10,"encoder":"5171568548","distractor":"5171568348","target":"present","response":"present","rt":"3478.6000001431","correct":true,"confidence":-1},{"trial_n":83,"span":10,"encoder":"9212401705","distractor":"9512401705","target":"absent","response":"present","rt":"6441.5","correct":false,"confidence":-1},{"trial_n":84,"span":9,"encoder":"729144771","distractor":"629144771","target":"present","response":"present","rt":"3744.1000001431","correct":true,"confidence":-1},{"trial_n":85,"span":9,"encoder":"851675492","distractor":"851665492","target":"absent","response":"absent","rt":"3786.9000000954","correct":true,"confidence":-1},{"trial_n":86,"span":10,"encoder":"4886044962","distractor":"4086044962","target":"present","response":"present","rt":"4263.1999998093","correct":true,"confidence":-1},{"trial_n":87,"span":10,"encoder":"5952873727","distractor":"5952873777","target":"absent","response":"absent","rt":"1519.5999999046","correct":true,"confidence":-1},{"trial_n":88,"span":11,"encoder":"52363102472","distractor":"57363102472","target":"absent","response":"present","rt":"7565.2000000477","correct":false,"confidence":-1},{"trial_n":89,"span":10,"encoder":"7434578085","distractor":"7434578089","target":"absent","response":"absent","rt":"3030.5","correct":true,"confidence":-1},{"trial_n":90,"span":10,"encoder":"5951017020","distractor":"5951017027","target":"present","response":"present","rt":"3398.2999999523","correct":true,"confidence":-1},{"trial_n":91,"span":11,"encoder":"74335362306","distractor":"77335362306","target":"present","response":"present","rt":"5726.2999999523","correct":true,"confidence":3},{"trial_n":92,"span":11,"encoder":"57375622445","distractor":"57375122445","target":"present","response":"present","rt":"7156.8999998569","correct":true,"confidence":3},{"trial_n":93,"span":12,"encoder":"418464930776","distractor":"118464930776","target":"present","response":"present","rt":"5571.7000000477","correct":true,"confidence":3},{"trial_n":94,"span":12,"encoder":"432148695375","distractor":"432128695375","target":"present","response":"present","rt":"6942.5","correct":true,"confidence":3},{"trial_n":95,"span":13,"encoder":"6752882753452","distractor":"6752882753402","target":"present","response":"present","rt":"9977.7000000477","correct":true,"confidence":2},{"trial_n":96,"span":13,"encoder":"4428825426086","distractor":"4438825426086","target":"absent","response":"absent","rt":"3506.2999999523","correct":true,"confidence":3},{"trial_n":97,"span":14,"encoder":"82674635744356","distractor":"32674635744356","target":"absent","response":"absent","rt":"6604.2999999523","correct":true,"confidence":3},{"trial_n":98,"span":14,"encoder":"15893725823370","distractor":"05893725823370","target":"present","response":"present","rt":"6213.2999999523","correct":true,"confidence":2},{"trial_n":99,"span":15,"encoder":"130807855444012","distractor":"130807855444092","target":"absent","response":"absent","rt":"2448","correct":true,"confidence":5},{"trial_n":100,"span":15,"encoder":"214088399612246","distractor":"214088349612246","target":"present","response":"present","rt":"9688.2000000477","correct":true,"confidence":3},{"trial_n":101,"span":16,"encoder":"5632038178415017","distractor":"3632038178415017","target":"absent","response":"absent","rt":"6026.7000000477","correct":true,"confidence":2},{"trial_n":102,"span":16,"encoder":"6616861087405007","distractor":"6616851087405007","target":"absent","response":"absent","rt":"7752.6000001431","correct":true,"confidence":2},{"trial_n":103,"span":17,"encoder":"40744653362154839","distractor":"40744653352154839","target":"absent","response":"absent","rt":"10853","correct":true,"confidence":1},{"trial_n":104,"span":17,"encoder":"49900800158298340","distractor":"49900800258298340","target":"present","response":"absent","rt":"7204.7000000477","correct":false,"confidence":1},{"trial_n":105,"span":16,"encoder":"9573222028762683","distractor":"9573222028762687","target":"present","response":"present","rt":"10061.900000095","correct":true,"confidence":1},{"trial_n":106,"span":16,"encoder":"2902712031133966","distractor":"2902712031133916","target":"absent","response":"present","rt":"7442.0999999046","correct":false,"confidence":2},{"trial_n":107,"span":15,"encoder":"045197289956613","distractor":"045197289956713","target":"absent","response":"absent","rt":"2822.7999999523","correct":true,"confidence":5},{"trial_n":108,"span":15,"encoder":"427212334855791","distractor":"427212334955791","target":"absent","response":"present","rt":"11746.599999905","correct":false,"confidence":3},{"trial_n":109,"span":14,"encoder":"34932742432226","distractor":"35932742432226","target":"present","response":"present","rt":"7710","correct":true,"confidence":2},{"trial_n":110,"span":14,"encoder":"40078352491608","distractor":"40078350491608","target":"absent","response":"present","rt":"10453","correct":false,"confidence":1},{"trial_n":111,"span":13,"encoder":"9055813179779","distractor":"9055813109779","target":"present","response":"absent","rt":"8385.2000000477","correct":false,"confidence":1},{"trial_n":112,"span":12,"encoder":"499296236144","distractor":"499276236144","target":"present","response":"absent","rt":"8437.8999998569","correct":false,"confidence":1},{"trial_n":113,"span":11,"encoder":"65042631539","distractor":"65042639539","target":"present","response":"present","rt":"6769.4000000954","correct":true,"confidence":1},{"trial_n":114,"span":11,"encoder":"99565877897","distractor":"69565877897","target":"present","response":"present","rt":"4362.6000001431","correct":true,"confidence":3},{"trial_n":115,"span":12,"encoder":"841783785165","distractor":"841783785365","target":"absent","response":"absent","rt":"10543.799999952","correct":true,"confidence":1},{"trial_n":116,"span":12,"encoder":"306304121604","distractor":"306304181604","target":"absent","response":"absent","rt":"3650.5","correct":true,"confidence":1},{"trial_n":117,"span":13,"encoder":"6175947997440","distractor":"6175947997490","target":"present","response":"present","rt":"2585.7999999523","correct":true,"confidence":5},{"trial_n":118,"span":13,"encoder":"9031753028470","distractor":"9031753828470","target":"absent","response":"absent","rt":"8597.6000001431","correct":true,"confidence":1},{"trial_n":119,"span":14,"encoder":"87663045907650","distractor":"87663045937650","target":"present","response":"present","rt":"5256.7999999523","correct":true,"confidence":2},{"trial_n":120,"span":14,"encoder":"46458688994825","distractor":"46458688934825","target":"present","response":"present","rt":"13479.599999905","correct":true,"confidence":3},{"trial_n":121,"span":15,"encoder":"209899060538717","distractor":"206899060538717","target":"absent","response":"present","rt":"7051.7000000477","correct":false,"confidence":1},{"trial_n":122,"span":14,"encoder":"32909080776347","distractor":"32909180776347","target":"absent","response":"absent","rt":"7706.5","correct":true,"confidence":4},{"trial_n":123,"span":14,"encoder":"91367962905422","distractor":"91367962905425","target":"absent","response":"absent","rt":"2157.5","correct":true,"confidence":5},{"trial_n":124,"span":15,"encoder":"235974585382846","distractor":"235374585382846","target":"present","response":"absent","rt":"8534.6000001431","correct":false,"confidence":1},{"trial_n":125,"span":14,"encoder":"77743822562644","distractor":"77793822562644","target":"absent","response":"absent","rt":"8155.0999999046","correct":true,"confidence":2},{"trial_n":126,"span":14,"encoder":"42474699845863","distractor":"42414699845863","target":"absent","response":"present","rt":"10846.399999857","correct":false,"confidence":2},{"trial_n":127,"span":13,"encoder":"3271507323281","distractor":"3271507323221","target":"present","response":"absent","rt":"13103.900000095","correct":false,"confidence":1},{"trial_n":128,"span":12,"encoder":"416796242161","distractor":"416796252161","target":"present","response":"present","rt":"6825.2000000477","correct":true,"confidence":2},{"trial_n":129,"span":12,"encoder":"902671392540","distractor":"909671392540","target":"present","response":"absent","rt":"5220.0999999046","correct":false,"confidence":2},{"trial_n":130,"span":11,"encoder":"65848026819","distractor":"65848026879","target":"present","response":"present","rt":"3745.1000001431","correct":true,"confidence":5},{"trial_n":131,"span":11,"encoder":"78934804493","distractor":"78934804497","target":"present","response":"present","rt":"3649.4000000954","correct":true,"confidence":5},{"trial_n":132,"span":12,"encoder":"460479226936","distractor":"460429226936","target":"present","response":"present","rt":"8185.5","correct":true,"confidence":1},{"trial_n":133,"span":12,"encoder":"201748056415","distractor":"201778056415","target":"absent","response":"absent","rt":"6081.7999999523","correct":true,"confidence":3},{"trial_n":134,"span":13,"encoder":"2768774519783","distractor":"2708774519783","target":"present","response":"present","rt":"8321.0999999046","correct":true,"confidence":1},{"trial_n":135,"span":13,"encoder":"1296648393694","distractor":"1296648393691","target":"absent","response":"absent","rt":"1870.1000001431","correct":true,"confidence":5},{"trial_n":136,"span":14,"encoder":"49432637518637","distractor":"49432637518630","target":"present","response":"present","rt":"1944.5999999046","correct":true,"confidence":5},{"trial_n":137,"span":14,"encoder":"78431519622694","distractor":"78433519622694","target":"absent","response":"absent","rt":"9244.5","correct":true,"confidence":1},{"trial_n":138,"span":15,"encoder":"568153040139215","distractor":"568153740139215","target":"absent","response":"present","rt":"8197.7999999523","correct":false,"confidence":1},{"trial_n":139,"span":14,"encoder":"20220292495282","distractor":"20220292445282","target":"absent","response":"absent","rt":"8295.2000000477","correct":true,"confidence":3},{"trial_n":140,"span":14,"encoder":"35099289534470","distractor":"35099289534370","target":"present","response":"present","rt":"3079.8000001907","correct":true,"confidence":5}]