[{"trial_n":1,"span":8,"encoder":"48802762","distractor":"48802462","target":"present","response":"absent","rt":"8355.1000000238","correct":false,"confidence":-1},{"trial_n":2,"span":6,"encoder":"039820","distractor":"069820","target":"present","response":"present","rt":"4025.5999999046","correct":true,"confidence":-1},{"trial_n":3,"span":6,"encoder":"369992","distractor":"369592","target":"absent","response":"absent","rt":"1785.0999999046","correct":true,"confidence":-1},{"trial_n":4,"span":8,"encoder":"66221674","distractor":"66223674","target":"absent","response":"absent","rt":"2316.5999999046","correct":true,"confidence":-1},{"trial_n":5,"span":8,"encoder":"43681914","distractor":"43381914","target":"present","response":"present","rt":"1040.2000000477","correct":true,"confidence":-1},{"trial_n":6,"span":10,"encoder":"5555403932","distractor":"5855403932","target":"present","response":"present","rt":"1056.1000000238","correct":true,"confidence":-1},{"trial_n":7,"span":10,"encoder":"1806355170","distractor":"1876355170","target":"present","response":"absent","rt":"1227","correct":false,"confidence":-1},{"trial_n":8,"span":8,"encoder":"96362735","distractor":"96365735","target":"absent","response":"present","rt":"880.5","correct":false,"confidence":-1},{"trial_n":9,"span":6,"encoder":"291795","distractor":"291798","target":"present","response":"present","rt":"1275.8999999762","correct":true,"confidence":-1},{"trial_n":10,"span":6,"encoder":"217350","distractor":"217360","target":"present","response":"absent","rt":"1425.3999999762","correct":false,"confidence":-1},{"trial_n":11,"span":4,"encoder":"2640","distractor":"0640","target":"present","response":"present","rt":"1086.6000000238","correct":true,"confidence":-1},{"trial_n":12,"span":4,"encoder":"7396","distractor":"7296","target":"present","response":"present","rt":"918.20000004768","correct":true,"confidence":-1},{"trial_n":13,"span":5,"encoder":"05661","distractor":"05660","target":"absent","response":"absent","rt":"862.79999995232","correct":true,"confidence":-1},{"trial_n":14,"span":5,"encoder":"48997","distractor":"48967","target":"absent","response":"present","rt":"737.60000002384","correct":false,"confidence":-1},{"trial_n":15,"span":4,"encoder":"2319","distractor":"2019","target":"present","response":"present","rt":"795.30000007153","correct":true,"confidence":-1},{"trial_n":16,"span":4,"encoder":"6546","distractor":"6544","target":"absent","response":"present","rt":"411.5","correct":false,"confidence":-1},{"trial_n":17,"span":3,"encoder":"589","distractor":"689","target":"present","response":"present","rt":"742.39999997616","correct":true,"confidence":-1},{"trial_n":18,"span":3,"encoder":"784","distractor":"704","target":"absent","response":"absent","rt":"872.69999992847","correct":true,"confidence":-1},{"trial_n":19,"span":4,"encoder":"1516","distractor":"1716","target":"present","response":"present","rt":"645.5","correct":true,"confidence":-1},{"trial_n":20,"span":4,"encoder":"4334","distractor":"4324","target":"absent","response":"absent","rt":"1257.3999999762","correct":true,"confidence":-1},{"trial_n":21,"span":5,"encoder":"02758","distractor":"05758","target":"absent","response":"present","rt":"2494.1000000238","correct":false,"confidence":2},{"trial_n":22,"span":4,"encoder":"1351","distractor":"1354","target":"absent","response":"absent","rt":"1770.5","correct":true,"confidence":3},{"trial_n":23,"span":4,"encoder":"6842","distractor":"6882","target":"present","response":"present","rt":"2040.3999999762","correct":true,"confidence":3},{"trial_n":24,"span":5,"encoder":"97811","distractor":"47811","target":"present","response":"present","rt":"2909.5","correct":true,"confidence":5},{"trial_n":25,"span":5,"encoder":"00841","distractor":"60841","target":"present","response":"present","rt":"1756","correct":true,"confidence":3},{"trial_n":26,"span":6,"encoder":"968667","distractor":"948667","target":"absent","response":"absent","rt":"1801.5","correct":true,"confidence":4},{"trial_n":27,"span":6,"encoder":"985500","distractor":"985600","target":"present","response":"present","rt":"2170.5999999046","correct":true,"confidence":5},{"trial_n":28,"span":7,"encoder":"2158712","distractor":"2168712","target":"present","response":"present","rt":"1559.3999999762","correct":true,"confidence":3},{"trial_n":29,"span":7,"encoder":"0216912","distractor":"6216912","target":"absent","response":"absent","rt":"1178.5999999046","correct":true,"confidence":1},{"trial_n":30,"span":8,"encoder":"42757638","distractor":"42750638","target":"absent","response":"absent","rt":"3586.2999999523","correct":true,"confidence":3},{"trial_n":31,"span":8,"encoder":"84414432","distractor":"88414432","target":"absent","response":"absent","rt":"3296.1000000238","correct":true,"confidence":2},{"trial_n":32,"span":9,"encoder":"483914460","distractor":"484914460","target":"absent","response":"absent","rt":"2414.2000000477","correct":true,"confidence":2},{"trial_n":33,"span":9,"encoder":"924375896","distractor":"924375898","target":"present","response":"absent","rt":"1783.6999999285","correct":false,"confidence":1},{"trial_n":34,"span":8,"encoder":"61326520","distractor":"61326420","target":"absent","response":"absent","rt":"3112.7000000477","correct":true,"confidence":3},{"trial_n":35,"span":8,"encoder":"90909173","distractor":"90909193","target":"absent","response":"absent","rt":"3782.7000000477","correct":true,"confidence":4},{"trial_n":36,"span":9,"encoder":"451115198","distractor":"451155198","target":"present","response":"present","rt":"4295.8999999762","correct":true,"confidence":3},{"trial_n":37,"span":9,"encoder":"461482201","distractor":"461422201","target":"absent","response":"absent","rt":"3147.6000000238","correct":true,"confidence":3},{"trial_n":38,"span":10,"encoder":"4990809641","distractor":"4990709641","target":"present","response":"present","rt":"1384.8999999762","correct":true,"confidence":3},{"trial_n":39,"span":10,"encoder":"4771231043","distractor":"4771231143","target":"absent","response":"present","rt":"619.10000002384","correct":false,"confidence":1},{"trial_n":40,"span":9,"encoder":"516837824","distractor":"516830824","target":"absent","response":"absent","rt":"2713.2000000477","correct":true,"confidence":3},{"trial_n":41,"span":9,"encoder":"718793189","distractor":"718792189","target":"absent","response":"absent","rt":"3706.8999999762","correct":true,"confidence":3},{"trial_n":42,"span":10,"encoder":"1104709822","distractor":"1105709822","target":"present","response":"absent","rt":"4014.6000000238","correct":false,"confidence":2},{"trial_n":43,"span":9,"encoder":"332503425","distractor":"332503475","target":"present","response":"absent","rt":"3809","correct":false,"confidence":3},{"trial_n":44,"span":8,"encoder":"29407503","distractor":"29107503","target":"present","response":"present","rt":"3880.5","correct":true,"confidence":3},{"trial_n":45,"span":8,"encoder":"34973648","distractor":"34973248","target":"present","response":"absent","rt":"2291.8999999762","correct":false,"confidence":2},{"trial_n":46,"span":7,"encoder":"9689184","distractor":"9689284","target":"absent","response":"absent","rt":"2962.5","correct":true,"confidence":4},{"trial_n":47,"span":7,"encoder":"9681221","distractor":"9681241","target":"present","response":"present","rt":"1436.7999999523","correct":true,"confidence":3},{"trial_n":48,"span":8,"encoder":"88041605","distractor":"88041905","target":"absent","response":"present","rt":"3055.1000000238","correct":false,"confidence":4},{"trial_n":49,"span":7,"encoder":"9800605","distractor":"9870605","target":"present","response":"present","rt":"3618.2999999523","correct":true,"confidence":3},{"trial_n":50,"span":7,"encoder":"4210079","distractor":"0210079","target":"present","response":"present","rt":"1607.9000000954","correct":true,"confidence":2},{"trial_n":51,"span":8,"encoder":"02124004","distractor":"07124004","target":"absent","response":"absent","rt":"2055.8999999762","correct":true,"confidence":3},{"trial_n":52,"span":8,"encoder":"12693599","distractor":"12693299","target":"present","response":"present","rt":"2500.8999999762","correct":true,"confidence":3},{"trial_n":53,"span":9,"encoder":"378635571","distractor":"378735571","target":"absent","response":"absent","rt":"1246.8000000715","correct":true,"confidence":1},{"trial_n":54,"span":9,"encoder":"344741044","distractor":"344741644","target":"absent","response":"absent","rt":"2286.8000000715","correct":true,"confidence":2},{"trial_n":55,"span":10,"encoder":"0727948469","distractor":"0727648469","target":"absent","response":"present","rt":"5588.2999999523","correct":false,"confidence":3},{"trial_n":56,"span":9,"encoder":"036718372","distractor":"076718372","target":"present","response":"present","rt":"2673.6000000238","correct":true,"confidence":3},{"trial_n":57,"span":9,"encoder":"457544318","distractor":"407544318","target":"present","response":"present","rt":"3406.8999999762","correct":true,"confidence":2},{"trial_n":58,"span":10,"encoder":"4480112653","distractor":"4481112653","target":"present","response":"present","rt":"3582.3999999762","correct":true,"confidence":3},{"trial_n":59,"span":10,"encoder":"9552242324","distractor":"8552242324","target":"absent","response":"absent","rt":"4503.3999999762","correct":true,"confidence":2},{"trial_n":60,"span":11,"encoder":"34662181627","distractor":"34662281627","target":"present","response":"absent","rt":"1317.3999999762","correct":false,"confidence":1},{"trial_n":61,"span":10,"encoder":"4613442497","distractor":"4613452497","target":"present","response":"absent","rt":"915.5","correct":false,"confidence":3},{"trial_n":62,"span":9,"encoder":"899998630","distractor":"809998630","target":"present","response":"present","rt":"1790.8999999762","correct":true,"confidence":2},{"trial_n":63,"span":9,"encoder":"984498806","distractor":"984498706","target":"absent","response":"absent","rt":"5404","correct":true,"confidence":4},{"trial_n":64,"span":10,"encoder":"7143790787","distractor":"7143790781","target":"absent","response":"absent","rt":"3059.2000000477","correct":true,"confidence":2},{"trial_n":65,"span":10,"encoder":"0131589813","distractor":"0171589813","target":"absent","response":"absent","rt":"3805.7000000477","correct":true,"confidence":3},{"trial_n":66,"span":11,"encoder":"46854827160","distractor":"46854827360","target":"absent","response":"absent","rt":"1307.2999999523","correct":true,"confidence":2},{"trial_n":67,"span":11,"encoder":"76211499651","distractor":"76511499651","target":"present","response":"absent","rt":"2096.6999999285","correct":false,"confidence":1},{"trial_n":68,"span":10,"encoder":"6097326586","distractor":"6097626586","target":"absent","response":"present","rt":"1452.2000000477","correct":false,"confidence":2},{"trial_n":69,"span":9,"encoder":"804140313","distractor":"804140343","target":"present","response":"present","rt":"1492.3999999762","correct":true,"confidence":3},{"trial_n":70,"span":9,"encoder":"994841050","distractor":"994841080","target":"absent","response":"present","rt":"1860.5","correct":false,"confidence":1},{"trial_n":71,"span":8,"encoder":"40307810","distractor":"40307110","target":"present","response":"absent","rt":"3605.5","correct":false,"confidence":-1},{"trial_n":72,"span":7,"encoder":"8917633","distractor":"8917333","target":"present","response":"present","rt":"3701.6000000238","correct":true,"confidence":-1},{"trial_n":73,"span":7,"encoder":"3598937","distractor":"3198937","target":"absent","response":"present","rt":"2325.7000000477","correct":false,"confidence":-1},{"trial_n":74,"span":6,"encoder":"721109","distractor":"021109","target":"absent","response":"absent","rt":"1156.5","correct":true,"confidence":-1},{"trial_n":75,"span":6,"encoder":"752434","distractor":"732434","target":"present","response":"present","rt":"1872.3000000715","correct":true,"confidence":-1},{"trial_n":76,"span":7,"encoder":"6430270","distractor":"6630270","target":"present","response":"present","rt":"2674.1000000238","correct":true,"confidence":-1},{"trial_n":77,"span":7,"encoder":"5902483","distractor":"5902486","target":"present","response":"absent","rt":"1547.5999999046","correct":false,"confidence":-1},{"trial_n":78,"span":6,"encoder":"108831","distractor":"108871","target":"absent","response":"absent","rt":"470.29999995232","correct":true,"confidence":-1},{"trial_n":79,"span":6,"encoder":"035589","distractor":"035584","target":"absent","response":"absent","rt":"588.89999997616","correct":true,"confidence":-1},{"trial_n":80,"span":7,"encoder":"7448556","distractor":"7448554","target":"present","response":"present","rt":"787.69999992847","correct":true,"confidence":-1},{"trial_n":81,"span":7,"encoder":"9762546","distractor":"4762546","target":"absent","response":"present","rt":"363.79999995232","correct":false,"confidence":-1},{"trial_n":82,"span":6,"encoder":"754335","distractor":"754035","target":"absent","response":"present","rt":"640.10000002384","correct":false,"confidence":-1},{"trial_n":83,"span":5,"encoder":"65199","distractor":"65169","target":"present","response":"present","rt":"1162.7999999523","correct":true,"confidence":-1},{"trial_n":84,"span":5,"encoder":"69513","distractor":"69510","target":"absent","response":"absent","rt":"1038.3999999762","correct":true,"confidence":-1},{"trial_n":85,"span":6,"encoder":"283410","distractor":"283411","target":"absent","response":"absent","rt":"594.40000009537","correct":true,"confidence":-1},{"trial_n":86,"span":6,"encoder":"184238","distractor":"144238","target":"absent","response":"present","rt":"581.10000002384","correct":false,"confidence":-1},{"trial_n":87,"span":5,"encoder":"18043","distractor":"78043","target":"present","response":"absent","rt":"737","correct":false,"confidence":-1},{"trial_n":88,"span":4,"encoder":"7056","distractor":"0056","target":"absent","response":"present","rt":"625.5","correct":false,"confidence":-1},{"trial_n":89,"span":3,"encoder":"725","distractor":"723","target":"absent","response":"absent","rt":"1759.0999999046","correct":true,"confidence":-1},{"trial_n":90,"span":3,"encoder":"926","distractor":"946","target":"absent","response":"absent","rt":"1199.5999999046","correct":true,"confidence":-1},{"trial_n":91,"span":4,"encoder":"8379","distractor":"7379","target":"present","response":"present","rt":"1403.3999999762","correct":true,"confidence":4},{"trial_n":92,"span":4,"encoder":"8228","distractor":"8928","target":"present","response":"present","rt":"2179.4000000954","correct":true,"confidence":5},{"trial_n":93,"span":5,"encoder":"32719","distractor":"32419","target":"present","response":"present","rt":"2872.2999999523","correct":true,"confidence":4},{"trial_n":94,"span":5,"encoder":"22830","distractor":"22870","target":"present","response":"present","rt":"3874.5","correct":true,"confidence":5},{"trial_n":95,"span":6,"encoder":"650251","distractor":"650221","target":"present","response":"present","rt":"2479.6999999285","correct":true,"confidence":5},{"trial_n":96,"span":6,"encoder":"392714","distractor":"392914","target":"present","response":"present","rt":"3182.0999999046","correct":true,"confidence":5},{"trial_n":97,"span":7,"encoder":"6759908","distractor":"6759988","target":"present","response":"present","rt":"2650.3000000715","correct":true,"confidence":4},{"trial_n":98,"span":7,"encoder":"2579615","distractor":"2579915","target":"absent","response":"absent","rt":"3289.7999999523","correct":true,"confidence":4},{"trial_n":99,"span":8,"encoder":"07630431","distractor":"07620431","target":"absent","response":"absent","rt":"1078.6999999285","correct":true,"confidence":2},{"trial_n":100,"span":8,"encoder":"83626895","distractor":"83626815","target":"present","response":"present","rt":"1686.8999999762","correct":true,"confidence":5},{"trial_n":101,"span":9,"encoder":"365043446","distractor":"465043446","target":"present","response":"present","rt":"5923.7000000477","correct":true,"confidence":1},{"trial_n":102,"span":9,"encoder":"526220138","distractor":"526220538","target":"present","response":"present","rt":"3033.1000000238","correct":true,"confidence":5},{"trial_n":103,"span":10,"encoder":"6534619411","distractor":"1534619411","target":"absent","response":"absent","rt":"3643.7000000477","correct":true,"confidence":3},{"trial_n":104,"span":10,"encoder":"7462435836","distractor":"7462435834","target":"present","response":"present","rt":"2283.1000000238","correct":true,"confidence":5},{"trial_n":105,"span":11,"encoder":"78186800662","distractor":"78186800672","target":"absent","response":"absent","rt":"1518.6000000238","correct":true,"confidence":5},{"trial_n":106,"span":11,"encoder":"74570379842","distractor":"74570379841","target":"present","response":"absent","rt":"4483.1000000238","correct":false,"confidence":3},{"trial_n":107,"span":10,"encoder":"9180427441","distractor":"9180423441","target":"present","response":"present","rt":"2400.1000000238","correct":true,"confidence":5},{"trial_n":108,"span":10,"encoder":"4824168903","distractor":"4824158903","target":"absent","response":"absent","rt":"3490.5999999046","correct":true,"confidence":4},{"trial_n":109,"span":11,"encoder":"66080400968","distractor":"16080400968","target":"present","response":"present","rt":"6513.2000000477","correct":true,"confidence":1},{"trial_n":110,"span":11,"encoder":"54604496451","distractor":"54604486451","target":"present","response":"absent","rt":"7461.3999999762","correct":false,"confidence":1},{"trial_n":111,"span":10,"encoder":"5384706833","distractor":"5384106833","target":"absent","response":"absent","rt":"4304.6000000238","correct":true,"confidence":2},{"trial_n":112,"span":10,"encoder":"1490684105","distractor":"1490604105","target":"present","response":"absent","rt":"6188.3000000715","correct":false,"confidence":3},{"trial_n":113,"span":9,"encoder":"043213263","distractor":"043213213","target":"absent","response":"absent","rt":"6234","correct":true,"confidence":4},{"trial_n":114,"span":9,"encoder":"398923482","distractor":"398623482","target":"present","response":"absent","rt":"990.10000002384","correct":false,"confidence":1},{"trial_n":115,"span":8,"encoder":"51620500","distractor":"51620503","target":"absent","response":"absent","rt":"2894.6999999285","correct":true,"confidence":5},{"trial_n":116,"span":8,"encoder":"59999152","distractor":"59999122","target":"present","response":"present","rt":"4037.6000000238","correct":true,"confidence":5},{"trial_n":117,"span":9,"encoder":"569952502","distractor":"569952702","target":"present","response":"present","rt":"2683","correct":true,"confidence":5},{"trial_n":118,"span":9,"encoder":"957196301","distractor":"967196301","target":"absent","response":"absent","rt":"3979","correct":true,"confidence":3},{"trial_n":119,"span":10,"encoder":"0618111902","distractor":"0618111907","target":"absent","response":"absent","rt":"1603","correct":true,"confidence":5},{"trial_n":120,"span":10,"encoder":"1185012157","distractor":"1185012857","target":"absent","response":"absent","rt":"796.5","correct":true,"confidence":1},{"trial_n":121,"span":11,"encoder":"81066347661","distractor":"80066347661","target":"absent","response":"absent","rt":"4086.3000000715","correct":true,"confidence":2},{"trial_n":122,"span":11,"encoder":"80060933844","distractor":"80060933843","target":"absent","response":"absent","rt":"1575.8999999762","correct":true,"confidence":4},{"trial_n":123,"span":12,"encoder":"772736731586","distractor":"772736631586","target":"absent","response":"absent","rt":"5620.1000000238","correct":true,"confidence":3},{"trial_n":124,"span":12,"encoder":"105888180765","distractor":"105888189765","target":"present","response":"absent","rt":"2933.2000000477","correct":false,"confidence":2},{"trial_n":125,"span":11,"encoder":"76620575100","distractor":"76820575100","target":"present","response":"absent","rt":"4271.0999999046","correct":false,"confidence":1},{"trial_n":126,"span":10,"encoder":"2753599252","distractor":"5753599252","target":"present","response":"absent","rt":"7979.5","correct":false,"confidence":3},{"trial_n":127,"span":9,"encoder":"345933037","distractor":"345939037","target":"absent","response":"present","rt":"2655.6000000238","correct":false,"confidence":4},{"trial_n":128,"span":8,"encoder":"23220643","distractor":"23520643","target":"absent","response":"absent","rt":"2733.6000000238","correct":true,"confidence":2},{"trial_n":129,"span":8,"encoder":"74167910","distractor":"74167210","target":"absent","response":"absent","rt":"1365.1999999285","correct":true,"confidence":4},{"trial_n":130,"span":9,"encoder":"695076116","distractor":"895076116","target":"present","response":"absent","rt":"5387.9000000954","correct":false,"confidence":1},{"trial_n":131,"span":8,"encoder":"43405849","distractor":"43405839","target":"absent","response":"absent","rt":"3301.8999999762","correct":true,"confidence":5},{"trial_n":132,"span":8,"encoder":"33109776","distractor":"93109776","target":"absent","response":"absent","rt":"3435.1999999285","correct":true,"confidence":3},{"trial_n":133,"span":9,"encoder":"088895186","distractor":"018895186","target":"present","response":"absent","rt":"2213.7999999523","correct":false,"confidence":4},{"trial_n":134,"span":8,"encoder":"01015838","distractor":"01015830","target":"absent","response":"absent","rt":"3853.3000000715","correct":true,"confidence":4},{"trial_n":135,"span":8,"encoder":"58264390","distractor":"58264690","target":"present","response":"present","rt":"5604.5","correct":true,"confidence":3},{"trial_n":136,"span":9,"encoder":"507655074","distractor":"507655774","target":"present","response":"present","rt":"3662.8999999762","correct":true,"confidence":1},{"trial_n":137,"span":9,"encoder":"434695065","distractor":"434694065","target":"present","response":"present","rt":"4635.1000000238","correct":true,"confidence":3},{"trial_n":138,"span":10,"encoder":"4885665670","distractor":"7885665670","target":"absent","response":"present","rt":"7136.6000000238","correct":false,"confidence":2},{"trial_n":139,"span":9,"encoder":"545753251","distractor":"545753951","target":"present","response":"present","rt":"4772.3000000715","correct":true,"confidence":3},{"trial_n":140,"span":9,"encoder":"688414390","distractor":"668414390","target":"absent","response":"absent","rt":"1892.3000000715","correct":true,"confidence":5}]