[{"trial_n":1,"min":25,"max":230,"target":"present","response":"absent","rt":4085.9000000954,"correct":false,"confidence":-1},{"trial_n":2,"min":25,"max":230,"target":"present","response":"present","rt":2238.2999999523,"correct":true,"confidence":-1},{"trial_n":3,"min":25,"max":230,"target":"absent","response":"absent","rt":1024.7000000477,"correct":true,"confidence":-1},{"trial_n":4,"min":41,"max":214,"target":"absent","response":"absent","rt":454.90000009537,"correct":true,"confidence":-1},{"trial_n":5,"min":41,"max":214,"target":"present","response":"present","rt":415.90000009537,"correct":true,"confidence":-1},{"trial_n":6,"min":57,"max":198,"target":"present","response":"present","rt":573.90000009537,"correct":true,"confidence":-1},{"trial_n":7,"min":57,"max":198,"target":"absent","response":"absent","rt":567.80000019073,"correct":true,"confidence":-1},{"trial_n":8,"min":73,"max":182,"target":"present","response":"absent","rt":357.59999990463,"correct":false,"confidence":-1},{"trial_n":9,"min":57,"max":198,"target":"present","response":"present","rt":503.70000004768,"correct":true,"confidence":-1},{"trial_n":10,"min":57,"max":198,"target":"present","response":"present","rt":370.39999985695,"correct":true,"confidence":-1},{"trial_n":11,"min":65,"max":190,"target":"absent","response":"absent","rt":410,"correct":true,"confidence":-1},{"trial_n":12,"min":65,"max":190,"target":"absent","response":"absent","rt":437.20000004768,"correct":true,"confidence":-1},{"trial_n":13,"min":73,"max":182,"target":"absent","response":"absent","rt":387.89999985695,"correct":true,"confidence":-1},{"trial_n":14,"min":73,"max":182,"target":"absent","response":"absent","rt":457.79999995232,"correct":true,"confidence":-1},{"trial_n":15,"min":81,"max":174,"target":"present","response":"absent","rt":361.90000009537,"correct":false,"confidence":-1},{"trial_n":16,"min":73,"max":182,"target":"present","response":"absent","rt":466.39999985695,"correct":false,"confidence":-1},{"trial_n":17,"min":65,"max":190,"target":"absent","response":"present","rt":428.90000009537,"correct":false,"confidence":-1},{"trial_n":18,"min":57,"max":198,"target":"absent","response":"absent","rt":513.29999995232,"correct":true,"confidence":-1},{"trial_n":19,"min":57,"max":198,"target":"present","response":"present","rt":456.5,"correct":true,"confidence":-1},{"trial_n":20,"min":65,"max":190,"target":"present","response":"present","rt":969.69999980927,"correct":true,"confidence":-1},{"trial_n":21,"min":65,"max":190,"target":"present","response":"present","rt":364.40000009537,"correct":true,"confidence":5},{"trial_n":22,"min":69,"max":186,"target":"absent","response":"present","rt":1483.5999999046,"correct":false,"confidence":3},{"trial_n":23,"min":65,"max":190,"target":"absent","response":"present","rt":2591.2000000477,"correct":false,"confidence":2},{"trial_n":24,"min":61,"max":194,"target":"present","response":"present","rt":1454.0999999046,"correct":true,"confidence":5},{"trial_n":25,"min":61,"max":194,"target":"absent","response":"present","rt":1559.6999998093,"correct":false,"confidence":3},{"trial_n":26,"min":57,"max":198,"target":"present","response":"present","rt":1149.2000000477,"correct":true,"confidence":5},{"trial_n":27,"min":57,"max":198,"target":"present","response":"present","rt":967.29999995232,"correct":true,"confidence":4},{"trial_n":28,"min":61,"max":194,"target":"absent","response":"absent","rt":2296.1000001431,"correct":true,"confidence":3},{"trial_n":29,"min":61,"max":194,"target":"present","response":"present","rt":887.89999985695,"correct":true,"confidence":4},{"trial_n":30,"min":65,"max":190,"target":"absent","response":"absent","rt":1469.3999998569,"correct":true,"confidence":3},{"trial_n":31,"min":65,"max":190,"target":"absent","response":"absent","rt":1748.6999998093,"correct":true,"confidence":2},{"trial_n":32,"min":67,"max":188,"target":"absent","response":"absent","rt":1424.5,"correct":true,"confidence":2},{"trial_n":33,"min":67,"max":188,"target":"absent","response":"absent","rt":1242.4000000954,"correct":true,"confidence":3},{"trial_n":34,"min":69,"max":186,"target":"present","response":"present","rt":1185.7999999523,"correct":true,"confidence":4},{"trial_n":35,"min":69,"max":186,"target":"present","response":"present","rt":1224.3999998569,"correct":true,"confidence":5},{"trial_n":36,"min":71,"max":184,"target":"present","response":"present","rt":1090.6000001431,"correct":true,"confidence":4},{"trial_n":37,"min":71,"max":184,"target":"present","response":"present","rt":1072.3999998569,"correct":true,"confidence":4},{"trial_n":38,"min":73,"max":182,"target":"present","response":"present","rt":697.40000009537,"correct":true,"confidence":4},{"trial_n":39,"min":73,"max":182,"target":"absent","response":"absent","rt":1220.6999998093,"correct":true,"confidence":4},{"trial_n":40,"min":75,"max":180,"target":"present","response":"absent","rt":739.29999995232,"correct":false,"confidence":4},{"trial_n":41,"min":74,"max":181,"target":"present","response":"present","rt":880,"correct":true,"confidence":5},{"trial_n":42,"min":74,"max":181,"target":"present","response":"present","rt":692.79999995232,"correct":true,"confidence":4},{"trial_n":43,"min":75,"max":180,"target":"present","response":"present","rt":1288.4000000954,"correct":true,"confidence":3},{"trial_n":44,"min":75,"max":180,"target":"present","response":"present","rt":766.20000004768,"correct":true,"confidence":4},{"trial_n":45,"min":76,"max":179,"target":"absent","response":"absent","rt":860.5,"correct":true,"confidence":4},{"trial_n":46,"min":76,"max":179,"target":"present","response":"absent","rt":1158.7999999523,"correct":false,"confidence":3},{"trial_n":47,"min":75,"max":180,"target":"present","response":"present","rt":780.40000009537,"correct":true,"confidence":3},{"trial_n":48,"min":75,"max":180,"target":"absent","response":"absent","rt":790.40000009537,"correct":true,"confidence":3},{"trial_n":49,"min":76,"max":179,"target":"absent","response":"absent","rt":847.5,"correct":true,"confidence":4},{"trial_n":50,"min":76,"max":179,"target":"absent","response":"absent","rt":1297.7000000477,"correct":true,"confidence":4},{"trial_n":51,"min":77,"max":178,"target":"present","response":"absent","rt":1956.5999999046,"correct":false,"confidence":2},{"trial_n":52,"min":76,"max":179,"target":"absent","response":"absent","rt":896.39999985695,"correct":true,"confidence":4},{"trial_n":53,"min":76,"max":179,"target":"absent","response":"absent","rt":700.40000009537,"correct":true,"confidence":4},{"trial_n":54,"min":77,"max":178,"target":"present","response":"present","rt":1105.5,"correct":true,"confidence":3},{"trial_n":55,"min":77,"max":178,"target":"present","response":"absent","rt":805.79999995232,"correct":false,"confidence":3},{"trial_n":56,"min":76,"max":179,"target":"absent","response":"absent","rt":1209.6999998093,"correct":true,"confidence":5},{"trial_n":57,"min":76,"max":179,"target":"absent","response":"absent","rt":698.70000004768,"correct":true,"confidence":5},{"trial_n":58,"min":77,"max":178,"target":"absent","response":"absent","rt":662.60000014305,"correct":true,"confidence":4},{"trial_n":59,"min":77,"max":178,"target":"absent","response":"absent","rt":739.90000009537,"correct":true,"confidence":5},{"trial_n":60,"min":78,"max":177,"target":"present","response":"absent","rt":611.90000009537,"correct":false,"confidence":3},{"trial_n":61,"min":77,"max":178,"target":"absent","response":"absent","rt":822.29999995232,"correct":true,"confidence":4},{"trial_n":62,"min":77,"max":178,"target":"present","response":"absent","rt":796.59999990463,"correct":false,"confidence":3},{"trial_n":63,"min":76,"max":179,"target":"absent","response":"absent","rt":433.29999995232,"correct":true,"confidence":4},{"trial_n":64,"min":76,"max":179,"target":"absent","response":"absent","rt":463.70000004768,"correct":true,"confidence":4},{"trial_n":65,"min":77,"max":178,"target":"absent","response":"absent","rt":460.60000014305,"correct":true,"confidence":4},{"trial_n":66,"min":77,"max":178,"target":"absent","response":"absent","rt":389.29999995232,"correct":true,"confidence":5},{"trial_n":67,"min":78,"max":177,"target":"present","response":"absent","rt":413.60000014305,"correct":false,"confidence":3},{"trial_n":68,"min":77,"max":178,"target":"present","response":"absent","rt":524.59999990463,"correct":false,"confidence":3},{"trial_n":69,"min":76,"max":179,"target":"absent","response":"absent","rt":426.39999985695,"correct":true,"confidence":5},{"trial_n":70,"min":76,"max":179,"target":"present","response":"absent","rt":479.09999990463,"correct":false,"confidence":4},{"trial_n":71,"min":41,"max":214,"target":"present","response":"present","rt":4240.1000001431,"correct":true,"confidence":-1},{"trial_n":72,"min":41,"max":214,"target":"present","response":"present","rt":28.199999809265,"correct":true,"confidence":-1},{"trial_n":73,"min":57,"max":198,"target":"absent","response":"absent","rt":584.5,"correct":true,"confidence":-1},{"trial_n":74,"min":57,"max":198,"target":"absent","response":"absent","rt":363.69999980927,"correct":true,"confidence":-1},{"trial_n":75,"min":73,"max":182,"target":"present","response":"present","rt":196.79999995232,"correct":true,"confidence":-1},{"trial_n":76,"min":73,"max":182,"target":"present","response":"present","rt":504.5,"correct":true,"confidence":-1},{"trial_n":77,"min":89,"max":166,"target":"present","response":"absent","rt":1022.2999999523,"correct":false,"confidence":-1},{"trial_n":78,"min":73,"max":182,"target":"present","response":"present","rt":277.70000004768,"correct":true,"confidence":-1},{"trial_n":79,"min":73,"max":182,"target":"present","response":"present","rt":367.20000004768,"correct":true,"confidence":-1},{"trial_n":80,"min":89,"max":166,"target":"present","response":"present","rt":369.20000004768,"correct":true,"confidence":-1},{"trial_n":81,"min":89,"max":166,"target":"absent","response":"absent","rt":846.5,"correct":true,"confidence":-1},{"trial_n":82,"min":97,"max":158,"target":"present","response":"present","rt":1140.6000001431,"correct":true,"confidence":-1},{"trial_n":83,"min":97,"max":158,"target":"absent","response":"absent","rt":907.79999995232,"correct":true,"confidence":-1},{"trial_n":84,"min":105,"max":150,"target":"absent","response":"absent","rt":516,"correct":true,"confidence":-1},{"trial_n":85,"min":105,"max":150,"target":"absent","response":"absent","rt":573,"correct":true,"confidence":-1},{"trial_n":86,"min":113,"max":142,"target":"present","response":"absent","rt":439.90000009537,"correct":false,"confidence":-1},{"trial_n":87,"min":105,"max":150,"target":"present","response":"present","rt":728,"correct":true,"confidence":-1},{"trial_n":88,"min":105,"max":150,"target":"absent","response":"absent","rt":423.09999990463,"correct":true,"confidence":-1},{"trial_n":89,"min":113,"max":142,"target":"present","response":"present","rt":635.29999995232,"correct":true,"confidence":-1},{"trial_n":90,"min":113,"max":142,"target":"absent","response":"present","rt":917.40000009537,"correct":false,"confidence":-1},{"trial_n":91,"min":109,"max":146,"target":"present","response":"absent","rt":771,"correct":false,"confidence":2},{"trial_n":92,"min":105,"max":150,"target":"absent","response":"present","rt":1199.7999999523,"correct":false,"confidence":2},{"trial_n":93,"min":101,"max":154,"target":"absent","response":"present","rt":1521.2999999523,"correct":false,"confidence":1},{"trial_n":94,"min":97,"max":158,"target":"present","response":"present","rt":842.20000004768,"correct":true,"confidence":3},{"trial_n":95,"min":97,"max":158,"target":"absent","response":"present","rt":2157.7000000477,"correct":false,"confidence":2},{"trial_n":96,"min":93,"max":162,"target":"absent","response":"present","rt":1145.7999999523,"correct":false,"confidence":3},{"trial_n":97,"min":89,"max":166,"target":"present","response":"present","rt":1125.9000000954,"correct":true,"confidence":2},{"trial_n":98,"min":89,"max":166,"target":"absent","response":"present","rt":807.09999990463,"correct":false,"confidence":1},{"trial_n":99,"min":85,"max":170,"target":"absent","response":"present","rt":1007.7000000477,"correct":false,"confidence":2},{"trial_n":100,"min":81,"max":174,"target":"absent","response":"present","rt":1010.0999999046,"correct":false,"confidence":2},{"trial_n":101,"min":79,"max":176,"target":"present","response":"present","rt":881.29999995232,"correct":true,"confidence":4},{"trial_n":102,"min":79,"max":176,"target":"absent","response":"present","rt":614.5,"correct":false,"confidence":3},{"trial_n":103,"min":77,"max":178,"target":"absent","response":"absent","rt":1180.6999998093,"correct":true,"confidence":4},{"trial_n":104,"min":77,"max":178,"target":"absent","response":"absent","rt":1688.6000001431,"correct":true,"confidence":2},{"trial_n":105,"min":79,"max":176,"target":"absent","response":"absent","rt":1398.2000000477,"correct":true,"confidence":1},{"trial_n":106,"min":79,"max":176,"target":"absent","response":"present","rt":697.79999995232,"correct":false,"confidence":2},{"trial_n":107,"min":77,"max":178,"target":"absent","response":"absent","rt":1358.1000001431,"correct":true,"confidence":3},{"trial_n":108,"min":77,"max":178,"target":"present","response":"present","rt":591.29999995232,"correct":true,"confidence":3},{"trial_n":109,"min":79,"max":176,"target":"absent","response":"absent","rt":802.69999980927,"correct":true,"confidence":1},{"trial_n":110,"min":79,"max":176,"target":"absent","response":"present","rt":769.5,"correct":false,"confidence":2},{"trial_n":111,"min":78,"max":177,"target":"absent","response":"absent","rt":785.09999990463,"correct":true,"confidence":2},{"trial_n":112,"min":78,"max":177,"target":"present","response":"present","rt":363.20000004768,"correct":true,"confidence":5},{"trial_n":113,"min":79,"max":176,"target":"present","response":"present","rt":1332.2000000477,"correct":true,"confidence":5},{"trial_n":114,"min":79,"max":176,"target":"present","response":"present","rt":721.40000009537,"correct":true,"confidence":5},{"trial_n":115,"min":80,"max":175,"target":"present","response":"present","rt":552.40000009537,"correct":true,"confidence":5},{"trial_n":116,"min":80,"max":175,"target":"present","response":"present","rt":455.70000004768,"correct":true,"confidence":5},{"trial_n":117,"min":81,"max":174,"target":"absent","response":"absent","rt":1778,"correct":true,"confidence":1},{"trial_n":118,"min":81,"max":174,"target":"present","response":"present","rt":511.60000014305,"correct":true,"confidence":4},{"trial_n":119,"min":82,"max":173,"target":"absent","response":"present","rt":1082.5999999046,"correct":false,"confidence":3},{"trial_n":120,"min":81,"max":174,"target":"absent","response":"absent","rt":936.90000009537,"correct":true,"confidence":2},{"trial_n":121,"min":81,"max":174,"target":"present","response":"present","rt":355.59999990463,"correct":true,"confidence":3},{"trial_n":122,"min":82,"max":173,"target":"absent","response":"absent","rt":608.09999990463,"correct":true,"confidence":2},{"trial_n":123,"min":82,"max":173,"target":"absent","response":"absent","rt":4760.7000000477,"correct":true,"confidence":1},{"trial_n":124,"min":83,"max":172,"target":"absent","response":"present","rt":1015.6000001431,"correct":false,"confidence":1},{"trial_n":125,"min":82,"max":173,"target":"absent","response":"present","rt":649.70000004768,"correct":false,"confidence":1},{"trial_n":126,"min":81,"max":174,"target":"present","response":"present","rt":411.79999995232,"correct":true,"confidence":3},{"trial_n":127,"min":81,"max":174,"target":"absent","response":"absent","rt":824.90000009537,"correct":true,"confidence":1},{"trial_n":128,"min":82,"max":173,"target":"present","response":"present","rt":486.5,"correct":true,"confidence":2},{"trial_n":129,"min":82,"max":173,"target":"present","response":"absent","rt":2031.8000001907,"correct":false,"confidence":1},{"trial_n":130,"min":81,"max":174,"target":"present","response":"present","rt":577.5,"correct":true,"confidence":4},{"trial_n":131,"min":81,"max":174,"target":"present","response":"present","rt":539.39999985695,"correct":true,"confidence":5},{"trial_n":132,"min":82,"max":173,"target":"absent","response":"absent","rt":835.20000004768,"correct":true,"confidence":2},{"trial_n":133,"min":82,"max":173,"target":"present","response":"present","rt":902.20000004768,"correct":true,"confidence":2},{"trial_n":134,"min":83,"max":172,"target":"present","response":"present","rt":790.40000009537,"correct":true,"confidence":1},{"trial_n":135,"min":83,"max":172,"target":"present","response":"present","rt":391.29999995232,"correct":true,"confidence":3},{"trial_n":136,"min":84,"max":171,"target":"present","response":"present","rt":639,"correct":true,"confidence":3},{"trial_n":137,"min":84,"max":171,"target":"present","response":"present","rt":1271.7999999523,"correct":true,"confidence":1},{"trial_n":138,"min":85,"max":170,"target":"present","response":"present","rt":481,"correct":true,"confidence":4},{"trial_n":139,"min":85,"max":170,"target":"absent","response":"present","rt":985,"correct":false,"confidence":2},{"trial_n":140,"min":84,"max":171,"target":"present","response":"present","rt":500.19999980927,"correct":true,"confidence":2}]