[{"trial_n":1,"n_dots":4.25,"target":"left","response":"left","rt":4595.9000000358,"correct":true,"confidence":-1},{"trial_n":2,"n_dots":4.25,"target":"left","response":"left","rt":1007.8999999762,"correct":true,"confidence":-1},{"trial_n":3,"n_dots":3.85,"target":"left","response":"right","rt":1260.1000000238,"correct":false,"confidence":-1},{"trial_n":4,"n_dots":4.25,"target":"left","response":"left","rt":640.19999998808,"correct":true,"confidence":-1},{"trial_n":5,"n_dots":4.25,"target":"left","response":"left","rt":528,"correct":true,"confidence":-1},{"trial_n":6,"n_dots":3.85,"target":"right","response":"right","rt":754.19999998808,"correct":true,"confidence":-1},{"trial_n":7,"n_dots":3.85,"target":"left","response":"left","rt":501.80000001192,"correct":true,"confidence":-1},{"trial_n":8,"n_dots":3.65,"target":"left","response":"left","rt":460.80000001192,"correct":true,"confidence":-1},{"trial_n":9,"n_dots":3.65,"target":"right","response":"right","rt":399.39999997616,"correct":true,"confidence":-1},{"trial_n":10,"n_dots":3.45,"target":"left","response":"left","rt":458.69999998808,"correct":true,"confidence":-1},{"trial_n":11,"n_dots":3.45,"target":"right","response":"left","rt":715.19999998808,"correct":false,"confidence":-1},{"trial_n":12,"n_dots":3.65,"target":"left","response":"left","rt":714.89999997616,"correct":true,"confidence":-1},{"trial_n":13,"n_dots":3.65,"target":"right","response":"right","rt":937.30000001192,"correct":true,"confidence":-1},{"trial_n":14,"n_dots":3.55,"target":"left","response":"left","rt":661.39999997616,"correct":true,"confidence":-1},{"trial_n":15,"n_dots":3.55,"target":"left","response":"left","rt":646.69999998808,"correct":true,"confidence":-1},{"trial_n":16,"n_dots":3.45,"target":"left","response":"right","rt":907.69999998808,"correct":false,"confidence":-1},{"trial_n":17,"n_dots":3.55,"target":"left","response":"right","rt":637.80000001192,"correct":false,"confidence":-1},{"trial_n":18,"n_dots":3.65,"target":"right","response":"right","rt":562.09999996424,"correct":true,"confidence":-1},{"trial_n":19,"n_dots":3.65,"target":"right","response":"right","rt":868.39999997616,"correct":true,"confidence":-1},{"trial_n":20,"n_dots":3.55,"target":"right","response":"right","rt":807.89999997616,"correct":true,"confidence":-1},{"trial_n":21,"n_dots":3.55,"target":"left","response":"left","rt":837.90000003576,"correct":true,"confidence":4},{"trial_n":22,"n_dots":3.45,"target":"right","response":"right","rt":727.40000003576,"correct":true,"confidence":4},{"trial_n":23,"n_dots":3.45,"target":"right","response":"right","rt":719.5,"correct":true,"confidence":4},{"trial_n":24,"n_dots":3.35,"target":"left","response":"right","rt":2199.1000000238,"correct":false,"confidence":4},{"trial_n":25,"n_dots":3.45,"target":"left","response":"right","rt":1235.6999999881,"correct":false,"confidence":4},{"trial_n":26,"n_dots":3.55,"target":"right","response":"left","rt":900.09999996424,"correct":false,"confidence":2},{"trial_n":27,"n_dots":3.65,"target":"left","response":"left","rt":780.30000001192,"correct":true,"confidence":4},{"trial_n":28,"n_dots":3.65,"target":"left","response":"left","rt":1375.1000000238,"correct":true,"confidence":4},{"trial_n":29,"n_dots":3.55,"target":"left","response":"left","rt":1327.8999999762,"correct":true,"confidence":3},{"trial_n":30,"n_dots":3.55,"target":"left","response":"right","rt":803,"correct":false,"confidence":3},{"trial_n":31,"n_dots":3.65,"target":"right","response":"right","rt":1034.6999999881,"correct":true,"confidence":4},{"trial_n":32,"n_dots":3.65,"target":"left","response":"left","rt":1215.9000000358,"correct":true,"confidence":4},{"trial_n":33,"n_dots":3.55,"target":"right","response":"right","rt":1138.2999999523,"correct":true,"confidence":4},{"trial_n":34,"n_dots":3.55,"target":"right","response":"right","rt":631.60000002384,"correct":true,"confidence":5},{"trial_n":35,"n_dots":3.45,"target":"left","response":"right","rt":1678.5,"correct":false,"confidence":4},{"trial_n":36,"n_dots":3.55,"target":"right","response":"left","rt":1349.6999999881,"correct":false,"confidence":1},{"trial_n":37,"n_dots":3.65,"target":"right","response":"right","rt":814.59999996424,"correct":true,"confidence":5},{"trial_n":38,"n_dots":3.65,"target":"left","response":"left","rt":1580,"correct":true,"confidence":2},{"trial_n":39,"n_dots":3.55,"target":"left","response":"left","rt":1542.1000000238,"correct":true,"confidence":4},{"trial_n":40,"n_dots":3.55,"target":"left","response":"left","rt":1130.3000000119,"correct":true,"confidence":4},{"trial_n":41,"n_dots":3.45,"target":"right","response":"right","rt":1542.1000000238,"correct":true,"confidence":3},{"trial_n":42,"n_dots":3.45,"target":"left","response":"right","rt":1314.8999999762,"correct":false,"confidence":3},{"trial_n":43,"n_dots":3.55,"target":"left","response":"left","rt":793.40000003576,"correct":true,"confidence":4},{"trial_n":44,"n_dots":3.55,"target":"right","response":"right","rt":1456.5,"correct":true,"confidence":5},{"trial_n":45,"n_dots":3.45,"target":"right","response":"right","rt":1701.9000000358,"correct":true,"confidence":5},{"trial_n":46,"n_dots":3.45,"target":"left","response":"left","rt":1115.1999999881,"correct":true,"confidence":5},{"trial_n":47,"n_dots":3.35,"target":"right","response":"left","rt":1758.7000000477,"correct":false,"confidence":4},{"trial_n":48,"n_dots":3.45,"target":"right","response":"right","rt":6346.8000000119,"correct":true,"confidence":4},{"trial_n":49,"n_dots":3.45,"target":"left","response":"left","rt":873.19999998808,"correct":true,"confidence":5},{"trial_n":50,"n_dots":3.35,"target":"left","response":"left","rt":1722.7999999523,"correct":true,"confidence":5},{"trial_n":51,"n_dots":3.35,"target":"left","response":"right","rt":2403.5,"correct":false,"confidence":2},{"trial_n":52,"n_dots":3.45,"target":"right","response":"left","rt":1033.4000000358,"correct":false,"confidence":3},{"trial_n":53,"n_dots":3.55,"target":"right","response":"right","rt":959.40000003576,"correct":true,"confidence":4},{"trial_n":54,"n_dots":3.55,"target":"right","response":"right","rt":966.09999996424,"correct":true,"confidence":5},{"trial_n":55,"n_dots":3.45,"target":"left","response":"right","rt":4668,"correct":false,"confidence":2},{"trial_n":56,"n_dots":3.55,"target":"right","response":"left","rt":2981.6999999881,"correct":false,"confidence":2},{"trial_n":57,"n_dots":3.65,"target":"right","response":"right","rt":778.90000003576,"correct":true,"confidence":5},{"trial_n":58,"n_dots":3.65,"target":"left","response":"left","rt":927.19999998808,"correct":true,"confidence":5},{"trial_n":59,"n_dots":3.55,"target":"left","response":"left","rt":1312.0999999642,"correct":true,"confidence":5},{"trial_n":60,"n_dots":3.55,"target":"left","response":"left","rt":1507.1999999881,"correct":true,"confidence":4},{"trial_n":61,"n_dots":3.45,"target":"right","response":"right","rt":1954,"correct":true,"confidence":5},{"trial_n":62,"n_dots":3.45,"target":"left","response":"left","rt":753.30000001192,"correct":true,"confidence":5},{"trial_n":63,"n_dots":3.35,"target":"left","response":"left","rt":940.10000002384,"correct":true,"confidence":5},{"trial_n":64,"n_dots":3.35,"target":"right","response":"right","rt":1818.5,"correct":true,"confidence":4},{"trial_n":65,"n_dots":3.25,"target":"right","response":"right","rt":1226.3000000119,"correct":true,"confidence":5},{"trial_n":66,"n_dots":3.25,"target":"right","response":"left","rt":2281.7000000477,"correct":false,"confidence":4},{"trial_n":67,"n_dots":3.35,"target":"left","response":"left","rt":866.79999995232,"correct":true,"confidence":5},{"trial_n":68,"n_dots":3.35,"target":"right","response":"right","rt":834.79999995232,"correct":true,"confidence":4},{"trial_n":69,"n_dots":3.25,"target":"right","response":"right","rt":1180.3999999762,"correct":true,"confidence":4},{"trial_n":70,"n_dots":3.25,"target":"right","response":"left","rt":1702.8999999762,"correct":false,"confidence":2},{"trial_n":71,"n_dots":3.35,"target":"right","response":"right","rt":812.19999998808,"correct":true,"confidence":4},{"trial_n":72,"n_dots":3.35,"target":"left","response":"left","rt":1465.8000000119,"correct":true,"confidence":4},{"trial_n":73,"n_dots":3.25,"target":"right","response":"left","rt":1600.1000000238,"correct":false,"confidence":4},{"trial_n":74,"n_dots":3.35,"target":"right","response":"right","rt":1203.6999999881,"correct":true,"confidence":4},{"trial_n":75,"n_dots":3.35,"target":"left","response":"left","rt":1497.3000000119,"correct":true,"confidence":1},{"trial_n":76,"n_dots":3.25,"target":"left","response":"left","rt":2010.6000000238,"correct":true,"confidence":1},{"trial_n":77,"n_dots":3.25,"target":"left","response":"left","rt":961.69999998808,"correct":true,"confidence":4},{"trial_n":78,"n_dots":3.15,"target":"right","response":"right","rt":2578.3999999762,"correct":true,"confidence":4},{"trial_n":79,"n_dots":3.15,"target":"right","response":"right","rt":1053.7000000477,"correct":true,"confidence":4},{"trial_n":80,"n_dots":3.05,"target":"right","response":"right","rt":496.5,"correct":true,"confidence":5},{"trial_n":81,"n_dots":3.05,"target":"left","response":"left","rt":1216.8999999762,"correct":true,"confidence":4},{"trial_n":82,"n_dots":2.95,"target":"left","response":"left","rt":1021.6999999881,"correct":true,"confidence":4},{"trial_n":83,"n_dots":2.95,"target":"right","response":"left","rt":2449.2000000477,"correct":false,"confidence":2},{"trial_n":84,"n_dots":3.05,"target":"left","response":"right","rt":1096.8999999762,"correct":false,"confidence":3},{"trial_n":85,"n_dots":3.15,"target":"right","response":"right","rt":1040.8000000119,"correct":true,"confidence":4},{"trial_n":86,"n_dots":3.15,"target":"right","response":"right","rt":867.69999998808,"correct":true,"confidence":5},{"trial_n":87,"n_dots":3.05,"target":"right","response":"right","rt":1223.5999999642,"correct":true,"confidence":3},{"trial_n":88,"n_dots":3.05,"target":"right","response":"right","rt":1072,"correct":true,"confidence":3},{"trial_n":89,"n_dots":2.95,"target":"left","response":"right","rt":1035,"correct":false,"confidence":5},{"trial_n":90,"n_dots":3.05,"target":"right","response":"right","rt":601.39999997616,"correct":true,"confidence":5},{"trial_n":91,"n_dots":3.05,"target":"right","response":"left","rt":1048.5,"correct":false,"confidence":4},{"trial_n":92,"n_dots":3.15,"target":"right","response":"right","rt":510.09999996424,"correct":true,"confidence":5},{"trial_n":93,"n_dots":3.15,"target":"right","response":"right","rt":572,"correct":true,"confidence":3},{"trial_n":94,"n_dots":3.05,"target":"left","response":"left","rt":2409,"correct":true,"confidence":4},{"trial_n":95,"n_dots":3.05,"target":"right","response":"left","rt":1195.3000000119,"correct":false,"confidence":4},{"trial_n":96,"n_dots":3.15,"target":"left","response":"left","rt":970.09999996424,"correct":true,"confidence":4},{"trial_n":97,"n_dots":3.15,"target":"left","response":"left","rt":916,"correct":true,"confidence":4},{"trial_n":98,"n_dots":3.05,"target":"left","response":"left","rt":650.80000001192,"correct":true,"confidence":5},{"trial_n":99,"n_dots":3.05,"target":"left","response":"left","rt":1179.3000000119,"correct":true,"confidence":3},{"trial_n":100,"n_dots":2.95,"target":"left","response":"left","rt":1433.6000000238,"correct":true,"confidence":2},{"trial_n":101,"n_dots":2.95,"target":"right","response":"right","rt":1037,"correct":true,"confidence":5},{"trial_n":102,"n_dots":2.85,"target":"right","response":"right","rt":818.69999998808,"correct":true,"confidence":4},{"trial_n":103,"n_dots":2.85,"target":"right","response":"left","rt":628.19999998808,"correct":false,"confidence":3},{"trial_n":104,"n_dots":2.95,"target":"left","response":"right","rt":2007.6000000238,"correct":false,"confidence":5},{"trial_n":105,"n_dots":3.05,"target":"left","response":"left","rt":1450.8999999762,"correct":true,"confidence":3},{"trial_n":106,"n_dots":3.05,"target":"right","response":"right","rt":4523.6999999881,"correct":true,"confidence":4},{"trial_n":107,"n_dots":2.95,"target":"left","response":"left","rt":1375.1999999881,"correct":true,"confidence":3},{"trial_n":108,"n_dots":2.95,"target":"right","response":"left","rt":2306.6999999881,"correct":false,"confidence":4},{"trial_n":109,"n_dots":3.05,"target":"right","response":"right","rt":995.69999998808,"correct":true,"confidence":4},{"trial_n":110,"n_dots":3.05,"target":"right","response":"left","rt":2268.6999999881,"correct":false,"confidence":4},{"trial_n":111,"n_dots":3.15,"target":"right","response":"right","rt":1248.6999999881,"correct":true,"confidence":5},{"trial_n":112,"n_dots":3.15,"target":"right","response":"right","rt":1233.3000000119,"correct":true,"confidence":4},{"trial_n":113,"n_dots":3.05,"target":"left","response":"left","rt":2297.4000000358,"correct":true,"confidence":4},{"trial_n":114,"n_dots":3.05,"target":"left","response":"left","rt":3058.6000000238,"correct":true,"confidence":4},{"trial_n":115,"n_dots":2.95,"target":"right","response":"right","rt":2693,"correct":true,"confidence":4},{"trial_n":116,"n_dots":2.95,"target":"left","response":"left","rt":1990,"correct":true,"confidence":4},{"trial_n":117,"n_dots":2.85,"target":"left","response":"right","rt":693.10000002384,"correct":false,"confidence":3},{"trial_n":118,"n_dots":2.95,"target":"right","response":"right","rt":1147.5,"correct":true,"confidence":5},{"trial_n":119,"n_dots":2.95,"target":"left","response":"left","rt":1555.1999999881,"correct":true,"confidence":4},{"trial_n":120,"n_dots":2.85,"target":"right","response":"right","rt":1348.1999999881,"correct":true,"confidence":4}]