[{"trial_n":1,"min":25,"max":230,"target":"present","response":"present","rt":7912,"correct":true,"confidence":-1},{"trial_n":2,"min":25,"max":230,"target":"present","response":"present","rt":815.80000007153,"correct":true,"confidence":-1},{"trial_n":3,"min":41,"max":214,"target":"absent","response":"absent","rt":497.30000007153,"correct":true,"confidence":-1},{"trial_n":4,"min":41,"max":214,"target":"absent","response":"absent","rt":455,"correct":true,"confidence":-1},{"trial_n":5,"min":57,"max":198,"target":"present","response":"present","rt":409,"correct":true,"confidence":-1},{"trial_n":6,"min":57,"max":198,"target":"present","response":"present","rt":430.5,"correct":true,"confidence":-1},{"trial_n":7,"min":73,"max":182,"target":"absent","response":"absent","rt":464.39999997616,"correct":true,"confidence":-1},{"trial_n":8,"min":73,"max":182,"target":"present","response":"present","rt":479.60000002384,"correct":true,"confidence":-1},{"trial_n":9,"min":89,"max":166,"target":"present","response":"absent","rt":379.19999992847,"correct":false,"confidence":-1},{"trial_n":10,"min":73,"max":182,"target":"absent","response":"absent","rt":270.79999995232,"correct":true,"confidence":-1},{"trial_n":11,"min":73,"max":182,"target":"absent","response":"absent","rt":145.5,"correct":true,"confidence":-1},{"trial_n":12,"min":81,"max":174,"target":"present","response":"absent","rt":268.5,"correct":false,"confidence":-1},{"trial_n":13,"min":73,"max":182,"target":"present","response":"absent","rt":517,"correct":false,"confidence":-1},{"trial_n":14,"min":65,"max":190,"target":"absent","response":"absent","rt":428.80000007153,"correct":true,"confidence":-1},{"trial_n":15,"min":65,"max":190,"target":"present","response":"present","rt":117.79999995232,"correct":true,"confidence":-1},{"trial_n":16,"min":73,"max":182,"target":"present","response":"present","rt":406.19999992847,"correct":true,"confidence":-1},{"trial_n":17,"min":73,"max":182,"target":"present","response":"present","rt":251.39999997616,"correct":true,"confidence":-1},{"trial_n":18,"min":81,"max":174,"target":"absent","response":"present","rt":407.19999992847,"correct":false,"confidence":-1},{"trial_n":19,"min":73,"max":182,"target":"absent","response":"absent","rt":292,"correct":true,"confidence":-1},{"trial_n":20,"min":73,"max":182,"target":"absent","response":"absent","rt":280,"correct":true,"confidence":-1},{"trial_n":21,"min":77,"max":178,"target":"absent","response":"absent","rt":2727.1000000238,"correct":true,"confidence":1},{"trial_n":22,"min":77,"max":178,"target":"present","response":"present","rt":1021.3999999762,"correct":true,"confidence":4},{"trial_n":23,"min":81,"max":174,"target":"present","response":"present","rt":3096.3000000715,"correct":true,"confidence":3},{"trial_n":24,"min":81,"max":174,"target":"present","response":"present","rt":672.20000004768,"correct":true,"confidence":4},{"trial_n":25,"min":85,"max":170,"target":"present","response":"present","rt":402.19999992847,"correct":true,"confidence":3},{"trial_n":26,"min":85,"max":170,"target":"absent","response":"absent","rt":1136.2000000477,"correct":true,"confidence":4},{"trial_n":27,"min":89,"max":166,"target":"absent","response":"absent","rt":651.29999995232,"correct":true,"confidence":4},{"trial_n":28,"min":89,"max":166,"target":"present","response":"present","rt":618.89999997616,"correct":true,"confidence":4},{"trial_n":29,"min":93,"max":162,"target":"absent","response":"absent","rt":1030.9000000954,"correct":true,"confidence":4},{"trial_n":30,"min":93,"max":162,"target":"absent","response":"absent","rt":1806.7999999523,"correct":true,"confidence":1},{"trial_n":31,"min":95,"max":160,"target":"present","response":"present","rt":1191.5,"correct":true,"confidence":2},{"trial_n":32,"min":95,"max":160,"target":"present","response":"absent","rt":2949.7000000477,"correct":false,"confidence":1},{"trial_n":33,"min":93,"max":162,"target":"absent","response":"absent","rt":652.5,"correct":true,"confidence":5},{"trial_n":34,"min":93,"max":162,"target":"present","response":"present","rt":1492.2999999523,"correct":true,"confidence":4},{"trial_n":35,"min":95,"max":160,"target":"absent","response":"absent","rt":795.39999997616,"correct":true,"confidence":4},{"trial_n":36,"min":95,"max":160,"target":"absent","response":"absent","rt":643.89999997616,"correct":true,"confidence":4},{"trial_n":37,"min":97,"max":158,"target":"present","response":"present","rt":2684.1000000238,"correct":true,"confidence":3},{"trial_n":38,"min":97,"max":158,"target":"present","response":"absent","rt":1135.3000000715,"correct":false,"confidence":3},{"trial_n":39,"min":95,"max":160,"target":"absent","response":"absent","rt":885.89999997616,"correct":true,"confidence":4},{"trial_n":40,"min":95,"max":160,"target":"absent","response":"absent","rt":1558.1000000238,"correct":true,"confidence":4},{"trial_n":41,"min":96,"max":159,"target":"present","response":"absent","rt":1199,"correct":false,"confidence":4},{"trial_n":42,"min":95,"max":160,"target":"present","response":"absent","rt":857.19999992847,"correct":false,"confidence":4},{"trial_n":43,"min":94,"max":161,"target":"present","response":"present","rt":1407.6000000238,"correct":true,"confidence":3},{"trial_n":44,"min":94,"max":161,"target":"absent","response":"absent","rt":1279.3999999762,"correct":true,"confidence":4},{"trial_n":45,"min":95,"max":160,"target":"absent","response":"present","rt":1508.7000000477,"correct":false,"confidence":3},{"trial_n":46,"min":94,"max":161,"target":"present","response":"absent","rt":1127.5,"correct":false,"confidence":3},{"trial_n":47,"min":93,"max":162,"target":"present","response":"present","rt":1057.8999999762,"correct":true,"confidence":4},{"trial_n":48,"min":93,"max":162,"target":"present","response":"absent","rt":898.79999995232,"correct":false,"confidence":2},{"trial_n":49,"min":92,"max":163,"target":"present","response":"present","rt":1186.7999999523,"correct":true,"confidence":4},{"trial_n":50,"min":92,"max":163,"target":"absent","response":"absent","rt":589.89999997616,"correct":true,"confidence":4},{"trial_n":51,"min":93,"max":162,"target":"absent","response":"absent","rt":1476.1999999285,"correct":true,"confidence":4},{"trial_n":52,"min":93,"max":162,"target":"present","response":"absent","rt":681.19999992847,"correct":false,"confidence":4},{"trial_n":53,"min":92,"max":163,"target":"present","response":"present","rt":1085.5,"correct":true,"confidence":5},{"trial_n":54,"min":92,"max":163,"target":"present","response":"present","rt":1519.7999999523,"correct":true,"confidence":4},{"trial_n":55,"min":93,"max":162,"target":"absent","response":"absent","rt":821.60000002384,"correct":true,"confidence":3},{"trial_n":56,"min":93,"max":162,"target":"absent","response":"absent","rt":990.39999997616,"correct":true,"confidence":4},{"trial_n":57,"min":94,"max":161,"target":"absent","response":"absent","rt":1682.3000000715,"correct":true,"confidence":2},{"trial_n":58,"min":94,"max":161,"target":"absent","response":"absent","rt":679.60000002384,"correct":true,"confidence":3},{"trial_n":59,"min":95,"max":160,"target":"absent","response":"absent","rt":1646.8999999762,"correct":true,"confidence":4},{"trial_n":60,"min":95,"max":160,"target":"absent","response":"present","rt":1181.1000000238,"correct":false,"confidence":2},{"trial_n":61,"min":94,"max":161,"target":"present","response":"present","rt":1484.0999999046,"correct":true,"confidence":3},{"trial_n":62,"min":94,"max":161,"target":"present","response":"absent","rt":1073.2999999523,"correct":false,"confidence":3},{"trial_n":63,"min":93,"max":162,"target":"absent","response":"absent","rt":3255.5,"correct":true,"confidence":4},{"trial_n":64,"min":93,"max":162,"target":"absent","response":"absent","rt":1195.5,"correct":true,"confidence":2},{"trial_n":65,"min":94,"max":161,"target":"present","response":"present","rt":2981.3999999762,"correct":true,"confidence":4},{"trial_n":66,"min":94,"max":161,"target":"absent","response":"absent","rt":2794.1000000238,"correct":true,"confidence":2},{"trial_n":67,"min":95,"max":160,"target":"absent","response":"absent","rt":1428.1000000238,"correct":true,"confidence":2},{"trial_n":68,"min":95,"max":160,"target":"present","response":"present","rt":1292.2000000477,"correct":true,"confidence":3},{"trial_n":69,"min":96,"max":159,"target":"absent","response":"absent","rt":805.59999990463,"correct":true,"confidence":3},{"trial_n":70,"min":96,"max":159,"target":"present","response":"absent","rt":1254.3000000715,"correct":false,"confidence":4},{"trial_n":71,"min":41,"max":214,"target":"present","response":"absent","rt":5039.7000000477,"correct":false,"confidence":-1},{"trial_n":72,"min":41,"max":214,"target":"present","response":"present","rt":3392.1000000238,"correct":true,"confidence":-1},{"trial_n":73,"min":41,"max":214,"target":"absent","response":"absent","rt":526,"correct":true,"confidence":-1},{"trial_n":74,"min":57,"max":198,"target":"absent","response":"absent","rt":473.60000002384,"correct":true,"confidence":-1},{"trial_n":75,"min":57,"max":198,"target":"present","response":"absent","rt":482.39999997616,"correct":false,"confidence":-1},{"trial_n":76,"min":41,"max":214,"target":"absent","response":"absent","rt":639.39999997616,"correct":true,"confidence":-1},{"trial_n":77,"min":41,"max":214,"target":"absent","response":"absent","rt":1181.1000000238,"correct":true,"confidence":-1},{"trial_n":78,"min":57,"max":198,"target":"present","response":"present","rt":258.5,"correct":true,"confidence":-1},{"trial_n":79,"min":57,"max":198,"target":"present","response":"present","rt":292.5,"correct":true,"confidence":-1},{"trial_n":80,"min":73,"max":182,"target":"present","response":"present","rt":133.39999997616,"correct":true,"confidence":-1},{"trial_n":81,"min":73,"max":182,"target":"present","response":"present","rt":1963.5,"correct":true,"confidence":-1},{"trial_n":82,"min":81,"max":174,"target":"absent","response":"absent","rt":496,"correct":true,"confidence":-1},{"trial_n":83,"min":81,"max":174,"target":"present","response":"present","rt":390.20000004768,"correct":true,"confidence":-1},{"trial_n":84,"min":89,"max":166,"target":"present","response":"present","rt":460.09999990463,"correct":true,"confidence":-1},{"trial_n":85,"min":89,"max":166,"target":"absent","response":"present","rt":349.60000002384,"correct":false,"confidence":-1},{"trial_n":86,"min":81,"max":174,"target":"absent","response":"absent","rt":413.80000007153,"correct":true,"confidence":-1},{"trial_n":87,"min":81,"max":174,"target":"present","response":"absent","rt":490.09999990463,"correct":false,"confidence":-1},{"trial_n":88,"min":73,"max":182,"target":"present","response":"present","rt":700.19999992847,"correct":true,"confidence":-1},{"trial_n":89,"min":73,"max":182,"target":"absent","response":"present","rt":483.69999992847,"correct":false,"confidence":-1},{"trial_n":90,"min":65,"max":190,"target":"present","response":"absent","rt":526,"correct":false,"confidence":-1},{"trial_n":91,"min":61,"max":194,"target":"present","response":"present","rt":771,"correct":true,"confidence":3},{"trial_n":92,"min":61,"max":194,"target":"absent","response":"absent","rt":661.19999992847,"correct":true,"confidence":4},{"trial_n":93,"min":65,"max":190,"target":"present","response":"absent","rt":1878.8000000715,"correct":false,"confidence":3},{"trial_n":94,"min":61,"max":194,"target":"absent","response":"absent","rt":653.10000002384,"correct":true,"confidence":5},{"trial_n":95,"min":61,"max":194,"target":"absent","response":"absent","rt":1560.3000000715,"correct":true,"confidence":5},{"trial_n":96,"min":65,"max":190,"target":"absent","response":"absent","rt":724.5,"correct":true,"confidence":5},{"trial_n":97,"min":65,"max":190,"target":"absent","response":"absent","rt":360.10000002384,"correct":true,"confidence":5},{"trial_n":98,"min":69,"max":186,"target":"present","response":"present","rt":408.39999997616,"correct":true,"confidence":5},{"trial_n":99,"min":69,"max":186,"target":"present","response":"present","rt":517,"correct":true,"confidence":1},{"trial_n":100,"min":73,"max":182,"target":"absent","response":"absent","rt":700.69999992847,"correct":true,"confidence":4},{"trial_n":101,"min":73,"max":182,"target":"absent","response":"absent","rt":2751.6000000238,"correct":true,"confidence":4},{"trial_n":102,"min":75,"max":180,"target":"absent","response":"absent","rt":601.39999997616,"correct":true,"confidence":5},{"trial_n":103,"min":75,"max":180,"target":"present","response":"present","rt":374.39999997616,"correct":true,"confidence":5},{"trial_n":104,"min":77,"max":178,"target":"absent","response":"absent","rt":870.59999990463,"correct":true,"confidence":4},{"trial_n":105,"min":77,"max":178,"target":"absent","response":"absent","rt":1134,"correct":true,"confidence":5},{"trial_n":106,"min":79,"max":176,"target":"present","response":"present","rt":713.5,"correct":true,"confidence":4},{"trial_n":107,"min":79,"max":176,"target":"present","response":"present","rt":662.5,"correct":true,"confidence":4},{"trial_n":108,"min":81,"max":174,"target":"present","response":"present","rt":510.20000004768,"correct":true,"confidence":4},{"trial_n":109,"min":81,"max":174,"target":"present","response":"present","rt":1264.2000000477,"correct":true,"confidence":4},{"trial_n":110,"min":83,"max":172,"target":"absent","response":"absent","rt":1013.8999999762,"correct":true,"confidence":4},{"trial_n":111,"min":83,"max":172,"target":"absent","response":"absent","rt":1709.3999999762,"correct":true,"confidence":1},{"trial_n":112,"min":84,"max":171,"target":"absent","response":"absent","rt":1479.8999999762,"correct":true,"confidence":3},{"trial_n":113,"min":84,"max":171,"target":"absent","response":"absent","rt":1052.7000000477,"correct":true,"confidence":4},{"trial_n":114,"min":85,"max":170,"target":"absent","response":"absent","rt":894.30000007153,"correct":true,"confidence":4},{"trial_n":115,"min":85,"max":170,"target":"present","response":"present","rt":325.89999997616,"correct":true,"confidence":4},{"trial_n":116,"min":86,"max":169,"target":"absent","response":"absent","rt":879.60000002384,"correct":true,"confidence":4},{"trial_n":117,"min":86,"max":169,"target":"present","response":"present","rt":424.5,"correct":true,"confidence":4},{"trial_n":118,"min":87,"max":168,"target":"present","response":"absent","rt":2182.6000000238,"correct":false,"confidence":1},{"trial_n":119,"min":86,"max":169,"target":"present","response":"present","rt":428.69999992847,"correct":true,"confidence":3},{"trial_n":120,"min":86,"max":169,"target":"present","response":"present","rt":1085.9000000954,"correct":true,"confidence":4},{"trial_n":121,"min":87,"max":168,"target":"absent","response":"present","rt":2080,"correct":false,"confidence":1},{"trial_n":122,"min":86,"max":169,"target":"present","response":"present","rt":272.89999997616,"correct":true,"confidence":5},{"trial_n":123,"min":86,"max":169,"target":"absent","response":"absent","rt":875.09999990463,"correct":true,"confidence":4},{"trial_n":124,"min":87,"max":168,"target":"present","response":"present","rt":1805,"correct":true,"confidence":2},{"trial_n":125,"min":87,"max":168,"target":"absent","response":"present","rt":1583.8999999762,"correct":false,"confidence":1},{"trial_n":126,"min":86,"max":169,"target":"present","response":"present","rt":1065.8999999762,"correct":true,"confidence":1},{"trial_n":127,"min":86,"max":169,"target":"present","response":"present","rt":530.5,"correct":true,"confidence":3},{"trial_n":128,"min":87,"max":168,"target":"present","response":"present","rt":924,"correct":true,"confidence":4},{"trial_n":129,"min":87,"max":168,"target":"present","response":"present","rt":1055.8000000715,"correct":true,"confidence":2},{"trial_n":130,"min":88,"max":167,"target":"present","response":"present","rt":446.60000002384,"correct":true,"confidence":5},{"trial_n":131,"min":88,"max":167,"target":"absent","response":"present","rt":960.19999992847,"correct":false,"confidence":1},{"trial_n":132,"min":87,"max":168,"target":"absent","response":"present","rt":590.29999995232,"correct":false,"confidence":1},{"trial_n":133,"min":86,"max":169,"target":"present","response":"present","rt":626.19999992847,"correct":true,"confidence":3},{"trial_n":134,"min":86,"max":169,"target":"absent","response":"absent","rt":758.39999997616,"correct":true,"confidence":4},{"trial_n":135,"min":87,"max":168,"target":"absent","response":"absent","rt":843.29999995232,"correct":true,"confidence":3},{"trial_n":136,"min":87,"max":168,"target":"absent","response":"present","rt":781.5,"correct":false,"confidence":1},{"trial_n":137,"min":86,"max":169,"target":"present","response":"present","rt":1221.6000000238,"correct":true,"confidence":4},{"trial_n":138,"min":86,"max":169,"target":"absent","response":"absent","rt":2830.8000000715,"correct":true,"confidence":1},{"trial_n":139,"min":87,"max":168,"target":"absent","response":"absent","rt":971.70000004768,"correct":true,"confidence":1},{"trial_n":140,"min":87,"max":168,"target":"present","response":"present","rt":715.70000004768,"correct":true,"confidence":3}]