[{"trial_n":1,"min":25,"max":230,"target":"present","response":"absent","rt":20017.400000036,"correct":false,"confidence":-1},{"trial_n":2,"min":25,"max":230,"target":"present","response":"present","rt":2472.3000000119,"correct":true,"confidence":-1},{"trial_n":3,"min":25,"max":230,"target":"absent","response":"absent","rt":785.70000004768,"correct":true,"confidence":-1},{"trial_n":4,"min":41,"max":214,"target":"absent","response":"absent","rt":1027.1000000238,"correct":true,"confidence":-1},{"trial_n":5,"min":41,"max":214,"target":"present","response":"present","rt":1710.1000000238,"correct":true,"confidence":-1},{"trial_n":6,"min":57,"max":198,"target":"present","response":"absent","rt":888.30000001192,"correct":false,"confidence":-1},{"trial_n":7,"min":41,"max":214,"target":"absent","response":"absent","rt":1139.1999999881,"correct":true,"confidence":-1},{"trial_n":8,"min":41,"max":214,"target":"present","response":"absent","rt":612.5,"correct":false,"confidence":-1},{"trial_n":9,"min":25,"max":230,"target":"absent","response":"absent","rt":1454.2000000477,"correct":true,"confidence":-1},{"trial_n":10,"min":25,"max":230,"target":"absent","response":"absent","rt":1002.6999999881,"correct":true,"confidence":-1},{"trial_n":11,"min":33,"max":222,"target":"present","response":"absent","rt":775.19999998808,"correct":false,"confidence":-1},{"trial_n":12,"min":25,"max":230,"target":"absent","response":"absent","rt":737.89999997616,"correct":true,"confidence":-1},{"trial_n":13,"min":25,"max":230,"target":"absent","response":"absent","rt":1018.7000000477,"correct":true,"confidence":-1},{"trial_n":14,"min":33,"max":222,"target":"absent","response":"absent","rt":551.5,"correct":true,"confidence":-1},{"trial_n":15,"min":33,"max":222,"target":"present","response":"present","rt":595.5,"correct":true,"confidence":-1},{"trial_n":16,"min":41,"max":214,"target":"present","response":"present","rt":621.40000003576,"correct":true,"confidence":-1},{"trial_n":17,"min":41,"max":214,"target":"present","response":"present","rt":562.40000003576,"correct":true,"confidence":-1},{"trial_n":18,"min":49,"max":206,"target":"present","response":"present","rt":566.40000003576,"correct":true,"confidence":-1},{"trial_n":19,"min":49,"max":206,"target":"present","response":"present","rt":583.19999998808,"correct":true,"confidence":-1},{"trial_n":20,"min":57,"max":198,"target":"present","response":"present","rt":329.19999998808,"correct":true,"confidence":-1},{"trial_n":21,"min":57,"max":198,"target":"absent","response":"absent","rt":923.80000001192,"correct":true,"confidence":5},{"trial_n":22,"min":61,"max":194,"target":"present","response":"present","rt":2954.5,"correct":true,"confidence":5},{"trial_n":23,"min":61,"max":194,"target":"present","response":"present","rt":1760.3000000119,"correct":true,"confidence":5},{"trial_n":24,"min":65,"max":190,"target":"absent","response":"absent","rt":1634.1000000238,"correct":true,"confidence":5},{"trial_n":25,"min":65,"max":190,"target":"absent","response":"absent","rt":1061.0999999642,"correct":true,"confidence":5},{"trial_n":26,"min":69,"max":186,"target":"absent","response":"absent","rt":2936.1999999881,"correct":true,"confidence":5},{"trial_n":27,"min":69,"max":186,"target":"absent","response":"absent","rt":1234.1999999881,"correct":true,"confidence":5},{"trial_n":28,"min":73,"max":182,"target":"absent","response":"absent","rt":1663,"correct":true,"confidence":5},{"trial_n":29,"min":73,"max":182,"target":"present","response":"absent","rt":2993.6000000238,"correct":false,"confidence":3},{"trial_n":30,"min":69,"max":186,"target":"absent","response":"absent","rt":3112.1000000238,"correct":true,"confidence":3},{"trial_n":31,"min":69,"max":186,"target":"absent","response":"absent","rt":2040.8000000119,"correct":true,"confidence":5},{"trial_n":32,"min":71,"max":184,"target":"absent","response":"absent","rt":3078.9000000358,"correct":true,"confidence":5},{"trial_n":33,"min":71,"max":184,"target":"absent","response":"absent","rt":868.69999998808,"correct":true,"confidence":5},{"trial_n":34,"min":73,"max":182,"target":"present","response":"present","rt":1125.5,"correct":true,"confidence":4},{"trial_n":35,"min":73,"max":182,"target":"present","response":"absent","rt":1071,"correct":false,"confidence":4},{"trial_n":36,"min":71,"max":184,"target":"absent","response":"absent","rt":1296.0999999642,"correct":true,"confidence":5},{"trial_n":37,"min":71,"max":184,"target":"absent","response":"absent","rt":808.30000001192,"correct":true,"confidence":5},{"trial_n":38,"min":73,"max":182,"target":"present","response":"absent","rt":945.09999996424,"correct":false,"confidence":5},{"trial_n":39,"min":71,"max":184,"target":"present","response":"absent","rt":1601.5999999642,"correct":false,"confidence":5},{"trial_n":40,"min":69,"max":186,"target":"present","response":"present","rt":1192.3999999762,"correct":true,"confidence":4},{"trial_n":41,"min":69,"max":186,"target":"present","response":"absent","rt":1548.8999999762,"correct":false,"confidence":5},{"trial_n":42,"min":68,"max":187,"target":"present","response":"present","rt":1476.7999999523,"correct":true,"confidence":5},{"trial_n":43,"min":68,"max":187,"target":"present","response":"present","rt":1088.7999999523,"correct":true,"confidence":5},{"trial_n":44,"min":69,"max":186,"target":"absent","response":"absent","rt":1037.6000000238,"correct":true,"confidence":5},{"trial_n":45,"min":69,"max":186,"target":"present","response":"present","rt":2092.1999999881,"correct":true,"confidence":4},{"trial_n":46,"min":70,"max":185,"target":"present","response":"present","rt":1742.3999999762,"correct":true,"confidence":5},{"trial_n":47,"min":70,"max":185,"target":"absent","response":"absent","rt":955,"correct":true,"confidence":4},{"trial_n":48,"min":71,"max":184,"target":"present","response":"present","rt":1492.1999999881,"correct":true,"confidence":4},{"trial_n":49,"min":71,"max":184,"target":"absent","response":"absent","rt":938.39999997616,"correct":true,"confidence":5},{"trial_n":50,"min":72,"max":183,"target":"present","response":"absent","rt":3341.2000000477,"correct":false,"confidence":4},{"trial_n":51,"min":71,"max":184,"target":"absent","response":"absent","rt":926.80000001192,"correct":true,"confidence":5},{"trial_n":52,"min":71,"max":184,"target":"absent","response":"absent","rt":797.70000004768,"correct":true,"confidence":5},{"trial_n":53,"min":72,"max":183,"target":"absent","response":"absent","rt":13374.699999988,"correct":true,"confidence":5},{"trial_n":54,"min":72,"max":183,"target":"present","response":"present","rt":2448.0999999642,"correct":true,"confidence":5},{"trial_n":55,"min":73,"max":182,"target":"present","response":"present","rt":1011.8000000119,"correct":true,"confidence":5},{"trial_n":56,"min":73,"max":182,"target":"absent","response":"absent","rt":1937,"correct":true,"confidence":3},{"trial_n":57,"min":74,"max":181,"target":"absent","response":"present","rt":4729.5,"correct":false,"confidence":3},{"trial_n":58,"min":73,"max":182,"target":"absent","response":"absent","rt":784.30000001192,"correct":true,"confidence":5},{"trial_n":59,"min":73,"max":182,"target":"present","response":"present","rt":1864.0999999642,"correct":true,"confidence":5},{"trial_n":60,"min":74,"max":181,"target":"absent","response":"present","rt":2106.6999999881,"correct":false,"confidence":5},{"trial_n":61,"min":73,"max":182,"target":"present","response":"present","rt":1785.5,"correct":true,"confidence":3},{"trial_n":62,"min":73,"max":182,"target":"absent","response":"absent","rt":16478.699999988,"correct":true,"confidence":2},{"trial_n":63,"min":74,"max":181,"target":"absent","response":"present","rt":4655.0999999642,"correct":false,"confidence":2},{"trial_n":64,"min":73,"max":182,"target":"present","response":"present","rt":1444.8000000119,"correct":true,"confidence":4},{"trial_n":65,"min":73,"max":182,"target":"present","response":"present","rt":1273.8999999762,"correct":true,"confidence":5},{"trial_n":66,"min":74,"max":181,"target":"present","response":"present","rt":1109.5,"correct":true,"confidence":5},{"trial_n":67,"min":74,"max":181,"target":"present","response":"present","rt":1158.6999999881,"correct":true,"confidence":5},{"trial_n":68,"min":75,"max":180,"target":"present","response":"present","rt":1178.6000000238,"correct":true,"confidence":5},{"trial_n":69,"min":75,"max":180,"target":"absent","response":"present","rt":2112,"correct":false,"confidence":4},{"trial_n":70,"min":74,"max":181,"target":"absent","response":"absent","rt":1427.4000000358,"correct":true,"confidence":4},{"trial_n":71,"min":41,"max":214,"target":"present","response":"absent","rt":5402,"correct":false,"confidence":-1},{"trial_n":72,"min":41,"max":214,"target":"present","response":"present","rt":1497.6000000238,"correct":true,"confidence":-1},{"trial_n":73,"min":41,"max":214,"target":"absent","response":"absent","rt":1144.6999999881,"correct":true,"confidence":-1},{"trial_n":74,"min":57,"max":198,"target":"absent","response":"absent","rt":1885.1999999881,"correct":true,"confidence":-1},{"trial_n":75,"min":57,"max":198,"target":"present","response":"present","rt":654.19999998808,"correct":true,"confidence":-1},{"trial_n":76,"min":73,"max":182,"target":"absent","response":"absent","rt":1238.8999999762,"correct":true,"confidence":-1},{"trial_n":77,"min":73,"max":182,"target":"absent","response":"absent","rt":1125.1999999881,"correct":true,"confidence":-1},{"trial_n":78,"min":89,"max":166,"target":"present","response":"absent","rt":999.10000002384,"correct":false,"confidence":-1},{"trial_n":79,"min":73,"max":182,"target":"present","response":"present","rt":921.30000001192,"correct":true,"confidence":-1},{"trial_n":80,"min":73,"max":182,"target":"present","response":"present","rt":776.29999995232,"correct":true,"confidence":-1},{"trial_n":81,"min":81,"max":174,"target":"present","response":"present","rt":1021.6999999881,"correct":true,"confidence":-1},{"trial_n":82,"min":81,"max":174,"target":"present","response":"present","rt":742.5,"correct":true,"confidence":-1},{"trial_n":83,"min":89,"max":166,"target":"present","response":"present","rt":1052.1999999881,"correct":true,"confidence":-1},{"trial_n":84,"min":89,"max":166,"target":"present","response":"absent","rt":1005.4000000358,"correct":false,"confidence":-1},{"trial_n":85,"min":81,"max":174,"target":"absent","response":"absent","rt":922.39999997616,"correct":true,"confidence":-1},{"trial_n":86,"min":81,"max":174,"target":"present","response":"present","rt":879.70000004768,"correct":true,"confidence":-1},{"trial_n":87,"min":89,"max":166,"target":"absent","response":"present","rt":1074.6999999881,"correct":false,"confidence":-1},{"trial_n":88,"min":81,"max":174,"target":"absent","response":"absent","rt":943.5,"correct":true,"confidence":-1},{"trial_n":89,"min":81,"max":174,"target":"absent","response":"present","rt":1081.5,"correct":false,"confidence":-1},{"trial_n":90,"min":73,"max":182,"target":"present","response":"present","rt":706.60000002384,"correct":true,"confidence":-1},{"trial_n":91,"min":73,"max":182,"target":"present","response":"present","rt":817.20000004768,"correct":true,"confidence":5},{"trial_n":92,"min":77,"max":178,"target":"present","response":"present","rt":783,"correct":true,"confidence":5},{"trial_n":93,"min":77,"max":178,"target":"present","response":"present","rt":728.60000002384,"correct":true,"confidence":5},{"trial_n":94,"min":81,"max":174,"target":"present","response":"absent","rt":2817.3999999762,"correct":false,"confidence":4},{"trial_n":95,"min":77,"max":178,"target":"absent","response":"absent","rt":882.80000001192,"correct":true,"confidence":4},{"trial_n":96,"min":77,"max":178,"target":"present","response":"present","rt":778.5,"correct":true,"confidence":4},{"trial_n":97,"min":81,"max":174,"target":"absent","response":"absent","rt":1100.5999999642,"correct":true,"confidence":4},{"trial_n":98,"min":81,"max":174,"target":"present","response":"present","rt":1384,"correct":true,"confidence":4},{"trial_n":99,"min":85,"max":170,"target":"absent","response":"absent","rt":1360.8999999762,"correct":true,"confidence":1},{"trial_n":100,"min":85,"max":170,"target":"present","response":"present","rt":4986.8000000119,"correct":true,"confidence":4},{"trial_n":101,"min":87,"max":168,"target":"absent","response":"absent","rt":2764.8000000119,"correct":true,"confidence":2},{"trial_n":102,"min":87,"max":168,"target":"present","response":"present","rt":588.5,"correct":true,"confidence":4},{"trial_n":103,"min":89,"max":166,"target":"absent","response":"present","rt":1551.8999999762,"correct":false,"confidence":2},{"trial_n":104,"min":87,"max":168,"target":"present","response":"present","rt":1520.5,"correct":true,"confidence":2},{"trial_n":105,"min":87,"max":168,"target":"absent","response":"absent","rt":2341.6999999881,"correct":true,"confidence":2},{"trial_n":106,"min":89,"max":166,"target":"absent","response":"present","rt":4741.1999999881,"correct":false,"confidence":2},{"trial_n":107,"min":87,"max":168,"target":"present","response":"present","rt":771.60000002384,"correct":true,"confidence":5},{"trial_n":108,"min":87,"max":168,"target":"present","response":"absent","rt":2499.5,"correct":false,"confidence":3},{"trial_n":109,"min":85,"max":170,"target":"present","response":"present","rt":1078,"correct":true,"confidence":4},{"trial_n":110,"min":85,"max":170,"target":"absent","response":"absent","rt":994.80000001192,"correct":true,"confidence":4},{"trial_n":111,"min":86,"max":169,"target":"absent","response":"present","rt":1628.1999999881,"correct":false,"confidence":4},{"trial_n":112,"min":85,"max":170,"target":"present","response":"present","rt":949.30000001192,"correct":true,"confidence":4},{"trial_n":113,"min":85,"max":170,"target":"absent","response":"absent","rt":2545.6999999881,"correct":true,"confidence":3},{"trial_n":114,"min":86,"max":169,"target":"present","response":"present","rt":1245,"correct":true,"confidence":5},{"trial_n":115,"min":86,"max":169,"target":"present","response":"present","rt":864.09999996424,"correct":true,"confidence":5},{"trial_n":116,"min":87,"max":168,"target":"absent","response":"present","rt":4906.0999999642,"correct":false,"confidence":1},{"trial_n":117,"min":86,"max":169,"target":"absent","response":"present","rt":465,"correct":false,"confidence":4},{"trial_n":118,"min":85,"max":170,"target":"present","response":"present","rt":1034.6000000238,"correct":true,"confidence":5},{"trial_n":119,"min":85,"max":170,"target":"absent","response":"present","rt":1023.3999999762,"correct":false,"confidence":1},{"trial_n":120,"min":84,"max":171,"target":"absent","response":"present","rt":2555.0999999642,"correct":false,"confidence":2},{"trial_n":121,"min":83,"max":172,"target":"present","response":"present","rt":3624.8000000119,"correct":true,"confidence":1},{"trial_n":122,"min":83,"max":172,"target":"absent","response":"present","rt":1119.1999999881,"correct":false,"confidence":3},{"trial_n":123,"min":82,"max":173,"target":"present","response":"present","rt":918.59999996424,"correct":true,"confidence":4},{"trial_n":124,"min":82,"max":173,"target":"absent","response":"present","rt":2118.1000000238,"correct":false,"confidence":1},{"trial_n":125,"min":81,"max":174,"target":"present","response":"present","rt":1714.8000000119,"correct":true,"confidence":4},{"trial_n":126,"min":81,"max":174,"target":"present","response":"present","rt":1572,"correct":true,"confidence":5},{"trial_n":127,"min":82,"max":173,"target":"absent","response":"absent","rt":2037.1000000238,"correct":true,"confidence":3},{"trial_n":128,"min":82,"max":173,"target":"absent","response":"present","rt":1437.7000000477,"correct":false,"confidence":1},{"trial_n":129,"min":81,"max":174,"target":"absent","response":"present","rt":781.5,"correct":false,"confidence":1},{"trial_n":130,"min":80,"max":175,"target":"absent","response":"present","rt":3331.3000000119,"correct":false,"confidence":2},{"trial_n":131,"min":79,"max":176,"target":"absent","response":"present","rt":883.89999997616,"correct":false,"confidence":5},{"trial_n":132,"min":78,"max":177,"target":"present","response":"present","rt":722.90000003576,"correct":true,"confidence":5},{"trial_n":133,"min":78,"max":177,"target":"absent","response":"absent","rt":1558.1999999881,"correct":true,"confidence":4},{"trial_n":134,"min":79,"max":176,"target":"present","response":"present","rt":637.79999995232,"correct":true,"confidence":5},{"trial_n":135,"min":79,"max":176,"target":"absent","response":"absent","rt":927.30000001192,"correct":true,"confidence":3},{"trial_n":136,"min":80,"max":175,"target":"absent","response":"absent","rt":1261.3000000119,"correct":true,"confidence":4},{"trial_n":137,"min":80,"max":175,"target":"absent","response":"present","rt":1849,"correct":false,"confidence":4},{"trial_n":138,"min":79,"max":176,"target":"present","response":"present","rt":648.60000002384,"correct":true,"confidence":5},{"trial_n":139,"min":79,"max":176,"target":"absent","response":"absent","rt":823,"correct":true,"confidence":3},{"trial_n":140,"min":80,"max":175,"target":"present","response":"present","rt":637.69999998808,"correct":true,"confidence":5}]