[{"trial_n":1,"min":25,"max":230,"target":"present","response":"present","rt":8812.799999997,"correct":true,"confidence":-1},{"trial_n":2,"min":25,"max":230,"target":"present","response":"present","rt":2736.1000000089,"correct":true,"confidence":-1},{"trial_n":3,"min":41,"max":214,"target":"absent","response":"present","rt":1277.3999999911,"correct":false,"confidence":-1},{"trial_n":4,"min":25,"max":230,"target":"absent","response":"present","rt":2781.299999997,"correct":false,"confidence":-1},{"trial_n":5,"min":9,"max":246,"target":"present","response":"present","rt":2345.799999997,"correct":true,"confidence":-1},{"trial_n":6,"min":9,"max":246,"target":"present","response":"present","rt":925.79999999702,"correct":true,"confidence":-1},{"trial_n":7,"min":25,"max":230,"target":"absent","response":"absent","rt":1489,"correct":true,"confidence":-1},{"trial_n":8,"min":25,"max":230,"target":"present","response":"present","rt":820.40000000596,"correct":true,"confidence":-1},{"trial_n":9,"min":41,"max":214,"target":"absent","response":"absent","rt":1195.299999997,"correct":true,"confidence":-1},{"trial_n":10,"min":41,"max":214,"target":"absent","response":"absent","rt":827.39999999106,"correct":true,"confidence":-1},{"trial_n":11,"min":49,"max":206,"target":"present","response":"present","rt":980.09999999404,"correct":true,"confidence":-1},{"trial_n":12,"min":49,"max":206,"target":"absent","response":"absent","rt":864.70000000298,"correct":true,"confidence":-1},{"trial_n":13,"min":57,"max":198,"target":"absent","response":"absent","rt":750.5,"correct":true,"confidence":-1},{"trial_n":14,"min":57,"max":198,"target":"present","response":"present","rt":829.09999999404,"correct":true,"confidence":-1},{"trial_n":15,"min":65,"max":190,"target":"present","response":"present","rt":1031.700000003,"correct":true,"confidence":-1},{"trial_n":16,"min":65,"max":190,"target":"absent","response":"absent","rt":860.79999999702,"correct":true,"confidence":-1},{"trial_n":17,"min":73,"max":182,"target":"absent","response":"absent","rt":843.10000000894,"correct":true,"confidence":-1},{"trial_n":18,"min":73,"max":182,"target":"present","response":"present","rt":1227.3999999911,"correct":true,"confidence":-1},{"trial_n":19,"min":81,"max":174,"target":"present","response":"present","rt":875.79999999702,"correct":true,"confidence":-1},{"trial_n":20,"min":81,"max":174,"target":"absent","response":"present","rt":1174.200000003,"correct":false,"confidence":-1},{"trial_n":21,"min":77,"max":178,"target":"absent","response":"absent","rt":1364.5,"correct":true,"confidence":4},{"trial_n":22,"min":77,"max":178,"target":"present","response":"present","rt":2900.5,"correct":true,"confidence":5},{"trial_n":23,"min":81,"max":174,"target":"present","response":"present","rt":1762,"correct":true,"confidence":5},{"trial_n":24,"min":81,"max":174,"target":"present","response":"present","rt":1488,"correct":true,"confidence":5},{"trial_n":25,"min":85,"max":170,"target":"present","response":"present","rt":1489.6000000089,"correct":true,"confidence":5},{"trial_n":26,"min":85,"max":170,"target":"absent","response":"absent","rt":1281.400000006,"correct":true,"confidence":3},{"trial_n":27,"min":89,"max":166,"target":"present","response":"present","rt":3211.1000000089,"correct":true,"confidence":3},{"trial_n":28,"min":89,"max":166,"target":"absent","response":"absent","rt":922.70000000298,"correct":true,"confidence":4},{"trial_n":29,"min":93,"max":162,"target":"absent","response":"absent","rt":997.29999999702,"correct":true,"confidence":5},{"trial_n":30,"min":93,"max":162,"target":"present","response":"absent","rt":9609.200000003,"correct":false,"confidence":4},{"trial_n":31,"min":91,"max":164,"target":"absent","response":"absent","rt":6965.1000000089,"correct":true,"confidence":3},{"trial_n":32,"min":91,"max":164,"target":"absent","response":"present","rt":2892.599999994,"correct":false,"confidence":3},{"trial_n":33,"min":89,"max":166,"target":"present","response":"absent","rt":980.5,"correct":false,"confidence":4},{"trial_n":34,"min":87,"max":168,"target":"present","response":"present","rt":1582.5,"correct":true,"confidence":3},{"trial_n":35,"min":87,"max":168,"target":"absent","response":"present","rt":6345.599999994,"correct":false,"confidence":3},{"trial_n":36,"min":85,"max":170,"target":"absent","response":"absent","rt":1844.8999999911,"correct":true,"confidence":3},{"trial_n":37,"min":85,"max":170,"target":"present","response":"present","rt":1508.5,"correct":true,"confidence":4},{"trial_n":38,"min":87,"max":168,"target":"absent","response":"absent","rt":1237.5,"correct":true,"confidence":4},{"trial_n":39,"min":87,"max":168,"target":"present","response":"present","rt":890.5,"correct":true,"confidence":5},{"trial_n":40,"min":89,"max":166,"target":"present","response":"absent","rt":868.79999999702,"correct":false,"confidence":4},{"trial_n":41,"min":88,"max":167,"target":"absent","response":"absent","rt":1241.299999997,"correct":true,"confidence":4},{"trial_n":42,"min":88,"max":167,"target":"present","response":"absent","rt":984.29999999702,"correct":false,"confidence":4},{"trial_n":43,"min":87,"max":168,"target":"absent","response":"absent","rt":2120.3999999911,"correct":true,"confidence":4},{"trial_n":44,"min":87,"max":168,"target":"present","response":"absent","rt":1481.1000000089,"correct":false,"confidence":4},{"trial_n":45,"min":86,"max":169,"target":"present","response":"absent","rt":945.19999998808,"correct":false,"confidence":4},{"trial_n":46,"min":85,"max":170,"target":"present","response":"absent","rt":2115.900000006,"correct":false,"confidence":2},{"trial_n":47,"min":84,"max":171,"target":"absent","response":"absent","rt":2001.1000000089,"correct":true,"confidence":3},{"trial_n":48,"min":84,"max":171,"target":"absent","response":"present","rt":946.79999999702,"correct":false,"confidence":3},{"trial_n":49,"min":83,"max":172,"target":"absent","response":"absent","rt":2191.099999994,"correct":true,"confidence":3},{"trial_n":50,"min":83,"max":172,"target":"present","response":"present","rt":1175.799999997,"correct":true,"confidence":4},{"trial_n":51,"min":84,"max":171,"target":"present","response":"present","rt":805.39999999106,"correct":true,"confidence":5},{"trial_n":52,"min":84,"max":171,"target":"absent","response":"absent","rt":1799.5,"correct":true,"confidence":3},{"trial_n":53,"min":85,"max":170,"target":"absent","response":"absent","rt":3546.900000006,"correct":true,"confidence":3},{"trial_n":54,"min":85,"max":170,"target":"present","response":"present","rt":1563.900000006,"correct":true,"confidence":5},{"trial_n":55,"min":86,"max":169,"target":"absent","response":"absent","rt":2207.1000000089,"correct":true,"confidence":4},{"trial_n":56,"min":86,"max":169,"target":"absent","response":"absent","rt":1724.299999997,"correct":true,"confidence":3},{"trial_n":57,"min":87,"max":168,"target":"present","response":"present","rt":1576.900000006,"correct":true,"confidence":4},{"trial_n":58,"min":87,"max":168,"target":"absent","response":"absent","rt":1162.599999994,"correct":true,"confidence":4},{"trial_n":59,"min":88,"max":167,"target":"absent","response":"present","rt":1310,"correct":false,"confidence":3},{"trial_n":60,"min":87,"max":168,"target":"absent","response":"absent","rt":1214.299999997,"correct":true,"confidence":4},{"trial_n":61,"min":87,"max":168,"target":"present","response":"present","rt":1545.1999999881,"correct":true,"confidence":4},{"trial_n":62,"min":88,"max":167,"target":"absent","response":"absent","rt":1276.900000006,"correct":true,"confidence":4},{"trial_n":63,"min":88,"max":167,"target":"present","response":"present","rt":1314.6999999881,"correct":true,"confidence":5},{"trial_n":64,"min":89,"max":166,"target":"present","response":"present","rt":1131.1000000089,"correct":true,"confidence":5},{"trial_n":65,"min":89,"max":166,"target":"absent","response":"absent","rt":1169.099999994,"correct":true,"confidence":3},{"trial_n":66,"min":90,"max":165,"target":"present","response":"present","rt":1174.400000006,"correct":true,"confidence":5},{"trial_n":67,"min":90,"max":165,"target":"present","response":"present","rt":898.70000000298,"correct":true,"confidence":5},{"trial_n":68,"min":91,"max":164,"target":"present","response":"present","rt":1352.6000000089,"correct":true,"confidence":3},{"trial_n":69,"min":91,"max":164,"target":"absent","response":"present","rt":1169.299999997,"correct":false,"confidence":3},{"trial_n":70,"min":90,"max":165,"target":"present","response":"present","rt":1372.3999999911,"correct":true,"confidence":4},{"trial_n":71,"min":41,"max":214,"target":"present","response":"present","rt":5664.299999997,"correct":true,"confidence":-1},{"trial_n":72,"min":41,"max":214,"target":"present","response":"present","rt":648.09999999404,"correct":true,"confidence":-1},{"trial_n":73,"min":57,"max":198,"target":"absent","response":"absent","rt":1127.3999999911,"correct":true,"confidence":-1},{"trial_n":74,"min":57,"max":198,"target":"absent","response":"present","rt":566.89999999106,"correct":false,"confidence":-1},{"trial_n":75,"min":41,"max":214,"target":"present","response":"present","rt":559,"correct":true,"confidence":-1},{"trial_n":76,"min":41,"max":214,"target":"absent","response":"absent","rt":441.5,"correct":true,"confidence":-1},{"trial_n":77,"min":57,"max":198,"target":"absent","response":"absent","rt":485.40000000596,"correct":true,"confidence":-1},{"trial_n":78,"min":57,"max":198,"target":"absent","response":"absent","rt":474.79999999702,"correct":true,"confidence":-1},{"trial_n":79,"min":73,"max":182,"target":"present","response":"present","rt":438.29999999702,"correct":true,"confidence":-1},{"trial_n":80,"min":73,"max":182,"target":"present","response":"present","rt":1119.5,"correct":true,"confidence":-1},{"trial_n":81,"min":81,"max":174,"target":"present","response":"absent","rt":581.69999998808,"correct":false,"confidence":-1},{"trial_n":82,"min":73,"max":182,"target":"present","response":"present","rt":968.90000000596,"correct":true,"confidence":-1},{"trial_n":83,"min":73,"max":182,"target":"present","response":"present","rt":464.40000000596,"correct":true,"confidence":-1},{"trial_n":84,"min":81,"max":174,"target":"absent","response":"present","rt":1153.200000003,"correct":false,"confidence":-1},{"trial_n":85,"min":73,"max":182,"target":"absent","response":"absent","rt":585.80000001192,"correct":true,"confidence":-1},{"trial_n":86,"min":73,"max":182,"target":"absent","response":"absent","rt":418.70000000298,"correct":true,"confidence":-1},{"trial_n":87,"min":81,"max":174,"target":"absent","response":"absent","rt":712.80000001192,"correct":true,"confidence":-1},{"trial_n":88,"min":81,"max":174,"target":"present","response":"present","rt":347.09999999404,"correct":true,"confidence":-1},{"trial_n":89,"min":89,"max":166,"target":"present","response":"absent","rt":1188.700000003,"correct":false,"confidence":-1},{"trial_n":90,"min":81,"max":174,"target":"present","response":"present","rt":425.10000000894,"correct":true,"confidence":-1},{"trial_n":91,"min":81,"max":174,"target":"present","response":"present","rt":460.09999999404,"correct":true,"confidence":5},{"trial_n":92,"min":85,"max":170,"target":"present","response":"present","rt":483,"correct":true,"confidence":5},{"trial_n":93,"min":85,"max":170,"target":"absent","response":"absent","rt":695.5,"correct":true,"confidence":5},{"trial_n":94,"min":89,"max":166,"target":"present","response":"present","rt":424.70000000298,"correct":true,"confidence":5},{"trial_n":95,"min":89,"max":166,"target":"present","response":"present","rt":664,"correct":true,"confidence":3},{"trial_n":96,"min":93,"max":162,"target":"absent","response":"present","rt":1099.799999997,"correct":false,"confidence":2},{"trial_n":97,"min":89,"max":166,"target":"present","response":"absent","rt":1106.299999997,"correct":false,"confidence":3},{"trial_n":98,"min":85,"max":170,"target":"absent","response":"present","rt":105126,"correct":false,"confidence":1},{"trial_n":99,"min":81,"max":174,"target":"present","response":"present","rt":437.79999999702,"correct":true,"confidence":5},{"trial_n":100,"min":81,"max":174,"target":"present","response":"present","rt":483.10000000894,"correct":true,"confidence":5},{"trial_n":101,"min":83,"max":172,"target":"absent","response":"absent","rt":736.59999999404,"correct":true,"confidence":5},{"trial_n":102,"min":83,"max":172,"target":"absent","response":"absent","rt":939.89999999106,"correct":true,"confidence":5},{"trial_n":103,"min":85,"max":170,"target":"present","response":"present","rt":452.89999999106,"correct":true,"confidence":4},{"trial_n":104,"min":85,"max":170,"target":"absent","response":"absent","rt":1447.6000000089,"correct":true,"confidence":3},{"trial_n":105,"min":87,"max":168,"target":"present","response":"absent","rt":532.5,"correct":false,"confidence":4},{"trial_n":106,"min":85,"max":170,"target":"present","response":"absent","rt":1873.3000000119,"correct":false,"confidence":4},{"trial_n":107,"min":83,"max":172,"target":"absent","response":"present","rt":2811.299999997,"correct":false,"confidence":1},{"trial_n":108,"min":81,"max":174,"target":"present","response":"present","rt":681.90000000596,"correct":true,"confidence":3},{"trial_n":109,"min":81,"max":174,"target":"present","response":"present","rt":367.40000000596,"correct":true,"confidence":5},{"trial_n":110,"min":83,"max":172,"target":"absent","response":"absent","rt":1063.400000006,"correct":true,"confidence":5},{"trial_n":111,"min":83,"max":172,"target":"present","response":"present","rt":327.5,"correct":true,"confidence":5},{"trial_n":112,"min":84,"max":171,"target":"absent","response":"absent","rt":690.60000000894,"correct":true,"confidence":5},{"trial_n":113,"min":84,"max":171,"target":"absent","response":"absent","rt":926.20000000298,"correct":true,"confidence":5},{"trial_n":114,"min":85,"max":170,"target":"absent","response":"present","rt":2483.6000000089,"correct":false,"confidence":1},{"trial_n":115,"min":84,"max":171,"target":"absent","response":"absent","rt":1578.099999994,"correct":true,"confidence":1},{"trial_n":116,"min":84,"max":171,"target":"absent","response":"absent","rt":1930.099999994,"correct":true,"confidence":1},{"trial_n":117,"min":85,"max":170,"target":"present","response":"present","rt":882.79999999702,"correct":true,"confidence":3},{"trial_n":118,"min":85,"max":170,"target":"absent","response":"absent","rt":2522.5,"correct":true,"confidence":3},{"trial_n":119,"min":86,"max":169,"target":"absent","response":"absent","rt":1000.400000006,"correct":true,"confidence":4},{"trial_n":120,"min":86,"max":169,"target":"present","response":"present","rt":843.40000000596,"correct":true,"confidence":4},{"trial_n":121,"min":87,"max":168,"target":"absent","response":"absent","rt":634,"correct":true,"confidence":1},{"trial_n":122,"min":87,"max":168,"target":"present","response":"present","rt":1375.400000006,"correct":true,"confidence":1},{"trial_n":123,"min":88,"max":167,"target":"absent","response":"absent","rt":504.60000000894,"correct":true,"confidence":3},{"trial_n":124,"min":88,"max":167,"target":"present","response":"present","rt":427,"correct":true,"confidence":4},{"trial_n":125,"min":89,"max":166,"target":"present","response":"present","rt":389.5,"correct":true,"confidence":4},{"trial_n":126,"min":89,"max":166,"target":"absent","response":"absent","rt":559.5,"correct":true,"confidence":3},{"trial_n":127,"min":90,"max":165,"target":"absent","response":"absent","rt":491.89999999106,"correct":true,"confidence":1},{"trial_n":128,"min":90,"max":165,"target":"absent","response":"present","rt":1022.3999999911,"correct":false,"confidence":1},{"trial_n":129,"min":89,"max":166,"target":"present","response":"present","rt":875,"correct":true,"confidence":3},{"trial_n":130,"min":89,"max":166,"target":"present","response":"absent","rt":631.10000000894,"correct":false,"confidence":2},{"trial_n":131,"min":88,"max":167,"target":"absent","response":"present","rt":958.70000000298,"correct":false,"confidence":1},{"trial_n":132,"min":87,"max":168,"target":"present","response":"absent","rt":379.70000000298,"correct":false,"confidence":3},{"trial_n":133,"min":86,"max":169,"target":"present","response":"present","rt":504.90000000596,"correct":true,"confidence":4},{"trial_n":134,"min":86,"max":169,"target":"absent","response":"present","rt":996.39999999106,"correct":false,"confidence":1},{"trial_n":135,"min":85,"max":170,"target":"absent","response":"absent","rt":1558.6999999881,"correct":true,"confidence":3},{"trial_n":136,"min":85,"max":170,"target":"present","response":"present","rt":305.90000000596,"correct":true,"confidence":5},{"trial_n":137,"min":86,"max":169,"target":"present","response":"present","rt":530.29999999702,"correct":true,"confidence":3},{"trial_n":138,"min":86,"max":169,"target":"present","response":"present","rt":317.70000000298,"correct":true,"confidence":3},{"trial_n":139,"min":87,"max":168,"target":"absent","response":"absent","rt":1236.5,"correct":true,"confidence":5},{"trial_n":140,"min":87,"max":168,"target":"absent","response":"present","rt":678.79999999702,"correct":false,"confidence":4}]