[{"trial_n":1,"span":8,"encoder":"19543534","distractor":"19563534","target":"present","response":"present","rt":"6434.900000006","correct":true,"confidence":-1},{"trial_n":2,"span":8,"encoder":"25065699","distractor":"25065299","target":"present","response":"absent","rt":"3062.700000003","correct":false,"confidence":-1},{"trial_n":3,"span":6,"encoder":"274224","distractor":"294224","target":"absent","response":"absent","rt":"1631.5","correct":true,"confidence":-1},{"trial_n":4,"span":6,"encoder":"831850","distractor":"801850","target":"absent","response":"present","rt":"2031.3999999911","correct":false,"confidence":-1},{"trial_n":5,"span":4,"encoder":"8891","distractor":"8892","target":"present","response":"present","rt":"1927.799999997","correct":true,"confidence":-1},{"trial_n":6,"span":4,"encoder":"4425","distractor":"4421","target":"absent","response":"absent","rt":"1528.1000000089","correct":true,"confidence":-1},{"trial_n":7,"span":6,"encoder":"933697","distractor":"933197","target":"absent","response":"present","rt":"2763.5","correct":false,"confidence":-1},{"trial_n":8,"span":4,"encoder":"1722","distractor":"1922","target":"absent","response":"absent","rt":"2556.6000000089","correct":true,"confidence":-1},{"trial_n":9,"span":4,"encoder":"9184","distractor":"9183","target":"absent","response":"absent","rt":"2058.599999994","correct":true,"confidence":-1},{"trial_n":10,"span":6,"encoder":"148988","distractor":"848988","target":"present","response":"present","rt":"2109.799999997","correct":true,"confidence":-1},{"trial_n":11,"span":6,"encoder":"729078","distractor":"729098","target":"present","response":"present","rt":"2904.700000003","correct":true,"confidence":-1},{"trial_n":12,"span":7,"encoder":"7812673","distractor":"7812678","target":"absent","response":"absent","rt":"2893.6000000089","correct":true,"confidence":-1},{"trial_n":13,"span":7,"encoder":"3796809","distractor":"3716809","target":"present","response":"absent","rt":"1938.599999994","correct":false,"confidence":-1},{"trial_n":14,"span":6,"encoder":"640607","distractor":"640657","target":"present","response":"present","rt":"1435.700000003","correct":true,"confidence":-1},{"trial_n":15,"span":6,"encoder":"974671","distractor":"973671","target":"present","response":"present","rt":"805.90000000596","correct":true,"confidence":-1},{"trial_n":16,"span":7,"encoder":"6069118","distractor":"6069188","target":"present","response":"present","rt":"2121.200000003","correct":true,"confidence":-1},{"trial_n":17,"span":7,"encoder":"2429245","distractor":"2529245","target":"absent","response":"absent","rt":"1707.799999997","correct":true,"confidence":-1},{"trial_n":18,"span":8,"encoder":"81651661","distractor":"81621661","target":"present","response":"present","rt":"2540.099999994","correct":true,"confidence":-1},{"trial_n":19,"span":8,"encoder":"08469663","distractor":"08469603","target":"present","response":"present","rt":"1172.799999997","correct":true,"confidence":-1},{"trial_n":20,"span":9,"encoder":"583626947","distractor":"583526947","target":"absent","response":"present","rt":"1785.8999999911","correct":false,"confidence":-1},{"trial_n":21,"span":8,"encoder":"09577865","distractor":"09177865","target":"absent","response":"absent","rt":"2847.3999999911","correct":true,"confidence":3},{"trial_n":22,"span":8,"encoder":"39704313","distractor":"39709313","target":"present","response":"present","rt":"3405.099999994","correct":true,"confidence":4},{"trial_n":23,"span":9,"encoder":"541482134","distractor":"541482034","target":"absent","response":"present","rt":"2821.8999999911","correct":false,"confidence":4},{"trial_n":24,"span":8,"encoder":"66470742","distractor":"66470942","target":"absent","response":"present","rt":"2014.599999994","correct":false,"confidence":3},{"trial_n":25,"span":7,"encoder":"3434569","distractor":"3434567","target":"present","response":"present","rt":"3019.6000000089","correct":true,"confidence":3},{"trial_n":26,"span":7,"encoder":"8441772","distractor":"8481772","target":"absent","response":"absent","rt":"3684.5","correct":true,"confidence":3},{"trial_n":27,"span":8,"encoder":"10410571","distractor":"10410531","target":"absent","response":"absent","rt":"2128.3999999911","correct":true,"confidence":3},{"trial_n":28,"span":8,"encoder":"13122288","distractor":"13121288","target":"present","response":"present","rt":"1856","correct":true,"confidence":4},{"trial_n":29,"span":9,"encoder":"005622795","distractor":"005522795","target":"present","response":"present","rt":"2036.099999994","correct":true,"confidence":3},{"trial_n":30,"span":9,"encoder":"646303097","distractor":"646301097","target":"present","response":"present","rt":"3392.8999999911","correct":true,"confidence":2},{"trial_n":31,"span":10,"encoder":"1754252995","distractor":"1754282995","target":"absent","response":"present","rt":"3753.700000003","correct":false,"confidence":4},{"trial_n":32,"span":9,"encoder":"913040631","distractor":"993040631","target":"absent","response":"present","rt":"2833.599999994","correct":false,"confidence":4},{"trial_n":33,"span":8,"encoder":"49530236","distractor":"79530236","target":"absent","response":"absent","rt":"3325.700000003","correct":true,"confidence":3},{"trial_n":34,"span":8,"encoder":"31418561","distractor":"31411561","target":"present","response":"present","rt":"2802.400000006","correct":true,"confidence":3},{"trial_n":35,"span":9,"encoder":"281899342","distractor":"281899332","target":"present","response":"absent","rt":"197194.3","correct":false,"confidence":2},{"trial_n":36,"span":8,"encoder":"89861229","distractor":"49861229","target":"present","response":"present","rt":"3580.299999997","correct":true,"confidence":5},{"trial_n":37,"span":8,"encoder":"35125205","distractor":"35125705","target":"present","response":"present","rt":"3121.099999994","correct":true,"confidence":5},{"trial_n":38,"span":9,"encoder":"897581401","distractor":"897881401","target":"present","response":"present","rt":"1891.5","correct":true,"confidence":4},{"trial_n":39,"span":9,"encoder":"804354002","distractor":"804358002","target":"absent","response":"absent","rt":"11221.200000003","correct":true,"confidence":2},{"trial_n":40,"span":10,"encoder":"6206410111","distractor":"6206410911","target":"present","response":"present","rt":"1657.799999997","correct":true,"confidence":3},{"trial_n":41,"span":10,"encoder":"9597393486","distractor":"9597353486","target":"absent","response":"present","rt":"4243.3999999911","correct":false,"confidence":3},{"trial_n":42,"span":9,"encoder":"009443200","distractor":"009443207","target":"absent","response":"absent","rt":"2155","correct":true,"confidence":4},{"trial_n":43,"span":9,"encoder":"673865308","distractor":"673885308","target":"present","response":"present","rt":"2674.400000006","correct":true,"confidence":3},{"trial_n":44,"span":10,"encoder":"3164539135","distractor":"3164539138","target":"present","response":"present","rt":"2162.299999997","correct":true,"confidence":3},{"trial_n":45,"span":10,"encoder":"4963386513","distractor":"4963386515","target":"present","response":"present","rt":"1748.6000000089","correct":true,"confidence":3},{"trial_n":46,"span":11,"encoder":"49082035325","distractor":"47082035325","target":"present","response":"absent","rt":"2429.6000000089","correct":false,"confidence":3},{"trial_n":47,"span":10,"encoder":"2340965538","distractor":"2340975538","target":"absent","response":"present","rt":"53584.599999994","correct":false,"confidence":2},{"trial_n":48,"span":9,"encoder":"086279994","distractor":"086879994","target":"present","response":"absent","rt":"2300","correct":false,"confidence":2},{"trial_n":49,"span":8,"encoder":"24047159","distractor":"24547159","target":"present","response":"present","rt":"4293.400000006","correct":true,"confidence":4},{"trial_n":50,"span":8,"encoder":"68441150","distractor":"68441152","target":"absent","response":"absent","rt":"3504.5","correct":true,"confidence":3},{"trial_n":51,"span":9,"encoder":"949444268","distractor":"949444168","target":"absent","response":"present","rt":"2394.700000003","correct":false,"confidence":3},{"trial_n":52,"span":8,"encoder":"35812587","distractor":"35812584","target":"present","response":"present","rt":"2427.3999999911","correct":true,"confidence":1},{"trial_n":53,"span":8,"encoder":"23586003","distractor":"23586903","target":"absent","response":"absent","rt":"2266.8999999911","correct":true,"confidence":5},{"trial_n":54,"span":9,"encoder":"237935935","distractor":"237939935","target":"absent","response":"present","rt":"2545.299999997","correct":false,"confidence":3},{"trial_n":55,"span":8,"encoder":"70006331","distractor":"70046331","target":"absent","response":"present","rt":"145591.2","correct":false,"confidence":2},{"trial_n":56,"span":7,"encoder":"9773204","distractor":"9773704","target":"present","response":"present","rt":"1591.8000000119","correct":true,"confidence":4},{"trial_n":57,"span":7,"encoder":"2776528","distractor":"2776529","target":"absent","response":"absent","rt":"1708.700000003","correct":true,"confidence":5},{"trial_n":58,"span":8,"encoder":"16679716","distractor":"16779716","target":"absent","response":"present","rt":"2514.299999997","correct":false,"confidence":3},{"trial_n":59,"span":7,"encoder":"9966401","distractor":"9961401","target":"absent","response":"present","rt":"2007.900000006","correct":false,"confidence":3},{"trial_n":60,"span":6,"encoder":"541848","distractor":"544848","target":"absent","response":"absent","rt":"2582.5","correct":true,"confidence":3},{"trial_n":61,"span":6,"encoder":"798372","distractor":"798352","target":"present","response":"present","rt":"2858.5","correct":true,"confidence":5},{"trial_n":62,"span":7,"encoder":"2065686","distractor":"2065186","target":"absent","response":"absent","rt":"3764.099999994","correct":true,"confidence":3},{"trial_n":63,"span":7,"encoder":"6143909","distractor":"6543909","target":"absent","response":"present","rt":"3546.6999999881","correct":false,"confidence":4},{"trial_n":64,"span":6,"encoder":"243761","distractor":"243762","target":"present","response":"present","rt":"14259.299999997","correct":true,"confidence":3},{"trial_n":65,"span":6,"encoder":"011126","distractor":"010126","target":"absent","response":"absent","rt":"2257.200000003","correct":true,"confidence":5},{"trial_n":66,"span":7,"encoder":"8741891","distractor":"8741841","target":"present","response":"present","rt":"85074.799999997","correct":true,"confidence":3},{"trial_n":67,"span":7,"encoder":"5336836","distractor":"5336846","target":"present","response":"present","rt":"3629.700000003","correct":true,"confidence":5},{"trial_n":68,"span":8,"encoder":"54164021","distractor":"54464021","target":"absent","response":"present","rt":"185094.7","correct":false,"confidence":3},{"trial_n":69,"span":7,"encoder":"8789471","distractor":"8781471","target":"present","response":"present","rt":"2110.3000000119","correct":true,"confidence":4},{"trial_n":70,"span":7,"encoder":"5345049","distractor":"5745049","target":"present","response":"present","rt":"2847","correct":true,"confidence":4},{"trial_n":71,"span":8,"encoder":"64568739","distractor":"60568739","target":"present","response":"present","rt":"6736.299999997","correct":true,"confidence":-1},{"trial_n":72,"span":8,"encoder":"44745943","distractor":"44745942","target":"present","response":"present","rt":"3357.599999994","correct":true,"confidence":-1},{"trial_n":73,"span":9,"encoder":"985095699","distractor":"185095699","target":"absent","response":"present","rt":"45882.599999994","correct":false,"confidence":-1},{"trial_n":74,"span":8,"encoder":"27782530","distractor":"27782520","target":"absent","response":"absent","rt":"3075.799999997","correct":true,"confidence":-1},{"trial_n":75,"span":8,"encoder":"25959454","distractor":"21959454","target":"present","response":"present","rt":"5417.6000000089","correct":true,"confidence":-1},{"trial_n":76,"span":9,"encoder":"026071158","distractor":"726071158","target":"absent","response":"present","rt":"4385.5","correct":false,"confidence":-1},{"trial_n":77,"span":8,"encoder":"77685630","distractor":"77685633","target":"absent","response":"absent","rt":"2617.599999994","correct":true,"confidence":-1},{"trial_n":78,"span":8,"encoder":"62538003","distractor":"62438003","target":"present","response":"absent","rt":"191845.89999999","correct":false,"confidence":-1},{"trial_n":79,"span":7,"encoder":"7787311","distractor":"7587311","target":"present","response":"present","rt":"2540.5","correct":true,"confidence":-1},{"trial_n":80,"span":7,"encoder":"2465965","distractor":"2465963","target":"present","response":"present","rt":"2165.099999994","correct":true,"confidence":-1},{"trial_n":81,"span":8,"encoder":"18027722","distractor":"11027722","target":"present","response":"present","rt":"2896.400000006","correct":true,"confidence":-1},{"trial_n":82,"span":8,"encoder":"57711823","distractor":"57711803","target":"absent","response":"absent","rt":"2046.8999999911","correct":true,"confidence":-1},{"trial_n":83,"span":9,"encoder":"113785587","distractor":"113786587","target":"absent","response":"absent","rt":"2184.3999999911","correct":true,"confidence":-1},{"trial_n":84,"span":9,"encoder":"482904414","distractor":"452904414","target":"absent","response":"absent","rt":"3522.1000000089","correct":true,"confidence":-1},{"trial_n":85,"span":10,"encoder":"1610054144","distractor":"1610054244","target":"present","response":"present","rt":"2014.5","correct":true,"confidence":-1},{"trial_n":86,"span":10,"encoder":"8375869956","distractor":"8379869956","target":"absent","response":"present","rt":"4486.3000000119","correct":false,"confidence":-1},{"trial_n":87,"span":9,"encoder":"434112486","distractor":"434192486","target":"present","response":"present","rt":"2400.099999994","correct":true,"confidence":-1},{"trial_n":88,"span":9,"encoder":"028686325","distractor":"028686925","target":"absent","response":"present","rt":"3230.5","correct":false,"confidence":-1},{"trial_n":89,"span":8,"encoder":"73289878","distractor":"73289872","target":"present","response":"absent","rt":"5851.200000003","correct":false,"confidence":-1},{"trial_n":90,"span":7,"encoder":"9713642","distractor":"9713342","target":"present","response":"absent","rt":"3268.1000000089","correct":false,"confidence":-1},{"trial_n":91,"span":6,"encoder":"051776","distractor":"851776","target":"absent","response":"absent","rt":"2547.700000003","correct":true,"confidence":5},{"trial_n":92,"span":6,"encoder":"632982","distractor":"642982","target":"absent","response":"absent","rt":"2617.200000003","correct":true,"confidence":2},{"trial_n":93,"span":7,"encoder":"6570710","distractor":"8570710","target":"absent","response":"absent","rt":"5279","correct":true,"confidence":2},{"trial_n":94,"span":7,"encoder":"4017117","distractor":"7017117","target":"absent","response":"absent","rt":"3041.400000006","correct":true,"confidence":2},{"trial_n":95,"span":8,"encoder":"98194327","distractor":"98194328","target":"absent","response":"absent","rt":"2023","correct":true,"confidence":5},{"trial_n":96,"span":8,"encoder":"64039953","distractor":"64039959","target":"absent","response":"absent","rt":"1544.6000000089","correct":true,"confidence":5},{"trial_n":97,"span":9,"encoder":"804325295","distractor":"804329295","target":"present","response":"absent","rt":"3634.5","correct":false,"confidence":3},{"trial_n":98,"span":8,"encoder":"68504690","distractor":"68505690","target":"present","response":"absent","rt":"4004","correct":false,"confidence":3},{"trial_n":99,"span":7,"encoder":"8124939","distractor":"0124939","target":"absent","response":"absent","rt":"3267.3999999911","correct":true,"confidence":3},{"trial_n":100,"span":7,"encoder":"7303412","distractor":"7343412","target":"present","response":"absent","rt":"3666.400000006","correct":false,"confidence":3},{"trial_n":101,"span":6,"encoder":"294471","distractor":"294475","target":"present","response":"present","rt":"2414","correct":true,"confidence":5},{"trial_n":102,"span":6,"encoder":"444749","distractor":"044749","target":"absent","response":"present","rt":"4399","correct":false,"confidence":3},{"trial_n":103,"span":5,"encoder":"50038","distractor":"50031","target":"absent","response":"absent","rt":"2080","correct":true,"confidence":3},{"trial_n":104,"span":5,"encoder":"93118","distractor":"93119","target":"present","response":"present","rt":"1873.799999997","correct":true,"confidence":5},{"trial_n":105,"span":6,"encoder":"775876","distractor":"775176","target":"absent","response":"absent","rt":"5925","correct":true,"confidence":4},{"trial_n":106,"span":6,"encoder":"814658","distractor":"814558","target":"present","response":"present","rt":"5590","correct":true,"confidence":3},{"trial_n":107,"span":7,"encoder":"4674427","distractor":"5674427","target":"absent","response":"absent","rt":"3688.1999999881","correct":true,"confidence":3},{"trial_n":108,"span":7,"encoder":"7029888","distractor":"7029883","target":"absent","response":"absent","rt":"2635.3000000119","correct":true,"confidence":4},{"trial_n":109,"span":8,"encoder":"89878115","distractor":"89978115","target":"present","response":"present","rt":"5648.1000000089","correct":true,"confidence":4},{"trial_n":110,"span":8,"encoder":"57684669","distractor":"57484669","target":"absent","response":"absent","rt":"5739.299999997","correct":true,"confidence":3},{"trial_n":111,"span":9,"encoder":"664895814","distractor":"664815814","target":"present","response":"present","rt":"6532.799999997","correct":true,"confidence":2},{"trial_n":112,"span":9,"encoder":"375805493","distractor":"375905493","target":"absent","response":"present","rt":"7643.6000000089","correct":false,"confidence":2},{"trial_n":113,"span":8,"encoder":"53567819","distractor":"53561819","target":"absent","response":"absent","rt":"2993.5","correct":true,"confidence":3},{"trial_n":114,"span":8,"encoder":"20017132","distractor":"25017132","target":"present","response":"present","rt":"3800.799999997","correct":true,"confidence":2},{"trial_n":115,"span":9,"encoder":"892483852","distractor":"892483452","target":"present","response":"present","rt":"4203.799999997","correct":true,"confidence":2},{"trial_n":116,"span":9,"encoder":"984533835","distractor":"981533835","target":"absent","response":"present","rt":"62969.200000003","correct":false,"confidence":2},{"trial_n":117,"span":8,"encoder":"38578945","distractor":"33578945","target":"present","response":"present","rt":"5698.700000003","correct":true,"confidence":2},{"trial_n":118,"span":8,"encoder":"85997024","distractor":"81997024","target":"absent","response":"absent","rt":"1968.700000003","correct":true,"confidence":5},{"trial_n":119,"span":9,"encoder":"140417820","distractor":"140417920","target":"absent","response":"absent","rt":"4033.599999994","correct":true,"confidence":2},{"trial_n":120,"span":9,"encoder":"208082087","distractor":"208082587","target":"present","response":"present","rt":"2881.700000003","correct":true,"confidence":3},{"trial_n":121,"span":10,"encoder":"2377059292","distractor":"2377029292","target":"present","response":"present","rt":"3915.5","correct":true,"confidence":2},{"trial_n":122,"span":10,"encoder":"0688641186","distractor":"0688641126","target":"absent","response":"absent","rt":"2394","correct":true,"confidence":5},{"trial_n":123,"span":11,"encoder":"04088853111","distractor":"04088853141","target":"present","response":"present","rt":"5112.299999997","correct":true,"confidence":4},{"trial_n":124,"span":11,"encoder":"12800780457","distractor":"12000780457","target":"present","response":"present","rt":"4660.200000003","correct":true,"confidence":2},{"trial_n":125,"span":12,"encoder":"407964582539","distractor":"407964582536","target":"present","response":"present","rt":"1941.099999994","correct":true,"confidence":4},{"trial_n":126,"span":12,"encoder":"366554315786","distractor":"366551315786","target":"absent","response":"absent","rt":"8095.5","correct":true,"confidence":2},{"trial_n":127,"span":13,"encoder":"6331647328726","distractor":"6331647328766","target":"present","response":"present","rt":"1996.599999994","correct":true,"confidence":3},{"trial_n":128,"span":13,"encoder":"6789008144477","distractor":"6709008144477","target":"present","response":"present","rt":"4140.5","correct":true,"confidence":2},{"trial_n":129,"span":14,"encoder":"35381804993697","distractor":"35381801993697","target":"absent","response":"absent","rt":"3717.200000003","correct":true,"confidence":2},{"trial_n":130,"span":14,"encoder":"13654983675295","distractor":"13054983675295","target":"absent","response":"absent","rt":"9056.599999994","correct":true,"confidence":2},{"trial_n":131,"span":15,"encoder":"239625286520232","distractor":"239625486520232","target":"absent","response":"absent","rt":"5812.799999997","correct":true,"confidence":3},{"trial_n":132,"span":15,"encoder":"987977098474559","distractor":"987977098474550","target":"present","response":"present","rt":"1861.400000006","correct":true,"confidence":5},{"trial_n":133,"span":16,"encoder":"6919974940228753","distractor":"6910974940228753","target":"present","response":"absent","rt":"4652.299999997","correct":false,"confidence":2},{"trial_n":134,"span":15,"encoder":"502126602164698","distractor":"502126602164694","target":"absent","response":"absent","rt":"1804.200000003","correct":true,"confidence":5},{"trial_n":135,"span":15,"encoder":"034458623407420","distractor":"034458723407420","target":"present","response":"absent","rt":"4672.799999997","correct":false,"confidence":1},{"trial_n":136,"span":14,"encoder":"00630854198564","distractor":"00630854158564","target":"present","response":"present","rt":"4325","correct":true,"confidence":1},{"trial_n":137,"span":14,"encoder":"29869862184675","distractor":"39869862184675","target":"present","response":"present","rt":"12055.400000006","correct":true,"confidence":1},{"trial_n":138,"span":15,"encoder":"891512284863367","distractor":"899512284863367","target":"present","response":"present","rt":"7875.799999997","correct":true,"confidence":1},{"trial_n":139,"span":15,"encoder":"927285617834650","distractor":"927215617834650","target":"absent","response":"present","rt":"34280.399999991","correct":false,"confidence":1},{"trial_n":140,"span":14,"encoder":"61860681970145","distractor":"61870681970145","target":"present","response":"present","rt":"4748.200000003","correct":true,"confidence":1}]