[{"trial_n":1,"n_dots":4.25,"target":"left","response":"right","rt":244,"correct":false,"confidence":-1},{"trial_n":2,"n_dots":4.25,"target":"right","response":"left","rt":206,"correct":false,"confidence":-1},{"trial_n":3,"n_dots":4.65,"target":"right","response":"right","rt":88,"correct":true,"confidence":-1},{"trial_n":4,"n_dots":4.65,"target":"left","response":"left","rt":354,"correct":true,"confidence":-1},{"trial_n":5,"n_dots":4.25,"target":"left","response":"left","rt":119,"correct":true,"confidence":-1},{"trial_n":6,"n_dots":4.25,"target":"right","response":"right","rt":642,"correct":true,"confidence":-1},{"trial_n":7,"n_dots":3.85,"target":"left","response":"right","rt":273,"correct":false,"confidence":-1},{"trial_n":8,"n_dots":4.05,"target":"right","response":"left","rt":370.99999999999,"correct":false,"confidence":-1},{"trial_n":9,"n_dots":4.25,"target":"left","response":"right","rt":122,"correct":false,"confidence":-1},{"trial_n":10,"n_dots":4.45,"target":"right","response":"right","rt":157.00000000001,"correct":true,"confidence":-1},{"trial_n":11,"n_dots":4.45,"target":"left","response":"left","rt":304,"correct":true,"confidence":-1},{"trial_n":12,"n_dots":4.25,"target":"right","response":"right","rt":823.99999999999,"correct":true,"confidence":-1},{"trial_n":13,"n_dots":4.25,"target":"right","response":"left","rt":140,"correct":false,"confidence":-1},{"trial_n":14,"n_dots":4.35,"target":"right","response":"right","rt":845,"correct":true,"confidence":-1},{"trial_n":15,"n_dots":4.35,"target":"right","response":"left","rt":836,"correct":false,"confidence":-1},{"trial_n":16,"n_dots":4.45,"target":"right","response":"left","rt":190,"correct":false,"confidence":-1},{"trial_n":17,"n_dots":4.55,"target":"left","response":"left","rt":91,"correct":true,"confidence":-1},{"trial_n":18,"n_dots":4.55,"target":"left","response":"left","rt":137,"correct":true,"confidence":-1},{"trial_n":19,"n_dots":4.45,"target":"right","response":"right","rt":643,"correct":true,"confidence":-1},{"trial_n":20,"n_dots":4.45,"target":"left","response":"left","rt":222,"correct":true,"confidence":-1},{"trial_n":21,"n_dots":4.35,"target":"right","response":"left","rt":116,"correct":false,"confidence":2},{"trial_n":22,"n_dots":4.45,"target":"left","response":"left","rt":85.000000000015,"correct":true,"confidence":4},{"trial_n":23,"n_dots":4.45,"target":"right","response":"left","rt":87,"correct":false,"confidence":2},{"trial_n":24,"n_dots":4.55,"target":"right","response":"left","rt":706.00000000001,"correct":false,"confidence":3},{"trial_n":25,"n_dots":4.65,"target":"left","response":"left","rt":387,"correct":true,"confidence":4},{"trial_n":26,"n_dots":4.65,"target":"left","response":"left","rt":403,"correct":true,"confidence":4},{"trial_n":27,"n_dots":4.55,"target":"right","response":"right","rt":636,"correct":true,"confidence":3},{"trial_n":28,"n_dots":4.55,"target":"left","response":"left","rt":470,"correct":true,"confidence":3},{"trial_n":29,"n_dots":4.45,"target":"right","response":"left","rt":225,"correct":false,"confidence":3},{"trial_n":30,"n_dots":4.55,"target":"left","response":"left","rt":771,"correct":true,"confidence":3},{"trial_n":31,"n_dots":4.55,"target":"right","response":"right","rt":574,"correct":true,"confidence":4},{"trial_n":32,"n_dots":4.45,"target":"right","response":"left","rt":955,"correct":false,"confidence":3},{"trial_n":33,"n_dots":4.55,"target":"left","response":"left","rt":153.99999999997,"correct":true,"confidence":4},{"trial_n":34,"n_dots":4.55,"target":"right","response":"right","rt":519,"correct":true,"confidence":4},{"trial_n":35,"n_dots":4.45,"target":"right","response":"right","rt":750,"correct":true,"confidence":3},{"trial_n":36,"n_dots":4.45,"target":"left","response":"left","rt":404,"correct":true,"confidence":4},{"trial_n":37,"n_dots":4.35,"target":"left","response":"left","rt":556,"correct":true,"confidence":4},{"trial_n":38,"n_dots":4.35,"target":"right","response":"right","rt":721,"correct":true,"confidence":3},{"trial_n":39,"n_dots":4.25,"target":"right","response":"left","rt":638.00000000003,"correct":false,"confidence":3},{"trial_n":40,"n_dots":4.35,"target":"left","response":"left","rt":373,"correct":true,"confidence":4},{"trial_n":41,"n_dots":4.35,"target":"right","response":"right","rt":445,"correct":true,"confidence":3},{"trial_n":42,"n_dots":4.25,"target":"right","response":"left","rt":334,"correct":false,"confidence":2},{"trial_n":43,"n_dots":4.35,"target":"right","response":"right","rt":390.99999999988,"correct":true,"confidence":4},{"trial_n":44,"n_dots":4.35,"target":"left","response":"left","rt":246.99999999988,"correct":true,"confidence":4},{"trial_n":45,"n_dots":4.25,"target":"left","response":"left","rt":219,"correct":true,"confidence":3},{"trial_n":46,"n_dots":4.25,"target":"left","response":"right","rt":600.00000000012,"correct":false,"confidence":3},{"trial_n":47,"n_dots":4.35,"target":"left","response":"left","rt":393,"correct":true,"confidence":3},{"trial_n":48,"n_dots":4.35,"target":"left","response":"left","rt":322,"correct":true,"confidence":3},{"trial_n":49,"n_dots":4.25,"target":"left","response":"left","rt":417.99999999988,"correct":true,"confidence":4},{"trial_n":50,"n_dots":4.25,"target":"left","response":"left","rt":304.00000000012,"correct":true,"confidence":3},{"trial_n":51,"n_dots":4.15,"target":"left","response":"left","rt":306,"correct":true,"confidence":4},{"trial_n":52,"n_dots":4.15,"target":"right","response":"right","rt":485,"correct":true,"confidence":3},{"trial_n":53,"n_dots":4.05,"target":"right","response":"right","rt":471,"correct":true,"confidence":3},{"trial_n":54,"n_dots":4.05,"target":"left","response":"left","rt":154,"correct":true,"confidence":3},{"trial_n":55,"n_dots":3.95,"target":"right","response":"right","rt":571,"correct":true,"confidence":2},{"trial_n":56,"n_dots":3.95,"target":"right","response":"right","rt":472,"correct":true,"confidence":3},{"trial_n":57,"n_dots":3.85,"target":"right","response":"right","rt":436,"correct":true,"confidence":3},{"trial_n":58,"n_dots":3.85,"target":"right","response":"right","rt":286,"correct":true,"confidence":3},{"trial_n":59,"n_dots":3.75,"target":"left","response":"left","rt":191,"correct":true,"confidence":3},{"trial_n":60,"n_dots":3.75,"target":"right","response":"right","rt":254,"correct":true,"confidence":3},{"trial_n":61,"n_dots":3.65,"target":"right","response":"right","rt":369,"correct":true,"confidence":2},{"trial_n":62,"n_dots":3.65,"target":"right","response":"right","rt":560,"correct":true,"confidence":3},{"trial_n":63,"n_dots":3.55,"target":"left","response":"left","rt":320,"correct":true,"confidence":2},{"trial_n":64,"n_dots":3.55,"target":"left","response":"left","rt":206,"correct":true,"confidence":3},{"trial_n":65,"n_dots":3.45,"target":"left","response":"left","rt":274,"correct":true,"confidence":3},{"trial_n":66,"n_dots":3.45,"target":"left","response":"left","rt":317,"correct":true,"confidence":4},{"trial_n":67,"n_dots":3.35,"target":"right","response":"right","rt":369,"correct":true,"confidence":3},{"trial_n":68,"n_dots":3.35,"target":"left","response":"left","rt":490,"correct":true,"confidence":2},{"trial_n":69,"n_dots":3.25,"target":"left","response":"left","rt":403,"correct":true,"confidence":2},{"trial_n":70,"n_dots":3.25,"target":"left","response":"left","rt":589,"correct":true,"confidence":2},{"trial_n":71,"n_dots":3.15,"target":"right","response":"left","rt":586,"correct":false,"confidence":1},{"trial_n":72,"n_dots":3.25,"target":"right","response":"right","rt":551,"correct":true,"confidence":1},{"trial_n":73,"n_dots":3.25,"target":"left","response":"left","rt":589.00000000023,"correct":true,"confidence":3},{"trial_n":74,"n_dots":3.15,"target":"left","response":"left","rt":289,"correct":true,"confidence":3},{"trial_n":75,"n_dots":3.15,"target":"right","response":"right","rt":454,"correct":true,"confidence":2},{"trial_n":76,"n_dots":3.05,"target":"right","response":"right","rt":823.00000000023,"correct":true,"confidence":2},{"trial_n":77,"n_dots":3.05,"target":"right","response":"left","rt":354,"correct":false,"confidence":3},{"trial_n":78,"n_dots":3.15,"target":"right","response":"right","rt":219,"correct":true,"confidence":3},{"trial_n":79,"n_dots":3.15,"target":"right","response":"left","rt":255,"correct":false,"confidence":2},{"trial_n":80,"n_dots":3.25,"target":"right","response":"right","rt":537.99999999977,"correct":true,"confidence":2},{"trial_n":81,"n_dots":3.25,"target":"left","response":"right","rt":9586,"correct":false,"confidence":1},{"trial_n":82,"n_dots":3.35,"target":"left","response":"left","rt":405.00000000023,"correct":true,"confidence":3},{"trial_n":83,"n_dots":3.35,"target":"left","response":"left","rt":178,"correct":true,"confidence":2},{"trial_n":84,"n_dots":3.25,"target":"left","response":"left","rt":489,"correct":true,"confidence":3},{"trial_n":85,"n_dots":3.25,"target":"right","response":"right","rt":175,"correct":true,"confidence":4},{"trial_n":86,"n_dots":3.15,"target":"right","response":"left","rt":239.00000000023,"correct":false,"confidence":3},{"trial_n":87,"n_dots":3.25,"target":"left","response":"right","rt":309.00000000023,"correct":false,"confidence":3},{"trial_n":88,"n_dots":3.35,"target":"right","response":"left","rt":138,"correct":false,"confidence":1},{"trial_n":89,"n_dots":3.45,"target":"right","response":"right","rt":457,"correct":true,"confidence":3},{"trial_n":90,"n_dots":3.45,"target":"left","response":"left","rt":402,"correct":true,"confidence":4},{"trial_n":91,"n_dots":3.35,"target":"left","response":"left","rt":257,"correct":true,"confidence":3},{"trial_n":92,"n_dots":3.35,"target":"left","response":"left","rt":521.99999999977,"correct":true,"confidence":2},{"trial_n":93,"n_dots":3.25,"target":"right","response":"right","rt":535,"correct":true,"confidence":2},{"trial_n":94,"n_dots":3.25,"target":"right","response":"right","rt":740,"correct":true,"confidence":2},{"trial_n":95,"n_dots":3.15,"target":"left","response":"left","rt":340,"correct":true,"confidence":3},{"trial_n":96,"n_dots":3.15,"target":"left","response":"left","rt":441,"correct":true,"confidence":3},{"trial_n":97,"n_dots":3.05,"target":"left","response":"left","rt":387,"correct":true,"confidence":3},{"trial_n":98,"n_dots":3.05,"target":"right","response":"right","rt":323.00000000023,"correct":true,"confidence":3},{"trial_n":99,"n_dots":2.95,"target":"left","response":"left","rt":655.99999999977,"correct":true,"confidence":2},{"trial_n":100,"n_dots":2.95,"target":"left","response":"left","rt":118,"correct":true,"confidence":2},{"trial_n":101,"n_dots":2.85,"target":"right","response":"right","rt":79,"correct":true,"confidence":3},{"trial_n":102,"n_dots":2.85,"target":"left","response":"left","rt":123,"correct":true,"confidence":3},{"trial_n":103,"n_dots":2.75,"target":"right","response":"right","rt":73,"correct":true,"confidence":2},{"trial_n":104,"n_dots":2.75,"target":"right","response":"right","rt":222,"correct":true,"confidence":2},{"trial_n":105,"n_dots":2.65,"target":"right","response":"right","rt":145,"correct":true,"confidence":3},{"trial_n":106,"n_dots":2.65,"target":"right","response":"right","rt":358,"correct":true,"confidence":2},{"trial_n":107,"n_dots":2.55,"target":"left","response":"left","rt":137,"correct":true,"confidence":2},{"trial_n":108,"n_dots":2.55,"target":"left","response":"right","rt":155.00000000023,"correct":false,"confidence":2},{"trial_n":109,"n_dots":2.65,"target":"right","response":"right","rt":219,"correct":true,"confidence":2},{"trial_n":110,"n_dots":2.65,"target":"left","response":"left","rt":68,"correct":true,"confidence":2},{"trial_n":111,"n_dots":2.55,"target":"right","response":"right","rt":74,"correct":true,"confidence":2},{"trial_n":112,"n_dots":2.55,"target":"left","response":"left","rt":271,"correct":true,"confidence":1},{"trial_n":113,"n_dots":2.45,"target":"left","response":"left","rt":742,"correct":true,"confidence":3},{"trial_n":114,"n_dots":2.45,"target":"left","response":"right","rt":253.00000000023,"correct":false,"confidence":3},{"trial_n":115,"n_dots":2.55,"target":"left","response":"right","rt":252.99999999977,"correct":false,"confidence":3},{"trial_n":116,"n_dots":2.65,"target":"right","response":"right","rt":251,"correct":true,"confidence":3},{"trial_n":117,"n_dots":2.65,"target":"right","response":"left","rt":300.00000000023,"correct":false,"confidence":2},{"trial_n":118,"n_dots":2.75,"target":"left","response":"right","rt":158,"correct":false,"confidence":2},{"trial_n":119,"n_dots":2.85,"target":"right","response":"right","rt":209,"correct":true,"confidence":4},{"trial_n":120,"n_dots":2.85,"target":"left","response":"left","rt":421,"correct":true,"confidence":3}]