[{"trial_n":1,"n_dots":4.25,"target":"right","response":"left","rt":9129,"correct":false,"confidence":-1},{"trial_n":2,"n_dots":4.25,"target":"right","response":"left","rt":1653.1000000089,"correct":false,"confidence":-1},{"trial_n":3,"n_dots":4.65,"target":"right","response":"right","rt":828.39999999106,"correct":true,"confidence":-1},{"trial_n":4,"n_dots":4.65,"target":"left","response":"left","rt":605,"correct":true,"confidence":-1},{"trial_n":5,"n_dots":4.25,"target":"left","response":"left","rt":891.70000000298,"correct":true,"confidence":-1},{"trial_n":6,"n_dots":4.25,"target":"right","response":"right","rt":601.20000000298,"correct":true,"confidence":-1},{"trial_n":7,"n_dots":3.85,"target":"right","response":"right","rt":685.79999999702,"correct":true,"confidence":-1},{"trial_n":8,"n_dots":3.85,"target":"right","response":"right","rt":553.79999999702,"correct":true,"confidence":-1},{"trial_n":9,"n_dots":3.65,"target":"right","response":"right","rt":746.79999999702,"correct":true,"confidence":-1},{"trial_n":10,"n_dots":3.65,"target":"left","response":"left","rt":793,"correct":true,"confidence":-1},{"trial_n":11,"n_dots":3.45,"target":"left","response":"left","rt":685.20000000298,"correct":true,"confidence":-1},{"trial_n":12,"n_dots":3.45,"target":"left","response":"left","rt":523.90000000596,"correct":true,"confidence":-1},{"trial_n":13,"n_dots":3.35,"target":"right","response":"right","rt":544.70000000298,"correct":true,"confidence":-1},{"trial_n":14,"n_dots":3.35,"target":"right","response":"right","rt":839.79999999702,"correct":true,"confidence":-1},{"trial_n":15,"n_dots":3.25,"target":"right","response":"left","rt":880.09999999404,"correct":false,"confidence":-1},{"trial_n":16,"n_dots":3.35,"target":"right","response":"right","rt":376.10000000894,"correct":true,"confidence":-1},{"trial_n":17,"n_dots":3.35,"target":"left","response":"left","rt":588.89999999106,"correct":true,"confidence":-1},{"trial_n":18,"n_dots":3.25,"target":"right","response":"left","rt":1290.200000003,"correct":false,"confidence":-1},{"trial_n":19,"n_dots":3.35,"target":"left","response":"left","rt":1140.700000003,"correct":true,"confidence":-1},{"trial_n":20,"n_dots":3.35,"target":"right","response":"left","rt":824,"correct":false,"confidence":-1},{"trial_n":21,"n_dots":3.45,"target":"left","response":"left","rt":901.79999999702,"correct":true,"confidence":3},{"trial_n":22,"n_dots":3.45,"target":"left","response":"left","rt":681.79999999702,"correct":true,"confidence":4},{"trial_n":23,"n_dots":3.35,"target":"right","response":"right","rt":929.40000000596,"correct":true,"confidence":3},{"trial_n":24,"n_dots":3.35,"target":"right","response":"left","rt":3067.599999994,"correct":false,"confidence":2},{"trial_n":25,"n_dots":3.45,"target":"right","response":"left","rt":1072.400000006,"correct":false,"confidence":2},{"trial_n":26,"n_dots":3.55,"target":"right","response":"right","rt":1135.599999994,"correct":true,"confidence":2},{"trial_n":27,"n_dots":3.55,"target":"left","response":"left","rt":803.80000001192,"correct":true,"confidence":2},{"trial_n":28,"n_dots":3.45,"target":"left","response":"left","rt":861.5,"correct":true,"confidence":2},{"trial_n":29,"n_dots":3.45,"target":"right","response":"right","rt":583.29999999702,"correct":true,"confidence":2},{"trial_n":30,"n_dots":3.35,"target":"left","response":"left","rt":407.20000000298,"correct":true,"confidence":2},{"trial_n":31,"n_dots":3.35,"target":"left","response":"left","rt":853.40000000596,"correct":true,"confidence":2},{"trial_n":32,"n_dots":3.25,"target":"left","response":"right","rt":2599.299999997,"correct":false,"confidence":1},{"trial_n":33,"n_dots":3.35,"target":"right","response":"right","rt":877.70000000298,"correct":true,"confidence":3},{"trial_n":34,"n_dots":3.35,"target":"left","response":"left","rt":747.30000001192,"correct":true,"confidence":2},{"trial_n":35,"n_dots":3.25,"target":"right","response":"right","rt":1172.400000006,"correct":true,"confidence":2},{"trial_n":36,"n_dots":3.25,"target":"left","response":"left","rt":760.70000000298,"correct":true,"confidence":2},{"trial_n":37,"n_dots":3.15,"target":"left","response":"left","rt":1204.5,"correct":true,"confidence":2},{"trial_n":38,"n_dots":3.15,"target":"right","response":"left","rt":1402.799999997,"correct":false,"confidence":2},{"trial_n":39,"n_dots":3.25,"target":"left","response":"right","rt":1607.299999997,"correct":false,"confidence":1},{"trial_n":40,"n_dots":3.35,"target":"right","response":"right","rt":725.29999999702,"correct":true,"confidence":2},{"trial_n":41,"n_dots":3.35,"target":"right","response":"right","rt":653.79999999702,"correct":true,"confidence":1},{"trial_n":42,"n_dots":3.25,"target":"right","response":"left","rt":1087.299999997,"correct":false,"confidence":1},{"trial_n":43,"n_dots":3.35,"target":"right","response":"left","rt":1092,"correct":false,"confidence":1},{"trial_n":44,"n_dots":3.45,"target":"right","response":"right","rt":1104.3999999911,"correct":true,"confidence":1},{"trial_n":45,"n_dots":3.45,"target":"right","response":"right","rt":1062.200000003,"correct":true,"confidence":1},{"trial_n":46,"n_dots":3.35,"target":"right","response":"right","rt":825.40000000596,"correct":true,"confidence":3},{"trial_n":47,"n_dots":3.35,"target":"left","response":"left","rt":1262.799999997,"correct":true,"confidence":3},{"trial_n":48,"n_dots":3.25,"target":"right","response":"left","rt":896.60000000894,"correct":false,"confidence":4},{"trial_n":49,"n_dots":3.35,"target":"right","response":"left","rt":3159.700000003,"correct":false,"confidence":3},{"trial_n":50,"n_dots":3.45,"target":"left","response":"left","rt":1967.900000006,"correct":true,"confidence":1},{"trial_n":51,"n_dots":3.45,"target":"left","response":"left","rt":983.79999999702,"correct":true,"confidence":3},{"trial_n":52,"n_dots":3.35,"target":"left","response":"left","rt":1009.200000003,"correct":true,"confidence":1},{"trial_n":53,"n_dots":3.35,"target":"right","response":"right","rt":1046.099999994,"correct":true,"confidence":2},{"trial_n":54,"n_dots":3.25,"target":"right","response":"right","rt":786.79999999702,"correct":true,"confidence":3},{"trial_n":55,"n_dots":3.25,"target":"left","response":"left","rt":382.79999999702,"correct":true,"confidence":3},{"trial_n":56,"n_dots":3.15,"target":"left","response":"left","rt":857.20000000298,"correct":true,"confidence":4},{"trial_n":57,"n_dots":3.15,"target":"left","response":"left","rt":916.29999999702,"correct":true,"confidence":4},{"trial_n":58,"n_dots":3.05,"target":"right","response":"right","rt":856.29999999702,"correct":true,"confidence":3},{"trial_n":59,"n_dots":3.05,"target":"right","response":"right","rt":1381.299999997,"correct":true,"confidence":3},{"trial_n":60,"n_dots":2.95,"target":"left","response":"left","rt":1029.799999997,"correct":true,"confidence":3},{"trial_n":61,"n_dots":2.95,"target":"right","response":"right","rt":2751,"correct":true,"confidence":3},{"trial_n":62,"n_dots":2.85,"target":"left","response":"left","rt":650.29999999702,"correct":true,"confidence":4},{"trial_n":63,"n_dots":2.85,"target":"left","response":"left","rt":668,"correct":true,"confidence":4},{"trial_n":64,"n_dots":2.75,"target":"left","response":"left","rt":636.09999999404,"correct":true,"confidence":4},{"trial_n":65,"n_dots":2.75,"target":"left","response":"left","rt":585.09999999404,"correct":true,"confidence":4},{"trial_n":66,"n_dots":2.65,"target":"right","response":"right","rt":2088,"correct":true,"confidence":3},{"trial_n":67,"n_dots":2.65,"target":"left","response":"left","rt":639.29999999702,"correct":true,"confidence":4},{"trial_n":68,"n_dots":2.55,"target":"right","response":"right","rt":577.40000000596,"correct":true,"confidence":4},{"trial_n":69,"n_dots":2.55,"target":"left","response":"left","rt":676.39999999106,"correct":true,"confidence":3},{"trial_n":70,"n_dots":2.45,"target":"right","response":"right","rt":923.59999999404,"correct":true,"confidence":3},{"trial_n":71,"n_dots":2.45,"target":"left","response":"left","rt":703.39999999106,"correct":true,"confidence":3},{"trial_n":72,"n_dots":2.35,"target":"left","response":"left","rt":656.79999999702,"correct":true,"confidence":2},{"trial_n":73,"n_dots":2.35,"target":"left","response":"left","rt":618.20000000298,"correct":true,"confidence":3},{"trial_n":74,"n_dots":2.25,"target":"left","response":"right","rt":983.40000000596,"correct":false,"confidence":3},{"trial_n":75,"n_dots":2.35,"target":"right","response":"left","rt":626,"correct":false,"confidence":3},{"trial_n":76,"n_dots":2.45,"target":"right","response":"left","rt":1399.799999997,"correct":false,"confidence":3},{"trial_n":77,"n_dots":2.55,"target":"right","response":"right","rt":1667.099999994,"correct":true,"confidence":3},{"trial_n":78,"n_dots":2.55,"target":"left","response":"left","rt":963.09999999404,"correct":true,"confidence":3},{"trial_n":79,"n_dots":2.45,"target":"right","response":"right","rt":547.5,"correct":true,"confidence":3},{"trial_n":80,"n_dots":2.45,"target":"right","response":"left","rt":1171.799999997,"correct":false,"confidence":2},{"trial_n":81,"n_dots":2.55,"target":"right","response":"right","rt":1573.3000000119,"correct":true,"confidence":2},{"trial_n":82,"n_dots":2.55,"target":"right","response":"left","rt":1137.3999999911,"correct":false,"confidence":2},{"trial_n":83,"n_dots":2.65,"target":"right","response":"right","rt":875.20000000298,"correct":true,"confidence":3},{"trial_n":84,"n_dots":2.65,"target":"left","response":"left","rt":8425.6999999881,"correct":true,"confidence":2},{"trial_n":85,"n_dots":2.55,"target":"left","response":"left","rt":710.40000000596,"correct":true,"confidence":2},{"trial_n":86,"n_dots":2.55,"target":"right","response":"right","rt":747.90000000596,"correct":true,"confidence":2},{"trial_n":87,"n_dots":2.45,"target":"right","response":"left","rt":1070.700000003,"correct":false,"confidence":1},{"trial_n":88,"n_dots":2.55,"target":"left","response":"left","rt":1397.299999997,"correct":true,"confidence":1},{"trial_n":89,"n_dots":2.55,"target":"left","response":"left","rt":830.29999999702,"correct":true,"confidence":1},{"trial_n":90,"n_dots":2.45,"target":"right","response":"right","rt":841.39999999106,"correct":true,"confidence":4},{"trial_n":91,"n_dots":2.45,"target":"left","response":"left","rt":603.70000000298,"correct":true,"confidence":4},{"trial_n":92,"n_dots":2.35,"target":"left","response":"right","rt":1062,"correct":false,"confidence":1},{"trial_n":93,"n_dots":2.45,"target":"left","response":"left","rt":788.5,"correct":true,"confidence":2},{"trial_n":94,"n_dots":2.45,"target":"right","response":"left","rt":995.59999999404,"correct":false,"confidence":3},{"trial_n":95,"n_dots":2.55,"target":"left","response":"left","rt":660.29999999702,"correct":true,"confidence":3},{"trial_n":96,"n_dots":2.55,"target":"left","response":"left","rt":938,"correct":true,"confidence":2},{"trial_n":97,"n_dots":2.45,"target":"right","response":"right","rt":33865.800000012,"correct":true,"confidence":1},{"trial_n":98,"n_dots":2.45,"target":"right","response":"right","rt":1259.400000006,"correct":true,"confidence":3},{"trial_n":99,"n_dots":2.35,"target":"left","response":"left","rt":877.79999999702,"correct":true,"confidence":3},{"trial_n":100,"n_dots":2.35,"target":"left","response":"left","rt":797.39999999106,"correct":true,"confidence":2},{"trial_n":101,"n_dots":2.25,"target":"right","response":"right","rt":1946.5,"correct":true,"confidence":2},{"trial_n":102,"n_dots":2.25,"target":"left","response":"left","rt":943.89999999106,"correct":true,"confidence":1},{"trial_n":103,"n_dots":2.15,"target":"left","response":"left","rt":747.89999999106,"correct":true,"confidence":1},{"trial_n":104,"n_dots":2.15,"target":"right","response":"left","rt":750.09999999404,"correct":false,"confidence":1},{"trial_n":105,"n_dots":2.25,"target":"left","response":"left","rt":1015.5,"correct":true,"confidence":3},{"trial_n":106,"n_dots":2.25,"target":"left","response":"left","rt":397.70000000298,"correct":true,"confidence":3},{"trial_n":107,"n_dots":2.15,"target":"left","response":"left","rt":472.20000000298,"correct":true,"confidence":3},{"trial_n":108,"n_dots":2.15,"target":"right","response":"right","rt":611.60000000894,"correct":true,"confidence":1},{"trial_n":109,"n_dots":2.05,"target":"left","response":"left","rt":367.5,"correct":true,"confidence":1},{"trial_n":110,"n_dots":2.05,"target":"right","response":"left","rt":467.39999999106,"correct":false,"confidence":2},{"trial_n":111,"n_dots":2.15,"target":"left","response":"left","rt":670.20000000298,"correct":true,"confidence":1},{"trial_n":112,"n_dots":2.15,"target":"left","response":"left","rt":495.10000000894,"correct":true,"confidence":2},{"trial_n":113,"n_dots":2.05,"target":"left","response":"right","rt":2039.5,"correct":false,"confidence":1},{"trial_n":114,"n_dots":2.15,"target":"left","response":"left","rt":411.59999999404,"correct":true,"confidence":1},{"trial_n":115,"n_dots":2.15,"target":"left","response":"left","rt":458.20000000298,"correct":true,"confidence":2},{"trial_n":116,"n_dots":2.05,"target":"right","response":"right","rt":1022.3000000119,"correct":true,"confidence":3},{"trial_n":117,"n_dots":2.05,"target":"right","response":"right","rt":414.89999999106,"correct":true,"confidence":2},{"trial_n":118,"n_dots":1.95,"target":"right","response":"left","rt":654.20000000298,"correct":false,"confidence":2},{"trial_n":119,"n_dots":2.05,"target":"left","response":"left","rt":768.29999999702,"correct":true,"confidence":2},{"trial_n":120,"n_dots":2.05,"target":"right","response":"right","rt":874.19999998808,"correct":true,"confidence":2}]