[{"trial_n":1,"span":8,"encoder":"20828987","distractor":"26828987","target":"present","response":"absent","rt":"2728.3999999985","correct":false,"confidence":-1},{"trial_n":2,"span":6,"encoder":"380800","distractor":"380900","target":"present","response":"present","rt":"1123.9000000022","correct":true,"confidence":-1},{"trial_n":3,"span":6,"encoder":"442676","distractor":"442675","target":"absent","response":"absent","rt":"3670.1000000015","correct":true,"confidence":-1},{"trial_n":4,"span":8,"encoder":"60813609","distractor":"66813609","target":"absent","response":"present","rt":"3466.3000000007","correct":false,"confidence":-1},{"trial_n":5,"span":6,"encoder":"141619","distractor":"141649","target":"present","response":"present","rt":"3316.4000000022","correct":true,"confidence":-1},{"trial_n":6,"span":6,"encoder":"867790","distractor":"867730","target":"present","response":"absent","rt":"2258.0999999978","correct":false,"confidence":-1},{"trial_n":7,"span":4,"encoder":"2120","distractor":"2520","target":"present","response":"present","rt":"1674.6000000015","correct":true,"confidence":-1},{"trial_n":8,"span":4,"encoder":"2137","distractor":"2337","target":"present","response":"present","rt":"1225.3000000007","correct":true,"confidence":-1},{"trial_n":9,"span":6,"encoder":"480422","distractor":"480472","target":"present","response":"present","rt":"1711.6999999993","correct":true,"confidence":-1},{"trial_n":10,"span":6,"encoder":"440825","distractor":"490825","target":"absent","response":"absent","rt":"1708.8000000007","correct":true,"confidence":-1},{"trial_n":11,"span":8,"encoder":"91774040","distractor":"91714040","target":"absent","response":"absent","rt":"5662.3999999985","correct":true,"confidence":-1},{"trial_n":12,"span":8,"encoder":"33456580","distractor":"33456080","target":"absent","response":"absent","rt":"9598.8000000007","correct":true,"confidence":-1},{"trial_n":13,"span":9,"encoder":"234890455","distractor":"234870455","target":"present","response":"present","rt":"1632.8000000007","correct":true,"confidence":-1},{"trial_n":14,"span":9,"encoder":"235463241","distractor":"237463241","target":"present","response":"present","rt":"1196.5","correct":true,"confidence":-1},{"trial_n":15,"span":10,"encoder":"6295570189","distractor":"6295570789","target":"present","response":"present","rt":"3077","correct":true,"confidence":-1},{"trial_n":16,"span":10,"encoder":"6378993192","distractor":"6338993192","target":"absent","response":"present","rt":"1090.8999999985","correct":false,"confidence":-1},{"trial_n":17,"span":9,"encoder":"171581490","distractor":"111581490","target":"absent","response":"present","rt":"2192.0999999978","correct":false,"confidence":-1},{"trial_n":18,"span":8,"encoder":"93001373","distractor":"43001373","target":"absent","response":"absent","rt":"2751.6000000015","correct":true,"confidence":-1},{"trial_n":19,"span":8,"encoder":"84454151","distractor":"84454101","target":"present","response":"present","rt":"3160.6000000015","correct":true,"confidence":-1},{"trial_n":20,"span":9,"encoder":"731901643","distractor":"731901633","target":"present","response":"present","rt":"9022.9000000022","correct":true,"confidence":-1},{"trial_n":21,"span":9,"encoder":"451190031","distractor":"751190031","target":"absent","response":"present","rt":"1957.6000000015","correct":false,"confidence":1},{"trial_n":22,"span":8,"encoder":"36418022","distractor":"36418020","target":"absent","response":"absent","rt":"2492.8999999985","correct":true,"confidence":2},{"trial_n":23,"span":8,"encoder":"60947874","distractor":"60947804","target":"present","response":"present","rt":"2620.9000000022","correct":true,"confidence":3},{"trial_n":24,"span":9,"encoder":"360512568","distractor":"360582568","target":"absent","response":"absent","rt":"2877.6000000015","correct":true,"confidence":4},{"trial_n":25,"span":9,"encoder":"964249618","distractor":"964249688","target":"absent","response":"present","rt":"5488.1000000015","correct":false,"confidence":1},{"trial_n":26,"span":8,"encoder":"10964067","distractor":"10964064","target":"present","response":"present","rt":"3508.3999999985","correct":true,"confidence":2},{"trial_n":27,"span":8,"encoder":"65547289","distractor":"65545289","target":"present","response":"absent","rt":"3740.8000000007","correct":false,"confidence":3},{"trial_n":28,"span":7,"encoder":"4764152","distractor":"4764252","target":"absent","response":"present","rt":"12229.300000001","correct":false,"confidence":2},{"trial_n":29,"span":6,"encoder":"938811","distractor":"978811","target":"present","response":"absent","rt":"1389.1999999993","correct":false,"confidence":3},{"trial_n":30,"span":5,"encoder":"70362","distractor":"70352","target":"present","response":"present","rt":"898.80000000075","correct":true,"confidence":3},{"trial_n":31,"span":5,"encoder":"24763","distractor":"24783","target":"absent","response":"absent","rt":"1117.200000003","correct":true,"confidence":3},{"trial_n":32,"span":6,"encoder":"288029","distractor":"888029","target":"absent","response":"absent","rt":"2111.8999999985","correct":true,"confidence":2},{"trial_n":33,"span":6,"encoder":"476067","distractor":"406067","target":"present","response":"present","rt":"1989.6999999993","correct":true,"confidence":2},{"trial_n":34,"span":7,"encoder":"4549546","distractor":"4542546","target":"present","response":"absent","rt":"4341.8000000007","correct":false,"confidence":1},{"trial_n":35,"span":6,"encoder":"299009","distractor":"299709","target":"absent","response":"absent","rt":"1528.0999999978","correct":true,"confidence":2},{"trial_n":36,"span":6,"encoder":"257741","distractor":"267741","target":"absent","response":"absent","rt":"2137.3000000007","correct":true,"confidence":3},{"trial_n":37,"span":7,"encoder":"2818688","distractor":"2808688","target":"present","response":"absent","rt":"1487.0999999978","correct":false,"confidence":4},{"trial_n":38,"span":6,"encoder":"844976","distractor":"844970","target":"present","response":"absent","rt":"1099.0999999978","correct":false,"confidence":3},{"trial_n":39,"span":5,"encoder":"54451","distractor":"54458","target":"absent","response":"absent","rt":"1586.4000000022","correct":true,"confidence":3},{"trial_n":40,"span":5,"encoder":"38804","distractor":"38809","target":"present","response":"present","rt":"1758.8000000007","correct":true,"confidence":5},{"trial_n":41,"span":6,"encoder":"243320","distractor":"243321","target":"absent","response":"absent","rt":"1780.1000000015","correct":true,"confidence":3},{"trial_n":42,"span":6,"encoder":"356743","distractor":"256743","target":"absent","response":"present","rt":"2631.5999999978","correct":false,"confidence":3},{"trial_n":43,"span":5,"encoder":"67213","distractor":"07213","target":"present","response":"absent","rt":"3178.1000000015","correct":false,"confidence":1},{"trial_n":44,"span":4,"encoder":"4722","distractor":"4922","target":"absent","response":"present","rt":"4228.5","correct":false,"confidence":4},{"trial_n":45,"span":3,"encoder":"174","distractor":"774","target":"absent","response":"present","rt":"3827.3999999985","correct":false,"confidence":2},{"trial_n":46,"span":2,"encoder":"84","distractor":"89","target":"present","response":"present","rt":"1426.5","correct":true,"confidence":5},{"trial_n":47,"span":2,"encoder":"30","distractor":"70","target":"present","response":"present","rt":"1246.5","correct":true,"confidence":5},{"trial_n":48,"span":3,"encoder":"187","distractor":"087","target":"present","response":"present","rt":"1562.4000000022","correct":true,"confidence":5},{"trial_n":49,"span":3,"encoder":"319","distractor":"369","target":"absent","response":"absent","rt":"1332.799999997","correct":true,"confidence":5},{"trial_n":50,"span":4,"encoder":"2671","distractor":"2171","target":"absent","response":"absent","rt":"2567.3000000007","correct":true,"confidence":3},{"trial_n":51,"span":4,"encoder":"0963","distractor":"0966","target":"absent","response":"absent","rt":"1521.5","correct":true,"confidence":4},{"trial_n":52,"span":5,"encoder":"49123","distractor":"49120","target":"present","response":"present","rt":"1844.3000000007","correct":true,"confidence":5},{"trial_n":53,"span":5,"encoder":"82650","distractor":"12650","target":"absent","response":"absent","rt":"1068.3999999985","correct":true,"confidence":4},{"trial_n":54,"span":6,"encoder":"853586","distractor":"853526","target":"absent","response":"absent","rt":"2063.3000000007","correct":true,"confidence":4},{"trial_n":55,"span":6,"encoder":"929789","distractor":"829789","target":"present","response":"present","rt":"3486.8000000007","correct":true,"confidence":3},{"trial_n":56,"span":7,"encoder":"5562213","distractor":"5562113","target":"absent","response":"absent","rt":"2153.1999999993","correct":true,"confidence":3},{"trial_n":57,"span":7,"encoder":"9274287","distractor":"9574287","target":"absent","response":"absent","rt":"1666.1000000015","correct":true,"confidence":3},{"trial_n":58,"span":8,"encoder":"91369065","distractor":"31369065","target":"absent","response":"absent","rt":"2669.3000000007","correct":true,"confidence":2},{"trial_n":59,"span":8,"encoder":"75047164","distractor":"55047164","target":"present","response":"present","rt":"3060","correct":true,"confidence":2},{"trial_n":60,"span":9,"encoder":"884467045","distractor":"884467047","target":"absent","response":"present","rt":"2872","correct":false,"confidence":1},{"trial_n":61,"span":8,"encoder":"34224667","distractor":"34724667","target":"present","response":"present","rt":"1555.5","correct":true,"confidence":3},{"trial_n":62,"span":8,"encoder":"64579269","distractor":"64579289","target":"absent","response":"present","rt":"1794.4000000022","correct":false,"confidence":2},{"trial_n":63,"span":7,"encoder":"7271854","distractor":"7291854","target":"present","response":"present","rt":"1386.799999997","correct":true,"confidence":2},{"trial_n":64,"span":7,"encoder":"4735064","distractor":"4705064","target":"present","response":"present","rt":"4742.6999999993","correct":true,"confidence":3},{"trial_n":65,"span":8,"encoder":"98363668","distractor":"98383668","target":"present","response":"absent","rt":"3888.4000000022","correct":false,"confidence":3},{"trial_n":66,"span":7,"encoder":"6198205","distractor":"6598205","target":"present","response":"present","rt":"1652.1999999993","correct":true,"confidence":3},{"trial_n":67,"span":7,"encoder":"3089967","distractor":"4089967","target":"absent","response":"absent","rt":"2312.6999999993","correct":true,"confidence":2},{"trial_n":68,"span":8,"encoder":"51655396","distractor":"56655396","target":"present","response":"present","rt":"2377.799999997","correct":true,"confidence":3},{"trial_n":69,"span":8,"encoder":"16361513","distractor":"16361516","target":"present","response":"present","rt":"21503.199999999","correct":true,"confidence":1},{"trial_n":70,"span":9,"encoder":"547438844","distractor":"547438840","target":"absent","response":"absent","rt":"3761.5","correct":true,"confidence":3},{"trial_n":71,"span":8,"encoder":"18374704","distractor":"18374714","target":"present","response":"present","rt":"1958.1000000015","correct":true,"confidence":-1},{"trial_n":72,"span":8,"encoder":"64258448","distractor":"64258440","target":"present","response":"present","rt":"2057","correct":true,"confidence":-1},{"trial_n":73,"span":9,"encoder":"643903842","distractor":"643902842","target":"absent","response":"present","rt":"8062.8000000007","correct":false,"confidence":-1},{"trial_n":74,"span":8,"encoder":"95318041","distractor":"95318071","target":"absent","response":"absent","rt":"4623.0999999978","correct":true,"confidence":-1},{"trial_n":75,"span":8,"encoder":"27101583","distractor":"27701583","target":"present","response":"absent","rt":"775.40000000224","correct":false,"confidence":-1},{"trial_n":76,"span":7,"encoder":"5848492","distractor":"5848792","target":"present","response":"present","rt":"2832.6000000015","correct":true,"confidence":-1},{"trial_n":77,"span":7,"encoder":"1135047","distractor":"1135027","target":"present","response":"present","rt":"611.10000000149","correct":true,"confidence":-1},{"trial_n":78,"span":8,"encoder":"96289530","distractor":"93289530","target":"present","response":"present","rt":"3329.8999999985","correct":true,"confidence":-1},{"trial_n":79,"span":8,"encoder":"99921904","distractor":"99021904","target":"absent","response":"present","rt":"1869.1999999993","correct":false,"confidence":-1},{"trial_n":80,"span":7,"encoder":"0100814","distractor":"4100814","target":"present","response":"present","rt":"1736.700000003","correct":true,"confidence":-1},{"trial_n":81,"span":7,"encoder":"1019702","distractor":"1015702","target":"present","response":"present","rt":"1893.8000000007","correct":true,"confidence":-1},{"trial_n":82,"span":8,"encoder":"08679387","distractor":"08649387","target":"absent","response":"absent","rt":"1726.3999999985","correct":true,"confidence":-1},{"trial_n":83,"span":8,"encoder":"28090483","distractor":"22090483","target":"absent","response":"present","rt":"3966.700000003","correct":false,"confidence":-1},{"trial_n":84,"span":7,"encoder":"0062459","distractor":"0032459","target":"present","response":"absent","rt":"14033.800000001","correct":false,"confidence":-1},{"trial_n":85,"span":6,"encoder":"979154","distractor":"979054","target":"present","response":"present","rt":"2021.5","correct":true,"confidence":-1},{"trial_n":86,"span":6,"encoder":"479160","distractor":"429160","target":"absent","response":"absent","rt":"2423.8999999985","correct":true,"confidence":-1},{"trial_n":87,"span":7,"encoder":"4391054","distractor":"1391054","target":"absent","response":"absent","rt":"2349","correct":true,"confidence":-1},{"trial_n":88,"span":7,"encoder":"8556977","distractor":"8756977","target":"absent","response":"present","rt":"3953.6999999993","correct":false,"confidence":-1},{"trial_n":89,"span":6,"encoder":"160624","distractor":"120624","target":"present","response":"present","rt":"2875.6999999993","correct":true,"confidence":-1},{"trial_n":90,"span":6,"encoder":"608563","distractor":"108563","target":"present","response":"present","rt":"1359.700000003","correct":true,"confidence":-1},{"trial_n":91,"span":7,"encoder":"0862192","distractor":"0862092","target":"present","response":"present","rt":"1096.5999999978","correct":true,"confidence":4},{"trial_n":92,"span":7,"encoder":"0477477","distractor":"0470477","target":"present","response":"present","rt":"2292.5","correct":true,"confidence":1},{"trial_n":93,"span":8,"encoder":"95028038","distractor":"55028038","target":"present","response":"present","rt":"2344.1000000015","correct":true,"confidence":5},{"trial_n":94,"span":8,"encoder":"38908391","distractor":"58908391","target":"present","response":"present","rt":"2175.0999999978","correct":true,"confidence":3},{"trial_n":95,"span":9,"encoder":"007667489","distractor":"067667489","target":"absent","response":"present","rt":"4578.6000000015","correct":false,"confidence":1},{"trial_n":96,"span":8,"encoder":"34178960","distractor":"74178960","target":"present","response":"present","rt":"1604.5999999978","correct":true,"confidence":5},{"trial_n":97,"span":8,"encoder":"53984899","distractor":"56984899","target":"absent","response":"absent","rt":"7422.8999999985","correct":true,"confidence":1},{"trial_n":98,"span":9,"encoder":"928349108","distractor":"428349108","target":"absent","response":"absent","rt":"1675.6999999993","correct":true,"confidence":5},{"trial_n":99,"span":9,"encoder":"471569424","distractor":"471569422","target":"present","response":"present","rt":"4616.5","correct":true,"confidence":1},{"trial_n":100,"span":10,"encoder":"0171206998","distractor":"7171206998","target":"absent","response":"present","rt":"9512.4000000022","correct":false,"confidence":1},{"trial_n":101,"span":9,"encoder":"923073431","distractor":"923073461","target":"absent","response":"absent","rt":"1429","correct":true,"confidence":3},{"trial_n":102,"span":9,"encoder":"221554173","distractor":"211554173","target":"present","response":"present","rt":"680.19999999925","correct":true,"confidence":3},{"trial_n":103,"span":10,"encoder":"6344383495","distractor":"6344386495","target":"present","response":"absent","rt":"572","correct":false,"confidence":1},{"trial_n":104,"span":9,"encoder":"713349321","distractor":"813349321","target":"absent","response":"present","rt":"793.60000000149","correct":false,"confidence":2},{"trial_n":105,"span":8,"encoder":"97338946","distractor":"97328946","target":"present","response":"absent","rt":"1165.299999997","correct":false,"confidence":3},{"trial_n":106,"span":7,"encoder":"1412737","distractor":"1411737","target":"absent","response":"absent","rt":"2225.5","correct":true,"confidence":4},{"trial_n":107,"span":7,"encoder":"7814533","distractor":"7814534","target":"present","response":"present","rt":"1687.8999999985","correct":true,"confidence":4},{"trial_n":108,"span":8,"encoder":"66757539","distractor":"66757239","target":"present","response":"present","rt":"1403.6999999993","correct":true,"confidence":5},{"trial_n":109,"span":8,"encoder":"79789239","distractor":"79889239","target":"absent","response":"absent","rt":"4172.6999999993","correct":true,"confidence":1},{"trial_n":110,"span":9,"encoder":"276462599","distractor":"276462539","target":"absent","response":"absent","rt":"7765.3999999985","correct":true,"confidence":1},{"trial_n":111,"span":9,"encoder":"292920458","distractor":"292928458","target":"absent","response":"present","rt":"1192.5999999978","correct":false,"confidence":4},{"trial_n":112,"span":8,"encoder":"64084597","distractor":"64014597","target":"absent","response":"absent","rt":"2755.1000000015","correct":true,"confidence":4},{"trial_n":113,"span":8,"encoder":"93982721","distractor":"95982721","target":"absent","response":"absent","rt":"16598.100000001","correct":true,"confidence":1},{"trial_n":114,"span":9,"encoder":"299056565","distractor":"297056565","target":"present","response":"absent","rt":"3986.5","correct":false,"confidence":1},{"trial_n":115,"span":8,"encoder":"90761876","distractor":"95761876","target":"present","response":"present","rt":"3263.8000000007","correct":true,"confidence":4},{"trial_n":116,"span":8,"encoder":"98396441","distractor":"98096441","target":"present","response":"present","rt":"4014","correct":true,"confidence":4},{"trial_n":117,"span":9,"encoder":"199375809","distractor":"199375879","target":"present","response":"present","rt":"8178.8999999985","correct":true,"confidence":1},{"trial_n":118,"span":9,"encoder":"257810251","distractor":"251810251","target":"absent","response":"absent","rt":"2822.4000000022","correct":true,"confidence":4},{"trial_n":119,"span":10,"encoder":"4539594428","distractor":"4539514428","target":"present","response":"present","rt":"6170.8000000007","correct":true,"confidence":1},{"trial_n":120,"span":10,"encoder":"7878858381","distractor":"7868858381","target":"present","response":"present","rt":"4080.0999999978","correct":true,"confidence":5},{"trial_n":121,"span":11,"encoder":"62435280793","distractor":"62435280799","target":"absent","response":"present","rt":"3528.1999999993","correct":false,"confidence":1},{"trial_n":122,"span":10,"encoder":"8271593215","distractor":"8271593205","target":"present","response":"present","rt":"4082.299999997","correct":true,"confidence":3},{"trial_n":123,"span":10,"encoder":"4484136125","distractor":"4487136125","target":"absent","response":"present","rt":"8360.4000000022","correct":false,"confidence":1},{"trial_n":124,"span":9,"encoder":"110223527","distractor":"110223526","target":"absent","response":"absent","rt":"4989.1000000015","correct":true,"confidence":2},{"trial_n":125,"span":9,"encoder":"774983953","distractor":"774993953","target":"absent","response":"absent","rt":"17978.399999999","correct":true,"confidence":1},{"trial_n":126,"span":10,"encoder":"5097839298","distractor":"5093839298","target":"absent","response":"absent","rt":"1739.3999999985","correct":true,"confidence":2},{"trial_n":127,"span":10,"encoder":"8784817578","distractor":"8781817578","target":"absent","response":"absent","rt":"3591.299999997","correct":true,"confidence":1},{"trial_n":128,"span":11,"encoder":"54955919268","distractor":"54985919268","target":"absent","response":"absent","rt":"1855.5999999978","correct":true,"confidence":1},{"trial_n":129,"span":11,"encoder":"94732655177","distractor":"94739655177","target":"present","response":"present","rt":"6471.1000000015","correct":true,"confidence":3},{"trial_n":130,"span":12,"encoder":"066421757014","distractor":"066421757064","target":"absent","response":"absent","rt":"7782.3000000007","correct":true,"confidence":1},{"trial_n":131,"span":12,"encoder":"424659234495","distractor":"404659234495","target":"absent","response":"absent","rt":"2782.8000000007","correct":true,"confidence":4},{"trial_n":132,"span":13,"encoder":"7301235805294","distractor":"7301235805274","target":"absent","response":"absent","rt":"4246.3999999985","correct":true,"confidence":1},{"trial_n":133,"span":13,"encoder":"9614981342013","distractor":"1614981342013","target":"absent","response":"absent","rt":"1465","correct":true,"confidence":3},{"trial_n":134,"span":14,"encoder":"66396170169081","distractor":"69396170169081","target":"present","response":"present","rt":"11424","correct":true,"confidence":3},{"trial_n":135,"span":14,"encoder":"73385375697547","distractor":"72385375697547","target":"present","response":"absent","rt":"11845","correct":false,"confidence":1},{"trial_n":136,"span":13,"encoder":"3976463499997","distractor":"3977463499997","target":"absent","response":"absent","rt":"9890.1999999993","correct":true,"confidence":1},{"trial_n":137,"span":13,"encoder":"1174591827561","distractor":"1074591827561","target":"absent","response":"absent","rt":"3517.4000000022","correct":true,"confidence":2},{"trial_n":138,"span":14,"encoder":"15164679065514","distractor":"15164671065514","target":"present","response":"absent","rt":"15623.399999999","correct":false,"confidence":2},{"trial_n":139,"span":13,"encoder":"4283948857305","distractor":"4203948857305","target":"present","response":"present","rt":"3508.299999997","correct":true,"confidence":1},{"trial_n":140,"span":13,"encoder":"4067287621356","distractor":"4066287621356","target":"present","response":"present","rt":"6603.3999999985","correct":true,"confidence":2}]