[{"trial_n":1,"min":25,"max":230,"target":"present","response":"present","rt":5371.1000000015,"correct":true,"confidence":-1},{"trial_n":2,"min":25,"max":230,"target":"present","response":"absent","rt":1352.1999999993,"correct":false,"confidence":-1},{"trial_n":3,"min":9,"max":246,"target":"absent","response":"absent","rt":5885.700000003,"correct":true,"confidence":-1},{"trial_n":4,"min":9,"max":246,"target":"absent","response":"present","rt":1334.8999999985,"correct":false,"confidence":-1},{"trial_n":5,"min":0,"max":255,"target":"present","response":"present","rt":933.60000000149,"correct":true,"confidence":-1},{"trial_n":6,"min":0,"max":255,"target":"absent","response":"absent","rt":461.89999999851,"correct":true,"confidence":-1},{"trial_n":7,"min":16,"max":239,"target":"present","response":"present","rt":480,"correct":true,"confidence":-1},{"trial_n":8,"min":16,"max":239,"target":"absent","response":"absent","rt":274.10000000149,"correct":true,"confidence":-1},{"trial_n":9,"min":32,"max":223,"target":"present","response":"present","rt":460.30000000075,"correct":true,"confidence":-1},{"trial_n":10,"min":32,"max":223,"target":"absent","response":"absent","rt":476.30000000075,"correct":true,"confidence":-1},{"trial_n":11,"min":40,"max":215,"target":"absent","response":"absent","rt":276.19999999925,"correct":true,"confidence":-1},{"trial_n":12,"min":40,"max":215,"target":"absent","response":"absent","rt":306.5,"correct":true,"confidence":-1},{"trial_n":13,"min":48,"max":207,"target":"present","response":"present","rt":586.20000000298,"correct":true,"confidence":-1},{"trial_n":14,"min":48,"max":207,"target":"present","response":"present","rt":503.40000000224,"correct":true,"confidence":-1},{"trial_n":15,"min":56,"max":199,"target":"present","response":"absent","rt":592,"correct":false,"confidence":-1},{"trial_n":16,"min":48,"max":207,"target":"absent","response":"absent","rt":1219.8999999985,"correct":true,"confidence":-1},{"trial_n":17,"min":48,"max":207,"target":"present","response":"absent","rt":378.80000000075,"correct":false,"confidence":-1},{"trial_n":18,"min":40,"max":215,"target":"present","response":"present","rt":546,"correct":true,"confidence":-1},{"trial_n":19,"min":40,"max":215,"target":"present","response":"present","rt":497.60000000149,"correct":true,"confidence":-1},{"trial_n":20,"min":48,"max":207,"target":"absent","response":"absent","rt":558.40000000224,"correct":true,"confidence":-1},{"trial_n":21,"min":48,"max":207,"target":"absent","response":"absent","rt":567.80000000075,"correct":true,"confidence":4},{"trial_n":22,"min":52,"max":203,"target":"absent","response":"present","rt":873.5,"correct":false,"confidence":5},{"trial_n":23,"min":48,"max":207,"target":"present","response":"absent","rt":2740.0999999978,"correct":false,"confidence":3},{"trial_n":24,"min":44,"max":211,"target":"absent","response":"absent","rt":1134.799999997,"correct":true,"confidence":4},{"trial_n":25,"min":44,"max":211,"target":"absent","response":"absent","rt":602.80000000075,"correct":true,"confidence":4},{"trial_n":26,"min":48,"max":207,"target":"absent","response":"absent","rt":1331.4000000022,"correct":true,"confidence":3},{"trial_n":27,"min":48,"max":207,"target":"absent","response":"absent","rt":1026.4000000022,"correct":true,"confidence":3},{"trial_n":28,"min":52,"max":203,"target":"present","response":"present","rt":1401,"correct":true,"confidence":2},{"trial_n":29,"min":52,"max":203,"target":"present","response":"present","rt":2195,"correct":true,"confidence":1},{"trial_n":30,"min":56,"max":199,"target":"absent","response":"absent","rt":567.90000000224,"correct":true,"confidence":4},{"trial_n":31,"min":56,"max":199,"target":"present","response":"present","rt":923.80000000075,"correct":true,"confidence":3},{"trial_n":32,"min":58,"max":197,"target":"absent","response":"present","rt":18949.5,"correct":false,"confidence":1},{"trial_n":33,"min":56,"max":199,"target":"absent","response":"absent","rt":1086.3999999985,"correct":true,"confidence":4},{"trial_n":34,"min":56,"max":199,"target":"absent","response":"absent","rt":1563.6999999993,"correct":true,"confidence":3},{"trial_n":35,"min":58,"max":197,"target":"present","response":"present","rt":3515.0999999978,"correct":true,"confidence":3},{"trial_n":36,"min":58,"max":197,"target":"absent","response":"absent","rt":611,"correct":true,"confidence":2},{"trial_n":37,"min":60,"max":195,"target":"absent","response":"absent","rt":1046.5999999978,"correct":true,"confidence":4},{"trial_n":38,"min":60,"max":195,"target":"present","response":"present","rt":1277.6999999993,"correct":true,"confidence":2},{"trial_n":39,"min":62,"max":193,"target":"present","response":"present","rt":1426.6999999993,"correct":true,"confidence":3},{"trial_n":40,"min":62,"max":193,"target":"absent","response":"absent","rt":612.59999999776,"correct":true,"confidence":5},{"trial_n":41,"min":63,"max":192,"target":"absent","response":"absent","rt":3896.6999999993,"correct":true,"confidence":3},{"trial_n":42,"min":63,"max":192,"target":"present","response":"absent","rt":5231.0999999978,"correct":false,"confidence":2},{"trial_n":43,"min":62,"max":193,"target":"absent","response":"present","rt":1072.299999997,"correct":false,"confidence":4},{"trial_n":44,"min":61,"max":194,"target":"present","response":"present","rt":1027,"correct":true,"confidence":3},{"trial_n":45,"min":61,"max":194,"target":"present","response":"present","rt":894.5,"correct":true,"confidence":3},{"trial_n":46,"min":62,"max":193,"target":"present","response":"present","rt":827.90000000224,"correct":true,"confidence":3},{"trial_n":47,"min":62,"max":193,"target":"present","response":"absent","rt":953.29999999702,"correct":false,"confidence":2},{"trial_n":48,"min":61,"max":194,"target":"absent","response":"absent","rt":867.29999999702,"correct":true,"confidence":4},{"trial_n":49,"min":61,"max":194,"target":"present","response":"present","rt":1082.1999999993,"correct":true,"confidence":3},{"trial_n":50,"min":62,"max":193,"target":"absent","response":"absent","rt":1608.0999999978,"correct":true,"confidence":4},{"trial_n":51,"min":62,"max":193,"target":"present","response":"present","rt":695.69999999925,"correct":true,"confidence":4},{"trial_n":52,"min":63,"max":192,"target":"present","response":"present","rt":880.90000000224,"correct":true,"confidence":4},{"trial_n":53,"min":63,"max":192,"target":"present","response":"absent","rt":622.40000000224,"correct":false,"confidence":2},{"trial_n":54,"min":62,"max":193,"target":"absent","response":"absent","rt":2393.1999999993,"correct":true,"confidence":4},{"trial_n":55,"min":62,"max":193,"target":"absent","response":"absent","rt":2692.8999999985,"correct":true,"confidence":1},{"trial_n":56,"min":63,"max":192,"target":"absent","response":"absent","rt":3365.1000000015,"correct":true,"confidence":4},{"trial_n":57,"min":63,"max":192,"target":"absent","response":"absent","rt":4871.5,"correct":true,"confidence":4},{"trial_n":58,"min":64,"max":191,"target":"present","response":"absent","rt":872.80000000075,"correct":false,"confidence":3},{"trial_n":59,"min":63,"max":192,"target":"present","response":"present","rt":850.19999999925,"correct":true,"confidence":4},{"trial_n":60,"min":63,"max":192,"target":"present","response":"present","rt":1903,"correct":true,"confidence":3},{"trial_n":61,"min":64,"max":191,"target":"absent","response":"absent","rt":6395,"correct":true,"confidence":4},{"trial_n":62,"min":64,"max":191,"target":"present","response":"absent","rt":2588.5,"correct":false,"confidence":4},{"trial_n":63,"min":63,"max":192,"target":"present","response":"present","rt":1134.8999999985,"correct":true,"confidence":3},{"trial_n":64,"min":63,"max":192,"target":"absent","response":"absent","rt":668.09999999776,"correct":true,"confidence":2},{"trial_n":65,"min":64,"max":191,"target":"absent","response":"absent","rt":5299.0999999978,"correct":true,"confidence":5},{"trial_n":66,"min":64,"max":191,"target":"absent","response":"absent","rt":2214.6999999993,"correct":true,"confidence":5},{"trial_n":67,"min":65,"max":190,"target":"present","response":"present","rt":1737.6999999993,"correct":true,"confidence":2},{"trial_n":68,"min":65,"max":190,"target":"present","response":"present","rt":7780.5,"correct":true,"confidence":4},{"trial_n":69,"min":66,"max":189,"target":"present","response":"present","rt":19626.899999999,"correct":true,"confidence":3},{"trial_n":70,"min":66,"max":189,"target":"present","response":"present","rt":986.89999999851,"correct":true,"confidence":4},{"trial_n":71,"min":41,"max":214,"target":"present","response":"absent","rt":5760.8999999985,"correct":false,"confidence":-1},{"trial_n":72,"min":41,"max":214,"target":"present","response":"present","rt":833.89999999851,"correct":true,"confidence":-1},{"trial_n":73,"min":41,"max":214,"target":"absent","response":"present","rt":465.19999999925,"correct":false,"confidence":-1},{"trial_n":74,"min":25,"max":230,"target":"absent","response":"absent","rt":690.60000000149,"correct":true,"confidence":-1},{"trial_n":75,"min":25,"max":230,"target":"present","response":"present","rt":323.90000000224,"correct":true,"confidence":-1},{"trial_n":76,"min":41,"max":214,"target":"absent","response":"present","rt":472.5,"correct":false,"confidence":-1},{"trial_n":77,"min":25,"max":230,"target":"present","response":"present","rt":660.60000000149,"correct":true,"confidence":-1},{"trial_n":78,"min":25,"max":230,"target":"present","response":"present","rt":392,"correct":true,"confidence":-1},{"trial_n":79,"min":41,"max":214,"target":"absent","response":"absent","rt":335.80000000075,"correct":true,"confidence":-1},{"trial_n":80,"min":41,"max":214,"target":"present","response":"present","rt":421.69999999925,"correct":true,"confidence":-1},{"trial_n":81,"min":49,"max":206,"target":"present","response":"absent","rt":993.59999999776,"correct":false,"confidence":-1},{"trial_n":82,"min":41,"max":214,"target":"absent","response":"absent","rt":435.5,"correct":true,"confidence":-1},{"trial_n":83,"min":41,"max":214,"target":"present","response":"present","rt":621.70000000298,"correct":true,"confidence":-1},{"trial_n":84,"min":49,"max":206,"target":"present","response":"present","rt":392.10000000149,"correct":true,"confidence":-1},{"trial_n":85,"min":49,"max":206,"target":"present","response":"present","rt":376.79999999702,"correct":true,"confidence":-1},{"trial_n":86,"min":57,"max":198,"target":"present","response":"present","rt":569.59999999776,"correct":true,"confidence":-1},{"trial_n":87,"min":57,"max":198,"target":"present","response":"present","rt":507.30000000075,"correct":true,"confidence":-1},{"trial_n":88,"min":65,"max":190,"target":"present","response":"present","rt":529.29999999702,"correct":true,"confidence":-1},{"trial_n":89,"min":65,"max":190,"target":"present","response":"present","rt":704.90000000224,"correct":true,"confidence":-1},{"trial_n":90,"min":73,"max":182,"target":"present","response":"absent","rt":812.20000000298,"correct":false,"confidence":-1},{"trial_n":91,"min":69,"max":186,"target":"present","response":"present","rt":811.89999999851,"correct":true,"confidence":3},{"trial_n":92,"min":69,"max":186,"target":"absent","response":"absent","rt":979.60000000149,"correct":true,"confidence":2},{"trial_n":93,"min":73,"max":182,"target":"absent","response":"absent","rt":1700.3000000007,"correct":true,"confidence":2},{"trial_n":94,"min":73,"max":182,"target":"absent","response":"absent","rt":2037.3000000007,"correct":true,"confidence":4},{"trial_n":95,"min":77,"max":178,"target":"present","response":"present","rt":1532.3999999985,"correct":true,"confidence":3},{"trial_n":96,"min":77,"max":178,"target":"present","response":"present","rt":1160.1999999993,"correct":true,"confidence":4},{"trial_n":97,"min":81,"max":174,"target":"absent","response":"absent","rt":1116.4000000022,"correct":true,"confidence":2},{"trial_n":98,"min":81,"max":174,"target":"present","response":"present","rt":1107,"correct":true,"confidence":3},{"trial_n":99,"min":85,"max":170,"target":"absent","response":"present","rt":1315.9000000022,"correct":false,"confidence":3},{"trial_n":100,"min":81,"max":174,"target":"present","response":"present","rt":988.89999999851,"correct":true,"confidence":3},{"trial_n":101,"min":81,"max":174,"target":"present","response":"present","rt":382.20000000298,"correct":true,"confidence":4},{"trial_n":102,"min":83,"max":172,"target":"present","response":"present","rt":582,"correct":true,"confidence":4},{"trial_n":103,"min":83,"max":172,"target":"absent","response":"present","rt":795.70000000298,"correct":false,"confidence":3},{"trial_n":104,"min":81,"max":174,"target":"absent","response":"absent","rt":820,"correct":true,"confidence":2},{"trial_n":105,"min":81,"max":174,"target":"absent","response":"present","rt":686.30000000075,"correct":false,"confidence":4},{"trial_n":106,"min":79,"max":176,"target":"absent","response":"absent","rt":1234.3000000007,"correct":true,"confidence":2},{"trial_n":107,"min":79,"max":176,"target":"absent","response":"present","rt":925.10000000149,"correct":false,"confidence":3},{"trial_n":108,"min":77,"max":178,"target":"present","response":"absent","rt":2045.5,"correct":false,"confidence":2},{"trial_n":109,"min":75,"max":180,"target":"absent","response":"absent","rt":786.19999999925,"correct":true,"confidence":3},{"trial_n":110,"min":75,"max":180,"target":"present","response":"present","rt":305.5,"correct":true,"confidence":4},{"trial_n":111,"min":76,"max":179,"target":"absent","response":"absent","rt":639.10000000149,"correct":true,"confidence":1},{"trial_n":112,"min":76,"max":179,"target":"absent","response":"absent","rt":1126.6000000015,"correct":true,"confidence":2},{"trial_n":113,"min":77,"max":178,"target":"absent","response":"absent","rt":1008.6999999993,"correct":true,"confidence":2},{"trial_n":114,"min":77,"max":178,"target":"present","response":"present","rt":584.5,"correct":true,"confidence":2},{"trial_n":115,"min":78,"max":177,"target":"present","response":"present","rt":2741.5,"correct":true,"confidence":2},{"trial_n":116,"min":78,"max":177,"target":"absent","response":"present","rt":865.60000000149,"correct":false,"confidence":1},{"trial_n":117,"min":77,"max":178,"target":"absent","response":"absent","rt":660.70000000298,"correct":true,"confidence":2},{"trial_n":118,"min":77,"max":178,"target":"absent","response":"absent","rt":2022.6999999993,"correct":true,"confidence":1},{"trial_n":119,"min":78,"max":177,"target":"present","response":"present","rt":2570.1000000015,"correct":true,"confidence":4},{"trial_n":120,"min":78,"max":177,"target":"present","response":"present","rt":832.19999999925,"correct":true,"confidence":3},{"trial_n":121,"min":79,"max":176,"target":"absent","response":"absent","rt":1275,"correct":true,"confidence":3},{"trial_n":122,"min":79,"max":176,"target":"present","response":"present","rt":883,"correct":true,"confidence":2},{"trial_n":123,"min":80,"max":175,"target":"absent","response":"present","rt":644.5,"correct":false,"confidence":1},{"trial_n":124,"min":79,"max":176,"target":"absent","response":"present","rt":616.39999999851,"correct":false,"confidence":2},{"trial_n":125,"min":78,"max":177,"target":"absent","response":"absent","rt":1991.3999999985,"correct":true,"confidence":1},{"trial_n":126,"min":78,"max":177,"target":"present","response":"present","rt":583.80000000075,"correct":true,"confidence":4},{"trial_n":127,"min":79,"max":176,"target":"present","response":"present","rt":416.80000000075,"correct":true,"confidence":4},{"trial_n":128,"min":79,"max":176,"target":"absent","response":"present","rt":1619.1000000015,"correct":false,"confidence":1},{"trial_n":129,"min":78,"max":177,"target":"present","response":"present","rt":375.69999999925,"correct":true,"confidence":3},{"trial_n":130,"min":78,"max":177,"target":"absent","response":"present","rt":1457.8000000007,"correct":false,"confidence":1},{"trial_n":131,"min":77,"max":178,"target":"present","response":"present","rt":183,"correct":true,"confidence":3},{"trial_n":132,"min":77,"max":178,"target":"present","response":"present","rt":877.39999999851,"correct":true,"confidence":2},{"trial_n":133,"min":78,"max":177,"target":"absent","response":"absent","rt":1186.1999999993,"correct":true,"confidence":3},{"trial_n":134,"min":78,"max":177,"target":"absent","response":"absent","rt":1374.3000000007,"correct":true,"confidence":2},{"trial_n":135,"min":79,"max":176,"target":"absent","response":"present","rt":522.80000000075,"correct":false,"confidence":1},{"trial_n":136,"min":78,"max":177,"target":"absent","response":"present","rt":546.80000000075,"correct":false,"confidence":2},{"trial_n":137,"min":77,"max":178,"target":"present","response":"present","rt":571.39999999851,"correct":true,"confidence":2},{"trial_n":138,"min":77,"max":178,"target":"present","response":"present","rt":2941.1999999993,"correct":true,"confidence":2},{"trial_n":139,"min":78,"max":177,"target":"absent","response":"present","rt":853.10000000149,"correct":false,"confidence":1},{"trial_n":140,"min":77,"max":178,"target":"absent","response":"absent","rt":693.19999999925,"correct":true,"confidence":2}]