[{"trial_n":1,"n_dots":4.25,"target":"right","response":"right","rt":5550.3999999985,"correct":true,"confidence":-1},{"trial_n":2,"n_dots":4.25,"target":"left","response":"left","rt":733.10000000149,"correct":true,"confidence":-1},{"trial_n":3,"n_dots":3.85,"target":"left","response":"right","rt":500.10000000149,"correct":false,"confidence":-1},{"trial_n":4,"n_dots":4.25,"target":"right","response":"right","rt":449.20000000298,"correct":true,"confidence":-1},{"trial_n":5,"n_dots":4.25,"target":"right","response":"right","rt":514.5,"correct":true,"confidence":-1},{"trial_n":6,"n_dots":3.85,"target":"right","response":"right","rt":465.89999999851,"correct":true,"confidence":-1},{"trial_n":7,"n_dots":3.85,"target":"right","response":"right","rt":512.40000000224,"correct":true,"confidence":-1},{"trial_n":8,"n_dots":3.65,"target":"left","response":"left","rt":626.5,"correct":true,"confidence":-1},{"trial_n":9,"n_dots":3.65,"target":"left","response":"left","rt":409.30000000075,"correct":true,"confidence":-1},{"trial_n":10,"n_dots":3.45,"target":"right","response":"right","rt":452.59999999776,"correct":true,"confidence":-1},{"trial_n":11,"n_dots":3.45,"target":"left","response":"left","rt":383.60000000149,"correct":true,"confidence":-1},{"trial_n":12,"n_dots":3.25,"target":"left","response":"left","rt":461.60000000149,"correct":true,"confidence":-1},{"trial_n":13,"n_dots":3.25,"target":"left","response":"right","rt":736.70000000298,"correct":false,"confidence":-1},{"trial_n":14,"n_dots":3.35,"target":"left","response":"left","rt":490.70000000298,"correct":true,"confidence":-1},{"trial_n":15,"n_dots":3.35,"target":"right","response":"left","rt":980.30000000075,"correct":false,"confidence":-1},{"trial_n":16,"n_dots":3.45,"target":"left","response":"left","rt":433.70000000298,"correct":true,"confidence":-1},{"trial_n":17,"n_dots":3.45,"target":"right","response":"right","rt":315.90000000224,"correct":true,"confidence":-1},{"trial_n":18,"n_dots":3.35,"target":"right","response":"right","rt":316.10000000149,"correct":true,"confidence":-1},{"trial_n":19,"n_dots":3.35,"target":"left","response":"right","rt":559.69999999925,"correct":false,"confidence":-1},{"trial_n":20,"n_dots":3.45,"target":"right","response":"right","rt":651.20000000298,"correct":true,"confidence":-1},{"trial_n":21,"n_dots":3.45,"target":"right","response":"right","rt":397.80000000075,"correct":true,"confidence":2},{"trial_n":22,"n_dots":3.35,"target":"right","response":"right","rt":714,"correct":true,"confidence":2},{"trial_n":23,"n_dots":3.35,"target":"left","response":"left","rt":684.90000000224,"correct":true,"confidence":4},{"trial_n":24,"n_dots":3.25,"target":"left","response":"right","rt":443.69999999925,"correct":false,"confidence":3},{"trial_n":25,"n_dots":3.35,"target":"left","response":"left","rt":1014.6999999993,"correct":true,"confidence":1},{"trial_n":26,"n_dots":3.35,"target":"left","response":"right","rt":472.79999999702,"correct":false,"confidence":3},{"trial_n":27,"n_dots":3.45,"target":"right","response":"right","rt":318.19999999925,"correct":true,"confidence":3},{"trial_n":28,"n_dots":3.45,"target":"right","response":"right","rt":315.90000000224,"correct":true,"confidence":4},{"trial_n":29,"n_dots":3.35,"target":"right","response":"right","rt":355.80000000075,"correct":true,"confidence":5},{"trial_n":30,"n_dots":3.35,"target":"right","response":"right","rt":866.59999999776,"correct":true,"confidence":3},{"trial_n":31,"n_dots":3.25,"target":"left","response":"left","rt":333.39999999851,"correct":true,"confidence":4},{"trial_n":32,"n_dots":3.25,"target":"left","response":"left","rt":734.30000000075,"correct":true,"confidence":2},{"trial_n":33,"n_dots":3.15,"target":"right","response":"right","rt":252.40000000224,"correct":true,"confidence":4},{"trial_n":34,"n_dots":3.15,"target":"right","response":"right","rt":938.79999999702,"correct":true,"confidence":3},{"trial_n":35,"n_dots":3.05,"target":"left","response":"right","rt":1079.3000000007,"correct":false,"confidence":2},{"trial_n":36,"n_dots":3.15,"target":"left","response":"right","rt":705.70000000298,"correct":false,"confidence":3},{"trial_n":37,"n_dots":3.25,"target":"left","response":"left","rt":382.60000000149,"correct":true,"confidence":2},{"trial_n":38,"n_dots":3.25,"target":"right","response":"right","rt":515.40000000224,"correct":true,"confidence":1},{"trial_n":39,"n_dots":3.15,"target":"left","response":"left","rt":399,"correct":true,"confidence":2},{"trial_n":40,"n_dots":3.15,"target":"right","response":"left","rt":299.5,"correct":false,"confidence":3},{"trial_n":41,"n_dots":3.25,"target":"left","response":"left","rt":299,"correct":true,"confidence":2},{"trial_n":42,"n_dots":3.25,"target":"right","response":"left","rt":1278.3000000007,"correct":false,"confidence":4},{"trial_n":43,"n_dots":3.35,"target":"left","response":"left","rt":707.39999999851,"correct":true,"confidence":3},{"trial_n":44,"n_dots":3.35,"target":"right","response":"left","rt":539.39999999851,"correct":false,"confidence":3},{"trial_n":45,"n_dots":3.45,"target":"right","response":"left","rt":2330.1999999993,"correct":false,"confidence":3},{"trial_n":46,"n_dots":3.55,"target":"right","response":"right","rt":1039.5,"correct":true,"confidence":2},{"trial_n":47,"n_dots":3.55,"target":"left","response":"left","rt":469.10000000149,"correct":true,"confidence":2},{"trial_n":48,"n_dots":3.45,"target":"left","response":"left","rt":356.30000000075,"correct":true,"confidence":3},{"trial_n":49,"n_dots":3.45,"target":"right","response":"left","rt":473.39999999851,"correct":false,"confidence":2},{"trial_n":50,"n_dots":3.55,"target":"left","response":"left","rt":430.30000000075,"correct":true,"confidence":1},{"trial_n":51,"n_dots":3.55,"target":"right","response":"right","rt":739.60000000149,"correct":true,"confidence":2},{"trial_n":52,"n_dots":3.45,"target":"right","response":"right","rt":689.40000000224,"correct":true,"confidence":1},{"trial_n":53,"n_dots":3.45,"target":"left","response":"left","rt":714.5,"correct":true,"confidence":2},{"trial_n":54,"n_dots":3.35,"target":"right","response":"left","rt":5434.8999999985,"correct":false,"confidence":2},{"trial_n":55,"n_dots":3.45,"target":"right","response":"left","rt":497.89999999851,"correct":false,"confidence":1},{"trial_n":56,"n_dots":3.55,"target":"left","response":"left","rt":278.30000000075,"correct":true,"confidence":3},{"trial_n":57,"n_dots":3.55,"target":"right","response":"right","rt":541,"correct":true,"confidence":2},{"trial_n":58,"n_dots":3.45,"target":"right","response":"left","rt":962.10000000149,"correct":false,"confidence":1},{"trial_n":59,"n_dots":3.55,"target":"right","response":"right","rt":606,"correct":true,"confidence":2},{"trial_n":60,"n_dots":3.55,"target":"right","response":"right","rt":460.89999999851,"correct":true,"confidence":2},{"trial_n":61,"n_dots":3.45,"target":"right","response":"right","rt":409.5,"correct":true,"confidence":2},{"trial_n":62,"n_dots":3.45,"target":"right","response":"right","rt":478.10000000149,"correct":true,"confidence":1},{"trial_n":63,"n_dots":3.35,"target":"left","response":"left","rt":543.60000000149,"correct":true,"confidence":3},{"trial_n":64,"n_dots":3.35,"target":"left","response":"left","rt":330.80000000075,"correct":true,"confidence":2},{"trial_n":65,"n_dots":3.25,"target":"right","response":"right","rt":900.5,"correct":true,"confidence":2},{"trial_n":66,"n_dots":3.25,"target":"right","response":"right","rt":1110.5999999978,"correct":true,"confidence":2},{"trial_n":67,"n_dots":3.15,"target":"left","response":"left","rt":379.19999999925,"correct":true,"confidence":2},{"trial_n":68,"n_dots":3.15,"target":"left","response":"left","rt":489.89999999851,"correct":true,"confidence":1},{"trial_n":69,"n_dots":3.05,"target":"right","response":"right","rt":695.10000000149,"correct":true,"confidence":1},{"trial_n":70,"n_dots":3.05,"target":"left","response":"left","rt":119.30000000075,"correct":true,"confidence":2},{"trial_n":71,"n_dots":2.95,"target":"right","response":"left","rt":208.19999999925,"correct":false,"confidence":1},{"trial_n":72,"n_dots":3.05,"target":"right","response":"left","rt":922.5,"correct":false,"confidence":1},{"trial_n":73,"n_dots":3.15,"target":"right","response":"right","rt":3892.0999999978,"correct":true,"confidence":2},{"trial_n":74,"n_dots":3.15,"target":"left","response":"left","rt":6565.1999999993,"correct":true,"confidence":2},{"trial_n":75,"n_dots":3.05,"target":"left","response":"right","rt":663,"correct":false,"confidence":2},{"trial_n":76,"n_dots":3.15,"target":"left","response":"right","rt":731.79999999702,"correct":false,"confidence":2},{"trial_n":77,"n_dots":3.25,"target":"left","response":"right","rt":471.10000000149,"correct":false,"confidence":2},{"trial_n":78,"n_dots":3.35,"target":"right","response":"right","rt":988.19999999925,"correct":true,"confidence":1},{"trial_n":79,"n_dots":3.35,"target":"left","response":"left","rt":625.19999999925,"correct":true,"confidence":2},{"trial_n":80,"n_dots":3.25,"target":"left","response":"left","rt":651.19999999925,"correct":true,"confidence":1},{"trial_n":81,"n_dots":3.25,"target":"left","response":"left","rt":489.89999999851,"correct":true,"confidence":2},{"trial_n":82,"n_dots":3.15,"target":"right","response":"right","rt":1041.3999999985,"correct":true,"confidence":1},{"trial_n":83,"n_dots":3.15,"target":"right","response":"right","rt":946.40000000224,"correct":true,"confidence":2},{"trial_n":84,"n_dots":3.05,"target":"left","response":"left","rt":619.59999999776,"correct":true,"confidence":1},{"trial_n":85,"n_dots":3.05,"target":"left","response":"left","rt":1477.6999999993,"correct":true,"confidence":1},{"trial_n":86,"n_dots":2.95,"target":"right","response":"right","rt":920.69999999925,"correct":true,"confidence":2},{"trial_n":87,"n_dots":2.95,"target":"left","response":"right","rt":1037.5,"correct":false,"confidence":3},{"trial_n":88,"n_dots":3.05,"target":"right","response":"right","rt":1398,"correct":true,"confidence":2},{"trial_n":89,"n_dots":3.05,"target":"right","response":"left","rt":988,"correct":false,"confidence":2},{"trial_n":90,"n_dots":3.15,"target":"left","response":"left","rt":1365.3000000007,"correct":true,"confidence":2},{"trial_n":91,"n_dots":3.15,"target":"right","response":"right","rt":561.19999999925,"correct":true,"confidence":2},{"trial_n":92,"n_dots":3.05,"target":"left","response":"right","rt":1918.6999999993,"correct":false,"confidence":2},{"trial_n":93,"n_dots":3.15,"target":"left","response":"left","rt":1030.5,"correct":true,"confidence":2},{"trial_n":94,"n_dots":3.15,"target":"right","response":"right","rt":883.80000000075,"correct":true,"confidence":2},{"trial_n":95,"n_dots":3.05,"target":"left","response":"left","rt":1873.6000000015,"correct":true,"confidence":3},{"trial_n":96,"n_dots":3.05,"target":"left","response":"left","rt":261.30000000075,"correct":true,"confidence":4},{"trial_n":97,"n_dots":2.95,"target":"right","response":"left","rt":355.69999999925,"correct":false,"confidence":3},{"trial_n":98,"n_dots":3.05,"target":"left","response":"left","rt":465.19999999925,"correct":true,"confidence":2},{"trial_n":99,"n_dots":3.05,"target":"left","response":"left","rt":357,"correct":true,"confidence":4},{"trial_n":100,"n_dots":2.95,"target":"right","response":"left","rt":1174,"correct":false,"confidence":1},{"trial_n":101,"n_dots":3.05,"target":"left","response":"right","rt":368.90000000224,"correct":false,"confidence":2},{"trial_n":102,"n_dots":3.15,"target":"right","response":"right","rt":128.39999999851,"correct":true,"confidence":2},{"trial_n":103,"n_dots":3.15,"target":"left","response":"left","rt":220.80000000075,"correct":true,"confidence":2},{"trial_n":104,"n_dots":3.05,"target":"left","response":"right","rt":1222.6999999993,"correct":false,"confidence":3},{"trial_n":105,"n_dots":3.15,"target":"right","response":"right","rt":444.89999999851,"correct":true,"confidence":2},{"trial_n":106,"n_dots":3.15,"target":"left","response":"right","rt":925.5,"correct":false,"confidence":3},{"trial_n":107,"n_dots":3.25,"target":"right","response":"left","rt":394.89999999851,"correct":false,"confidence":1},{"trial_n":108,"n_dots":3.35,"target":"left","response":"left","rt":756.30000000075,"correct":true,"confidence":1},{"trial_n":109,"n_dots":3.35,"target":"right","response":"right","rt":654.70000000298,"correct":true,"confidence":2},{"trial_n":110,"n_dots":3.25,"target":"right","response":"right","rt":1241.3000000007,"correct":true,"confidence":2},{"trial_n":111,"n_dots":3.25,"target":"left","response":"left","rt":5816.9000000022,"correct":true,"confidence":1},{"trial_n":112,"n_dots":3.15,"target":"right","response":"right","rt":778.39999999851,"correct":true,"confidence":2},{"trial_n":113,"n_dots":3.15,"target":"left","response":"left","rt":1488,"correct":true,"confidence":1},{"trial_n":114,"n_dots":3.05,"target":"left","response":"right","rt":1821.5,"correct":false,"confidence":3},{"trial_n":115,"n_dots":3.15,"target":"right","response":"right","rt":872.80000000075,"correct":true,"confidence":3},{"trial_n":116,"n_dots":3.15,"target":"left","response":"right","rt":814.19999999925,"correct":false,"confidence":1},{"trial_n":117,"n_dots":3.25,"target":"left","response":"right","rt":1214.5,"correct":false,"confidence":3},{"trial_n":118,"n_dots":3.35,"target":"right","response":"right","rt":3382.5,"correct":true,"confidence":2},{"trial_n":119,"n_dots":3.35,"target":"right","response":"right","rt":8706.5,"correct":true,"confidence":2},{"trial_n":120,"n_dots":3.25,"target":"left","response":"left","rt":906.5,"correct":true,"confidence":1}]