[{"trial_n":1,"n_dots":4.25,"target":"left","response":"right","rt":4659.799999997,"correct":false,"confidence":-1},{"trial_n":2,"n_dots":4.25,"target":"right","response":"right","rt":2112.6999999881,"correct":true,"confidence":-1},{"trial_n":3,"n_dots":4.25,"target":"right","response":"right","rt":1147.599999994,"correct":true,"confidence":-1},{"trial_n":4,"n_dots":3.85,"target":"left","response":"left","rt":1451.3999999911,"correct":true,"confidence":-1},{"trial_n":5,"n_dots":3.85,"target":"right","response":"right","rt":1502.299999997,"correct":true,"confidence":-1},{"trial_n":6,"n_dots":3.45,"target":"left","response":"right","rt":809.59999999404,"correct":false,"confidence":-1},{"trial_n":7,"n_dots":3.85,"target":"left","response":"left","rt":1097.900000006,"correct":true,"confidence":-1},{"trial_n":8,"n_dots":3.85,"target":"right","response":"right","rt":1269.1000000089,"correct":true,"confidence":-1},{"trial_n":9,"n_dots":3.65,"target":"right","response":"right","rt":1033.200000003,"correct":true,"confidence":-1},{"trial_n":10,"n_dots":3.65,"target":"right","response":"right","rt":848.79999999702,"correct":true,"confidence":-1},{"trial_n":11,"n_dots":3.45,"target":"left","response":"left","rt":534.20000000298,"correct":true,"confidence":-1},{"trial_n":12,"n_dots":3.45,"target":"right","response":"left","rt":631.70000000298,"correct":false,"confidence":-1},{"trial_n":13,"n_dots":3.55,"target":"left","response":"right","rt":790.09999999404,"correct":false,"confidence":-1},{"trial_n":14,"n_dots":3.65,"target":"left","response":"right","rt":855,"correct":false,"confidence":-1},{"trial_n":15,"n_dots":3.75,"target":"left","response":"left","rt":826.10000000894,"correct":true,"confidence":-1},{"trial_n":16,"n_dots":3.75,"target":"right","response":"right","rt":898.79999999702,"correct":true,"confidence":-1},{"trial_n":17,"n_dots":3.65,"target":"left","response":"right","rt":1044.700000003,"correct":false,"confidence":-1},{"trial_n":18,"n_dots":3.75,"target":"right","response":"right","rt":928.59999999404,"correct":true,"confidence":-1},{"trial_n":19,"n_dots":3.75,"target":"right","response":"right","rt":684.89999999106,"correct":true,"confidence":-1},{"trial_n":20,"n_dots":3.65,"target":"left","response":"left","rt":589,"correct":true,"confidence":-1},{"trial_n":21,"n_dots":3.65,"target":"right","response":"right","rt":582.90000000596,"correct":true,"confidence":3},{"trial_n":22,"n_dots":3.55,"target":"right","response":"right","rt":977.09999999404,"correct":true,"confidence":3},{"trial_n":23,"n_dots":3.55,"target":"right","response":"right","rt":766.59999999404,"correct":true,"confidence":3},{"trial_n":24,"n_dots":3.45,"target":"right","response":"right","rt":1193,"correct":true,"confidence":2},{"trial_n":25,"n_dots":3.45,"target":"right","response":"right","rt":1301.599999994,"correct":true,"confidence":3},{"trial_n":26,"n_dots":3.35,"target":"right","response":"right","rt":1287.700000003,"correct":true,"confidence":2},{"trial_n":27,"n_dots":3.35,"target":"right","response":"left","rt":968.20000000298,"correct":false,"confidence":1},{"trial_n":28,"n_dots":3.45,"target":"right","response":"right","rt":986.90000000596,"correct":true,"confidence":3},{"trial_n":29,"n_dots":3.45,"target":"left","response":"left","rt":677.40000000596,"correct":true,"confidence":2},{"trial_n":30,"n_dots":3.35,"target":"right","response":"right","rt":933.90000000596,"correct":true,"confidence":2},{"trial_n":31,"n_dots":3.35,"target":"left","response":"right","rt":1630.700000003,"correct":false,"confidence":1},{"trial_n":32,"n_dots":3.45,"target":"right","response":"right","rt":923.40000000596,"correct":true,"confidence":2},{"trial_n":33,"n_dots":3.45,"target":"left","response":"right","rt":1045.8999999911,"correct":false,"confidence":1},{"trial_n":34,"n_dots":3.55,"target":"left","response":"right","rt":1549.799999997,"correct":false,"confidence":1},{"trial_n":35,"n_dots":3.65,"target":"left","response":"left","rt":518.09999999404,"correct":true,"confidence":3},{"trial_n":36,"n_dots":3.65,"target":"left","response":"left","rt":609.89999999106,"correct":true,"confidence":3},{"trial_n":37,"n_dots":3.55,"target":"right","response":"right","rt":996,"correct":true,"confidence":3},{"trial_n":38,"n_dots":3.55,"target":"right","response":"right","rt":912,"correct":true,"confidence":2},{"trial_n":39,"n_dots":3.45,"target":"left","response":"left","rt":553.10000000894,"correct":true,"confidence":3},{"trial_n":40,"n_dots":3.45,"target":"left","response":"right","rt":1291.400000006,"correct":false,"confidence":3},{"trial_n":41,"n_dots":3.55,"target":"left","response":"left","rt":989.20000000298,"correct":true,"confidence":1},{"trial_n":42,"n_dots":3.55,"target":"left","response":"left","rt":455.90000000596,"correct":true,"confidence":4},{"trial_n":43,"n_dots":3.45,"target":"left","response":"left","rt":595.09999999404,"correct":true,"confidence":3},{"trial_n":44,"n_dots":3.45,"target":"right","response":"right","rt":1598.799999997,"correct":true,"confidence":1},{"trial_n":45,"n_dots":3.35,"target":"left","response":"left","rt":519,"correct":true,"confidence":3},{"trial_n":46,"n_dots":3.35,"target":"left","response":"left","rt":658.90000000596,"correct":true,"confidence":4},{"trial_n":47,"n_dots":3.25,"target":"left","response":"left","rt":322.5,"correct":true,"confidence":4},{"trial_n":48,"n_dots":3.25,"target":"right","response":"right","rt":1420.5,"correct":true,"confidence":3},{"trial_n":49,"n_dots":3.15,"target":"left","response":"left","rt":531,"correct":true,"confidence":4},{"trial_n":50,"n_dots":3.15,"target":"right","response":"left","rt":763.29999999702,"correct":false,"confidence":2},{"trial_n":51,"n_dots":3.25,"target":"left","response":"left","rt":344.30000001192,"correct":true,"confidence":4},{"trial_n":52,"n_dots":3.25,"target":"left","response":"left","rt":723.90000000596,"correct":true,"confidence":3},{"trial_n":53,"n_dots":3.15,"target":"left","response":"left","rt":1080,"correct":true,"confidence":2},{"trial_n":54,"n_dots":3.15,"target":"left","response":"left","rt":574.60000000894,"correct":true,"confidence":2},{"trial_n":55,"n_dots":3.05,"target":"right","response":"right","rt":883.80000001192,"correct":true,"confidence":3},{"trial_n":56,"n_dots":3.05,"target":"left","response":"left","rt":572.29999999702,"correct":true,"confidence":4},{"trial_n":57,"n_dots":2.95,"target":"right","response":"right","rt":1100.200000003,"correct":true,"confidence":3},{"trial_n":58,"n_dots":2.95,"target":"left","response":"left","rt":376.79999999702,"correct":true,"confidence":3},{"trial_n":59,"n_dots":2.85,"target":"left","response":"right","rt":1459.700000003,"correct":false,"confidence":2},{"trial_n":60,"n_dots":2.95,"target":"right","response":"right","rt":1550.299999997,"correct":true,"confidence":2},{"trial_n":61,"n_dots":2.95,"target":"right","response":"right","rt":718.89999999106,"correct":true,"confidence":3},{"trial_n":62,"n_dots":2.85,"target":"left","response":"left","rt":701,"correct":true,"confidence":3},{"trial_n":63,"n_dots":2.85,"target":"left","response":"right","rt":1058.8999999911,"correct":false,"confidence":3},{"trial_n":64,"n_dots":2.95,"target":"left","response":"left","rt":515.60000000894,"correct":true,"confidence":4},{"trial_n":65,"n_dots":2.95,"target":"left","response":"left","rt":527.09999999404,"correct":true,"confidence":4},{"trial_n":66,"n_dots":2.85,"target":"right","response":"right","rt":2558.799999997,"correct":true,"confidence":2},{"trial_n":67,"n_dots":2.85,"target":"right","response":"right","rt":886.40000000596,"correct":true,"confidence":4},{"trial_n":68,"n_dots":2.75,"target":"right","response":"left","rt":2665,"correct":false,"confidence":1},{"trial_n":69,"n_dots":2.85,"target":"right","response":"right","rt":1416.8999999911,"correct":true,"confidence":2},{"trial_n":70,"n_dots":2.85,"target":"right","response":"right","rt":1012.5,"correct":true,"confidence":2},{"trial_n":71,"n_dots":2.75,"target":"left","response":"left","rt":1017.700000003,"correct":true,"confidence":2},{"trial_n":72,"n_dots":2.75,"target":"right","response":"right","rt":1102,"correct":true,"confidence":2},{"trial_n":73,"n_dots":2.65,"target":"right","response":"right","rt":1109.5,"correct":true,"confidence":2},{"trial_n":74,"n_dots":2.65,"target":"right","response":"right","rt":1754.5,"correct":true,"confidence":1},{"trial_n":75,"n_dots":2.55,"target":"right","response":"right","rt":973.5,"correct":true,"confidence":3},{"trial_n":76,"n_dots":2.55,"target":"left","response":"right","rt":1225.299999997,"correct":false,"confidence":2},{"trial_n":77,"n_dots":2.65,"target":"left","response":"left","rt":1126.6999999881,"correct":true,"confidence":2},{"trial_n":78,"n_dots":2.65,"target":"right","response":"right","rt":1280.1000000089,"correct":true,"confidence":2},{"trial_n":79,"n_dots":2.55,"target":"left","response":"left","rt":773.09999999404,"correct":true,"confidence":2},{"trial_n":80,"n_dots":2.55,"target":"right","response":"left","rt":1022.900000006,"correct":false,"confidence":2},{"trial_n":81,"n_dots":2.65,"target":"right","response":"right","rt":1142.700000003,"correct":true,"confidence":2},{"trial_n":82,"n_dots":2.65,"target":"right","response":"right","rt":1306.3000000119,"correct":true,"confidence":2},{"trial_n":83,"n_dots":2.55,"target":"left","response":"left","rt":452.79999999702,"correct":true,"confidence":2},{"trial_n":84,"n_dots":2.55,"target":"right","response":"left","rt":628.40000000596,"correct":false,"confidence":3},{"trial_n":85,"n_dots":2.65,"target":"left","response":"right","rt":1219.8999999911,"correct":false,"confidence":2},{"trial_n":86,"n_dots":2.75,"target":"right","response":"right","rt":1229.700000003,"correct":true,"confidence":3},{"trial_n":87,"n_dots":2.75,"target":"right","response":"right","rt":919.59999999404,"correct":true,"confidence":3},{"trial_n":88,"n_dots":2.65,"target":"left","response":"left","rt":568.90000000596,"correct":true,"confidence":4},{"trial_n":89,"n_dots":2.65,"target":"right","response":"left","rt":771.20000000298,"correct":false,"confidence":3},{"trial_n":90,"n_dots":2.75,"target":"left","response":"left","rt":645.90000000596,"correct":true,"confidence":3},{"trial_n":91,"n_dots":2.75,"target":"right","response":"left","rt":1311.5,"correct":false,"confidence":2},{"trial_n":92,"n_dots":2.85,"target":"left","response":"left","rt":931.40000000596,"correct":true,"confidence":3},{"trial_n":93,"n_dots":2.85,"target":"right","response":"right","rt":786.90000000596,"correct":true,"confidence":4},{"trial_n":94,"n_dots":2.75,"target":"left","response":"right","rt":897.40000000596,"correct":false,"confidence":4},{"trial_n":95,"n_dots":2.85,"target":"right","response":"right","rt":894.40000000596,"correct":true,"confidence":4},{"trial_n":96,"n_dots":2.85,"target":"right","response":"right","rt":803.70000000298,"correct":true,"confidence":5},{"trial_n":97,"n_dots":2.75,"target":"right","response":"right","rt":1214.900000006,"correct":true,"confidence":4},{"trial_n":98,"n_dots":2.75,"target":"right","response":"right","rt":1519.799999997,"correct":true,"confidence":3},{"trial_n":99,"n_dots":2.65,"target":"left","response":"right","rt":1420.900000006,"correct":false,"confidence":3},{"trial_n":100,"n_dots":2.75,"target":"left","response":"right","rt":1366,"correct":false,"confidence":3},{"trial_n":101,"n_dots":2.85,"target":"right","response":"right","rt":1017.700000003,"correct":true,"confidence":3},{"trial_n":102,"n_dots":2.85,"target":"left","response":"right","rt":1874.799999997,"correct":false,"confidence":3},{"trial_n":103,"n_dots":2.95,"target":"right","response":"right","rt":1507,"correct":true,"confidence":2},{"trial_n":104,"n_dots":2.95,"target":"left","response":"left","rt":2090,"correct":true,"confidence":1},{"trial_n":105,"n_dots":2.85,"target":"right","response":"right","rt":1413.299999997,"correct":true,"confidence":2},{"trial_n":106,"n_dots":2.85,"target":"left","response":"right","rt":1303.099999994,"correct":false,"confidence":3},{"trial_n":107,"n_dots":2.95,"target":"left","response":"left","rt":593.10000000894,"correct":true,"confidence":3},{"trial_n":108,"n_dots":2.95,"target":"right","response":"right","rt":982.30000001192,"correct":true,"confidence":3},{"trial_n":109,"n_dots":2.85,"target":"left","response":"left","rt":1112.5,"correct":true,"confidence":2},{"trial_n":110,"n_dots":2.85,"target":"left","response":"left","rt":2116.200000003,"correct":true,"confidence":2},{"trial_n":111,"n_dots":2.75,"target":"left","response":"right","rt":2852.299999997,"correct":false,"confidence":2},{"trial_n":112,"n_dots":2.85,"target":"left","response":"right","rt":2694.8999999911,"correct":false,"confidence":1},{"trial_n":113,"n_dots":2.95,"target":"right","response":"left","rt":1134.900000006,"correct":false,"confidence":3},{"trial_n":114,"n_dots":3.05,"target":"left","response":"left","rt":909,"correct":true,"confidence":3},{"trial_n":115,"n_dots":3.05,"target":"right","response":"left","rt":815.80000001192,"correct":false,"confidence":3},{"trial_n":116,"n_dots":3.15,"target":"left","response":"left","rt":780.70000000298,"correct":true,"confidence":3},{"trial_n":117,"n_dots":3.15,"target":"left","response":"left","rt":1045.900000006,"correct":true,"confidence":3},{"trial_n":118,"n_dots":3.05,"target":"right","response":"left","rt":761.5,"correct":false,"confidence":3},{"trial_n":119,"n_dots":3.15,"target":"right","response":"right","rt":2452.8000000119,"correct":true,"confidence":2},{"trial_n":120,"n_dots":3.15,"target":"left","response":"left","rt":503.19999998808,"correct":true,"confidence":4}]