[{"trial_n":1,"min":25,"max":230,"target":"present","response":"absent","rt":9159,"correct":false,"confidence":-1},{"trial_n":2,"min":25,"max":230,"target":"present","response":"present","rt":607.29999999702,"correct":true,"confidence":-1},{"trial_n":3,"min":25,"max":230,"target":"absent","response":"absent","rt":450.79999999702,"correct":true,"confidence":-1},{"trial_n":4,"min":41,"max":214,"target":"absent","response":"absent","rt":427.69999998808,"correct":true,"confidence":-1},{"trial_n":5,"min":41,"max":214,"target":"present","response":"present","rt":458.29999999702,"correct":true,"confidence":-1},{"trial_n":6,"min":57,"max":198,"target":"present","response":"present","rt":512.79999999702,"correct":true,"confidence":-1},{"trial_n":7,"min":57,"max":198,"target":"absent","response":"absent","rt":448,"correct":true,"confidence":-1},{"trial_n":8,"min":73,"max":182,"target":"absent","response":"absent","rt":563,"correct":true,"confidence":-1},{"trial_n":9,"min":73,"max":182,"target":"absent","response":"absent","rt":479,"correct":true,"confidence":-1},{"trial_n":10,"min":89,"max":166,"target":"present","response":"present","rt":546,"correct":true,"confidence":-1},{"trial_n":11,"min":89,"max":166,"target":"present","response":"present","rt":510.40000000596,"correct":true,"confidence":-1},{"trial_n":12,"min":97,"max":158,"target":"absent","response":"absent","rt":507.79999999702,"correct":true,"confidence":-1},{"trial_n":13,"min":97,"max":158,"target":"absent","response":"absent","rt":451.79999999702,"correct":true,"confidence":-1},{"trial_n":14,"min":105,"max":150,"target":"present","response":"absent","rt":423.90000000596,"correct":false,"confidence":-1},{"trial_n":15,"min":97,"max":158,"target":"present","response":"absent","rt":832,"correct":false,"confidence":-1},{"trial_n":16,"min":89,"max":166,"target":"present","response":"absent","rt":1445.200000003,"correct":false,"confidence":-1},{"trial_n":17,"min":81,"max":174,"target":"present","response":"present","rt":483.20000000298,"correct":true,"confidence":-1},{"trial_n":18,"min":81,"max":174,"target":"absent","response":"absent","rt":653.90000000596,"correct":true,"confidence":-1},{"trial_n":19,"min":89,"max":166,"target":"present","response":"absent","rt":487,"correct":false,"confidence":-1},{"trial_n":20,"min":81,"max":174,"target":"present","response":"absent","rt":803.60000000894,"correct":false,"confidence":-1},{"trial_n":21,"min":77,"max":178,"target":"absent","response":"present","rt":898.89999999106,"correct":false,"confidence":2},{"trial_n":22,"min":73,"max":182,"target":"present","response":"absent","rt":1193.599999994,"correct":false,"confidence":1},{"trial_n":23,"min":69,"max":186,"target":"present","response":"absent","rt":834.40000000596,"correct":false,"confidence":3},{"trial_n":24,"min":65,"max":190,"target":"absent","response":"absent","rt":691.79999999702,"correct":true,"confidence":4},{"trial_n":25,"min":65,"max":190,"target":"present","response":"present","rt":462.60000000894,"correct":true,"confidence":5},{"trial_n":26,"min":69,"max":186,"target":"absent","response":"absent","rt":780.10000000894,"correct":true,"confidence":4},{"trial_n":27,"min":69,"max":186,"target":"present","response":"present","rt":642.79999999702,"correct":true,"confidence":3},{"trial_n":28,"min":73,"max":182,"target":"present","response":"present","rt":1434.200000003,"correct":true,"confidence":4},{"trial_n":29,"min":73,"max":182,"target":"absent","response":"absent","rt":762.70000000298,"correct":true,"confidence":5},{"trial_n":30,"min":77,"max":178,"target":"absent","response":"absent","rt":763.40000000596,"correct":true,"confidence":5},{"trial_n":31,"min":77,"max":178,"target":"absent","response":"absent","rt":757.70000000298,"correct":true,"confidence":3},{"trial_n":32,"min":79,"max":176,"target":"absent","response":"absent","rt":597.5,"correct":true,"confidence":5},{"trial_n":33,"min":79,"max":176,"target":"absent","response":"present","rt":1332.5,"correct":false,"confidence":2},{"trial_n":34,"min":77,"max":178,"target":"present","response":"present","rt":968.70000000298,"correct":true,"confidence":3},{"trial_n":35,"min":77,"max":178,"target":"present","response":"present","rt":1779.8000000119,"correct":true,"confidence":3},{"trial_n":36,"min":79,"max":176,"target":"present","response":"present","rt":641.20000000298,"correct":true,"confidence":4},{"trial_n":37,"min":79,"max":176,"target":"present","response":"absent","rt":1202.900000006,"correct":false,"confidence":2},{"trial_n":38,"min":77,"max":178,"target":"present","response":"present","rt":1526,"correct":true,"confidence":2},{"trial_n":39,"min":77,"max":178,"target":"absent","response":"absent","rt":735,"correct":true,"confidence":5},{"trial_n":40,"min":79,"max":176,"target":"absent","response":"absent","rt":1517.799999997,"correct":true,"confidence":3},{"trial_n":41,"min":79,"max":176,"target":"present","response":"absent","rt":809.29999999702,"correct":false,"confidence":3},{"trial_n":42,"min":78,"max":177,"target":"present","response":"present","rt":984.79999999702,"correct":true,"confidence":3},{"trial_n":43,"min":78,"max":177,"target":"present","response":"absent","rt":877.5,"correct":false,"confidence":3},{"trial_n":44,"min":77,"max":178,"target":"present","response":"absent","rt":628.10000000894,"correct":false,"confidence":5},{"trial_n":45,"min":76,"max":179,"target":"present","response":"absent","rt":743.59999999404,"correct":false,"confidence":4},{"trial_n":46,"min":75,"max":180,"target":"absent","response":"absent","rt":645.90000000596,"correct":true,"confidence":5},{"trial_n":47,"min":75,"max":180,"target":"absent","response":"absent","rt":937.90000000596,"correct":true,"confidence":5},{"trial_n":48,"min":76,"max":179,"target":"present","response":"present","rt":2387.599999994,"correct":true,"confidence":2},{"trial_n":49,"min":76,"max":179,"target":"absent","response":"absent","rt":814.40000000596,"correct":true,"confidence":4},{"trial_n":50,"min":77,"max":178,"target":"absent","response":"absent","rt":1191.599999994,"correct":true,"confidence":5},{"trial_n":51,"min":77,"max":178,"target":"absent","response":"absent","rt":758.10000000894,"correct":true,"confidence":5},{"trial_n":52,"min":78,"max":177,"target":"present","response":"present","rt":855.5,"correct":true,"confidence":3},{"trial_n":53,"min":78,"max":177,"target":"absent","response":"absent","rt":654.20000000298,"correct":true,"confidence":4},{"trial_n":54,"min":79,"max":176,"target":"present","response":"present","rt":599.39999999106,"correct":true,"confidence":3},{"trial_n":55,"min":79,"max":176,"target":"absent","response":"absent","rt":765.29999999702,"correct":true,"confidence":5},{"trial_n":56,"min":80,"max":175,"target":"present","response":"present","rt":844.70000000298,"correct":true,"confidence":4},{"trial_n":57,"min":80,"max":175,"target":"absent","response":"absent","rt":713.69999998808,"correct":true,"confidence":4},{"trial_n":58,"min":81,"max":174,"target":"absent","response":"absent","rt":667.89999999106,"correct":true,"confidence":5},{"trial_n":59,"min":81,"max":174,"target":"present","response":"present","rt":873.5,"correct":true,"confidence":3},{"trial_n":60,"min":82,"max":173,"target":"absent","response":"absent","rt":755.59999999404,"correct":true,"confidence":4},{"trial_n":61,"min":82,"max":173,"target":"absent","response":"absent","rt":852.90000000596,"correct":true,"confidence":5},{"trial_n":62,"min":83,"max":172,"target":"absent","response":"absent","rt":634.09999999404,"correct":true,"confidence":5},{"trial_n":63,"min":83,"max":172,"target":"present","response":"present","rt":1027,"correct":true,"confidence":4},{"trial_n":64,"min":84,"max":171,"target":"present","response":"present","rt":626.39999999106,"correct":true,"confidence":4},{"trial_n":65,"min":84,"max":171,"target":"absent","response":"absent","rt":1040.099999994,"correct":true,"confidence":4},{"trial_n":66,"min":85,"max":170,"target":"absent","response":"absent","rt":1644.6000000089,"correct":true,"confidence":3},{"trial_n":67,"min":85,"max":170,"target":"absent","response":"present","rt":1029.400000006,"correct":false,"confidence":2},{"trial_n":68,"min":84,"max":171,"target":"present","response":"absent","rt":2865.3999999911,"correct":false,"confidence":3},{"trial_n":69,"min":83,"max":172,"target":"present","response":"present","rt":544.79999999702,"correct":true,"confidence":4},{"trial_n":70,"min":83,"max":172,"target":"absent","response":"absent","rt":1779.5,"correct":true,"confidence":2},{"trial_n":71,"min":41,"max":214,"target":"present","response":"present","rt":5242.5,"correct":true,"confidence":-1},{"trial_n":72,"min":41,"max":214,"target":"present","response":"present","rt":523.90000000596,"correct":true,"confidence":-1},{"trial_n":73,"min":57,"max":198,"target":"absent","response":"absent","rt":729.29999999702,"correct":true,"confidence":-1},{"trial_n":74,"min":57,"max":198,"target":"absent","response":"absent","rt":591,"correct":true,"confidence":-1},{"trial_n":75,"min":73,"max":182,"target":"present","response":"present","rt":412.69999998808,"correct":true,"confidence":-1},{"trial_n":76,"min":73,"max":182,"target":"present","response":"present","rt":324.19999998808,"correct":true,"confidence":-1},{"trial_n":77,"min":89,"max":166,"target":"present","response":"absent","rt":1081.8999999911,"correct":false,"confidence":-1},{"trial_n":78,"min":73,"max":182,"target":"absent","response":"absent","rt":1477.6999999881,"correct":true,"confidence":-1},{"trial_n":79,"min":73,"max":182,"target":"present","response":"present","rt":549.60000000894,"correct":true,"confidence":-1},{"trial_n":80,"min":89,"max":166,"target":"present","response":"absent","rt":810.90000000596,"correct":false,"confidence":-1},{"trial_n":81,"min":81,"max":174,"target":"absent","response":"absent","rt":855.89999999106,"correct":true,"confidence":-1},{"trial_n":82,"min":81,"max":174,"target":"absent","response":"absent","rt":749.69999998808,"correct":true,"confidence":-1},{"trial_n":83,"min":89,"max":166,"target":"present","response":"absent","rt":820.29999999702,"correct":false,"confidence":-1},{"trial_n":84,"min":81,"max":174,"target":"present","response":"present","rt":808.89999999106,"correct":true,"confidence":-1},{"trial_n":85,"min":81,"max":174,"target":"absent","response":"present","rt":744.79999999702,"correct":false,"confidence":-1},{"trial_n":86,"min":73,"max":182,"target":"present","response":"present","rt":399.39999999106,"correct":true,"confidence":-1},{"trial_n":87,"min":73,"max":182,"target":"present","response":"present","rt":348.90000000596,"correct":true,"confidence":-1},{"trial_n":88,"min":81,"max":174,"target":"absent","response":"absent","rt":868.79999999702,"correct":true,"confidence":-1},{"trial_n":89,"min":81,"max":174,"target":"present","response":"present","rt":371,"correct":true,"confidence":-1},{"trial_n":90,"min":89,"max":166,"target":"present","response":"present","rt":346.59999999404,"correct":true,"confidence":-1},{"trial_n":91,"min":89,"max":166,"target":"absent","response":"present","rt":660.5,"correct":false,"confidence":1},{"trial_n":92,"min":85,"max":170,"target":"absent","response":"absent","rt":891.40000000596,"correct":true,"confidence":3},{"trial_n":93,"min":85,"max":170,"target":"absent","response":"absent","rt":956.20000000298,"correct":true,"confidence":3},{"trial_n":94,"min":89,"max":166,"target":"present","response":"present","rt":1490,"correct":true,"confidence":5},{"trial_n":95,"min":89,"max":166,"target":"absent","response":"absent","rt":1038.3000000119,"correct":true,"confidence":1},{"trial_n":96,"min":93,"max":162,"target":"absent","response":"absent","rt":1473.299999997,"correct":true,"confidence":1},{"trial_n":97,"min":93,"max":162,"target":"present","response":"present","rt":455.40000000596,"correct":true,"confidence":5},{"trial_n":98,"min":97,"max":158,"target":"present","response":"present","rt":946.5,"correct":true,"confidence":2},{"trial_n":99,"min":97,"max":158,"target":"absent","response":"absent","rt":1082.299999997,"correct":true,"confidence":3},{"trial_n":100,"min":101,"max":154,"target":"absent","response":"present","rt":1109.799999997,"correct":false,"confidence":3},{"trial_n":101,"min":99,"max":156,"target":"present","response":"present","rt":832.69999998808,"correct":true,"confidence":3},{"trial_n":102,"min":99,"max":156,"target":"absent","response":"present","rt":860.10000000894,"correct":false,"confidence":4},{"trial_n":103,"min":97,"max":158,"target":"absent","response":"present","rt":635.09999999404,"correct":false,"confidence":4},{"trial_n":104,"min":95,"max":160,"target":"absent","response":"present","rt":731.39999999106,"correct":false,"confidence":4},{"trial_n":105,"min":93,"max":162,"target":"absent","response":"present","rt":1265.799999997,"correct":false,"confidence":2},{"trial_n":106,"min":91,"max":164,"target":"present","response":"present","rt":736.19999998808,"correct":true,"confidence":2},{"trial_n":107,"min":91,"max":164,"target":"absent","response":"present","rt":766.39999999106,"correct":false,"confidence":2},{"trial_n":108,"min":89,"max":166,"target":"present","response":"present","rt":727.59999999404,"correct":true,"confidence":3},{"trial_n":109,"min":89,"max":166,"target":"present","response":"present","rt":1894.1000000089,"correct":true,"confidence":1},{"trial_n":110,"min":91,"max":164,"target":"absent","response":"present","rt":1473.599999994,"correct":false,"confidence":1},{"trial_n":111,"min":90,"max":165,"target":"absent","response":"present","rt":668,"correct":false,"confidence":4},{"trial_n":112,"min":89,"max":166,"target":"present","response":"present","rt":720.5,"correct":true,"confidence":4},{"trial_n":113,"min":89,"max":166,"target":"absent","response":"absent","rt":1707.799999997,"correct":true,"confidence":1},{"trial_n":114,"min":90,"max":165,"target":"present","response":"present","rt":740.59999999404,"correct":true,"confidence":3},{"trial_n":115,"min":90,"max":165,"target":"present","response":"present","rt":1871,"correct":true,"confidence":4},{"trial_n":116,"min":91,"max":164,"target":"present","response":"present","rt":1371,"correct":true,"confidence":2},{"trial_n":117,"min":91,"max":164,"target":"absent","response":"present","rt":901.70000000298,"correct":false,"confidence":3},{"trial_n":118,"min":90,"max":165,"target":"absent","response":"present","rt":868.89999999106,"correct":false,"confidence":2},{"trial_n":119,"min":89,"max":166,"target":"absent","response":"absent","rt":2055.299999997,"correct":true,"confidence":2},{"trial_n":120,"min":89,"max":166,"target":"present","response":"present","rt":690.20000000298,"correct":true,"confidence":4},{"trial_n":121,"min":90,"max":165,"target":"present","response":"present","rt":555.29999999702,"correct":true,"confidence":4},{"trial_n":122,"min":90,"max":165,"target":"present","response":"present","rt":499.19999998808,"correct":true,"confidence":5},{"trial_n":123,"min":91,"max":164,"target":"present","response":"present","rt":410.89999999106,"correct":true,"confidence":5},{"trial_n":124,"min":91,"max":164,"target":"present","response":"present","rt":3521.099999994,"correct":true,"confidence":3},{"trial_n":125,"min":92,"max":163,"target":"absent","response":"absent","rt":1052.6000000089,"correct":true,"confidence":3},{"trial_n":126,"min":92,"max":163,"target":"absent","response":"present","rt":970.79999999702,"correct":false,"confidence":4},{"trial_n":127,"min":91,"max":164,"target":"absent","response":"present","rt":1310,"correct":false,"confidence":1},{"trial_n":128,"min":90,"max":165,"target":"absent","response":"absent","rt":1374.6000000089,"correct":true,"confidence":1},{"trial_n":129,"min":90,"max":165,"target":"absent","response":"present","rt":746.5,"correct":false,"confidence":3},{"trial_n":130,"min":89,"max":166,"target":"present","response":"present","rt":792.20000000298,"correct":true,"confidence":4},{"trial_n":131,"min":89,"max":166,"target":"absent","response":"present","rt":576.20000000298,"correct":false,"confidence":3},{"trial_n":132,"min":88,"max":167,"target":"present","response":"present","rt":1018.200000003,"correct":true,"confidence":4},{"trial_n":133,"min":88,"max":167,"target":"absent","response":"present","rt":1229.1000000089,"correct":false,"confidence":3},{"trial_n":134,"min":87,"max":168,"target":"present","response":"present","rt":539.30000001192,"correct":true,"confidence":4},{"trial_n":135,"min":87,"max":168,"target":"absent","response":"absent","rt":916.20000000298,"correct":true,"confidence":4},{"trial_n":136,"min":88,"max":167,"target":"absent","response":"absent","rt":1760.900000006,"correct":true,"confidence":2},{"trial_n":137,"min":88,"max":167,"target":"present","response":"present","rt":625.20000000298,"correct":true,"confidence":3},{"trial_n":138,"min":89,"max":166,"target":"present","response":"present","rt":454.09999999404,"correct":true,"confidence":4},{"trial_n":139,"min":89,"max":166,"target":"present","response":"present","rt":413.5,"correct":true,"confidence":4},{"trial_n":140,"min":90,"max":165,"target":"present","response":"present","rt":640.29999999702,"correct":true,"confidence":4}]