[{"trial_n":1,"span":8,"encoder":"13673612","distractor":"13613612","target":"present","response":"present","rt":"4033.3999999762","correct":true,"confidence":-1},{"trial_n":2,"span":8,"encoder":"80408983","distractor":"80402983","target":"present","response":"present","rt":"2994.5","correct":true,"confidence":-1},{"trial_n":3,"span":10,"encoder":"4208053190","distractor":"4278053190","target":"absent","response":"present","rt":"2546.400000006","correct":false,"confidence":-1},{"trial_n":4,"span":8,"encoder":"83164285","distractor":"84164285","target":"absent","response":"present","rt":"3550.3000000119","correct":false,"confidence":-1},{"trial_n":5,"span":6,"encoder":"777251","distractor":"777252","target":"present","response":"present","rt":"1798.5","correct":true,"confidence":-1},{"trial_n":6,"span":6,"encoder":"033098","distractor":"033698","target":"absent","response":"absent","rt":"3340.8000000119","correct":true,"confidence":-1},{"trial_n":7,"span":8,"encoder":"25528731","distractor":"25578731","target":"absent","response":"present","rt":"3600.1999999881","correct":false,"confidence":-1},{"trial_n":8,"span":6,"encoder":"776512","distractor":"776518","target":"absent","response":"absent","rt":"2824.5","correct":true,"confidence":-1},{"trial_n":9,"span":6,"encoder":"675554","distractor":"655554","target":"present","response":"present","rt":"3148.1000000238","correct":true,"confidence":-1},{"trial_n":10,"span":8,"encoder":"40282899","distractor":"48282899","target":"absent","response":"absent","rt":"4160.2999999821","correct":true,"confidence":-1},{"trial_n":11,"span":8,"encoder":"23178904","distractor":"23278904","target":"present","response":"present","rt":"3342","correct":true,"confidence":-1},{"trial_n":12,"span":9,"encoder":"713964737","distractor":"713954737","target":"present","response":"absent","rt":"3319","correct":false,"confidence":-1},{"trial_n":13,"span":8,"encoder":"82020945","distractor":"82050945","target":"absent","response":"present","rt":"5461.6000000238","correct":false,"confidence":-1},{"trial_n":14,"span":7,"encoder":"0604002","distractor":"0604602","target":"present","response":"present","rt":"3145.6999999881","correct":true,"confidence":-1},{"trial_n":15,"span":7,"encoder":"6075282","distractor":"6070282","target":"present","response":"present","rt":"4240.099999994","correct":true,"confidence":-1},{"trial_n":16,"span":8,"encoder":"09317183","distractor":"79317183","target":"present","response":"present","rt":"5058.400000006","correct":true,"confidence":-1},{"trial_n":17,"span":8,"encoder":"35786635","distractor":"65786635","target":"absent","response":"present","rt":"2604.5","correct":false,"confidence":-1},{"trial_n":18,"span":7,"encoder":"1365644","distractor":"1365634","target":"present","response":"present","rt":"4617.5","correct":true,"confidence":-1},{"trial_n":19,"span":7,"encoder":"8770699","distractor":"8770899","target":"present","response":"present","rt":"2560.5","correct":true,"confidence":-1},{"trial_n":20,"span":8,"encoder":"29795767","distractor":"29735767","target":"absent","response":"absent","rt":"5265.599999994","correct":true,"confidence":-1},{"trial_n":21,"span":8,"encoder":"09406709","distractor":"09406759","target":"absent","response":"absent","rt":"4641","correct":true,"confidence":2},{"trial_n":22,"span":9,"encoder":"685888774","distractor":"685838774","target":"present","response":"present","rt":"2543.099999994","correct":true,"confidence":1},{"trial_n":23,"span":9,"encoder":"795213280","distractor":"785213280","target":"present","response":"absent","rt":"4278.400000006","correct":false,"confidence":2},{"trial_n":24,"span":8,"encoder":"32485508","distractor":"32445508","target":"present","response":"present","rt":"3191.400000006","correct":true,"confidence":3},{"trial_n":25,"span":8,"encoder":"92632234","distractor":"92662234","target":"present","response":"present","rt":"6303.099999994","correct":true,"confidence":2},{"trial_n":26,"span":9,"encoder":"933901414","distractor":"938901414","target":"absent","response":"absent","rt":"4522.5","correct":true,"confidence":3},{"trial_n":27,"span":9,"encoder":"639048188","distractor":"639049188","target":"absent","response":"absent","rt":"5346.5","correct":true,"confidence":3},{"trial_n":28,"span":10,"encoder":"6392075120","distractor":"6492075120","target":"absent","response":"absent","rt":"5695.1999999881","correct":true,"confidence":1},{"trial_n":29,"span":10,"encoder":"8056998093","distractor":"8056998053","target":"present","response":"present","rt":"5857.7000000179","correct":true,"confidence":3},{"trial_n":30,"span":11,"encoder":"71941593720","distractor":"71941599720","target":"absent","response":"absent","rt":"7178.1999999881","correct":true,"confidence":2},{"trial_n":31,"span":11,"encoder":"49126074798","distractor":"42126074798","target":"present","response":"absent","rt":"4073.1999999881","correct":false,"confidence":2},{"trial_n":32,"span":10,"encoder":"8976882620","distractor":"0976882620","target":"absent","response":"absent","rt":"2959.1999999881","correct":true,"confidence":1},{"trial_n":33,"span":10,"encoder":"6334832503","distractor":"6334832533","target":"present","response":"absent","rt":"6728.599999994","correct":false,"confidence":2},{"trial_n":34,"span":9,"encoder":"104493832","distractor":"204493832","target":"present","response":"present","rt":"8483.099999994","correct":true,"confidence":3},{"trial_n":35,"span":9,"encoder":"369997287","distractor":"360997287","target":"absent","response":"absent","rt":"3706.599999994","correct":true,"confidence":4},{"trial_n":36,"span":10,"encoder":"1285952442","distractor":"1285962442","target":"present","response":"present","rt":"4197","correct":true,"confidence":3},{"trial_n":37,"span":10,"encoder":"6019113249","distractor":"6019113242","target":"absent","response":"absent","rt":"5202","correct":true,"confidence":3},{"trial_n":38,"span":11,"encoder":"99798320473","distractor":"99798220473","target":"present","response":"present","rt":"4417.6999999881","correct":true,"confidence":3},{"trial_n":39,"span":11,"encoder":"85755129819","distractor":"87755129819","target":"absent","response":"absent","rt":"3687.7000000179","correct":true,"confidence":3},{"trial_n":40,"span":12,"encoder":"750167838304","distractor":"750167858304","target":"present","response":"absent","rt":"8498.900000006","correct":false,"confidence":3},{"trial_n":41,"span":11,"encoder":"74301161205","distractor":"74305161205","target":"present","response":"present","rt":"9097.6000000238","correct":true,"confidence":2},{"trial_n":42,"span":11,"encoder":"04556282811","distractor":"04556282311","target":"absent","response":"absent","rt":"7719.7999999821","correct":true,"confidence":3},{"trial_n":43,"span":12,"encoder":"081853813941","distractor":"083853813941","target":"absent","response":"absent","rt":"5190","correct":true,"confidence":3},{"trial_n":44,"span":12,"encoder":"840683623637","distractor":"840680623637","target":"absent","response":"absent","rt":"4622.6999999881","correct":true,"confidence":2},{"trial_n":45,"span":13,"encoder":"8074512603552","distractor":"8074512903552","target":"present","response":"absent","rt":"7666.5","correct":false,"confidence":2},{"trial_n":46,"span":12,"encoder":"856559399638","distractor":"856579399638","target":"present","response":"absent","rt":"6309.1000000238","correct":false,"confidence":2},{"trial_n":47,"span":11,"encoder":"86282902960","distractor":"86282102960","target":"absent","response":"absent","rt":"6658.400000006","correct":true,"confidence":4},{"trial_n":48,"span":11,"encoder":"28174160156","distractor":"28174160150","target":"present","response":"present","rt":"7787.5","correct":true,"confidence":3},{"trial_n":49,"span":12,"encoder":"872178014801","distractor":"872178004801","target":"absent","response":"absent","rt":"3905.3000000119","correct":true,"confidence":3},{"trial_n":50,"span":12,"encoder":"066020074482","distractor":"066020079482","target":"absent","response":"absent","rt":"2115.6000000238","correct":true,"confidence":4},{"trial_n":51,"span":13,"encoder":"1655022361710","distractor":"1655022161710","target":"absent","response":"present","rt":"2777.2999999821","correct":false,"confidence":3},{"trial_n":52,"span":12,"encoder":"312020859107","distractor":"312020859507","target":"absent","response":"present","rt":"3550.900000006","correct":false,"confidence":2},{"trial_n":53,"span":11,"encoder":"06417949571","distractor":"06407949571","target":"present","response":"present","rt":"3675.1999999881","correct":true,"confidence":3},{"trial_n":54,"span":11,"encoder":"62176934013","distractor":"67176934013","target":"present","response":"absent","rt":"5292.400000006","correct":false,"confidence":2},{"trial_n":55,"span":10,"encoder":"5637085551","distractor":"5637082551","target":"absent","response":"absent","rt":"2569.900000006","correct":true,"confidence":4},{"trial_n":56,"span":10,"encoder":"6474925170","distractor":"5474925170","target":"absent","response":"present","rt":"6949","correct":false,"confidence":2},{"trial_n":57,"span":9,"encoder":"969443312","distractor":"969440312","target":"present","response":"present","rt":"3187.1999999881","correct":true,"confidence":4},{"trial_n":58,"span":9,"encoder":"636495109","distractor":"636495107","target":"present","response":"present","rt":"3486.5","correct":true,"confidence":4},{"trial_n":59,"span":10,"encoder":"2190460640","distractor":"2120460640","target":"present","response":"present","rt":"2768.8000000119","correct":true,"confidence":3},{"trial_n":60,"span":10,"encoder":"5883121631","distractor":"7883121631","target":"absent","response":"absent","rt":"7093.900000006","correct":true,"confidence":3},{"trial_n":61,"span":11,"encoder":"14685792655","distractor":"14085792655","target":"absent","response":"present","rt":"4754.400000006","correct":false,"confidence":2},{"trial_n":62,"span":10,"encoder":"9032400712","distractor":"9022400712","target":"present","response":"absent","rt":"4962.099999994","correct":false,"confidence":3},{"trial_n":63,"span":9,"encoder":"347261031","distractor":"347261071","target":"absent","response":"absent","rt":"4589.599999994","correct":true,"confidence":3},{"trial_n":64,"span":9,"encoder":"775807602","distractor":"875807602","target":"present","response":"absent","rt":"3938.5","correct":false,"confidence":3},{"trial_n":65,"span":8,"encoder":"00944190","distractor":"70944190","target":"absent","response":"absent","rt":"4406.099999994","correct":true,"confidence":4},{"trial_n":66,"span":8,"encoder":"33085773","distractor":"33005773","target":"present","response":"present","rt":"3139.3000000119","correct":true,"confidence":4},{"trial_n":67,"span":9,"encoder":"706861545","distractor":"706860545","target":"absent","response":"present","rt":"3567.1999999881","correct":false,"confidence":1},{"trial_n":68,"span":8,"encoder":"02433093","distractor":"32433093","target":"absent","response":"absent","rt":"5941.900000006","correct":true,"confidence":3},{"trial_n":69,"span":8,"encoder":"75015507","distractor":"35015507","target":"present","response":"present","rt":"3603.8000000119","correct":true,"confidence":2},{"trial_n":70,"span":9,"encoder":"610166364","distractor":"710166364","target":"present","response":"present","rt":"3754.599999994","correct":true,"confidence":4},{"trial_n":71,"span":8,"encoder":"15980442","distractor":"15580442","target":"present","response":"absent","rt":"8735.3000000119","correct":false,"confidence":-1},{"trial_n":72,"span":7,"encoder":"7276358","distractor":"7278358","target":"present","response":"absent","rt":"4584.900000006","correct":false,"confidence":-1},{"trial_n":73,"span":6,"encoder":"472625","distractor":"772625","target":"absent","response":"present","rt":"2223.2999999821","correct":false,"confidence":-1},{"trial_n":74,"span":5,"encoder":"38495","distractor":"38497","target":"absent","response":"absent","rt":"2371.099999994","correct":true,"confidence":-1},{"trial_n":75,"span":5,"encoder":"25972","distractor":"25902","target":"present","response":"present","rt":"1952.1000000238","correct":true,"confidence":-1},{"trial_n":76,"span":6,"encoder":"792521","distractor":"792561","target":"absent","response":"absent","rt":"3969.099999994","correct":true,"confidence":-1},{"trial_n":77,"span":6,"encoder":"887812","distractor":"857812","target":"absent","response":"present","rt":"8537.7000000179","correct":false,"confidence":-1},{"trial_n":78,"span":5,"encoder":"32155","distractor":"32115","target":"absent","response":"absent","rt":"2002.8999999762","correct":true,"confidence":-1},{"trial_n":79,"span":5,"encoder":"71392","distractor":"74392","target":"absent","response":"absent","rt":"1604.7999999821","correct":true,"confidence":-1},{"trial_n":80,"span":6,"encoder":"726319","distractor":"716319","target":"present","response":"present","rt":"1303.099999994","correct":true,"confidence":-1},{"trial_n":81,"span":6,"encoder":"050576","distractor":"050571","target":"present","response":"present","rt":"2332.400000006","correct":true,"confidence":-1},{"trial_n":82,"span":7,"encoder":"7058862","distractor":"7158862","target":"absent","response":"absent","rt":"3222.2999999821","correct":true,"confidence":-1},{"trial_n":83,"span":7,"encoder":"1126407","distractor":"1146407","target":"present","response":"present","rt":"3878.1999999881","correct":true,"confidence":-1},{"trial_n":84,"span":8,"encoder":"15853946","distractor":"15850946","target":"present","response":"absent","rt":"2024.7000000179","correct":false,"confidence":-1},{"trial_n":85,"span":7,"encoder":"4918414","distractor":"4918314","target":"present","response":"present","rt":"3345.2999999821","correct":true,"confidence":-1},{"trial_n":86,"span":7,"encoder":"4998274","distractor":"4995274","target":"absent","response":"absent","rt":"2544.7999999821","correct":true,"confidence":-1},{"trial_n":87,"span":8,"encoder":"50047680","distractor":"50040680","target":"present","response":"present","rt":"2552.400000006","correct":true,"confidence":-1},{"trial_n":88,"span":8,"encoder":"29940325","distractor":"29940324","target":"absent","response":"absent","rt":"2169","correct":true,"confidence":-1},{"trial_n":89,"span":9,"encoder":"716578723","distractor":"716578721","target":"absent","response":"absent","rt":"1451","correct":true,"confidence":-1},{"trial_n":90,"span":9,"encoder":"693612603","distractor":"393612603","target":"present","response":"present","rt":"5194.6999999881","correct":true,"confidence":-1},{"trial_n":91,"span":10,"encoder":"6615175500","distractor":"6615175505","target":"absent","response":"absent","rt":"1637.400000006","correct":true,"confidence":4},{"trial_n":92,"span":10,"encoder":"5596075556","distractor":"5596072556","target":"present","response":"present","rt":"3071.400000006","correct":true,"confidence":3},{"trial_n":93,"span":11,"encoder":"01355844317","distractor":"01355844313","target":"present","response":"present","rt":"4425.7000000179","correct":true,"confidence":4},{"trial_n":94,"span":11,"encoder":"55826617554","distractor":"55826617556","target":"absent","response":"absent","rt":"3738.400000006","correct":true,"confidence":4},{"trial_n":95,"span":12,"encoder":"225309668405","distractor":"225309664405","target":"absent","response":"present","rt":"2695.3999999762","correct":false,"confidence":3},{"trial_n":96,"span":11,"encoder":"34502791981","distractor":"34502798981","target":"absent","response":"absent","rt":"4093","correct":true,"confidence":3},{"trial_n":97,"span":11,"encoder":"97065784248","distractor":"93065784248","target":"present","response":"absent","rt":"5024.5","correct":false,"confidence":2},{"trial_n":98,"span":10,"encoder":"6157216860","distractor":"6157266860","target":"present","response":"present","rt":"4450.400000006","correct":true,"confidence":2},{"trial_n":99,"span":10,"encoder":"9525806326","distractor":"9525006326","target":"absent","response":"absent","rt":"3820.1999999881","correct":true,"confidence":4},{"trial_n":100,"span":11,"encoder":"14332902449","distractor":"14332909449","target":"absent","response":"absent","rt":"4354.1999999881","correct":true,"confidence":3},{"trial_n":101,"span":11,"encoder":"24058855722","distractor":"24958855722","target":"present","response":"present","rt":"8950.6000000238","correct":true,"confidence":2},{"trial_n":102,"span":12,"encoder":"642401217411","distractor":"642401214411","target":"absent","response":"absent","rt":"6267.5","correct":true,"confidence":3},{"trial_n":103,"span":12,"encoder":"734412661041","distractor":"734412660041","target":"present","response":"present","rt":"4723.2000000179","correct":true,"confidence":3},{"trial_n":104,"span":13,"encoder":"4739462501942","distractor":"4739462501962","target":"present","response":"present","rt":"3300.5","correct":true,"confidence":5},{"trial_n":105,"span":13,"encoder":"0221174494747","distractor":"0224174494747","target":"present","response":"absent","rt":"8075.400000006","correct":false,"confidence":2},{"trial_n":106,"span":12,"encoder":"373747243583","distractor":"373749243583","target":"present","response":"present","rt":"6945.900000006","correct":true,"confidence":2},{"trial_n":107,"span":12,"encoder":"703277299648","distractor":"603277299648","target":"absent","response":"absent","rt":"3729.2999999821","correct":true,"confidence":2},{"trial_n":108,"span":13,"encoder":"9600187369252","distractor":"9690187369252","target":"present","response":"present","rt":"9512.400000006","correct":true,"confidence":2},{"trial_n":109,"span":13,"encoder":"1454678004869","distractor":"1454678005869","target":"absent","response":"absent","rt":"3734.400000006","correct":true,"confidence":3},{"trial_n":110,"span":14,"encoder":"54547747840111","distractor":"55547747840111","target":"present","response":"present","rt":"9119.5","correct":true,"confidence":4},{"trial_n":111,"span":14,"encoder":"12299846100821","distractor":"12259846100821","target":"present","response":"present","rt":"7162.099999994","correct":true,"confidence":2},{"trial_n":112,"span":15,"encoder":"457484271409014","distractor":"407484271409014","target":"present","response":"present","rt":"12288.5","correct":true,"confidence":1},{"trial_n":113,"span":15,"encoder":"374239766405817","distractor":"374239766405857","target":"present","response":"present","rt":"2688.2999999821","correct":true,"confidence":4},{"trial_n":114,"span":16,"encoder":"7727418495854702","distractor":"7727418445854702","target":"absent","response":"present","rt":"8814.6999999881","correct":false,"confidence":1},{"trial_n":115,"span":15,"encoder":"743128295463156","distractor":"743128295453156","target":"present","response":"present","rt":"11630.199999988","correct":true,"confidence":1},{"trial_n":116,"span":15,"encoder":"507452950611575","distractor":"507452950611571","target":"present","response":"present","rt":"3367.599999994","correct":true,"confidence":3},{"trial_n":117,"span":16,"encoder":"9384841789959220","distractor":"9384841789759220","target":"present","response":"present","rt":"5054.900000006","correct":true,"confidence":3},{"trial_n":118,"span":16,"encoder":"0295641059658110","distractor":"0295641059653110","target":"absent","response":"absent","rt":"3255.5","correct":true,"confidence":3},{"trial_n":119,"span":17,"encoder":"64020476502719037","distractor":"64020476502729037","target":"absent","response":"absent","rt":"6431.8000000119","correct":true,"confidence":1},{"trial_n":120,"span":17,"encoder":"70581244086688594","distractor":"70581244086688514","target":"absent","response":"absent","rt":"2345.8000000119","correct":true,"confidence":4},{"trial_n":121,"span":18,"encoder":"248913298875343782","distractor":"248913298875343722","target":"absent","response":"absent","rt":"2545.900000006","correct":true,"confidence":3},{"trial_n":122,"span":18,"encoder":"762417296144739255","distractor":"762417296144439255","target":"present","response":"present","rt":"6806.099999994","correct":true,"confidence":2},{"trial_n":123,"span":19,"encoder":"0605511676352982803","distractor":"0605511676352982003","target":"present","response":"present","rt":"3340.7000000179","correct":true,"confidence":4},{"trial_n":124,"span":19,"encoder":"5179568328166004183","distractor":"5179568328166034183","target":"absent","response":"absent","rt":"4000.2999999821","correct":true,"confidence":3},{"trial_n":125,"span":20,"encoder":"94307512147877997692","distractor":"54307512147877997692","target":"present","response":"present","rt":"10199.900000006","correct":true,"confidence":2},{"trial_n":126,"span":20,"encoder":"38400308279936797644","distractor":"38500308279936797644","target":"present","response":"present","rt":"6506.3000000119","correct":true,"confidence":2},{"trial_n":127,"span":21,"encoder":"506495237395084469528","distractor":"506495237391084469528","target":"present","response":"present","rt":"12490.099999994","correct":true,"confidence":2},{"trial_n":128,"span":21,"encoder":"741946585942385074600","distractor":"791946585942385074600","target":"absent","response":"absent","rt":"7905.400000006","correct":true,"confidence":2},{"trial_n":129,"span":22,"encoder":"9735088293921430335528","distractor":"9735008293921430335528","target":"absent","response":"present","rt":"8422.3000000119","correct":false,"confidence":1},{"trial_n":130,"span":21,"encoder":"543456129819840597501","distractor":"543456129819840597506","target":"present","response":"present","rt":"2672.400000006","correct":true,"confidence":4},{"trial_n":131,"span":21,"encoder":"496226751805327051553","distractor":"496226751805327059553","target":"present","response":"present","rt":"3893.900000006","correct":true,"confidence":4},{"trial_n":132,"span":22,"encoder":"5874134756951589519620","distractor":"5874134756951589559620","target":"present","response":"present","rt":"4771.2000000179","correct":true,"confidence":1},{"trial_n":133,"span":22,"encoder":"6487932303022649329873","distractor":"6487932303022649329833","target":"absent","response":"absent","rt":"2934.1999999881","correct":true,"confidence":4},{"trial_n":134,"span":23,"encoder":"68427483468033890423860","distractor":"68427483468033890423820","target":"absent","response":"absent","rt":"3089.1999999881","correct":true,"confidence":2},{"trial_n":135,"span":23,"encoder":"42161210464585559274962","distractor":"42161210464505559274962","target":"absent","response":"absent","rt":"8277.599999994","correct":true,"confidence":1},{"trial_n":136,"span":24,"encoder":"626207286484505695439245","distractor":"624207286484505695439245","target":"absent","response":"present","rt":"8535.5","correct":false,"confidence":2},{"trial_n":137,"span":23,"encoder":"04377804525910906016867","distractor":"04377804525950906016867","target":"absent","response":"absent","rt":"7123.7000000179","correct":true,"confidence":1},{"trial_n":138,"span":23,"encoder":"73845150570164598659139","distractor":"73845150570164598619139","target":"absent","response":"present","rt":"8147.900000006","correct":false,"confidence":1},{"trial_n":139,"span":22,"encoder":"9357996695218715095209","distractor":"9357996685218715095209","target":"absent","response":"present","rt":"12409","correct":false,"confidence":2},{"trial_n":140,"span":21,"encoder":"940078846344556757295","distractor":"940078846944556757295","target":"present","response":"absent","rt":"26796.300000012","correct":false,"confidence":1}]