[{"trial_n":1,"span":8,"encoder":"62810013","distractor":"67810013","target":"present","response":"absent","rt":"3287.4000000358","correct":false,"confidence":-1},{"trial_n":2,"span":6,"encoder":"705219","distractor":"705719","target":"present","response":"present","rt":"974.30000001192","correct":true,"confidence":-1},{"trial_n":3,"span":6,"encoder":"466700","distractor":"066700","target":"absent","response":"absent","rt":"520.30000001192","correct":true,"confidence":-1},{"trial_n":4,"span":8,"encoder":"38962799","distractor":"38362799","target":"absent","response":"absent","rt":"318.19999998808","correct":true,"confidence":-1},{"trial_n":5,"span":8,"encoder":"63335779","distractor":"65335779","target":"present","response":"absent","rt":"716","correct":false,"confidence":-1},{"trial_n":6,"span":6,"encoder":"713143","distractor":"213143","target":"present","response":"absent","rt":"843.5","correct":false,"confidence":-1},{"trial_n":7,"span":4,"encoder":"0846","distractor":"4846","target":"present","response":"absent","rt":"765","correct":false,"confidence":-1},{"trial_n":8,"span":2,"encoder":"33","distractor":"31","target":"absent","response":"absent","rt":"819.19999998808","correct":true,"confidence":-1},{"trial_n":9,"span":2,"encoder":"64","distractor":"74","target":"absent","response":"absent","rt":"3449.5","correct":true,"confidence":-1},{"trial_n":10,"span":4,"encoder":"2166","distractor":"2126","target":"present","response":"absent","rt":"569.59999996424","correct":false,"confidence":-1},{"trial_n":11,"span":2,"encoder":"62","distractor":"63","target":"present","response":"absent","rt":"2479.0999999642","correct":false,"confidence":-1},{"trial_n":12,"span":2,"encoder":"98","distractor":"96","target":"absent","response":"absent","rt":"2456.1999999881","correct":true,"confidence":-1},{"trial_n":13,"span":2,"encoder":"70","distractor":"80","target":"present","response":"absent","rt":"735.30000001192","correct":false,"confidence":-1},{"trial_n":14,"span":2,"encoder":"12","distractor":"10","target":"absent","response":"absent","rt":"2661.1999999881","correct":true,"confidence":-1},{"trial_n":15,"span":2,"encoder":"07","distractor":"97","target":"absent","response":"absent","rt":"2393.5999999642","correct":true,"confidence":-1},{"trial_n":16,"span":3,"encoder":"062","distractor":"069","target":"absent","response":"absent","rt":"73.900000035763","correct":true,"confidence":-1},{"trial_n":17,"span":3,"encoder":"701","distractor":"751","target":"absent","response":"absent","rt":"2777","correct":true,"confidence":-1},{"trial_n":18,"span":4,"encoder":"0893","distractor":"0823","target":"present","response":"absent","rt":"210.09999996424","correct":false,"confidence":-1},{"trial_n":19,"span":3,"encoder":"236","distractor":"036","target":"absent","response":"absent","rt":"89.300000011921","correct":true,"confidence":-1},{"trial_n":20,"span":3,"encoder":"961","distractor":"061","target":"present","response":"absent","rt":"217.39999997616","correct":false,"confidence":-1},{"trial_n":21,"span":2,"encoder":"36","distractor":"06","target":"absent","response":"absent","rt":"875.20000004768","correct":true,"confidence":3},{"trial_n":22,"span":2,"encoder":"24","distractor":"22","target":"present","response":"absent","rt":"5472.2000000477","correct":false,"confidence":3},{"trial_n":23,"span":2,"encoder":"89","distractor":"81","target":"present","response":"absent","rt":"2427.1999999881","correct":false,"confidence":3},{"trial_n":24,"span":2,"encoder":"31","distractor":"61","target":"present","response":"absent","rt":"1484.0999999642","correct":false,"confidence":4},{"trial_n":25,"span":2,"encoder":"12","distractor":"10","target":"absent","response":"absent","rt":"2607.3000000119","correct":true,"confidence":2},{"trial_n":26,"span":2,"encoder":"18","distractor":"78","target":"absent","response":"present","rt":"1927.7000000477","correct":false,"confidence":3},{"trial_n":27,"span":2,"encoder":"41","distractor":"91","target":"present","response":"present","rt":"1732.6999999881","correct":true,"confidence":4},{"trial_n":28,"span":2,"encoder":"40","distractor":"70","target":"present","response":"present","rt":"4819.9000000358","correct":true,"confidence":5},{"trial_n":29,"span":3,"encoder":"217","distractor":"317","target":"present","response":"present","rt":"2050.8000000119","correct":true,"confidence":5},{"trial_n":30,"span":3,"encoder":"257","distractor":"253","target":"absent","response":"present","rt":"1669","correct":false,"confidence":4},{"trial_n":31,"span":2,"encoder":"18","distractor":"68","target":"absent","response":"absent","rt":"1749.3999999762","correct":true,"confidence":3},{"trial_n":32,"span":2,"encoder":"20","distractor":"70","target":"absent","response":"absent","rt":"2352.3000000119","correct":true,"confidence":3},{"trial_n":33,"span":3,"encoder":"155","distractor":"157","target":"present","response":"present","rt":"2928.3999999762","correct":true,"confidence":4},{"trial_n":34,"span":3,"encoder":"319","distractor":"419","target":"present","response":"absent","rt":"1469.6000000238","correct":false,"confidence":3},{"trial_n":35,"span":2,"encoder":"04","distractor":"08","target":"present","response":"absent","rt":"1431","correct":false,"confidence":4},{"trial_n":36,"span":2,"encoder":"86","distractor":"81","target":"present","response":"present","rt":"2990.4000000358","correct":true,"confidence":3},{"trial_n":37,"span":2,"encoder":"08","distractor":"05","target":"present","response":"present","rt":"1659.9000000358","correct":true,"confidence":3},{"trial_n":38,"span":3,"encoder":"218","distractor":"238","target":"present","response":"present","rt":"2261.1999999881","correct":true,"confidence":4},{"trial_n":39,"span":3,"encoder":"748","distractor":"778","target":"absent","response":"absent","rt":"2007.1000000238","correct":true,"confidence":4},{"trial_n":40,"span":4,"encoder":"6021","distractor":"7021","target":"absent","response":"absent","rt":"2009","correct":true,"confidence":4},{"trial_n":41,"span":4,"encoder":"1202","distractor":"1262","target":"absent","response":"absent","rt":"1778.2999999523","correct":true,"confidence":3},{"trial_n":42,"span":5,"encoder":"53995","distractor":"57995","target":"absent","response":"absent","rt":"2190.9000000358","correct":true,"confidence":3},{"trial_n":43,"span":5,"encoder":"30206","distractor":"30208","target":"present","response":"present","rt":"2067.0999999642","correct":true,"confidence":4},{"trial_n":44,"span":6,"encoder":"859855","distractor":"859555","target":"present","response":"present","rt":"1868.4000000358","correct":true,"confidence":5},{"trial_n":45,"span":6,"encoder":"941497","distractor":"941197","target":"absent","response":"absent","rt":"1501.8000000119","correct":true,"confidence":5},{"trial_n":46,"span":7,"encoder":"9621477","distractor":"9621475","target":"present","response":"present","rt":"1836.2000000477","correct":true,"confidence":4},{"trial_n":47,"span":7,"encoder":"3442572","distractor":"3442672","target":"absent","response":"present","rt":"1235.8999999762","correct":false,"confidence":4},{"trial_n":48,"span":6,"encoder":"686810","distractor":"696810","target":"present","response":"present","rt":"2133.1000000238","correct":true,"confidence":4},{"trial_n":49,"span":6,"encoder":"663046","distractor":"660046","target":"absent","response":"present","rt":"1603.8000000119","correct":false,"confidence":4},{"trial_n":50,"span":5,"encoder":"73216","distractor":"75216","target":"absent","response":"present","rt":"2670.1999999881","correct":false,"confidence":4},{"trial_n":51,"span":4,"encoder":"4607","distractor":"4601","target":"absent","response":"absent","rt":"3050.2000000477","correct":true,"confidence":4},{"trial_n":52,"span":4,"encoder":"0592","distractor":"5592","target":"absent","response":"absent","rt":"1968.8000000119","correct":true,"confidence":4},{"trial_n":53,"span":5,"encoder":"05841","distractor":"05843","target":"absent","response":"present","rt":"4150","correct":false,"confidence":4},{"trial_n":54,"span":4,"encoder":"6675","distractor":"6575","target":"present","response":"present","rt":"1349","correct":true,"confidence":3},{"trial_n":55,"span":4,"encoder":"9424","distractor":"9464","target":"absent","response":"present","rt":"1332","correct":false,"confidence":3},{"trial_n":56,"span":3,"encoder":"905","distractor":"907","target":"absent","response":"absent","rt":"2036.8999999762","correct":true,"confidence":3},{"trial_n":57,"span":3,"encoder":"448","distractor":"441","target":"absent","response":"absent","rt":"1348.8000000119","correct":true,"confidence":4},{"trial_n":58,"span":4,"encoder":"6517","distractor":"9517","target":"absent","response":"present","rt":"2431","correct":false,"confidence":4},{"trial_n":59,"span":3,"encoder":"161","distractor":"165","target":"present","response":"present","rt":"1965.9000000358","correct":true,"confidence":4},{"trial_n":60,"span":3,"encoder":"615","distractor":"614","target":"present","response":"present","rt":"1972.3999999762","correct":true,"confidence":4},{"trial_n":61,"span":4,"encoder":"2841","distractor":"8841","target":"present","response":"present","rt":"3485","correct":true,"confidence":3},{"trial_n":62,"span":4,"encoder":"0739","distractor":"0709","target":"present","response":"present","rt":"2421.0999999642","correct":true,"confidence":4},{"trial_n":63,"span":5,"encoder":"46788","distractor":"06788","target":"absent","response":"absent","rt":"1226.4000000358","correct":true,"confidence":4},{"trial_n":64,"span":5,"encoder":"96210","distractor":"96211","target":"present","response":"absent","rt":"1789.8999999762","correct":false,"confidence":3},{"trial_n":65,"span":4,"encoder":"2576","distractor":"2876","target":"present","response":"present","rt":"1783.3000000119","correct":true,"confidence":4},{"trial_n":66,"span":4,"encoder":"6397","distractor":"5397","target":"present","response":"present","rt":"1861.7999999523","correct":true,"confidence":3},{"trial_n":67,"span":5,"encoder":"82376","distractor":"02376","target":"absent","response":"absent","rt":"2322.6999999881","correct":true,"confidence":4},{"trial_n":68,"span":5,"encoder":"59830","distractor":"59810","target":"absent","response":"absent","rt":"2104.6000000238","correct":true,"confidence":4},{"trial_n":69,"span":6,"encoder":"584921","distractor":"544921","target":"present","response":"present","rt":"1938.1999999881","correct":true,"confidence":3},{"trial_n":70,"span":6,"encoder":"218453","distractor":"218443","target":"present","response":"absent","rt":"3382.6999999881","correct":false,"confidence":4},{"trial_n":71,"span":8,"encoder":"56802518","distractor":"56842518","target":"present","response":"absent","rt":"4844.5","correct":false,"confidence":-1},{"trial_n":72,"span":7,"encoder":"2969643","distractor":"2929643","target":"present","response":"present","rt":"3087.9000000358","correct":true,"confidence":-1},{"trial_n":73,"span":7,"encoder":"9340410","distractor":"7340410","target":"absent","response":"absent","rt":"4498.6999999881","correct":true,"confidence":-1},{"trial_n":74,"span":8,"encoder":"81878324","distractor":"81878124","target":"absent","response":"present","rt":"5662.8999999762","correct":false,"confidence":-1},{"trial_n":75,"span":7,"encoder":"6004184","distractor":"6004194","target":"present","response":"absent","rt":"1676.1999999881","correct":false,"confidence":-1},{"trial_n":76,"span":6,"encoder":"447269","distractor":"447267","target":"present","response":"present","rt":"2350.3999999762","correct":true,"confidence":-1},{"trial_n":77,"span":6,"encoder":"241743","distractor":"201743","target":"present","response":"absent","rt":"3453.6000000238","correct":false,"confidence":-1},{"trial_n":78,"span":5,"encoder":"85348","distractor":"85349","target":"present","response":"present","rt":"1410.6999999881","correct":true,"confidence":-1},{"trial_n":79,"span":5,"encoder":"93643","distractor":"93642","target":"absent","response":"present","rt":"1050.1000000238","correct":false,"confidence":-1},{"trial_n":80,"span":4,"encoder":"8409","distractor":"8429","target":"absent","response":"absent","rt":"1153.2000000477","correct":true,"confidence":-1},{"trial_n":81,"span":4,"encoder":"5401","distractor":"5402","target":"present","response":"absent","rt":"1673.3000000119","correct":false,"confidence":-1},{"trial_n":82,"span":3,"encoder":"949","distractor":"909","target":"absent","response":"present","rt":"1025.4000000358","correct":false,"confidence":-1},{"trial_n":83,"span":2,"encoder":"70","distractor":"75","target":"absent","response":"absent","rt":"970.69999998808","correct":true,"confidence":-1},{"trial_n":84,"span":2,"encoder":"76","distractor":"26","target":"present","response":"absent","rt":"1562.5999999642","correct":false,"confidence":-1},{"trial_n":85,"span":2,"encoder":"39","distractor":"79","target":"present","response":"present","rt":"1866.0999999642","correct":true,"confidence":-1},{"trial_n":86,"span":2,"encoder":"72","distractor":"62","target":"absent","response":"absent","rt":"1613","correct":true,"confidence":-1},{"trial_n":87,"span":3,"encoder":"052","distractor":"092","target":"present","response":"present","rt":"1446.0999999642","correct":true,"confidence":-1},{"trial_n":88,"span":3,"encoder":"006","distractor":"306","target":"present","response":"present","rt":"1959.8999999762","correct":true,"confidence":-1},{"trial_n":89,"span":4,"encoder":"2044","distractor":"3044","target":"present","response":"present","rt":"1603.5","correct":true,"confidence":-1},{"trial_n":90,"span":4,"encoder":"7675","distractor":"7678","target":"absent","response":"present","rt":"1875.3000000119","correct":false,"confidence":-1},{"trial_n":91,"span":3,"encoder":"073","distractor":"873","target":"absent","response":"absent","rt":"928.69999998808","correct":true,"confidence":3},{"trial_n":92,"span":3,"encoder":"633","distractor":"639","target":"absent","response":"absent","rt":"1466.8000000119","correct":true,"confidence":2},{"trial_n":93,"span":4,"encoder":"8782","distractor":"8789","target":"present","response":"absent","rt":"1227.6000000238","correct":false,"confidence":3},{"trial_n":94,"span":3,"encoder":"766","distractor":"763","target":"absent","response":"present","rt":"1818.1000000238","correct":false,"confidence":3},{"trial_n":95,"span":2,"encoder":"54","distractor":"57","target":"absent","response":"present","rt":"1541.6999999881","correct":false,"confidence":3},{"trial_n":96,"span":2,"encoder":"60","distractor":"80","target":"present","response":"absent","rt":"8105.2000000477","correct":false,"confidence":3},{"trial_n":97,"span":2,"encoder":"41","distractor":"45","target":"absent","response":"present","rt":"1300.3999999762","correct":false,"confidence":3},{"trial_n":98,"span":2,"encoder":"80","distractor":"60","target":"present","response":"present","rt":"17648.799999952","correct":true,"confidence":2},{"trial_n":99,"span":2,"encoder":"78","distractor":"68","target":"absent","response":"absent","rt":"1773.9000000358","correct":true,"confidence":3},{"trial_n":100,"span":3,"encoder":"029","distractor":"129","target":"present","response":"present","rt":"1180","correct":true,"confidence":4},{"trial_n":101,"span":3,"encoder":"671","distractor":"631","target":"absent","response":"absent","rt":"1323.8000000119","correct":true,"confidence":4},{"trial_n":102,"span":4,"encoder":"4430","distractor":"4436","target":"absent","response":"absent","rt":"1503.5999999642","correct":true,"confidence":5},{"trial_n":103,"span":4,"encoder":"7934","distractor":"7634","target":"present","response":"present","rt":"2180.0999999642","correct":true,"confidence":4},{"trial_n":104,"span":5,"encoder":"86875","distractor":"86805","target":"present","response":"absent","rt":"24545.799999952","correct":false,"confidence":3},{"trial_n":105,"span":4,"encoder":"7249","distractor":"7749","target":"present","response":"present","rt":"5399.4000000358","correct":true,"confidence":3},{"trial_n":106,"span":4,"encoder":"7329","distractor":"7321","target":"present","response":"absent","rt":"2861.5","correct":false,"confidence":3},{"trial_n":107,"span":3,"encoder":"714","distractor":"814","target":"present","response":"present","rt":"1494.1000000238","correct":true,"confidence":4},{"trial_n":108,"span":3,"encoder":"639","distractor":"629","target":"absent","response":"absent","rt":"2030.6000000238","correct":true,"confidence":4},{"trial_n":109,"span":4,"encoder":"3005","distractor":"6005","target":"absent","response":"present","rt":"2604.8999999762","correct":false,"confidence":4},{"trial_n":110,"span":3,"encoder":"307","distractor":"302","target":"present","response":"present","rt":"2044.1000000238","correct":true,"confidence":4},{"trial_n":111,"span":3,"encoder":"134","distractor":"234","target":"absent","response":"absent","rt":"1394.3000000119","correct":true,"confidence":3},{"trial_n":112,"span":4,"encoder":"5339","distractor":"5039","target":"present","response":"present","rt":"1825.1999999881","correct":true,"confidence":4},{"trial_n":113,"span":4,"encoder":"6752","distractor":"8752","target":"present","response":"present","rt":"1879.7999999523","correct":true,"confidence":3},{"trial_n":114,"span":5,"encoder":"07050","distractor":"07020","target":"absent","response":"absent","rt":"1475.1000000238","correct":true,"confidence":4},{"trial_n":115,"span":5,"encoder":"15417","distractor":"15410","target":"present","response":"present","rt":"2844.8000000119","correct":true,"confidence":4},{"trial_n":116,"span":6,"encoder":"836803","distractor":"826803","target":"absent","response":"absent","rt":"2749.6999999881","correct":true,"confidence":3},{"trial_n":117,"span":6,"encoder":"487474","distractor":"487174","target":"present","response":"present","rt":"2003","correct":true,"confidence":4},{"trial_n":118,"span":7,"encoder":"0889068","distractor":"0885068","target":"absent","response":"absent","rt":"3470.8000000119","correct":true,"confidence":4},{"trial_n":119,"span":7,"encoder":"1764661","distractor":"1764461","target":"present","response":"present","rt":"2129.6000000238","correct":true,"confidence":4},{"trial_n":120,"span":8,"encoder":"46789308","distractor":"46789300","target":"absent","response":"absent","rt":"1659.5","correct":true,"confidence":4},{"trial_n":121,"span":8,"encoder":"88969871","distractor":"88969851","target":"present","response":"present","rt":"5122.1000000238","correct":true,"confidence":4},{"trial_n":122,"span":9,"encoder":"207559799","distractor":"207459799","target":"absent","response":"present","rt":"1555.8000000119","correct":false,"confidence":3},{"trial_n":123,"span":8,"encoder":"67936417","distractor":"67936497","target":"absent","response":"present","rt":"1733.3000000119","correct":false,"confidence":4},{"trial_n":124,"span":7,"encoder":"8618321","distractor":"8618341","target":"absent","response":"present","rt":"1781.5","correct":false,"confidence":3},{"trial_n":125,"span":6,"encoder":"192569","distractor":"192539","target":"present","response":"present","rt":"2317.3999999762","correct":true,"confidence":3},{"trial_n":126,"span":6,"encoder":"144197","distractor":"144397","target":"present","response":"present","rt":"1415.4000000358","correct":true,"confidence":3},{"trial_n":127,"span":7,"encoder":"7347392","distractor":"7347792","target":"absent","response":"present","rt":"1693.9000000358","correct":false,"confidence":3},{"trial_n":128,"span":6,"encoder":"924418","distractor":"920418","target":"absent","response":"absent","rt":"2925.6000000238","correct":true,"confidence":3},{"trial_n":129,"span":6,"encoder":"634345","distractor":"684345","target":"present","response":"present","rt":"2030.7000000477","correct":true,"confidence":3},{"trial_n":130,"span":7,"encoder":"0754944","distractor":"0753944","target":"present","response":"present","rt":"2157.5999999642","correct":true,"confidence":3},{"trial_n":131,"span":7,"encoder":"5594395","distractor":"5592395","target":"absent","response":"present","rt":"2819","correct":false,"confidence":3},{"trial_n":132,"span":6,"encoder":"097519","distractor":"097719","target":"absent","response":"present","rt":"2781","correct":false,"confidence":3},{"trial_n":133,"span":5,"encoder":"66258","distractor":"66268","target":"absent","response":"absent","rt":"2283.3999999762","correct":true,"confidence":3},{"trial_n":134,"span":5,"encoder":"49769","distractor":"46769","target":"absent","response":"absent","rt":"3442.5","correct":true,"confidence":3},{"trial_n":135,"span":6,"encoder":"888351","distractor":"888355","target":"present","response":"present","rt":"1699.5","correct":true,"confidence":3},{"trial_n":136,"span":6,"encoder":"016068","distractor":"006068","target":"present","response":"present","rt":"2700.6999999881","correct":true,"confidence":3},{"trial_n":137,"span":7,"encoder":"2534033","distractor":"3534033","target":"absent","response":"present","rt":"2185","correct":false,"confidence":4},{"trial_n":138,"span":6,"encoder":"738126","distractor":"738146","target":"present","response":"present","rt":"4195.1000000238","correct":true,"confidence":3},{"trial_n":139,"span":6,"encoder":"133257","distractor":"433257","target":"absent","response":"absent","rt":"5121.8000000119","correct":true,"confidence":3},{"trial_n":140,"span":7,"encoder":"2480104","distractor":"2480107","target":"present","response":"present","rt":"3354.5","correct":true,"confidence":3}]