[{"trial_n":1,"n_dots":4.25,"target":"left","response":"left","rt":2309.1000000238,"correct":true,"confidence":-1},{"trial_n":2,"n_dots":4.25,"target":"left","response":"right","rt":491,"correct":false,"confidence":-1},{"trial_n":3,"n_dots":4.65,"target":"right","response":"left","rt":503.30000001192,"correct":false,"confidence":-1},{"trial_n":4,"n_dots":5.05,"target":"left","response":"right","rt":1794.6999999881,"correct":false,"confidence":-1},{"trial_n":5,"n_dots":5.45,"target":"left","response":"left","rt":459.79999995232,"correct":true,"confidence":-1},{"trial_n":6,"n_dots":5.45,"target":"left","response":"left","rt":424.39999997616,"correct":true,"confidence":-1},{"trial_n":7,"n_dots":5.05,"target":"right","response":"left","rt":20.300000011921,"correct":false,"confidence":-1},{"trial_n":8,"n_dots":5.25,"target":"right","response":"right","rt":150.5,"correct":true,"confidence":-1},{"trial_n":9,"n_dots":5.25,"target":"left","response":"left","rt":118.89999997616,"correct":true,"confidence":-1},{"trial_n":10,"n_dots":5.05,"target":"left","response":"right","rt":337.60000002384,"correct":false,"confidence":-1},{"trial_n":11,"n_dots":5.25,"target":"right","response":"left","rt":143.09999996424,"correct":false,"confidence":-1},{"trial_n":12,"n_dots":5.45,"target":"right","response":"right","rt":166.80000001192,"correct":true,"confidence":-1},{"trial_n":13,"n_dots":5.45,"target":"right","response":"right","rt":177.90000003576,"correct":true,"confidence":-1},{"trial_n":14,"n_dots":5.35,"target":"left","response":"left","rt":82.300000011921,"correct":true,"confidence":-1},{"trial_n":15,"n_dots":5.35,"target":"right","response":"left","rt":33.800000011921,"correct":false,"confidence":-1},{"trial_n":16,"n_dots":5.45,"target":"left","response":"left","rt":702.19999998808,"correct":true,"confidence":-1},{"trial_n":17,"n_dots":5.45,"target":"left","response":"right","rt":96.800000011921,"correct":false,"confidence":-1},{"trial_n":18,"n_dots":5.55,"target":"left","response":"left","rt":60.199999988079,"correct":true,"confidence":-1},{"trial_n":19,"n_dots":5.55,"target":"right","response":"left","rt":5748.1999999881,"correct":false,"confidence":-1},{"trial_n":20,"n_dots":5.65,"target":"left","response":"left","rt":4646.5,"correct":true,"confidence":-1},{"trial_n":21,"n_dots":5.65,"target":"left","response":"left","rt":72.100000023842,"correct":true,"confidence":3},{"trial_n":22,"n_dots":5.55,"target":"right","response":"left","rt":117.19999998808,"correct":false,"confidence":3},{"trial_n":23,"n_dots":5.65,"target":"right","response":"right","rt":498,"correct":true,"confidence":4},{"trial_n":24,"n_dots":5.65,"target":"left","response":"left","rt":519.40000003576,"correct":true,"confidence":3},{"trial_n":25,"n_dots":5.55,"target":"right","response":"right","rt":217.19999998808,"correct":true,"confidence":3},{"trial_n":26,"n_dots":5.55,"target":"right","response":"left","rt":133.60000002384,"correct":false,"confidence":3},{"trial_n":27,"n_dots":5.65,"target":"right","response":"right","rt":596.69999998808,"correct":true,"confidence":3},{"trial_n":28,"n_dots":5.65,"target":"right","response":"right","rt":1075.3999999762,"correct":true,"confidence":3},{"trial_n":29,"n_dots":5.55,"target":"right","response":"right","rt":249.09999996424,"correct":true,"confidence":3},{"trial_n":30,"n_dots":5.55,"target":"right","response":"right","rt":946.69999998808,"correct":true,"confidence":3},{"trial_n":31,"n_dots":5.45,"target":"left","response":"right","rt":217.89999997616,"correct":false,"confidence":3},{"trial_n":32,"n_dots":5.55,"target":"left","response":"left","rt":2661.9000000358,"correct":true,"confidence":3},{"trial_n":33,"n_dots":5.55,"target":"left","response":"left","rt":152.20000004768,"correct":true,"confidence":4},{"trial_n":34,"n_dots":5.45,"target":"left","response":"left","rt":685.60000002384,"correct":true,"confidence":3},{"trial_n":35,"n_dots":5.45,"target":"left","response":"left","rt":905.90000003576,"correct":true,"confidence":4},{"trial_n":36,"n_dots":5.35,"target":"right","response":"right","rt":5.1999999880791,"correct":true,"confidence":3},{"trial_n":37,"n_dots":5.35,"target":"left","response":"right","rt":794.10000002384,"correct":false,"confidence":3},{"trial_n":38,"n_dots":5.45,"target":"left","response":"right","rt":145.5,"correct":false,"confidence":4},{"trial_n":39,"n_dots":5.55,"target":"right","response":"left","rt":1098.8000000119,"correct":false,"confidence":3},{"trial_n":40,"n_dots":5.65,"target":"right","response":"left","rt":431.19999998808,"correct":false,"confidence":3},{"trial_n":41,"n_dots":5.743,"target":"right","response":"right","rt":683.39999997616,"correct":true,"confidence":3},{"trial_n":42,"n_dots":5.743,"target":"right","response":"right","rt":626.19999998808,"correct":true,"confidence":3},{"trial_n":43,"n_dots":5.643,"target":"left","response":"left","rt":250,"correct":true,"confidence":3},{"trial_n":44,"n_dots":5.643,"target":"left","response":"left","rt":970.09999996424,"correct":true,"confidence":3},{"trial_n":45,"n_dots":5.543,"target":"left","response":"left","rt":65.900000035763,"correct":true,"confidence":3},{"trial_n":46,"n_dots":5.543,"target":"right","response":"right","rt":795.39999997616,"correct":true,"confidence":3},{"trial_n":47,"n_dots":5.443,"target":"left","response":"left","rt":554,"correct":true,"confidence":3},{"trial_n":48,"n_dots":5.443,"target":"left","response":"left","rt":425.39999997616,"correct":true,"confidence":3},{"trial_n":49,"n_dots":5.343,"target":"left","response":"left","rt":1438,"correct":true,"confidence":3},{"trial_n":50,"n_dots":5.343,"target":"left","response":"right","rt":649.30000001192,"correct":false,"confidence":3},{"trial_n":51,"n_dots":5.443,"target":"left","response":"left","rt":122,"correct":true,"confidence":3},{"trial_n":52,"n_dots":5.443,"target":"right","response":"left","rt":2263.9000000358,"correct":false,"confidence":3},{"trial_n":53,"n_dots":5.543,"target":"right","response":"right","rt":1739.3000000119,"correct":true,"confidence":3},{"trial_n":54,"n_dots":5.543,"target":"left","response":"left","rt":883.89999997616,"correct":true,"confidence":3},{"trial_n":55,"n_dots":5.443,"target":"right","response":"right","rt":281.09999996424,"correct":true,"confidence":3},{"trial_n":56,"n_dots":5.443,"target":"right","response":"right","rt":3947.5,"correct":true,"confidence":3},{"trial_n":57,"n_dots":5.343,"target":"right","response":"right","rt":223.10000002384,"correct":true,"confidence":3},{"trial_n":58,"n_dots":5.343,"target":"left","response":"left","rt":686.09999996424,"correct":true,"confidence":3},{"trial_n":59,"n_dots":5.243,"target":"right","response":"right","rt":40.699999988079,"correct":true,"confidence":3},{"trial_n":60,"n_dots":5.243,"target":"left","response":"left","rt":890.60000002384,"correct":true,"confidence":3},{"trial_n":61,"n_dots":5.143,"target":"right","response":"right","rt":218.60000002384,"correct":true,"confidence":3},{"trial_n":62,"n_dots":5.143,"target":"right","response":"right","rt":2199.8999999762,"correct":true,"confidence":3},{"trial_n":63,"n_dots":5.043,"target":"right","response":"right","rt":1331.0999999642,"correct":true,"confidence":3},{"trial_n":64,"n_dots":5.043,"target":"left","response":"left","rt":720.19999998808,"correct":true,"confidence":3},{"trial_n":65,"n_dots":4.943,"target":"left","response":"left","rt":262.39999997616,"correct":true,"confidence":3},{"trial_n":66,"n_dots":4.943,"target":"right","response":"right","rt":81.899999976158,"correct":true,"confidence":3},{"trial_n":67,"n_dots":4.843,"target":"right","response":"right","rt":5.7000000476837,"correct":true,"confidence":3},{"trial_n":68,"n_dots":4.843,"target":"right","response":"right","rt":400.09999996424,"correct":true,"confidence":3},{"trial_n":69,"n_dots":4.743,"target":"left","response":"left","rt":158.30000001192,"correct":true,"confidence":3},{"trial_n":70,"n_dots":4.743,"target":"right","response":"right","rt":531,"correct":true,"confidence":3},{"trial_n":71,"n_dots":4.643,"target":"left","response":"left","rt":226.20000004768,"correct":true,"confidence":3},{"trial_n":72,"n_dots":4.643,"target":"right","response":"right","rt":730.59999996424,"correct":true,"confidence":3},{"trial_n":73,"n_dots":4.543,"target":"left","response":"left","rt":51.899999976158,"correct":true,"confidence":3},{"trial_n":74,"n_dots":4.543,"target":"right","response":"right","rt":81.899999976158,"correct":true,"confidence":4},{"trial_n":75,"n_dots":4.443,"target":"right","response":"right","rt":239.69999998808,"correct":true,"confidence":3},{"trial_n":76,"n_dots":4.443,"target":"right","response":"right","rt":345.80000001192,"correct":true,"confidence":3},{"trial_n":77,"n_dots":4.343,"target":"left","response":"left","rt":866.89999997616,"correct":true,"confidence":3},{"trial_n":78,"n_dots":4.343,"target":"left","response":"left","rt":594.09999996424,"correct":true,"confidence":3},{"trial_n":79,"n_dots":4.243,"target":"left","response":"left","rt":912.60000002384,"correct":true,"confidence":3},{"trial_n":80,"n_dots":4.243,"target":"right","response":"left","rt":754.79999995232,"correct":false,"confidence":3},{"trial_n":81,"n_dots":4.343,"target":"left","response":"left","rt":505,"correct":true,"confidence":3},{"trial_n":82,"n_dots":4.343,"target":"right","response":"left","rt":1114,"correct":false,"confidence":3},{"trial_n":83,"n_dots":4.443,"target":"left","response":"left","rt":511.39999997616,"correct":true,"confidence":3},{"trial_n":84,"n_dots":4.443,"target":"left","response":"left","rt":428.69999998808,"correct":true,"confidence":3},{"trial_n":85,"n_dots":4.343,"target":"right","response":"left","rt":674,"correct":false,"confidence":3},{"trial_n":86,"n_dots":4.443,"target":"right","response":"left","rt":3334.4000000358,"correct":false,"confidence":3},{"trial_n":87,"n_dots":4.543,"target":"right","response":"left","rt":7509.6000000238,"correct":false,"confidence":3},{"trial_n":88,"n_dots":4.643,"target":"left","response":"left","rt":336,"correct":true,"confidence":3},{"trial_n":89,"n_dots":4.643,"target":"right","response":"right","rt":1180.1000000238,"correct":true,"confidence":3},{"trial_n":90,"n_dots":4.543,"target":"right","response":"right","rt":434.10000002384,"correct":true,"confidence":3},{"trial_n":91,"n_dots":4.543,"target":"right","response":"right","rt":349.60000002384,"correct":true,"confidence":3},{"trial_n":92,"n_dots":4.443,"target":"left","response":"left","rt":585.69999998808,"correct":true,"confidence":3},{"trial_n":93,"n_dots":4.443,"target":"right","response":"right","rt":505.80000001192,"correct":true,"confidence":3},{"trial_n":94,"n_dots":4.343,"target":"left","response":"left","rt":442.29999995232,"correct":true,"confidence":3},{"trial_n":95,"n_dots":4.343,"target":"right","response":"right","rt":445.80000001192,"correct":true,"confidence":3},{"trial_n":96,"n_dots":4.243,"target":"left","response":"left","rt":105.5,"correct":true,"confidence":3},{"trial_n":97,"n_dots":4.243,"target":"right","response":"right","rt":449.30000001192,"correct":true,"confidence":3},{"trial_n":98,"n_dots":4.143,"target":"left","response":"left","rt":250.19999998808,"correct":true,"confidence":3},{"trial_n":99,"n_dots":4.143,"target":"left","response":"left","rt":417.19999998808,"correct":true,"confidence":3},{"trial_n":100,"n_dots":4.043,"target":"left","response":"left","rt":558.89999997616,"correct":true,"confidence":3},{"trial_n":101,"n_dots":4.043,"target":"right","response":"right","rt":766.69999998808,"correct":true,"confidence":3},{"trial_n":102,"n_dots":3.943,"target":"right","response":"right","rt":699.5,"correct":true,"confidence":3},{"trial_n":103,"n_dots":3.943,"target":"right","response":"right","rt":519.79999995232,"correct":true,"confidence":3},{"trial_n":104,"n_dots":3.843,"target":"right","response":"right","rt":442,"correct":true,"confidence":3},{"trial_n":105,"n_dots":3.843,"target":"left","response":"right","rt":474.09999996424,"correct":false,"confidence":3},{"trial_n":106,"n_dots":3.943,"target":"left","response":"left","rt":449.90000003576,"correct":true,"confidence":3},{"trial_n":107,"n_dots":3.943,"target":"right","response":"right","rt":3932,"correct":true,"confidence":3},{"trial_n":108,"n_dots":3.843,"target":"right","response":"right","rt":227.80000001192,"correct":true,"confidence":3},{"trial_n":109,"n_dots":3.843,"target":"right","response":"right","rt":521.19999998808,"correct":true,"confidence":3},{"trial_n":110,"n_dots":3.743,"target":"left","response":"right","rt":4314.8000000119,"correct":false,"confidence":3},{"trial_n":111,"n_dots":3.843,"target":"left","response":"right","rt":2324.7999999523,"correct":false,"confidence":3},{"trial_n":112,"n_dots":3.943,"target":"right","response":"right","rt":765.60000002384,"correct":true,"confidence":3},{"trial_n":113,"n_dots":3.943,"target":"left","response":"right","rt":163,"correct":false,"confidence":3},{"trial_n":114,"n_dots":4.043,"target":"right","response":"right","rt":172.10000002384,"correct":true,"confidence":4},{"trial_n":115,"n_dots":4.043,"target":"left","response":"right","rt":105.80000001192,"correct":false,"confidence":3},{"trial_n":116,"n_dots":4.143,"target":"right","response":"right","rt":210.5,"correct":true,"confidence":3},{"trial_n":117,"n_dots":4.143,"target":"left","response":"right","rt":296.80000001192,"correct":false,"confidence":3},{"trial_n":118,"n_dots":4.243,"target":"left","response":"right","rt":5046.2000000477,"correct":false,"confidence":3},{"trial_n":119,"n_dots":4.343,"target":"left","response":"left","rt":422.60000002384,"correct":true,"confidence":4},{"trial_n":120,"n_dots":4.343,"target":"left","response":"left","rt":67.899999976158,"correct":true,"confidence":4}]