[{"trial_n":1,"min":25,"max":230,"target":"present","response":"absent","rt":10179.400000095,"correct":false,"confidence":-1},{"trial_n":2,"min":25,"max":230,"target":"present","response":"present","rt":702.60000002384,"correct":true,"confidence":-1},{"trial_n":3,"min":25,"max":230,"target":"absent","response":"absent","rt":445.60000002384,"correct":true,"confidence":-1},{"trial_n":4,"min":41,"max":214,"target":"absent","response":"absent","rt":402.09999990463,"correct":true,"confidence":-1},{"trial_n":5,"min":41,"max":214,"target":"present","response":"present","rt":462.79999995232,"correct":true,"confidence":-1},{"trial_n":6,"min":57,"max":198,"target":"present","response":"present","rt":409.79999995232,"correct":true,"confidence":-1},{"trial_n":7,"min":57,"max":198,"target":"present","response":"present","rt":756.09999990463,"correct":true,"confidence":-1},{"trial_n":8,"min":73,"max":182,"target":"absent","response":"absent","rt":451.29999995232,"correct":true,"confidence":-1},{"trial_n":9,"min":73,"max":182,"target":"present","response":"present","rt":452.40000009537,"correct":true,"confidence":-1},{"trial_n":10,"min":89,"max":166,"target":"present","response":"absent","rt":410.29999995232,"correct":false,"confidence":-1},{"trial_n":11,"min":81,"max":174,"target":"present","response":"present","rt":821.39999997616,"correct":true,"confidence":-1},{"trial_n":12,"min":81,"max":174,"target":"present","response":"absent","rt":526.5,"correct":false,"confidence":-1},{"trial_n":13,"min":73,"max":182,"target":"absent","response":"absent","rt":5346.5,"correct":true,"confidence":-1},{"trial_n":14,"min":73,"max":182,"target":"absent","response":"absent","rt":403.79999995232,"correct":true,"confidence":-1},{"trial_n":15,"min":81,"max":174,"target":"present","response":"present","rt":385.80000007153,"correct":true,"confidence":-1},{"trial_n":16,"min":81,"max":174,"target":"present","response":"present","rt":475,"correct":true,"confidence":-1},{"trial_n":17,"min":89,"max":166,"target":"present","response":"present","rt":392.10000002384,"correct":true,"confidence":-1},{"trial_n":18,"min":89,"max":166,"target":"absent","response":"absent","rt":421.5,"correct":true,"confidence":-1},{"trial_n":19,"min":97,"max":158,"target":"absent","response":"absent","rt":401.79999995232,"correct":true,"confidence":-1},{"trial_n":20,"min":97,"max":158,"target":"present","response":"absent","rt":1046.2000000477,"correct":false,"confidence":-1},{"trial_n":21,"min":93,"max":162,"target":"absent","response":"absent","rt":567.30000007153,"correct":true,"confidence":3},{"trial_n":22,"min":93,"max":162,"target":"present","response":"absent","rt":1624.5,"correct":false,"confidence":3},{"trial_n":23,"min":89,"max":166,"target":"absent","response":"absent","rt":380.39999997616,"correct":true,"confidence":4},{"trial_n":24,"min":89,"max":166,"target":"present","response":"absent","rt":4242.2000000477,"correct":false,"confidence":3},{"trial_n":25,"min":85,"max":170,"target":"absent","response":"absent","rt":405.5,"correct":true,"confidence":3},{"trial_n":26,"min":85,"max":170,"target":"absent","response":"absent","rt":919,"correct":true,"confidence":3},{"trial_n":27,"min":89,"max":166,"target":"absent","response":"present","rt":1317,"correct":false,"confidence":4},{"trial_n":28,"min":85,"max":170,"target":"absent","response":"absent","rt":2242.6999999285,"correct":true,"confidence":3},{"trial_n":29,"min":85,"max":170,"target":"present","response":"present","rt":1391.6999999285,"correct":true,"confidence":4},{"trial_n":30,"min":89,"max":166,"target":"present","response":"absent","rt":654.29999995232,"correct":false,"confidence":3},{"trial_n":31,"min":87,"max":168,"target":"absent","response":"absent","rt":1057.1000000238,"correct":true,"confidence":3},{"trial_n":32,"min":87,"max":168,"target":"absent","response":"absent","rt":863.19999992847,"correct":true,"confidence":3},{"trial_n":33,"min":89,"max":166,"target":"absent","response":"absent","rt":660.10000002384,"correct":true,"confidence":2},{"trial_n":34,"min":89,"max":166,"target":"absent","response":"absent","rt":678.80000007153,"correct":true,"confidence":3},{"trial_n":35,"min":91,"max":164,"target":"present","response":"present","rt":2675.2999999523,"correct":true,"confidence":2},{"trial_n":36,"min":91,"max":164,"target":"absent","response":"present","rt":2383.3000000715,"correct":false,"confidence":3},{"trial_n":37,"min":89,"max":166,"target":"absent","response":"absent","rt":1744.8999999762,"correct":true,"confidence":3},{"trial_n":38,"min":89,"max":166,"target":"present","response":"present","rt":1269,"correct":true,"confidence":3},{"trial_n":39,"min":91,"max":164,"target":"present","response":"present","rt":1242.2000000477,"correct":true,"confidence":3},{"trial_n":40,"min":91,"max":164,"target":"present","response":"absent","rt":1230,"correct":false,"confidence":3},{"trial_n":41,"min":90,"max":165,"target":"present","response":"present","rt":879.20000004768,"correct":true,"confidence":4},{"trial_n":42,"min":90,"max":165,"target":"present","response":"present","rt":1571.0999999046,"correct":true,"confidence":3},{"trial_n":43,"min":91,"max":164,"target":"absent","response":"absent","rt":2290.2000000477,"correct":true,"confidence":2},{"trial_n":44,"min":91,"max":164,"target":"present","response":"absent","rt":948.60000002384,"correct":false,"confidence":2},{"trial_n":45,"min":90,"max":165,"target":"present","response":"absent","rt":1707,"correct":false,"confidence":2},{"trial_n":46,"min":89,"max":166,"target":"absent","response":"absent","rt":1197.7000000477,"correct":true,"confidence":3},{"trial_n":47,"min":89,"max":166,"target":"present","response":"absent","rt":2275.3999999762,"correct":false,"confidence":2},{"trial_n":48,"min":88,"max":167,"target":"absent","response":"present","rt":712.79999995232,"correct":false,"confidence":3},{"trial_n":49,"min":87,"max":168,"target":"absent","response":"absent","rt":1067.1999999285,"correct":true,"confidence":3},{"trial_n":50,"min":87,"max":168,"target":"absent","response":"absent","rt":1985.5,"correct":true,"confidence":2},{"trial_n":51,"min":88,"max":167,"target":"absent","response":"present","rt":1280,"correct":false,"confidence":3},{"trial_n":52,"min":87,"max":168,"target":"absent","response":"absent","rt":735.30000007153,"correct":true,"confidence":3},{"trial_n":53,"min":87,"max":168,"target":"absent","response":"present","rt":1393.2000000477,"correct":false,"confidence":3},{"trial_n":54,"min":86,"max":169,"target":"present","response":"absent","rt":1046.7999999523,"correct":false,"confidence":2},{"trial_n":55,"min":85,"max":170,"target":"present","response":"present","rt":881.20000004768,"correct":true,"confidence":5},{"trial_n":56,"min":85,"max":170,"target":"absent","response":"absent","rt":1271.7000000477,"correct":true,"confidence":3},{"trial_n":57,"min":86,"max":169,"target":"present","response":"absent","rt":2237.5,"correct":false,"confidence":2},{"trial_n":58,"min":85,"max":170,"target":"absent","response":"present","rt":1649.6000000238,"correct":false,"confidence":3},{"trial_n":59,"min":84,"max":171,"target":"present","response":"present","rt":994.09999990463,"correct":true,"confidence":3},{"trial_n":60,"min":84,"max":171,"target":"present","response":"present","rt":1067.7999999523,"correct":true,"confidence":4},{"trial_n":61,"min":85,"max":170,"target":"absent","response":"absent","rt":1094.3000000715,"correct":true,"confidence":3},{"trial_n":62,"min":85,"max":170,"target":"absent","response":"absent","rt":1599.8000000715,"correct":true,"confidence":3},{"trial_n":63,"min":86,"max":169,"target":"present","response":"present","rt":919.90000009537,"correct":true,"confidence":4},{"trial_n":64,"min":86,"max":169,"target":"absent","response":"absent","rt":891.39999997616,"correct":true,"confidence":3},{"trial_n":65,"min":87,"max":168,"target":"present","response":"present","rt":1760.2000000477,"correct":true,"confidence":4},{"trial_n":66,"min":87,"max":168,"target":"absent","response":"present","rt":1849.6000000238,"correct":false,"confidence":3},{"trial_n":67,"min":86,"max":169,"target":"present","response":"present","rt":901.80000007153,"correct":true,"confidence":5},{"trial_n":68,"min":86,"max":169,"target":"present","response":"present","rt":999.10000002384,"correct":true,"confidence":5},{"trial_n":69,"min":87,"max":168,"target":"absent","response":"present","rt":3152.7000000477,"correct":false,"confidence":3},{"trial_n":70,"min":86,"max":169,"target":"present","response":"present","rt":939.29999995232,"correct":true,"confidence":4},{"trial_n":71,"min":41,"max":214,"target":"present","response":"absent","rt":6643.6000000238,"correct":false,"confidence":-1},{"trial_n":72,"min":41,"max":214,"target":"present","response":"present","rt":450.39999997616,"correct":true,"confidence":-1},{"trial_n":73,"min":41,"max":214,"target":"absent","response":"absent","rt":485.89999997616,"correct":true,"confidence":-1},{"trial_n":74,"min":57,"max":198,"target":"absent","response":"absent","rt":522.39999997616,"correct":true,"confidence":-1},{"trial_n":75,"min":57,"max":198,"target":"present","response":"present","rt":340.60000002384,"correct":true,"confidence":-1},{"trial_n":76,"min":73,"max":182,"target":"absent","response":"present","rt":1340.6999999285,"correct":false,"confidence":-1},{"trial_n":77,"min":57,"max":198,"target":"present","response":"present","rt":384.89999997616,"correct":true,"confidence":-1},{"trial_n":78,"min":57,"max":198,"target":"present","response":"present","rt":268.10000002384,"correct":true,"confidence":-1},{"trial_n":79,"min":73,"max":182,"target":"absent","response":"absent","rt":511.39999997616,"correct":true,"confidence":-1},{"trial_n":80,"min":73,"max":182,"target":"present","response":"absent","rt":1072,"correct":false,"confidence":-1},{"trial_n":81,"min":65,"max":190,"target":"absent","response":"absent","rt":415.89999997616,"correct":true,"confidence":-1},{"trial_n":82,"min":65,"max":190,"target":"present","response":"present","rt":303.29999995232,"correct":true,"confidence":-1},{"trial_n":83,"min":73,"max":182,"target":"present","response":"present","rt":371.20000004768,"correct":true,"confidence":-1},{"trial_n":84,"min":73,"max":182,"target":"absent","response":"absent","rt":501.30000007153,"correct":true,"confidence":-1},{"trial_n":85,"min":81,"max":174,"target":"present","response":"present","rt":592.19999992847,"correct":true,"confidence":-1},{"trial_n":86,"min":81,"max":174,"target":"absent","response":"absent","rt":606.29999995232,"correct":true,"confidence":-1},{"trial_n":87,"min":89,"max":166,"target":"present","response":"absent","rt":454.89999997616,"correct":false,"confidence":-1},{"trial_n":88,"min":81,"max":174,"target":"present","response":"present","rt":287.60000002384,"correct":true,"confidence":-1},{"trial_n":89,"min":81,"max":174,"target":"absent","response":"absent","rt":627.79999995232,"correct":true,"confidence":-1},{"trial_n":90,"min":89,"max":166,"target":"present","response":"present","rt":337.80000007153,"correct":true,"confidence":-1},{"trial_n":91,"min":89,"max":166,"target":"present","response":"present","rt":402,"correct":true,"confidence":4},{"trial_n":92,"min":93,"max":162,"target":"absent","response":"present","rt":1506.6000000238,"correct":false,"confidence":2},{"trial_n":93,"min":89,"max":166,"target":"absent","response":"present","rt":510.69999992847,"correct":false,"confidence":3},{"trial_n":94,"min":85,"max":170,"target":"absent","response":"absent","rt":977.60000002384,"correct":true,"confidence":5},{"trial_n":95,"min":85,"max":170,"target":"present","response":"present","rt":861.20000004768,"correct":true,"confidence":2},{"trial_n":96,"min":89,"max":166,"target":"present","response":"present","rt":346.39999997616,"correct":true,"confidence":4},{"trial_n":97,"min":89,"max":166,"target":"absent","response":"present","rt":758.10000002384,"correct":false,"confidence":3},{"trial_n":98,"min":85,"max":170,"target":"present","response":"present","rt":548.30000007153,"correct":true,"confidence":4},{"trial_n":99,"min":85,"max":170,"target":"absent","response":"absent","rt":638.39999997616,"correct":true,"confidence":4},{"trial_n":100,"min":89,"max":166,"target":"absent","response":"present","rt":1049.8000000715,"correct":false,"confidence":3},{"trial_n":101,"min":87,"max":168,"target":"absent","response":"present","rt":452.20000004768,"correct":false,"confidence":3},{"trial_n":102,"min":85,"max":170,"target":"absent","response":"absent","rt":633,"correct":true,"confidence":3},{"trial_n":103,"min":85,"max":170,"target":"present","response":"present","rt":318.30000007153,"correct":true,"confidence":4},{"trial_n":104,"min":87,"max":168,"target":"present","response":"present","rt":466.30000007153,"correct":true,"confidence":3},{"trial_n":105,"min":87,"max":168,"target":"present","response":"present","rt":576.79999995232,"correct":true,"confidence":3},{"trial_n":106,"min":89,"max":166,"target":"present","response":"present","rt":337,"correct":true,"confidence":5},{"trial_n":107,"min":89,"max":166,"target":"absent","response":"present","rt":1272.3000000715,"correct":false,"confidence":2},{"trial_n":108,"min":87,"max":168,"target":"present","response":"present","rt":414.89999997616,"correct":true,"confidence":3},{"trial_n":109,"min":87,"max":168,"target":"present","response":"present","rt":415.40000009537,"correct":true,"confidence":4},{"trial_n":110,"min":89,"max":166,"target":"present","response":"present","rt":785.79999995232,"correct":true,"confidence":3},{"trial_n":111,"min":89,"max":166,"target":"present","response":"present","rt":273.79999995232,"correct":true,"confidence":5},{"trial_n":112,"min":90,"max":165,"target":"absent","response":"absent","rt":1733.3999999762,"correct":true,"confidence":3},{"trial_n":113,"min":90,"max":165,"target":"absent","response":"present","rt":1267.4000000954,"correct":false,"confidence":2},{"trial_n":114,"min":89,"max":166,"target":"absent","response":"absent","rt":859.89999997616,"correct":true,"confidence":2},{"trial_n":115,"min":89,"max":166,"target":"absent","response":"present","rt":1824.5999999046,"correct":false,"confidence":3},{"trial_n":116,"min":88,"max":167,"target":"absent","response":"present","rt":1287.3999999762,"correct":false,"confidence":2},{"trial_n":117,"min":87,"max":168,"target":"absent","response":"absent","rt":869.90000009537,"correct":true,"confidence":3},{"trial_n":118,"min":87,"max":168,"target":"absent","response":"present","rt":1015.5,"correct":false,"confidence":2},{"trial_n":119,"min":86,"max":169,"target":"absent","response":"present","rt":687.29999995232,"correct":false,"confidence":2},{"trial_n":120,"min":85,"max":170,"target":"absent","response":"absent","rt":1110.5,"correct":true,"confidence":3},{"trial_n":121,"min":85,"max":170,"target":"present","response":"present","rt":721.80000007153,"correct":true,"confidence":3},{"trial_n":122,"min":86,"max":169,"target":"present","response":"present","rt":400.20000004768,"correct":true,"confidence":3},{"trial_n":123,"min":86,"max":169,"target":"present","response":"present","rt":687.5,"correct":true,"confidence":3},{"trial_n":124,"min":87,"max":168,"target":"absent","response":"present","rt":1040.2999999523,"correct":false,"confidence":2},{"trial_n":125,"min":86,"max":169,"target":"present","response":"present","rt":841.29999995232,"correct":true,"confidence":3},{"trial_n":126,"min":86,"max":169,"target":"present","response":"present","rt":287.20000004768,"correct":true,"confidence":5},{"trial_n":127,"min":87,"max":168,"target":"absent","response":"present","rt":778,"correct":false,"confidence":1},{"trial_n":128,"min":86,"max":169,"target":"present","response":"present","rt":378.40000009537,"correct":true,"confidence":4},{"trial_n":129,"min":86,"max":169,"target":"present","response":"present","rt":344.29999995232,"correct":true,"confidence":5},{"trial_n":130,"min":87,"max":168,"target":"absent","response":"absent","rt":1686.8000000715,"correct":true,"confidence":3},{"trial_n":131,"min":87,"max":168,"target":"absent","response":"present","rt":1028.1000000238,"correct":false,"confidence":1},{"trial_n":132,"min":86,"max":169,"target":"absent","response":"absent","rt":1642.5,"correct":true,"confidence":1},{"trial_n":133,"min":86,"max":169,"target":"present","response":"present","rt":470.10000002384,"correct":true,"confidence":4},{"trial_n":134,"min":87,"max":168,"target":"present","response":"present","rt":504.5,"correct":true,"confidence":5},{"trial_n":135,"min":87,"max":168,"target":"absent","response":"absent","rt":712.19999992847,"correct":true,"confidence":4},{"trial_n":136,"min":88,"max":167,"target":"absent","response":"absent","rt":761.09999990463,"correct":true,"confidence":4},{"trial_n":137,"min":88,"max":167,"target":"present","response":"present","rt":1235.4000000954,"correct":true,"confidence":3},{"trial_n":138,"min":89,"max":166,"target":"absent","response":"absent","rt":819.89999997616,"correct":true,"confidence":3},{"trial_n":139,"min":89,"max":166,"target":"present","response":"present","rt":343,"correct":true,"confidence":4},{"trial_n":140,"min":90,"max":165,"target":"present","response":"present","rt":514.39999997616,"correct":true,"confidence":5}]