[{"trial_n":1,"n_dots":4.25,"target":"right","response":"left","rt":3081.099999994,"correct":false,"confidence":-1},{"trial_n":2,"n_dots":4.25,"target":"left","response":"left","rt":1358.5,"correct":true,"confidence":-1},{"trial_n":3,"n_dots":4.25,"target":"left","response":"left","rt":720.79999999702,"correct":true,"confidence":-1},{"trial_n":4,"n_dots":3.85,"target":"right","response":"left","rt":1604.099999994,"correct":false,"confidence":-1},{"trial_n":5,"n_dots":4.25,"target":"left","response":"right","rt":463.10000000894,"correct":false,"confidence":-1},{"trial_n":6,"n_dots":4.65,"target":"left","response":"left","rt":1858.200000003,"correct":true,"confidence":-1},{"trial_n":7,"n_dots":4.65,"target":"right","response":"right","rt":43.5,"correct":true,"confidence":-1},{"trial_n":8,"n_dots":4.45,"target":"left","response":"left","rt":912.59999999404,"correct":true,"confidence":-1},{"trial_n":9,"n_dots":4.45,"target":"right","response":"right","rt":359.40000000596,"correct":true,"confidence":-1},{"trial_n":10,"n_dots":4.25,"target":"left","response":"left","rt":549.59999999404,"correct":true,"confidence":-1},{"trial_n":11,"n_dots":4.25,"target":"left","response":"left","rt":1183,"correct":true,"confidence":-1},{"trial_n":12,"n_dots":4.05,"target":"right","response":"right","rt":187.79999999702,"correct":true,"confidence":-1},{"trial_n":13,"n_dots":4.05,"target":"left","response":"left","rt":118.40000000596,"correct":true,"confidence":-1},{"trial_n":14,"n_dots":3.95,"target":"right","response":"left","rt":1185.200000003,"correct":false,"confidence":-1},{"trial_n":15,"n_dots":4.05,"target":"right","response":"right","rt":293.20000000298,"correct":true,"confidence":-1},{"trial_n":16,"n_dots":4.05,"target":"left","response":"left","rt":70.70000000298,"correct":true,"confidence":-1},{"trial_n":17,"n_dots":3.95,"target":"right","response":"right","rt":534.29999999702,"correct":true,"confidence":-1},{"trial_n":18,"n_dots":3.95,"target":"right","response":"right","rt":25.20000000298,"correct":true,"confidence":-1},{"trial_n":19,"n_dots":3.85,"target":"left","response":"left","rt":89,"correct":true,"confidence":-1},{"trial_n":20,"n_dots":3.85,"target":"right","response":"right","rt":75.600000008941,"correct":true,"confidence":-1},{"trial_n":21,"n_dots":3.75,"target":"left","response":"left","rt":65.09999999404,"correct":true,"confidence":5},{"trial_n":22,"n_dots":3.75,"target":"right","response":"right","rt":3095.200000003,"correct":true,"confidence":2},{"trial_n":23,"n_dots":3.65,"target":"right","response":"right","rt":406.5,"correct":true,"confidence":4},{"trial_n":24,"n_dots":3.65,"target":"left","response":"left","rt":91,"correct":true,"confidence":2},{"trial_n":25,"n_dots":3.55,"target":"right","response":"right","rt":693,"correct":true,"confidence":2},{"trial_n":26,"n_dots":3.55,"target":"right","response":"left","rt":975,"correct":false,"confidence":5},{"trial_n":27,"n_dots":3.65,"target":"left","response":"right","rt":807.09999999404,"correct":false,"confidence":2},{"trial_n":28,"n_dots":3.75,"target":"left","response":"left","rt":513.40000000596,"correct":true,"confidence":4},{"trial_n":29,"n_dots":3.75,"target":"right","response":"right","rt":172,"correct":true,"confidence":4},{"trial_n":30,"n_dots":3.65,"target":"right","response":"right","rt":565.19999998808,"correct":true,"confidence":5},{"trial_n":31,"n_dots":3.65,"target":"right","response":"right","rt":257.5,"correct":true,"confidence":3},{"trial_n":32,"n_dots":3.55,"target":"left","response":"right","rt":721.69999998808,"correct":false,"confidence":4},{"trial_n":33,"n_dots":3.65,"target":"left","response":"right","rt":555.40000000596,"correct":false,"confidence":1},{"trial_n":34,"n_dots":3.75,"target":"right","response":"right","rt":351.29999999702,"correct":true,"confidence":1},{"trial_n":35,"n_dots":3.75,"target":"left","response":"left","rt":23.40000000596,"correct":true,"confidence":2},{"trial_n":36,"n_dots":3.65,"target":"left","response":"left","rt":2065.6999999881,"correct":true,"confidence":2},{"trial_n":37,"n_dots":3.65,"target":"left","response":"left","rt":545.70000000298,"correct":true,"confidence":4},{"trial_n":38,"n_dots":3.55,"target":"right","response":"right","rt":184,"correct":true,"confidence":2},{"trial_n":39,"n_dots":3.55,"target":"left","response":"right","rt":388.5,"correct":false,"confidence":4},{"trial_n":40,"n_dots":3.65,"target":"left","response":"left","rt":1490,"correct":true,"confidence":3},{"trial_n":41,"n_dots":3.65,"target":"right","response":"right","rt":2534.799999997,"correct":true,"confidence":3},{"trial_n":42,"n_dots":3.55,"target":"right","response":"right","rt":399.70000000298,"correct":true,"confidence":1},{"trial_n":43,"n_dots":3.55,"target":"left","response":"left","rt":668.10000000894,"correct":true,"confidence":4},{"trial_n":44,"n_dots":3.45,"target":"left","response":"left","rt":411.20000000298,"correct":true,"confidence":3},{"trial_n":45,"n_dots":3.45,"target":"left","response":"left","rt":361.80000001192,"correct":true,"confidence":3},{"trial_n":46,"n_dots":3.35,"target":"right","response":"left","rt":24.59999999404,"correct":false,"confidence":2},{"trial_n":47,"n_dots":3.45,"target":"left","response":"right","rt":2078.6000000089,"correct":false,"confidence":1},{"trial_n":48,"n_dots":3.55,"target":"right","response":"right","rt":362,"correct":true,"confidence":1},{"trial_n":49,"n_dots":3.55,"target":"right","response":"right","rt":47.90000000596,"correct":true,"confidence":1},{"trial_n":50,"n_dots":3.45,"target":"right","response":"left","rt":162.5,"correct":false,"confidence":4},{"trial_n":51,"n_dots":3.55,"target":"right","response":"right","rt":468.20000000298,"correct":true,"confidence":1},{"trial_n":52,"n_dots":3.55,"target":"left","response":"left","rt":365.89999999106,"correct":true,"confidence":1},{"trial_n":53,"n_dots":3.45,"target":"right","response":"right","rt":489.20000000298,"correct":true,"confidence":1},{"trial_n":54,"n_dots":3.45,"target":"left","response":"left","rt":621.29999999702,"correct":true,"confidence":3},{"trial_n":55,"n_dots":3.35,"target":"right","response":"right","rt":212.70000000298,"correct":true,"confidence":2},{"trial_n":56,"n_dots":3.35,"target":"right","response":"right","rt":323.59999999404,"correct":true,"confidence":2},{"trial_n":57,"n_dots":3.25,"target":"right","response":"left","rt":370.29999999702,"correct":false,"confidence":2},{"trial_n":58,"n_dots":3.35,"target":"left","response":"left","rt":366.29999999702,"correct":true,"confidence":3},{"trial_n":59,"n_dots":3.35,"target":"left","response":"right","rt":70.29999999702,"correct":false,"confidence":1},{"trial_n":60,"n_dots":3.45,"target":"left","response":"left","rt":108.09999999404,"correct":true,"confidence":2},{"trial_n":61,"n_dots":3.45,"target":"left","response":"left","rt":343.10000000894,"correct":true,"confidence":2},{"trial_n":62,"n_dots":3.35,"target":"left","response":"left","rt":26.79999999702,"correct":true,"confidence":3},{"trial_n":63,"n_dots":3.35,"target":"left","response":"right","rt":121.80000001192,"correct":false,"confidence":1},{"trial_n":64,"n_dots":3.45,"target":"right","response":"left","rt":89.20000000298,"correct":false,"confidence":2},{"trial_n":65,"n_dots":3.55,"target":"left","response":"right","rt":219.89999999106,"correct":false,"confidence":4},{"trial_n":66,"n_dots":3.65,"target":"left","response":"left","rt":124.59999999404,"correct":true,"confidence":2},{"trial_n":67,"n_dots":3.65,"target":"right","response":"left","rt":84.09999999404,"correct":false,"confidence":2},{"trial_n":68,"n_dots":3.75,"target":"right","response":"right","rt":71.899999991059,"correct":true,"confidence":2},{"trial_n":69,"n_dots":3.75,"target":"left","response":"left","rt":426.29999999702,"correct":true,"confidence":1},{"trial_n":70,"n_dots":3.65,"target":"left","response":"left","rt":306.20000000298,"correct":true,"confidence":1},{"trial_n":71,"n_dots":3.65,"target":"left","response":"left","rt":466,"correct":true,"confidence":3},{"trial_n":72,"n_dots":3.55,"target":"right","response":"right","rt":205.20000000298,"correct":true,"confidence":3},{"trial_n":73,"n_dots":3.55,"target":"right","response":"left","rt":176.79999999702,"correct":false,"confidence":1},{"trial_n":74,"n_dots":3.65,"target":"left","response":"left","rt":1.4000000059605,"correct":true,"confidence":4},{"trial_n":75,"n_dots":3.65,"target":"right","response":"right","rt":24.20000000298,"correct":true,"confidence":3},{"trial_n":76,"n_dots":3.55,"target":"left","response":"left","rt":54.100000008941,"correct":true,"confidence":2},{"trial_n":77,"n_dots":3.55,"target":"left","response":"left","rt":219.10000000894,"correct":true,"confidence":2},{"trial_n":78,"n_dots":3.45,"target":"left","response":"left","rt":267.29999999702,"correct":true,"confidence":3},{"trial_n":79,"n_dots":3.45,"target":"right","response":"right","rt":145.40000000596,"correct":true,"confidence":3},{"trial_n":80,"n_dots":3.35,"target":"left","response":"left","rt":167.79999999702,"correct":true,"confidence":2},{"trial_n":81,"n_dots":3.35,"target":"right","response":"right","rt":484.79999999702,"correct":true,"confidence":2},{"trial_n":82,"n_dots":3.25,"target":"left","response":"left","rt":475.40000000596,"correct":true,"confidence":2},{"trial_n":83,"n_dots":3.25,"target":"right","response":"right","rt":258.79999999702,"correct":true,"confidence":2},{"trial_n":84,"n_dots":3.15,"target":"right","response":"right","rt":231.79999999702,"correct":true,"confidence":2},{"trial_n":85,"n_dots":3.15,"target":"right","response":"right","rt":39.100000008941,"correct":true,"confidence":1},{"trial_n":86,"n_dots":3.05,"target":"left","response":"right","rt":124.70000000298,"correct":false,"confidence":1},{"trial_n":87,"n_dots":3.15,"target":"left","response":"left","rt":767.70000000298,"correct":true,"confidence":1},{"trial_n":88,"n_dots":3.15,"target":"right","response":"right","rt":238.29999999702,"correct":true,"confidence":1},{"trial_n":89,"n_dots":3.05,"target":"right","response":"left","rt":13.699999988079,"correct":false,"confidence":1},{"trial_n":90,"n_dots":3.15,"target":"right","response":"right","rt":188.79999999702,"correct":true,"confidence":1},{"trial_n":91,"n_dots":3.15,"target":"left","response":"right","rt":157.10000000894,"correct":false,"confidence":2},{"trial_n":92,"n_dots":3.25,"target":"left","response":"left","rt":10,"correct":true,"confidence":3},{"trial_n":93,"n_dots":3.25,"target":"right","response":"left","rt":457.09999999404,"correct":false,"confidence":2},{"trial_n":94,"n_dots":3.35,"target":"left","response":"right","rt":58,"correct":false,"confidence":3},{"trial_n":95,"n_dots":3.45,"target":"left","response":"left","rt":294.20000000298,"correct":true,"confidence":2},{"trial_n":96,"n_dots":3.45,"target":"right","response":"left","rt":2539.200000003,"correct":false,"confidence":1},{"trial_n":97,"n_dots":3.55,"target":"left","response":"right","rt":201.39999999106,"correct":false,"confidence":2},{"trial_n":98,"n_dots":3.65,"target":"right","response":"left","rt":242.59999999404,"correct":false,"confidence":3},{"trial_n":99,"n_dots":3.75,"target":"left","response":"right","rt":2160.599999994,"correct":false,"confidence":1},{"trial_n":100,"n_dots":3.85,"target":"left","response":"left","rt":38.20000000298,"correct":true,"confidence":3},{"trial_n":101,"n_dots":3.85,"target":"right","response":"left","rt":83.20000000298,"correct":false,"confidence":2},{"trial_n":102,"n_dots":3.95,"target":"right","response":"right","rt":34.20000000298,"correct":true,"confidence":3},{"trial_n":103,"n_dots":3.95,"target":"right","response":"right","rt":99.800000011921,"correct":true,"confidence":2},{"trial_n":104,"n_dots":3.85,"target":"right","response":"right","rt":203.80000001192,"correct":true,"confidence":4},{"trial_n":105,"n_dots":3.85,"target":"left","response":"left","rt":2134.5,"correct":true,"confidence":1},{"trial_n":106,"n_dots":3.75,"target":"right","response":"right","rt":93.40000000596,"correct":true,"confidence":3},{"trial_n":107,"n_dots":3.75,"target":"left","response":"left","rt":10.70000000298,"correct":true,"confidence":1},{"trial_n":108,"n_dots":3.65,"target":"left","response":"left","rt":389.29999999702,"correct":true,"confidence":4},{"trial_n":109,"n_dots":3.65,"target":"right","response":"right","rt":28.300000011921,"correct":true,"confidence":2},{"trial_n":110,"n_dots":3.55,"target":"right","response":"left","rt":128.39999999106,"correct":false,"confidence":1},{"trial_n":111,"n_dots":3.65,"target":"left","response":"left","rt":29.70000000298,"correct":true,"confidence":3},{"trial_n":112,"n_dots":3.65,"target":"right","response":"right","rt":219.79999999702,"correct":true,"confidence":3},{"trial_n":113,"n_dots":3.55,"target":"right","response":"right","rt":173.5,"correct":true,"confidence":2},{"trial_n":114,"n_dots":3.55,"target":"right","response":"left","rt":482.5,"correct":false,"confidence":2},{"trial_n":115,"n_dots":3.65,"target":"left","response":"left","rt":27.59999999404,"correct":true,"confidence":1},{"trial_n":116,"n_dots":3.65,"target":"right","response":"right","rt":149.90000000596,"correct":true,"confidence":3},{"trial_n":117,"n_dots":3.55,"target":"right","response":"right","rt":145.20000000298,"correct":true,"confidence":3},{"trial_n":118,"n_dots":3.55,"target":"right","response":"right","rt":128.79999999702,"correct":true,"confidence":2},{"trial_n":119,"n_dots":3.45,"target":"left","response":"left","rt":134.29999999702,"correct":true,"confidence":3},{"trial_n":120,"n_dots":3.45,"target":"left","response":"left","rt":322.40000000596,"correct":true,"confidence":2}]