[{"trial_n":1,"n_dots":4.25,"target":"left","response":"left","rt":3184.2999999821,"correct":true,"confidence":-1},{"trial_n":2,"n_dots":4.25,"target":"left","response":"left","rt":539.79999998212,"correct":true,"confidence":-1},{"trial_n":3,"n_dots":3.85,"target":"left","response":"left","rt":173.29999998212,"correct":true,"confidence":-1},{"trial_n":4,"n_dots":3.85,"target":"right","response":"right","rt":540.80000001192,"correct":true,"confidence":-1},{"trial_n":5,"n_dots":3.45,"target":"left","response":"right","rt":539.09999999404,"correct":false,"confidence":-1},{"trial_n":6,"n_dots":3.85,"target":"right","response":"right","rt":336.80000001192,"correct":true,"confidence":-1},{"trial_n":7,"n_dots":3.85,"target":"left","response":"right","rt":239.69999998808,"correct":false,"confidence":-1},{"trial_n":8,"n_dots":4.05,"target":"left","response":"left","rt":108.09999999404,"correct":true,"confidence":-1},{"trial_n":9,"n_dots":4.05,"target":"right","response":"right","rt":402.19999998808,"correct":true,"confidence":-1},{"trial_n":10,"n_dots":3.85,"target":"left","response":"right","rt":366.79999998212,"correct":false,"confidence":-1},{"trial_n":11,"n_dots":4.05,"target":"left","response":"right","rt":415.29999998212,"correct":false,"confidence":-1},{"trial_n":12,"n_dots":4.25,"target":"right","response":"right","rt":288.69999998808,"correct":true,"confidence":-1},{"trial_n":13,"n_dots":4.25,"target":"left","response":"left","rt":421.59999999404,"correct":true,"confidence":-1},{"trial_n":14,"n_dots":4.15,"target":"left","response":"left","rt":280,"correct":true,"confidence":-1},{"trial_n":15,"n_dots":4.15,"target":"left","response":"left","rt":282,"correct":true,"confidence":-1},{"trial_n":16,"n_dots":4.05,"target":"left","response":"left","rt":339.29999998212,"correct":true,"confidence":-1},{"trial_n":17,"n_dots":4.05,"target":"right","response":"right","rt":729.79999998212,"correct":true,"confidence":-1},{"trial_n":18,"n_dots":3.95,"target":"left","response":"left","rt":3472.2999999821,"correct":true,"confidence":-1},{"trial_n":19,"n_dots":3.95,"target":"left","response":"right","rt":458.39999997616,"correct":false,"confidence":-1},{"trial_n":20,"n_dots":4.05,"target":"right","response":"left","rt":347.70000001788,"correct":false,"confidence":-1},{"trial_n":21,"n_dots":4.15,"target":"left","response":"left","rt":317.30000001192,"correct":true,"confidence":4},{"trial_n":22,"n_dots":4.15,"target":"left","response":"left","rt":823.20000001788,"correct":true,"confidence":3},{"trial_n":23,"n_dots":4.05,"target":"left","response":"left","rt":844.89999997616,"correct":true,"confidence":4},{"trial_n":24,"n_dots":4.05,"target":"right","response":"right","rt":731.39999997616,"correct":true,"confidence":4},{"trial_n":25,"n_dots":3.95,"target":"right","response":"right","rt":818,"correct":true,"confidence":4},{"trial_n":26,"n_dots":3.95,"target":"right","response":"right","rt":70.800000011921,"correct":true,"confidence":3},{"trial_n":27,"n_dots":3.85,"target":"right","response":"right","rt":1824.599999994,"correct":true,"confidence":3},{"trial_n":28,"n_dots":3.85,"target":"right","response":"right","rt":116.69999998808,"correct":true,"confidence":3},{"trial_n":29,"n_dots":3.75,"target":"right","response":"right","rt":507.90000000596,"correct":true,"confidence":4},{"trial_n":30,"n_dots":3.75,"target":"left","response":"right","rt":448.59999999404,"correct":false,"confidence":3},{"trial_n":31,"n_dots":3.85,"target":"left","response":"left","rt":514.09999999404,"correct":true,"confidence":3},{"trial_n":32,"n_dots":3.85,"target":"right","response":"right","rt":9329.1000000238,"correct":true,"confidence":1},{"trial_n":33,"n_dots":3.75,"target":"right","response":"left","rt":593,"correct":false,"confidence":2},{"trial_n":34,"n_dots":3.85,"target":"left","response":"left","rt":753.69999998808,"correct":true,"confidence":3},{"trial_n":35,"n_dots":3.85,"target":"left","response":"left","rt":560.09999999404,"correct":true,"confidence":3},{"trial_n":36,"n_dots":3.75,"target":"right","response":"right","rt":533.90000000596,"correct":true,"confidence":3},{"trial_n":37,"n_dots":3.75,"target":"right","response":"right","rt":781.10000002384,"correct":true,"confidence":3},{"trial_n":38,"n_dots":3.65,"target":"right","response":"right","rt":731.5,"correct":true,"confidence":2},{"trial_n":39,"n_dots":3.65,"target":"left","response":"right","rt":915.59999999404,"correct":false,"confidence":3},{"trial_n":40,"n_dots":3.75,"target":"left","response":"left","rt":501.20000001788,"correct":true,"confidence":1},{"trial_n":41,"n_dots":3.75,"target":"left","response":"left","rt":520.39999997616,"correct":true,"confidence":2},{"trial_n":42,"n_dots":3.65,"target":"left","response":"left","rt":476.70000001788,"correct":true,"confidence":1},{"trial_n":43,"n_dots":3.65,"target":"left","response":"left","rt":499.70000001788,"correct":true,"confidence":2},{"trial_n":44,"n_dots":3.55,"target":"left","response":"left","rt":658.5,"correct":true,"confidence":2},{"trial_n":45,"n_dots":3.55,"target":"left","response":"right","rt":453.29999998212,"correct":false,"confidence":2},{"trial_n":46,"n_dots":3.65,"target":"left","response":"left","rt":434.40000000596,"correct":true,"confidence":2},{"trial_n":47,"n_dots":3.65,"target":"left","response":"left","rt":417.70000001788,"correct":true,"confidence":2},{"trial_n":48,"n_dots":3.55,"target":"right","response":"right","rt":479.30000001192,"correct":true,"confidence":2},{"trial_n":49,"n_dots":3.55,"target":"right","response":"left","rt":547.39999997616,"correct":false,"confidence":3},{"trial_n":50,"n_dots":3.65,"target":"right","response":"left","rt":3094.6999999881,"correct":false,"confidence":3},{"trial_n":51,"n_dots":3.75,"target":"left","response":"left","rt":437.59999999404,"correct":true,"confidence":2},{"trial_n":52,"n_dots":3.75,"target":"right","response":"right","rt":970.19999998808,"correct":true,"confidence":1},{"trial_n":53,"n_dots":3.65,"target":"right","response":"right","rt":487.69999998808,"correct":true,"confidence":4},{"trial_n":54,"n_dots":3.65,"target":"left","response":"left","rt":604.40000000596,"correct":true,"confidence":4},{"trial_n":55,"n_dots":3.55,"target":"right","response":"right","rt":484.5,"correct":true,"confidence":4},{"trial_n":56,"n_dots":3.55,"target":"left","response":"left","rt":451.60000002384,"correct":true,"confidence":3},{"trial_n":57,"n_dots":3.45,"target":"left","response":"left","rt":403.29999998212,"correct":true,"confidence":3},{"trial_n":58,"n_dots":3.45,"target":"right","response":"right","rt":387.5,"correct":true,"confidence":4},{"trial_n":59,"n_dots":3.35,"target":"right","response":"right","rt":204.19999998808,"correct":true,"confidence":4},{"trial_n":60,"n_dots":3.35,"target":"right","response":"right","rt":177.09999999404,"correct":true,"confidence":3},{"trial_n":61,"n_dots":3.25,"target":"left","response":"right","rt":1942.2999999821,"correct":false,"confidence":2},{"trial_n":62,"n_dots":3.35,"target":"right","response":"left","rt":2895.3999999762,"correct":false,"confidence":3},{"trial_n":63,"n_dots":3.45,"target":"left","response":"right","rt":113.90000000596,"correct":false,"confidence":3},{"trial_n":64,"n_dots":3.55,"target":"left","response":"left","rt":1234.599999994,"correct":true,"confidence":2},{"trial_n":65,"n_dots":3.55,"target":"right","response":"right","rt":84.699999988079,"correct":true,"confidence":2},{"trial_n":66,"n_dots":3.45,"target":"left","response":"left","rt":548,"correct":true,"confidence":2},{"trial_n":67,"n_dots":3.45,"target":"left","response":"left","rt":652.19999998808,"correct":true,"confidence":3},{"trial_n":68,"n_dots":3.35,"target":"left","response":"left","rt":234.59999999404,"correct":true,"confidence":3},{"trial_n":69,"n_dots":3.35,"target":"left","response":"right","rt":61,"correct":false,"confidence":3},{"trial_n":70,"n_dots":3.45,"target":"left","response":"left","rt":31.700000017881,"correct":true,"confidence":3},{"trial_n":71,"n_dots":3.45,"target":"right","response":"right","rt":679,"correct":true,"confidence":3},{"trial_n":72,"n_dots":3.35,"target":"left","response":"left","rt":218.5,"correct":true,"confidence":2},{"trial_n":73,"n_dots":3.35,"target":"left","response":"right","rt":433.5,"correct":false,"confidence":2},{"trial_n":74,"n_dots":3.45,"target":"right","response":"right","rt":620,"correct":true,"confidence":2},{"trial_n":75,"n_dots":3.45,"target":"right","response":"right","rt":497.10000002384,"correct":true,"confidence":2},{"trial_n":76,"n_dots":3.35,"target":"right","response":"right","rt":46.09999999404,"correct":true,"confidence":3},{"trial_n":77,"n_dots":3.35,"target":"right","response":"right","rt":53.699999988079,"correct":true,"confidence":3},{"trial_n":78,"n_dots":3.25,"target":"right","response":"right","rt":450.79999998212,"correct":true,"confidence":3},{"trial_n":79,"n_dots":3.25,"target":"right","response":"right","rt":372.30000001192,"correct":true,"confidence":3},{"trial_n":80,"n_dots":3.15,"target":"right","response":"right","rt":99,"correct":true,"confidence":3},{"trial_n":81,"n_dots":3.15,"target":"right","response":"left","rt":3721,"correct":false,"confidence":2},{"trial_n":82,"n_dots":3.25,"target":"right","response":"right","rt":1646,"correct":true,"confidence":3},{"trial_n":83,"n_dots":3.25,"target":"left","response":"right","rt":1671.7999999821,"correct":false,"confidence":2},{"trial_n":84,"n_dots":3.35,"target":"right","response":"right","rt":1389.2000000179,"correct":true,"confidence":2},{"trial_n":85,"n_dots":3.35,"target":"left","response":"right","rt":1215.5,"correct":false,"confidence":3},{"trial_n":86,"n_dots":3.45,"target":"right","response":"right","rt":1434.3000000119,"correct":true,"confidence":1},{"trial_n":87,"n_dots":3.45,"target":"left","response":"right","rt":1268.3000000119,"correct":false,"confidence":1},{"trial_n":88,"n_dots":3.55,"target":"right","response":"left","rt":5556.2999999821,"correct":false,"confidence":1},{"trial_n":89,"n_dots":3.65,"target":"right","response":"right","rt":1152.5,"correct":true,"confidence":2},{"trial_n":90,"n_dots":3.65,"target":"left","response":"left","rt":1604.5,"correct":true,"confidence":2},{"trial_n":91,"n_dots":3.55,"target":"right","response":"right","rt":1364,"correct":true,"confidence":1},{"trial_n":92,"n_dots":3.55,"target":"left","response":"right","rt":533.79999998212,"correct":false,"confidence":1},{"trial_n":93,"n_dots":3.65,"target":"left","response":"right","rt":617.09999999404,"correct":false,"confidence":1},{"trial_n":94,"n_dots":3.75,"target":"left","response":"left","rt":30172.599999994,"correct":true,"confidence":1},{"trial_n":95,"n_dots":3.75,"target":"left","response":"left","rt":759.39999997616,"correct":true,"confidence":2},{"trial_n":96,"n_dots":3.65,"target":"left","response":"left","rt":3068.900000006,"correct":true,"confidence":3},{"trial_n":97,"n_dots":3.65,"target":"right","response":"right","rt":644.29999998212,"correct":true,"confidence":3},{"trial_n":98,"n_dots":3.55,"target":"left","response":"right","rt":2336.400000006,"correct":false,"confidence":1},{"trial_n":99,"n_dots":3.65,"target":"right","response":"left","rt":179.80000001192,"correct":false,"confidence":1},{"trial_n":100,"n_dots":3.75,"target":"right","response":"right","rt":1187.6999999881,"correct":true,"confidence":3},{"trial_n":101,"n_dots":3.75,"target":"right","response":"right","rt":1309.099999994,"correct":true,"confidence":2},{"trial_n":102,"n_dots":3.65,"target":"left","response":"left","rt":253.5,"correct":true,"confidence":3},{"trial_n":103,"n_dots":3.65,"target":"left","response":"left","rt":233.70000001788,"correct":true,"confidence":3},{"trial_n":104,"n_dots":3.55,"target":"right","response":"left","rt":419.59999999404,"correct":false,"confidence":3},{"trial_n":105,"n_dots":3.65,"target":"right","response":"right","rt":496.19999998808,"correct":true,"confidence":3},{"trial_n":106,"n_dots":3.65,"target":"right","response":"right","rt":252.09999999404,"correct":true,"confidence":3},{"trial_n":107,"n_dots":3.55,"target":"right","response":"left","rt":256.59999999404,"correct":false,"confidence":2},{"trial_n":108,"n_dots":3.65,"target":"right","response":"right","rt":334.19999998808,"correct":true,"confidence":2},{"trial_n":109,"n_dots":3.65,"target":"right","response":"left","rt":466,"correct":false,"confidence":3},{"trial_n":110,"n_dots":3.75,"target":"left","response":"left","rt":26.59999999404,"correct":true,"confidence":2},{"trial_n":111,"n_dots":3.75,"target":"right","response":"right","rt":377.29999998212,"correct":true,"confidence":4},{"trial_n":112,"n_dots":3.65,"target":"right","response":"right","rt":284.40000000596,"correct":true,"confidence":3},{"trial_n":113,"n_dots":3.65,"target":"right","response":"right","rt":429.90000000596,"correct":true,"confidence":3},{"trial_n":114,"n_dots":3.55,"target":"left","response":"right","rt":666.09999999404,"correct":false,"confidence":3},{"trial_n":115,"n_dots":3.65,"target":"right","response":"right","rt":450.69999998808,"correct":true,"confidence":4},{"trial_n":116,"n_dots":3.65,"target":"left","response":"right","rt":369.39999997616,"correct":false,"confidence":4},{"trial_n":117,"n_dots":3.75,"target":"right","response":"right","rt":649.90000000596,"correct":true,"confidence":3},{"trial_n":118,"n_dots":3.75,"target":"left","response":"right","rt":912.59999999404,"correct":false,"confidence":3},{"trial_n":119,"n_dots":3.85,"target":"right","response":"right","rt":433.70000001788,"correct":true,"confidence":3},{"trial_n":120,"n_dots":3.85,"target":"right","response":"left","rt":378.40000000596,"correct":false,"confidence":3}]