[{"trial_n":1,"span":8,"encoder":"32209389","distractor":"42209389","target":"present","response":"absent","rt":"6099.5","correct":false,"confidence":-1},{"trial_n":2,"span":6,"encoder":"035748","distractor":"085748","target":"present","response":"present","rt":"1934.6000000238","correct":true,"confidence":-1},{"trial_n":3,"span":6,"encoder":"004499","distractor":"034499","target":"absent","response":"absent","rt":"1371.6999999285","correct":true,"confidence":-1},{"trial_n":4,"span":8,"encoder":"40984961","distractor":"40914961","target":"absent","response":"absent","rt":"3063.1000000238","correct":true,"confidence":-1},{"trial_n":5,"span":8,"encoder":"39941906","distractor":"39941706","target":"present","response":"absent","rt":"2110.3999999762","correct":false,"confidence":-1},{"trial_n":6,"span":6,"encoder":"957077","distractor":"957777","target":"absent","response":"absent","rt":"1101.2000000477","correct":true,"confidence":-1},{"trial_n":7,"span":6,"encoder":"330032","distractor":"330012","target":"absent","response":"absent","rt":"2344.1999999285","correct":true,"confidence":-1},{"trial_n":8,"span":8,"encoder":"37774807","distractor":"97774807","target":"present","response":"present","rt":"843.89999997616","correct":true,"confidence":-1},{"trial_n":9,"span":8,"encoder":"79137407","distractor":"79167407","target":"absent","response":"present","rt":"1104.8999999762","correct":false,"confidence":-1},{"trial_n":10,"span":6,"encoder":"101469","distractor":"111469","target":"absent","response":"absent","rt":"1061.8000000715","correct":true,"confidence":-1},{"trial_n":11,"span":6,"encoder":"852821","distractor":"852822","target":"present","response":"present","rt":"2210.5","correct":true,"confidence":-1},{"trial_n":12,"span":7,"encoder":"8544413","distractor":"8541413","target":"absent","response":"absent","rt":"1480.2000000477","correct":true,"confidence":-1},{"trial_n":13,"span":7,"encoder":"3970469","distractor":"3970439","target":"present","response":"present","rt":"1004.6000000238","correct":true,"confidence":-1},{"trial_n":14,"span":8,"encoder":"05979846","distractor":"05979845","target":"present","response":"absent","rt":"1396.1999999285","correct":false,"confidence":-1},{"trial_n":15,"span":7,"encoder":"4698171","distractor":"4698771","target":"absent","response":"absent","rt":"1398.5","correct":true,"confidence":-1},{"trial_n":16,"span":7,"encoder":"9049946","distractor":"9049976","target":"absent","response":"absent","rt":"1574.3999999762","correct":true,"confidence":-1},{"trial_n":17,"span":8,"encoder":"93078600","distractor":"93028600","target":"absent","response":"present","rt":"967.09999990463","correct":false,"confidence":-1},{"trial_n":18,"span":7,"encoder":"0421915","distractor":"5421915","target":"absent","response":"present","rt":"2274","correct":false,"confidence":-1},{"trial_n":19,"span":6,"encoder":"615863","distractor":"685863","target":"present","response":"present","rt":"648.60000002384","correct":true,"confidence":-1},{"trial_n":20,"span":6,"encoder":"138578","distractor":"138538","target":"present","response":"present","rt":"898","correct":true,"confidence":-1},{"trial_n":21,"span":7,"encoder":"6835857","distractor":"6835856","target":"present","response":"present","rt":"1441.5","correct":true,"confidence":3},{"trial_n":22,"span":7,"encoder":"7561390","distractor":"7562390","target":"absent","response":"present","rt":"1565.2000000477","correct":false,"confidence":3},{"trial_n":23,"span":6,"encoder":"290956","distractor":"290996","target":"present","response":"absent","rt":"1958.3999999762","correct":false,"confidence":4},{"trial_n":24,"span":5,"encoder":"29008","distractor":"29408","target":"present","response":"present","rt":"2958.6999999285","correct":true,"confidence":3},{"trial_n":25,"span":5,"encoder":"95688","distractor":"95288","target":"absent","response":"absent","rt":"1539.7000000477","correct":true,"confidence":5},{"trial_n":26,"span":6,"encoder":"913962","distractor":"916962","target":"absent","response":"absent","rt":"2919.8000000715","correct":true,"confidence":4},{"trial_n":27,"span":6,"encoder":"572971","distractor":"572973","target":"absent","response":"absent","rt":"2992.2999999523","correct":true,"confidence":4},{"trial_n":28,"span":7,"encoder":"3765661","distractor":"3965661","target":"present","response":"present","rt":"1719.4000000954","correct":true,"confidence":3},{"trial_n":29,"span":7,"encoder":"9288487","distractor":"9278487","target":"absent","response":"absent","rt":"2058","correct":true,"confidence":4},{"trial_n":30,"span":8,"encoder":"19164950","distractor":"19164850","target":"present","response":"present","rt":"2645.6999999285","correct":true,"confidence":5},{"trial_n":31,"span":8,"encoder":"05272630","distractor":"05272030","target":"absent","response":"absent","rt":"1359","correct":true,"confidence":5},{"trial_n":32,"span":9,"encoder":"502602324","distractor":"502601324","target":"absent","response":"absent","rt":"5710.5999999046","correct":true,"confidence":3},{"trial_n":33,"span":9,"encoder":"163093613","distractor":"163033613","target":"present","response":"present","rt":"2658.8000000715","correct":true,"confidence":5},{"trial_n":34,"span":10,"encoder":"9820500626","distractor":"9820500826","target":"present","response":"present","rt":"2275.1000000238","correct":true,"confidence":5},{"trial_n":35,"span":10,"encoder":"5823013821","distractor":"5823043821","target":"absent","response":"absent","rt":"2854","correct":true,"confidence":3},{"trial_n":36,"span":11,"encoder":"31614421006","distractor":"39614421006","target":"present","response":"present","rt":"2456.1000000238","correct":true,"confidence":4},{"trial_n":37,"span":11,"encoder":"36727520047","distractor":"36727523047","target":"present","response":"present","rt":"2868.8000000715","correct":true,"confidence":3},{"trial_n":38,"span":12,"encoder":"629338150506","distractor":"829338150506","target":"present","response":"present","rt":"2080.3000000715","correct":true,"confidence":4},{"trial_n":39,"span":12,"encoder":"234290678558","distractor":"234260678558","target":"present","response":"present","rt":"2940.2999999523","correct":true,"confidence":4},{"trial_n":40,"span":13,"encoder":"4045736079437","distractor":"4048736079437","target":"present","response":"present","rt":"3457.6000000238","correct":true,"confidence":4},{"trial_n":41,"span":13,"encoder":"2702074333238","distractor":"2802074333238","target":"absent","response":"absent","rt":"3354.5","correct":true,"confidence":3},{"trial_n":42,"span":14,"encoder":"58545290351842","distractor":"58545210351842","target":"present","response":"present","rt":"2549.7000000477","correct":true,"confidence":4},{"trial_n":43,"span":14,"encoder":"59355137439954","distractor":"59355197439954","target":"absent","response":"present","rt":"2538.3999999762","correct":false,"confidence":4},{"trial_n":44,"span":13,"encoder":"9682589544653","distractor":"9682589544658","target":"absent","response":"absent","rt":"3250.5","correct":true,"confidence":3},{"trial_n":45,"span":13,"encoder":"2119204929129","distractor":"2119234929129","target":"absent","response":"absent","rt":"3779.6000000238","correct":true,"confidence":2},{"trial_n":46,"span":14,"encoder":"62582202948505","distractor":"62582282948505","target":"present","response":"present","rt":"3815.6999999285","correct":true,"confidence":4},{"trial_n":47,"span":14,"encoder":"05887344888558","distractor":"05887344588558","target":"present","response":"absent","rt":"7590.3999999762","correct":false,"confidence":3},{"trial_n":48,"span":13,"encoder":"3409307486241","distractor":"3409303486241","target":"present","response":"present","rt":"5450.2999999523","correct":true,"confidence":3},{"trial_n":49,"span":13,"encoder":"4735729434900","distractor":"4735729436900","target":"present","response":"present","rt":"1180.5","correct":true,"confidence":3},{"trial_n":50,"span":14,"encoder":"52296641005919","distractor":"53296641005919","target":"present","response":"present","rt":"2116.2999999523","correct":true,"confidence":4},{"trial_n":51,"span":14,"encoder":"69507732315682","distractor":"69507737315682","target":"present","response":"present","rt":"1679.2000000477","correct":true,"confidence":3},{"trial_n":52,"span":15,"encoder":"192569136810524","distractor":"182569136810524","target":"present","response":"present","rt":"2454.7000000477","correct":true,"confidence":4},{"trial_n":53,"span":15,"encoder":"622450079400496","distractor":"622450070400496","target":"present","response":"present","rt":"2387.7000000477","correct":true,"confidence":4},{"trial_n":54,"span":16,"encoder":"2441489132042191","distractor":"2441499132042191","target":"absent","response":"absent","rt":"2949.0999999046","correct":true,"confidence":3},{"trial_n":55,"span":16,"encoder":"6736931537325454","distractor":"6736931037325454","target":"absent","response":"absent","rt":"2008","correct":true,"confidence":2},{"trial_n":56,"span":17,"encoder":"29566555696083550","distractor":"29566555696086550","target":"absent","response":"present","rt":"2863.2999999523","correct":false,"confidence":4},{"trial_n":57,"span":16,"encoder":"0746051620980384","distractor":"0746051620180384","target":"present","response":"present","rt":"3081.6000000238","correct":true,"confidence":3},{"trial_n":58,"span":16,"encoder":"3813137278193659","distractor":"3813137248193659","target":"absent","response":"absent","rt":"1507.2999999523","correct":true,"confidence":3},{"trial_n":59,"span":17,"encoder":"97266675875735749","distractor":"97266625875735749","target":"present","response":"absent","rt":"3932","correct":false,"confidence":3},{"trial_n":60,"span":16,"encoder":"5749005131418593","distractor":"5449005131418593","target":"absent","response":"absent","rt":"1664.2000000477","correct":true,"confidence":1},{"trial_n":61,"span":16,"encoder":"5180218093628190","distractor":"5180218033628190","target":"absent","response":"absent","rt":"4124.5","correct":true,"confidence":2},{"trial_n":62,"span":17,"encoder":"77037943840373740","distractor":"77037943840323740","target":"absent","response":"absent","rt":"3590.3999999762","correct":true,"confidence":1},{"trial_n":63,"span":17,"encoder":"80617050445013201","distractor":"80617056445013201","target":"absent","response":"absent","rt":"3286.2999999523","correct":true,"confidence":3},{"trial_n":64,"span":18,"encoder":"021947977366778887","distractor":"021946977366778887","target":"present","response":"absent","rt":"5250.6999999285","correct":false,"confidence":3},{"trial_n":65,"span":17,"encoder":"46657608757559079","distractor":"46657608757559059","target":"absent","response":"present","rt":"3010.7000000477","correct":false,"confidence":2},{"trial_n":66,"span":16,"encoder":"7687559841632947","distractor":"7687559341632947","target":"present","response":"present","rt":"2127.2999999523","correct":true,"confidence":3},{"trial_n":67,"span":16,"encoder":"5213067900427763","distractor":"2213067900427763","target":"absent","response":"present","rt":"1263.8999999762","correct":false,"confidence":2},{"trial_n":68,"span":15,"encoder":"845467057734974","distractor":"845467057737974","target":"present","response":"present","rt":"2757","correct":true,"confidence":3},{"trial_n":69,"span":15,"encoder":"468327736068076","distractor":"468327736068066","target":"absent","response":"absent","rt":"2349","correct":true,"confidence":5},{"trial_n":70,"span":16,"encoder":"3693704429004496","distractor":"3696704429004496","target":"present","response":"absent","rt":"2541.5","correct":false,"confidence":3},{"trial_n":71,"span":8,"encoder":"10638325","distractor":"10238325","target":"present","response":"present","rt":"6091.6000000238","correct":true,"confidence":-1},{"trial_n":72,"span":8,"encoder":"17593864","distractor":"17593854","target":"present","response":"present","rt":"9880.1000000238","correct":true,"confidence":-1},{"trial_n":73,"span":9,"encoder":"749081725","distractor":"749581725","target":"absent","response":"absent","rt":"4084.2999999523","correct":true,"confidence":-1},{"trial_n":74,"span":9,"encoder":"302398595","distractor":"303398595","target":"absent","response":"absent","rt":"5511.7000000477","correct":true,"confidence":-1},{"trial_n":75,"span":10,"encoder":"6195468344","distractor":"6195469344","target":"present","response":"present","rt":"3824.3999999762","correct":true,"confidence":-1},{"trial_n":76,"span":10,"encoder":"7855653650","distractor":"7555653650","target":"present","response":"present","rt":"4604.1000000238","correct":true,"confidence":-1},{"trial_n":77,"span":11,"encoder":"12257836333","distractor":"12207836333","target":"absent","response":"absent","rt":"5440.3999999762","correct":true,"confidence":-1},{"trial_n":78,"span":11,"encoder":"41577377681","distractor":"41597377681","target":"absent","response":"absent","rt":"1815.1000000238","correct":true,"confidence":-1},{"trial_n":79,"span":12,"encoder":"975468351633","distractor":"975478351633","target":"present","response":"present","rt":"1343","correct":true,"confidence":-1},{"trial_n":80,"span":12,"encoder":"942495423998","distractor":"942495427998","target":"absent","response":"present","rt":"4043.7000000477","correct":false,"confidence":-1},{"trial_n":81,"span":11,"encoder":"65398782318","distractor":"65898782318","target":"present","response":"present","rt":"4332.3999999762","correct":true,"confidence":-1},{"trial_n":82,"span":11,"encoder":"35006791228","distractor":"39006791228","target":"absent","response":"absent","rt":"5534.6999999285","correct":true,"confidence":-1},{"trial_n":83,"span":12,"encoder":"685455263350","distractor":"685855263350","target":"present","response":"present","rt":"529.69999992847","correct":true,"confidence":-1},{"trial_n":84,"span":12,"encoder":"112264897012","distractor":"112264897712","target":"absent","response":"absent","rt":"509.10000002384","correct":true,"confidence":-1},{"trial_n":85,"span":13,"encoder":"6205668500111","distractor":"0205668500111","target":"present","response":"absent","rt":"1094.2000000477","correct":false,"confidence":-1},{"trial_n":86,"span":12,"encoder":"414672494838","distractor":"414682494838","target":"present","response":"present","rt":"2676.6999999285","correct":true,"confidence":-1},{"trial_n":87,"span":12,"encoder":"254108970461","distractor":"254108170461","target":"present","response":"present","rt":"1888.3000000715","correct":true,"confidence":-1},{"trial_n":88,"span":13,"encoder":"2851448686961","distractor":"2851448686901","target":"present","response":"present","rt":"7639.8000000715","correct":true,"confidence":-1},{"trial_n":89,"span":13,"encoder":"3142314613257","distractor":"3042314613257","target":"present","response":"absent","rt":"448.29999995232","correct":false,"confidence":-1},{"trial_n":90,"span":12,"encoder":"967642313808","distractor":"967642313806","target":"absent","response":"present","rt":"409.70000004768","correct":false,"confidence":-1},{"trial_n":91,"span":11,"encoder":"33924669673","distractor":"33924665673","target":"absent","response":"present","rt":"7018.5","correct":false,"confidence":3},{"trial_n":92,"span":10,"encoder":"9895960310","distractor":"9895960312","target":"present","response":"present","rt":"2736","correct":true,"confidence":3},{"trial_n":93,"span":10,"encoder":"8912902417","distractor":"8912902497","target":"absent","response":"absent","rt":"4004.2000000477","correct":true,"confidence":2},{"trial_n":94,"span":11,"encoder":"90660866296","distractor":"90660868296","target":"absent","response":"present","rt":"6985.6000000238","correct":false,"confidence":3},{"trial_n":95,"span":10,"encoder":"0944915655","distractor":"0944915657","target":"absent","response":"absent","rt":"2688.7000000477","correct":true,"confidence":1},{"trial_n":96,"span":10,"encoder":"1868141108","distractor":"1868141105","target":"present","response":"present","rt":"2457.3000000715","correct":true,"confidence":5},{"trial_n":97,"span":11,"encoder":"53046513419","distractor":"56046513419","target":"present","response":"absent","rt":"5756.5999999046","correct":false,"confidence":3},{"trial_n":98,"span":10,"encoder":"0628673667","distractor":"0629673667","target":"present","response":"absent","rt":"3252.6000000238","correct":false,"confidence":2},{"trial_n":99,"span":9,"encoder":"697433263","distractor":"667433263","target":"absent","response":"present","rt":"4816.7000000477","correct":false,"confidence":3},{"trial_n":100,"span":8,"encoder":"83546593","distractor":"83946593","target":"absent","response":"absent","rt":"1992.6000000238","correct":true,"confidence":5},{"trial_n":101,"span":8,"encoder":"15989784","distractor":"15989782","target":"absent","response":"absent","rt":"5098.2999999523","correct":true,"confidence":1},{"trial_n":102,"span":9,"encoder":"491905121","distractor":"491975121","target":"absent","response":"absent","rt":"4466.8000000715","correct":true,"confidence":5},{"trial_n":103,"span":9,"encoder":"743583357","distractor":"743582357","target":"present","response":"present","rt":"3699.2000000477","correct":true,"confidence":5},{"trial_n":104,"span":10,"encoder":"4637292628","distractor":"4637292428","target":"absent","response":"absent","rt":"2522.6999999285","correct":true,"confidence":5},{"trial_n":105,"span":10,"encoder":"6324839023","distractor":"6334839023","target":"absent","response":"absent","rt":"5918.7000000477","correct":true,"confidence":3},{"trial_n":106,"span":11,"encoder":"33777477661","distractor":"33777477601","target":"absent","response":"absent","rt":"3543.3000000715","correct":true,"confidence":4},{"trial_n":107,"span":11,"encoder":"60024225092","distractor":"60074225092","target":"present","response":"present","rt":"2309","correct":true,"confidence":2},{"trial_n":108,"span":12,"encoder":"884728914968","distractor":"884728913968","target":"present","response":"absent","rt":"3548.2999999523","correct":false,"confidence":3},{"trial_n":109,"span":11,"encoder":"64291068667","distractor":"64241068667","target":"absent","response":"present","rt":"5602.2000000477","correct":false,"confidence":2},{"trial_n":110,"span":10,"encoder":"7589061629","distractor":"7889061629","target":"present","response":"absent","rt":"6540.5999999046","correct":false,"confidence":2},{"trial_n":111,"span":9,"encoder":"070955084","distractor":"070955054","target":"present","response":"present","rt":"2704.1999999285","correct":true,"confidence":5},{"trial_n":112,"span":9,"encoder":"765391359","distractor":"765341359","target":"present","response":"absent","rt":"3894.7999999523","correct":false,"confidence":3},{"trial_n":113,"span":8,"encoder":"82231959","distractor":"82731959","target":"present","response":"present","rt":"5059.8000000715","correct":true,"confidence":4},{"trial_n":114,"span":8,"encoder":"41419797","distractor":"41419707","target":"absent","response":"absent","rt":"2961.1000000238","correct":true,"confidence":2},{"trial_n":115,"span":9,"encoder":"530661423","distractor":"530661422","target":"present","response":"absent","rt":"771.10000002384","correct":false,"confidence":2},{"trial_n":116,"span":8,"encoder":"79548310","distractor":"79508310","target":"present","response":"absent","rt":"5539.2999999523","correct":false,"confidence":3},{"trial_n":117,"span":7,"encoder":"7190377","distractor":"7190371","target":"present","response":"present","rt":"1463.4000000954","correct":true,"confidence":3},{"trial_n":118,"span":7,"encoder":"3639192","distractor":"3639792","target":"absent","response":"absent","rt":"6116.8000000715","correct":true,"confidence":5},{"trial_n":119,"span":8,"encoder":"48696264","distractor":"48396264","target":"present","response":"present","rt":"7989.6000000238","correct":true,"confidence":4},{"trial_n":120,"span":8,"encoder":"17328189","distractor":"10328189","target":"absent","response":"absent","rt":"2412","correct":true,"confidence":5},{"trial_n":121,"span":9,"encoder":"232071077","distractor":"230071077","target":"absent","response":"present","rt":"2293.8999999762","correct":false,"confidence":2},{"trial_n":122,"span":8,"encoder":"17166203","distractor":"17166703","target":"absent","response":"absent","rt":"2845.4000000954","correct":true,"confidence":5},{"trial_n":123,"span":8,"encoder":"74215405","distractor":"74215407","target":"present","response":"present","rt":"889.59999990463","correct":true,"confidence":2},{"trial_n":124,"span":9,"encoder":"733556209","distractor":"733556269","target":"absent","response":"absent","rt":"2920.1999999285","correct":true,"confidence":3},{"trial_n":125,"span":9,"encoder":"898455635","distractor":"888455635","target":"absent","response":"absent","rt":"3727.5","correct":true,"confidence":3},{"trial_n":126,"span":10,"encoder":"7456908032","distractor":"0456908032","target":"absent","response":"absent","rt":"744.39999997616","correct":true,"confidence":1},{"trial_n":127,"span":10,"encoder":"7057716057","distractor":"5057716057","target":"present","response":"absent","rt":"1575","correct":false,"confidence":2},{"trial_n":128,"span":9,"encoder":"687692614","distractor":"667692614","target":"absent","response":"absent","rt":"4051","correct":true,"confidence":3},{"trial_n":129,"span":9,"encoder":"798009434","distractor":"798009464","target":"present","response":"present","rt":"4149.6000000238","correct":true,"confidence":5},{"trial_n":130,"span":10,"encoder":"4559223618","distractor":"4559224618","target":"present","response":"absent","rt":"7989.1999999285","correct":false,"confidence":3},{"trial_n":131,"span":9,"encoder":"252017514","distractor":"552017514","target":"absent","response":"absent","rt":"1957.6000000238","correct":true,"confidence":1},{"trial_n":132,"span":9,"encoder":"225480863","distractor":"224480863","target":"absent","response":"absent","rt":"3637.7000000477","correct":true,"confidence":3},{"trial_n":133,"span":10,"encoder":"8180777584","distractor":"8180797584","target":"absent","response":"present","rt":"4980.3999999762","correct":false,"confidence":2},{"trial_n":134,"span":9,"encoder":"866325104","distractor":"866325154","target":"present","response":"absent","rt":"3782.3999999762","correct":false,"confidence":2},{"trial_n":135,"span":8,"encoder":"72207387","distractor":"72107387","target":"present","response":"absent","rt":"1834.4000000954","correct":false,"confidence":3},{"trial_n":136,"span":7,"encoder":"7908981","distractor":"7988981","target":"present","response":"absent","rt":"3762.2000000477","correct":false,"confidence":3},{"trial_n":137,"span":6,"encoder":"106126","distractor":"106176","target":"absent","response":"present","rt":"3664.7999999523","correct":false,"confidence":3},{"trial_n":138,"span":5,"encoder":"52203","distractor":"22203","target":"absent","response":"absent","rt":"2470.7000000477","correct":true,"confidence":3},{"trial_n":139,"span":5,"encoder":"50216","distractor":"50416","target":"present","response":"present","rt":"2592.7999999523","correct":true,"confidence":5},{"trial_n":140,"span":6,"encoder":"371906","distractor":"371946","target":"present","response":"present","rt":"3310.6000000238","correct":true,"confidence":5}]