[{"trial_n":1,"n_dots":4.25,"target":"right","response":"left","rt":3277.5,"correct":false,"confidence":-1},{"trial_n":2,"n_dots":4.25,"target":"right","response":"right","rt":562.59999990463,"correct":true,"confidence":-1},{"trial_n":3,"n_dots":4.25,"target":"left","response":"left","rt":699.70000004768,"correct":true,"confidence":-1},{"trial_n":4,"n_dots":3.85,"target":"left","response":"left","rt":362.60000002384,"correct":true,"confidence":-1},{"trial_n":5,"n_dots":3.85,"target":"right","response":"right","rt":240,"correct":true,"confidence":-1},{"trial_n":6,"n_dots":3.45,"target":"left","response":"left","rt":311,"correct":true,"confidence":-1},{"trial_n":7,"n_dots":3.45,"target":"left","response":"left","rt":319.10000002384,"correct":true,"confidence":-1},{"trial_n":8,"n_dots":3.25,"target":"right","response":"right","rt":362.70000004768,"correct":true,"confidence":-1},{"trial_n":9,"n_dots":3.25,"target":"left","response":"left","rt":299.30000007153,"correct":true,"confidence":-1},{"trial_n":10,"n_dots":3.05,"target":"left","response":"left","rt":391.5,"correct":true,"confidence":-1},{"trial_n":11,"n_dots":3.05,"target":"right","response":"right","rt":274.69999992847,"correct":true,"confidence":-1},{"trial_n":12,"n_dots":2.85,"target":"right","response":"left","rt":341.89999997616,"correct":false,"confidence":-1},{"trial_n":13,"n_dots":2.95,"target":"left","response":"left","rt":75.100000023842,"correct":true,"confidence":-1},{"trial_n":14,"n_dots":2.95,"target":"right","response":"right","rt":845.69999992847,"correct":true,"confidence":-1},{"trial_n":15,"n_dots":2.85,"target":"right","response":"right","rt":338.10000002384,"correct":true,"confidence":-1},{"trial_n":16,"n_dots":2.85,"target":"left","response":"right","rt":319.89999997616,"correct":false,"confidence":-1},{"trial_n":17,"n_dots":2.95,"target":"right","response":"right","rt":272.29999995232,"correct":true,"confidence":-1},{"trial_n":18,"n_dots":2.95,"target":"left","response":"right","rt":484,"correct":false,"confidence":-1},{"trial_n":19,"n_dots":3.05,"target":"right","response":"right","rt":400.10000002384,"correct":true,"confidence":-1},{"trial_n":20,"n_dots":3.05,"target":"right","response":"left","rt":379.89999997616,"correct":false,"confidence":-1},{"trial_n":21,"n_dots":3.15,"target":"right","response":"right","rt":245.70000004768,"correct":true,"confidence":4},{"trial_n":22,"n_dots":3.15,"target":"left","response":"right","rt":335.20000004768,"correct":false,"confidence":4},{"trial_n":23,"n_dots":3.25,"target":"right","response":"right","rt":699.5,"correct":true,"confidence":5},{"trial_n":24,"n_dots":3.25,"target":"left","response":"right","rt":328.39999997616,"correct":false,"confidence":4},{"trial_n":25,"n_dots":3.35,"target":"right","response":"right","rt":520.39999997616,"correct":true,"confidence":3},{"trial_n":26,"n_dots":3.35,"target":"right","response":"right","rt":712.79999995232,"correct":true,"confidence":3},{"trial_n":27,"n_dots":3.25,"target":"right","response":"left","rt":1392.7000000477,"correct":false,"confidence":2},{"trial_n":28,"n_dots":3.35,"target":"left","response":"right","rt":382.29999995232,"correct":false,"confidence":3},{"trial_n":29,"n_dots":3.45,"target":"left","response":"right","rt":510.90000009537,"correct":false,"confidence":3},{"trial_n":30,"n_dots":3.55,"target":"left","response":"left","rt":700.39999997616,"correct":true,"confidence":4},{"trial_n":31,"n_dots":3.55,"target":"left","response":"right","rt":834.70000004768,"correct":false,"confidence":2},{"trial_n":32,"n_dots":3.65,"target":"left","response":"left","rt":2691.6000000238,"correct":true,"confidence":3},{"trial_n":33,"n_dots":3.65,"target":"left","response":"right","rt":849.30000007153,"correct":false,"confidence":3},{"trial_n":34,"n_dots":3.75,"target":"right","response":"right","rt":605.79999995232,"correct":true,"confidence":4},{"trial_n":35,"n_dots":3.75,"target":"right","response":"right","rt":377.89999997616,"correct":true,"confidence":3},{"trial_n":36,"n_dots":3.65,"target":"left","response":"left","rt":581,"correct":true,"confidence":3},{"trial_n":37,"n_dots":3.65,"target":"left","response":"right","rt":561.5,"correct":false,"confidence":3},{"trial_n":38,"n_dots":3.75,"target":"right","response":"right","rt":430.20000004768,"correct":true,"confidence":4},{"trial_n":39,"n_dots":3.75,"target":"right","response":"right","rt":535.79999995232,"correct":true,"confidence":4},{"trial_n":40,"n_dots":3.65,"target":"left","response":"left","rt":934.5,"correct":true,"confidence":3},{"trial_n":41,"n_dots":3.65,"target":"left","response":"right","rt":669.70000004768,"correct":false,"confidence":3},{"trial_n":42,"n_dots":3.75,"target":"right","response":"right","rt":297.80000007153,"correct":true,"confidence":3},{"trial_n":43,"n_dots":3.75,"target":"right","response":"right","rt":541.79999995232,"correct":true,"confidence":3},{"trial_n":44,"n_dots":3.65,"target":"left","response":"left","rt":901.79999995232,"correct":true,"confidence":4},{"trial_n":45,"n_dots":3.65,"target":"left","response":"left","rt":751.79999995232,"correct":true,"confidence":4},{"trial_n":46,"n_dots":3.55,"target":"right","response":"right","rt":401.19999992847,"correct":true,"confidence":4},{"trial_n":47,"n_dots":3.55,"target":"right","response":"right","rt":886.20000004768,"correct":true,"confidence":3},{"trial_n":48,"n_dots":3.45,"target":"right","response":"right","rt":649,"correct":true,"confidence":4},{"trial_n":49,"n_dots":3.45,"target":"right","response":"right","rt":1090.6000000238,"correct":true,"confidence":4},{"trial_n":50,"n_dots":3.35,"target":"right","response":"right","rt":1089.6999999285,"correct":true,"confidence":4},{"trial_n":51,"n_dots":3.35,"target":"right","response":"right","rt":372.69999992847,"correct":true,"confidence":3},{"trial_n":52,"n_dots":3.25,"target":"right","response":"right","rt":435.79999995232,"correct":true,"confidence":2},{"trial_n":53,"n_dots":3.25,"target":"right","response":"left","rt":1842.7999999523,"correct":false,"confidence":2},{"trial_n":54,"n_dots":3.35,"target":"left","response":"left","rt":817.19999992847,"correct":true,"confidence":4},{"trial_n":55,"n_dots":3.35,"target":"left","response":"right","rt":920.10000002384,"correct":false,"confidence":3},{"trial_n":56,"n_dots":3.45,"target":"left","response":"left","rt":384.39999997616,"correct":true,"confidence":4},{"trial_n":57,"n_dots":3.45,"target":"left","response":"left","rt":936.5,"correct":true,"confidence":2},{"trial_n":58,"n_dots":3.35,"target":"right","response":"right","rt":338.60000002384,"correct":true,"confidence":4},{"trial_n":59,"n_dots":3.35,"target":"left","response":"left","rt":1495.9000000954,"correct":true,"confidence":3},{"trial_n":60,"n_dots":3.25,"target":"left","response":"left","rt":460.20000004768,"correct":true,"confidence":3},{"trial_n":61,"n_dots":3.25,"target":"left","response":"right","rt":393.20000004768,"correct":false,"confidence":4},{"trial_n":62,"n_dots":3.35,"target":"right","response":"right","rt":290.60000002384,"correct":true,"confidence":5},{"trial_n":63,"n_dots":3.35,"target":"left","response":"left","rt":840.89999997616,"correct":true,"confidence":4},{"trial_n":64,"n_dots":3.25,"target":"left","response":"left","rt":922.29999995232,"correct":true,"confidence":4},{"trial_n":65,"n_dots":3.25,"target":"right","response":"right","rt":560.09999990463,"correct":true,"confidence":4},{"trial_n":66,"n_dots":3.15,"target":"right","response":"right","rt":915.29999995232,"correct":true,"confidence":4},{"trial_n":67,"n_dots":3.15,"target":"left","response":"right","rt":563.70000004768,"correct":false,"confidence":3},{"trial_n":68,"n_dots":3.25,"target":"left","response":"left","rt":506.60000002384,"correct":true,"confidence":3},{"trial_n":69,"n_dots":3.25,"target":"right","response":"right","rt":392.79999995232,"correct":true,"confidence":3},{"trial_n":70,"n_dots":3.15,"target":"left","response":"left","rt":1269.7000000477,"correct":true,"confidence":2},{"trial_n":71,"n_dots":3.15,"target":"right","response":"right","rt":526.69999992847,"correct":true,"confidence":3},{"trial_n":72,"n_dots":3.05,"target":"left","response":"right","rt":807,"correct":false,"confidence":3},{"trial_n":73,"n_dots":3.15,"target":"right","response":"right","rt":365.60000002384,"correct":true,"confidence":4},{"trial_n":74,"n_dots":3.15,"target":"left","response":"right","rt":378,"correct":false,"confidence":4},{"trial_n":75,"n_dots":3.25,"target":"left","response":"right","rt":345.90000009537,"correct":false,"confidence":3},{"trial_n":76,"n_dots":3.35,"target":"right","response":"right","rt":1129.7000000477,"correct":true,"confidence":3},{"trial_n":77,"n_dots":3.35,"target":"right","response":"right","rt":562.5,"correct":true,"confidence":2},{"trial_n":78,"n_dots":3.25,"target":"right","response":"right","rt":361.80000007153,"correct":true,"confidence":3},{"trial_n":79,"n_dots":3.25,"target":"right","response":"right","rt":516.10000002384,"correct":true,"confidence":4},{"trial_n":80,"n_dots":3.15,"target":"right","response":"right","rt":1751.2000000477,"correct":true,"confidence":2},{"trial_n":81,"n_dots":3.15,"target":"left","response":"left","rt":577.60000002384,"correct":true,"confidence":4},{"trial_n":82,"n_dots":3.05,"target":"right","response":"right","rt":278.29999995232,"correct":true,"confidence":4},{"trial_n":83,"n_dots":3.05,"target":"left","response":"left","rt":406.90000009537,"correct":true,"confidence":4},{"trial_n":84,"n_dots":2.95,"target":"left","response":"right","rt":446,"correct":false,"confidence":4},{"trial_n":85,"n_dots":3.05,"target":"left","response":"right","rt":713.29999995232,"correct":false,"confidence":4},{"trial_n":86,"n_dots":3.15,"target":"right","response":"right","rt":371.20000004768,"correct":true,"confidence":4},{"trial_n":87,"n_dots":3.15,"target":"right","response":"right","rt":437.79999995232,"correct":true,"confidence":4},{"trial_n":88,"n_dots":3.05,"target":"right","response":"right","rt":472.79999995232,"correct":true,"confidence":5},{"trial_n":89,"n_dots":3.05,"target":"right","response":"right","rt":530.59999990463,"correct":true,"confidence":4},{"trial_n":90,"n_dots":2.95,"target":"right","response":"right","rt":961.69999992847,"correct":true,"confidence":3},{"trial_n":91,"n_dots":2.95,"target":"left","response":"left","rt":1186.2999999523,"correct":true,"confidence":3},{"trial_n":92,"n_dots":2.85,"target":"right","response":"right","rt":795,"correct":true,"confidence":2},{"trial_n":93,"n_dots":2.85,"target":"right","response":"right","rt":1866.6000000238,"correct":true,"confidence":2},{"trial_n":94,"n_dots":2.75,"target":"left","response":"left","rt":1360.2999999523,"correct":true,"confidence":1},{"trial_n":95,"n_dots":2.75,"target":"left","response":"left","rt":421.29999995232,"correct":true,"confidence":3},{"trial_n":96,"n_dots":2.65,"target":"left","response":"right","rt":814.69999992847,"correct":false,"confidence":3},{"trial_n":97,"n_dots":2.75,"target":"right","response":"right","rt":339.30000007153,"correct":true,"confidence":4},{"trial_n":98,"n_dots":2.75,"target":"left","response":"right","rt":575.5,"correct":false,"confidence":3},{"trial_n":99,"n_dots":2.85,"target":"right","response":"left","rt":1496.3000000715,"correct":false,"confidence":2},{"trial_n":100,"n_dots":2.95,"target":"right","response":"right","rt":129.90000009537,"correct":true,"confidence":3},{"trial_n":101,"n_dots":2.95,"target":"left","response":"right","rt":840,"correct":false,"confidence":3},{"trial_n":102,"n_dots":3.05,"target":"left","response":"right","rt":325.90000009537,"correct":false,"confidence":2},{"trial_n":103,"n_dots":3.15,"target":"left","response":"right","rt":371.20000004768,"correct":false,"confidence":3},{"trial_n":104,"n_dots":3.25,"target":"left","response":"left","rt":259.5,"correct":true,"confidence":4},{"trial_n":105,"n_dots":3.25,"target":"left","response":"right","rt":481.60000002384,"correct":false,"confidence":3},{"trial_n":106,"n_dots":3.35,"target":"right","response":"right","rt":439.39999997616,"correct":true,"confidence":3},{"trial_n":107,"n_dots":3.35,"target":"left","response":"left","rt":1024.6000000238,"correct":true,"confidence":2},{"trial_n":108,"n_dots":3.25,"target":"right","response":"left","rt":519.5,"correct":false,"confidence":4},{"trial_n":109,"n_dots":3.35,"target":"left","response":"right","rt":520.20000004768,"correct":false,"confidence":3},{"trial_n":110,"n_dots":3.45,"target":"right","response":"right","rt":390.5,"correct":true,"confidence":3},{"trial_n":111,"n_dots":3.45,"target":"left","response":"left","rt":516.89999997616,"correct":true,"confidence":3},{"trial_n":112,"n_dots":3.35,"target":"right","response":"right","rt":414.79999995232,"correct":true,"confidence":4},{"trial_n":113,"n_dots":3.35,"target":"left","response":"left","rt":334.89999997616,"correct":true,"confidence":5},{"trial_n":114,"n_dots":3.25,"target":"left","response":"left","rt":908.70000004768,"correct":true,"confidence":3},{"trial_n":115,"n_dots":3.25,"target":"right","response":"right","rt":577.09999990463,"correct":true,"confidence":5},{"trial_n":116,"n_dots":3.15,"target":"left","response":"left","rt":615.10000002384,"correct":true,"confidence":2},{"trial_n":117,"n_dots":3.15,"target":"left","response":"left","rt":1028.5,"correct":true,"confidence":3},{"trial_n":118,"n_dots":3.05,"target":"left","response":"left","rt":486.59999990463,"correct":true,"confidence":4},{"trial_n":119,"n_dots":3.05,"target":"right","response":"right","rt":594.40000009537,"correct":true,"confidence":5},{"trial_n":120,"n_dots":2.95,"target":"right","response":"right","rt":515.89999997616,"correct":true,"confidence":5}]