[{"trial_n":1,"span":8,"encoder":"83284314","distractor":"83284364","target":"present","response":"absent","rt":"1421.799999997","correct":false,"confidence":-1},{"trial_n":2,"span":6,"encoder":"728839","distractor":"726839","target":"present","response":"present","rt":"990.70000000298","correct":true,"confidence":-1},{"trial_n":3,"span":6,"encoder":"198062","distractor":"178062","target":"absent","response":"present","rt":"1167","correct":false,"confidence":-1},{"trial_n":4,"span":4,"encoder":"9636","distractor":"9696","target":"absent","response":"present","rt":"783.5","correct":false,"confidence":-1},{"trial_n":5,"span":2,"encoder":"09","distractor":"04","target":"present","response":"present","rt":"940.90000000596","correct":true,"confidence":-1},{"trial_n":6,"span":2,"encoder":"54","distractor":"59","target":"present","response":"present","rt":"686.79999999702","correct":true,"confidence":-1},{"trial_n":7,"span":4,"encoder":"8765","distractor":"8705","target":"present","response":"present","rt":"1084.3000000119","correct":true,"confidence":-1},{"trial_n":8,"span":4,"encoder":"5531","distractor":"5551","target":"absent","response":"absent","rt":"991.29999999702","correct":true,"confidence":-1},{"trial_n":9,"span":6,"encoder":"903637","distractor":"103637","target":"present","response":"present","rt":"1673.900000006","correct":true,"confidence":-1},{"trial_n":10,"span":6,"encoder":"342902","distractor":"742902","target":"absent","response":"absent","rt":"1208.700000003","correct":true,"confidence":-1},{"trial_n":11,"span":8,"encoder":"52947005","distractor":"59947005","target":"absent","response":"present","rt":"564.29999999702","correct":false,"confidence":-1},{"trial_n":12,"span":7,"encoder":"7131722","distractor":"7139722","target":"present","response":"present","rt":"1761.1000000089","correct":true,"confidence":-1},{"trial_n":13,"span":7,"encoder":"9056101","distractor":"9756101","target":"present","response":"present","rt":"1746.3999999911","correct":true,"confidence":-1},{"trial_n":14,"span":8,"encoder":"01288606","distractor":"01288608","target":"present","response":"present","rt":"3156.400000006","correct":true,"confidence":-1},{"trial_n":15,"span":8,"encoder":"97441656","distractor":"57441656","target":"absent","response":"absent","rt":"1289.400000006","correct":true,"confidence":-1},{"trial_n":16,"span":9,"encoder":"433204277","distractor":"432204277","target":"present","response":"absent","rt":"1896.400000006","correct":false,"confidence":-1},{"trial_n":17,"span":8,"encoder":"06787929","distractor":"06487929","target":"present","response":"present","rt":"496.89999999106","correct":true,"confidence":-1},{"trial_n":18,"span":8,"encoder":"30920577","distractor":"35920577","target":"present","response":"absent","rt":"562.79999999702","correct":false,"confidence":-1},{"trial_n":19,"span":7,"encoder":"7603199","distractor":"7603499","target":"present","response":"present","rt":"1377.099999994","correct":true,"confidence":-1},{"trial_n":20,"span":7,"encoder":"3449534","distractor":"3449538","target":"present","response":"present","rt":"3852.1999999881","correct":true,"confidence":-1},{"trial_n":21,"span":8,"encoder":"48421350","distractor":"46421350","target":"present","response":"present","rt":"1505","correct":true,"confidence":4},{"trial_n":22,"span":8,"encoder":"27623043","distractor":"47623043","target":"absent","response":"present","rt":"4684.799999997","correct":false,"confidence":3},{"trial_n":23,"span":7,"encoder":"5949437","distractor":"9949437","target":"absent","response":"present","rt":"1226.900000006","correct":false,"confidence":3},{"trial_n":24,"span":6,"encoder":"735443","distractor":"735143","target":"present","response":"present","rt":"3565.1000000089","correct":true,"confidence":5},{"trial_n":25,"span":6,"encoder":"767283","distractor":"765283","target":"absent","response":"absent","rt":"1976.799999997","correct":true,"confidence":5},{"trial_n":26,"span":7,"encoder":"7341662","distractor":"7349662","target":"absent","response":"present","rt":"4806.8999999911","correct":false,"confidence":2},{"trial_n":27,"span":6,"encoder":"248636","distractor":"240636","target":"present","response":"present","rt":"1669.1999999881","correct":true,"confidence":4},{"trial_n":28,"span":6,"encoder":"093647","distractor":"096647","target":"absent","response":"absent","rt":"23461.100000009","correct":true,"confidence":1},{"trial_n":29,"span":7,"encoder":"1308121","distractor":"1306121","target":"absent","response":"absent","rt":"3013.8000000119","correct":true,"confidence":2},{"trial_n":30,"span":7,"encoder":"6083474","distractor":"0083474","target":"absent","response":"absent","rt":"1845.200000003","correct":true,"confidence":5},{"trial_n":31,"span":8,"encoder":"02527742","distractor":"02527542","target":"present","response":"present","rt":"3182.900000006","correct":true,"confidence":5},{"trial_n":32,"span":8,"encoder":"02348006","distractor":"42348006","target":"absent","response":"absent","rt":"4424","correct":true,"confidence":1},{"trial_n":33,"span":9,"encoder":"712047965","distractor":"712547965","target":"present","response":"present","rt":"4198.200000003","correct":true,"confidence":2},{"trial_n":34,"span":9,"encoder":"656853898","distractor":"656853894","target":"absent","response":"absent","rt":"5237.700000003","correct":true,"confidence":5},{"trial_n":35,"span":10,"encoder":"2806250284","distractor":"2806650284","target":"present","response":"present","rt":"3470.799999997","correct":true,"confidence":3},{"trial_n":36,"span":10,"encoder":"4207137156","distractor":"4207137155","target":"present","response":"present","rt":"2867.599999994","correct":true,"confidence":2},{"trial_n":37,"span":11,"encoder":"88329224588","distractor":"88329229588","target":"present","response":"present","rt":"3684.799999997","correct":true,"confidence":5},{"trial_n":38,"span":11,"encoder":"40499836090","distractor":"40459836090","target":"present","response":"present","rt":"2278.299999997","correct":true,"confidence":3},{"trial_n":39,"span":12,"encoder":"469095681739","distractor":"469095641739","target":"absent","response":"present","rt":"1196.099999994","correct":false,"confidence":1},{"trial_n":40,"span":11,"encoder":"21337568701","distractor":"21330568701","target":"absent","response":"present","rt":"1835.700000003","correct":false,"confidence":3},{"trial_n":41,"span":10,"encoder":"9248950597","distractor":"9248910597","target":"present","response":"present","rt":"2172.799999997","correct":true,"confidence":2},{"trial_n":42,"span":10,"encoder":"4708009230","distractor":"4708008230","target":"present","response":"present","rt":"4087.700000003","correct":true,"confidence":5},{"trial_n":43,"span":11,"encoder":"99716018128","distractor":"19716018128","target":"absent","response":"present","rt":"6491.700000003","correct":false,"confidence":2},{"trial_n":44,"span":10,"encoder":"8878828404","distractor":"8878828464","target":"present","response":"present","rt":"5591.900000006","correct":true,"confidence":1},{"trial_n":45,"span":10,"encoder":"2811463228","distractor":"2811463288","target":"present","response":"present","rt":"4773.400000006","correct":true,"confidence":2},{"trial_n":46,"span":11,"encoder":"39798298439","distractor":"39798298489","target":"present","response":"absent","rt":"2663","correct":false,"confidence":1},{"trial_n":47,"span":10,"encoder":"6074033103","distractor":"6076033103","target":"present","response":"absent","rt":"1000.6999999881","correct":false,"confidence":2},{"trial_n":48,"span":9,"encoder":"739906342","distractor":"739906382","target":"absent","response":"present","rt":"3434.099999994","correct":false,"confidence":1},{"trial_n":49,"span":8,"encoder":"74793054","distractor":"74993054","target":"absent","response":"present","rt":"1633.700000003","correct":false,"confidence":2},{"trial_n":50,"span":7,"encoder":"9744012","distractor":"9844012","target":"absent","response":"absent","rt":"3178.900000006","correct":true,"confidence":1},{"trial_n":51,"span":7,"encoder":"5840065","distractor":"5240065","target":"present","response":"present","rt":"1606.200000003","correct":true,"confidence":3},{"trial_n":52,"span":8,"encoder":"65128353","distractor":"65138353","target":"present","response":"present","rt":"4484.1000000089","correct":true,"confidence":2},{"trial_n":53,"span":8,"encoder":"33546676","distractor":"33545676","target":"absent","response":"present","rt":"4868.3000000119","correct":false,"confidence":2},{"trial_n":54,"span":7,"encoder":"8130481","distractor":"8132481","target":"absent","response":"absent","rt":"1937.099999994","correct":true,"confidence":1},{"trial_n":55,"span":7,"encoder":"4329589","distractor":"4329789","target":"absent","response":"absent","rt":"2622.1000000089","correct":true,"confidence":1},{"trial_n":56,"span":8,"encoder":"53018937","distractor":"53018997","target":"present","response":"present","rt":"1888.299999997","correct":true,"confidence":2},{"trial_n":57,"span":8,"encoder":"94684536","distractor":"94984536","target":"absent","response":"absent","rt":"1360","correct":true,"confidence":1},{"trial_n":58,"span":9,"encoder":"246936097","distractor":"246236097","target":"absent","response":"present","rt":"1631.099999994","correct":false,"confidence":3},{"trial_n":59,"span":8,"encoder":"50227389","distractor":"50220389","target":"absent","response":"absent","rt":"1467","correct":true,"confidence":2},{"trial_n":60,"span":8,"encoder":"42827218","distractor":"42837218","target":"absent","response":"present","rt":"1854.900000006","correct":false,"confidence":2},{"trial_n":61,"span":7,"encoder":"5643222","distractor":"5643322","target":"absent","response":"present","rt":"1697","correct":false,"confidence":2},{"trial_n":62,"span":6,"encoder":"604633","distractor":"104633","target":"absent","response":"absent","rt":"2254.900000006","correct":true,"confidence":1},{"trial_n":63,"span":6,"encoder":"395605","distractor":"395609","target":"present","response":"present","rt":"2147.599999994","correct":true,"confidence":5},{"trial_n":64,"span":7,"encoder":"5268471","distractor":"5266471","target":"absent","response":"present","rt":"1208.6000000089","correct":false,"confidence":2},{"trial_n":65,"span":6,"encoder":"290066","distractor":"590066","target":"present","response":"present","rt":"1239.099999994","correct":true,"confidence":1},{"trial_n":66,"span":6,"encoder":"038428","distractor":"048428","target":"present","response":"present","rt":"3089.700000003","correct":true,"confidence":5},{"trial_n":67,"span":7,"encoder":"7567708","distractor":"7567208","target":"present","response":"present","rt":"3182.799999997","correct":true,"confidence":5},{"trial_n":68,"span":7,"encoder":"5039457","distractor":"5139457","target":"absent","response":"present","rt":"1554","correct":false,"confidence":2},{"trial_n":69,"span":6,"encoder":"793844","distractor":"793824","target":"absent","response":"absent","rt":"3673","correct":true,"confidence":1},{"trial_n":70,"span":6,"encoder":"994493","distractor":"994463","target":"absent","response":"absent","rt":"2908.900000006","correct":true,"confidence":1},{"trial_n":71,"span":8,"encoder":"96895421","distractor":"96892421","target":"present","response":"present","rt":"3446.7999999821","correct":true,"confidence":-1},{"trial_n":72,"span":8,"encoder":"46808720","distractor":"46808740","target":"present","response":"present","rt":"1676.599999994","correct":true,"confidence":-1},{"trial_n":73,"span":9,"encoder":"800343262","distractor":"800344262","target":"absent","response":"present","rt":"1357.099999994","correct":false,"confidence":-1},{"trial_n":74,"span":8,"encoder":"58101469","distractor":"58101269","target":"absent","response":"absent","rt":"3495.2999999821","correct":true,"confidence":-1},{"trial_n":75,"span":8,"encoder":"20651336","distractor":"20651346","target":"present","response":"present","rt":"1980.900000006","correct":true,"confidence":-1},{"trial_n":76,"span":9,"encoder":"529129531","distractor":"528129531","target":"absent","response":"absent","rt":"2567.5","correct":true,"confidence":-1},{"trial_n":77,"span":9,"encoder":"360608927","distractor":"360608627","target":"present","response":"present","rt":"5499.1999999881","correct":true,"confidence":-1},{"trial_n":78,"span":10,"encoder":"7294971380","distractor":"7254971380","target":"present","response":"absent","rt":"6297.6999999881","correct":false,"confidence":-1},{"trial_n":79,"span":9,"encoder":"985878093","distractor":"985878023","target":"absent","response":"absent","rt":"3842.5","correct":true,"confidence":-1},{"trial_n":80,"span":9,"encoder":"605211792","distractor":"605211782","target":"present","response":"present","rt":"7627.6999999881","correct":true,"confidence":-1},{"trial_n":81,"span":10,"encoder":"2457182994","distractor":"2437182994","target":"present","response":"present","rt":"2006.599999994","correct":true,"confidence":-1},{"trial_n":82,"span":10,"encoder":"0474967196","distractor":"0474967796","target":"present","response":"present","rt":"1581.099999994","correct":true,"confidence":-1},{"trial_n":83,"span":11,"encoder":"87005188809","distractor":"87005188869","target":"present","response":"present","rt":"1760.2000000179","correct":true,"confidence":-1},{"trial_n":84,"span":11,"encoder":"96139873465","distractor":"56139873465","target":"absent","response":"present","rt":"2158.400000006","correct":false,"confidence":-1},{"trial_n":85,"span":10,"encoder":"6496687621","distractor":"6496687601","target":"absent","response":"present","rt":"4478.5","correct":false,"confidence":-1},{"trial_n":86,"span":9,"encoder":"544709946","distractor":"544709926","target":"absent","response":"present","rt":"6745.599999994","correct":false,"confidence":-1},{"trial_n":87,"span":8,"encoder":"82741919","distractor":"42741919","target":"absent","response":"present","rt":"2303.7999999821","correct":false,"confidence":-1},{"trial_n":88,"span":7,"encoder":"6699014","distractor":"6659014","target":"absent","response":"absent","rt":"1944.099999994","correct":true,"confidence":-1},{"trial_n":89,"span":7,"encoder":"6318172","distractor":"6318772","target":"present","response":"absent","rt":"3344.8000000119","correct":false,"confidence":-1},{"trial_n":90,"span":6,"encoder":"489496","distractor":"489476","target":"present","response":"present","rt":"2985.8000000119","correct":true,"confidence":-1},{"trial_n":91,"span":6,"encoder":"378343","distractor":"778343","target":"absent","response":"absent","rt":"1845.099999994","correct":true,"confidence":5},{"trial_n":92,"span":7,"encoder":"6695801","distractor":"6695871","target":"present","response":"present","rt":"3392.1999999881","correct":true,"confidence":3},{"trial_n":93,"span":7,"encoder":"3270656","distractor":"3200656","target":"present","response":"absent","rt":"3452.5","correct":false,"confidence":1},{"trial_n":94,"span":6,"encoder":"416097","distractor":"416095","target":"absent","response":"absent","rt":"3222.5","correct":true,"confidence":5},{"trial_n":95,"span":6,"encoder":"850749","distractor":"150749","target":"present","response":"present","rt":"3005","correct":true,"confidence":5},{"trial_n":96,"span":7,"encoder":"7922578","distractor":"7922518","target":"present","response":"present","rt":"2491","correct":true,"confidence":5},{"trial_n":97,"span":7,"encoder":"9670723","distractor":"0670723","target":"absent","response":"absent","rt":"2827","correct":true,"confidence":4},{"trial_n":98,"span":8,"encoder":"78916729","distractor":"78616729","target":"present","response":"present","rt":"3954.099999994","correct":true,"confidence":2},{"trial_n":99,"span":8,"encoder":"55461455","distractor":"55461465","target":"absent","response":"present","rt":"3562.599999994","correct":false,"confidence":1},{"trial_n":100,"span":7,"encoder":"0708734","distractor":"4708734","target":"absent","response":"absent","rt":"1785.900000006","correct":true,"confidence":5},{"trial_n":101,"span":7,"encoder":"9105086","distractor":"9145086","target":"absent","response":"absent","rt":"2516.099999994","correct":true,"confidence":5},{"trial_n":102,"span":8,"encoder":"64779865","distractor":"64799865","target":"absent","response":"absent","rt":"2724.7000000179","correct":true,"confidence":5},{"trial_n":103,"span":8,"encoder":"37087952","distractor":"37487952","target":"absent","response":"absent","rt":"4660.8000000119","correct":true,"confidence":3},{"trial_n":104,"span":9,"encoder":"324496158","distractor":"394496158","target":"absent","response":"absent","rt":"1493.3999999762","correct":true,"confidence":5},{"trial_n":105,"span":9,"encoder":"486495537","distractor":"485495537","target":"absent","response":"absent","rt":"2032.2999999821","correct":true,"confidence":5},{"trial_n":106,"span":10,"encoder":"5223622358","distractor":"5223622388","target":"present","response":"present","rt":"7251.8000000119","correct":true,"confidence":3},{"trial_n":107,"span":10,"encoder":"0045771935","distractor":"0045771915","target":"absent","response":"present","rt":"5795.900000006","correct":false,"confidence":2},{"trial_n":108,"span":9,"encoder":"085033676","distractor":"085033476","target":"present","response":"present","rt":"5919.099999994","correct":true,"confidence":3},{"trial_n":109,"span":9,"encoder":"090871986","distractor":"090171986","target":"absent","response":"present","rt":"6743.2000000179","correct":false,"confidence":3},{"trial_n":110,"span":8,"encoder":"45150159","distractor":"45750159","target":"present","response":"present","rt":"4558.2000000179","correct":true,"confidence":4},{"trial_n":111,"span":8,"encoder":"10329737","distractor":"10329937","target":"present","response":"present","rt":"4784.5","correct":true,"confidence":4},{"trial_n":112,"span":9,"encoder":"893639038","distractor":"893639048","target":"present","response":"present","rt":"7550.900000006","correct":true,"confidence":3},{"trial_n":113,"span":9,"encoder":"762091501","distractor":"762091561","target":"present","response":"present","rt":"4724.099999994","correct":true,"confidence":3},{"trial_n":114,"span":10,"encoder":"9833850080","distractor":"9833850050","target":"absent","response":"absent","rt":"7200.900000006","correct":true,"confidence":3},{"trial_n":115,"span":10,"encoder":"3787000435","distractor":"3781000435","target":"absent","response":"absent","rt":"48536.599999994","correct":true,"confidence":1},{"trial_n":116,"span":11,"encoder":"42149395958","distractor":"42149395938","target":"present","response":"absent","rt":"11623","correct":false,"confidence":4},{"trial_n":117,"span":10,"encoder":"9211784555","distractor":"9211784554","target":"present","response":"absent","rt":"26405.799999982","correct":false,"confidence":1},{"trial_n":118,"span":9,"encoder":"465307528","distractor":"465307598","target":"present","response":"present","rt":"5533","correct":true,"confidence":3},{"trial_n":119,"span":9,"encoder":"329823919","distractor":"329823319","target":"absent","response":"absent","rt":"7718.6999999881","correct":true,"confidence":3},{"trial_n":120,"span":10,"encoder":"6540466184","distractor":"6547466184","target":"absent","response":"absent","rt":"3656.2000000179","correct":true,"confidence":4},{"trial_n":121,"span":10,"encoder":"9685632883","distractor":"9684632883","target":"absent","response":"absent","rt":"5517.900000006","correct":true,"confidence":2},{"trial_n":122,"span":11,"encoder":"65487358884","distractor":"65387358884","target":"absent","response":"absent","rt":"6230.099999994","correct":true,"confidence":3},{"trial_n":123,"span":11,"encoder":"71298026169","distractor":"78298026169","target":"absent","response":"present","rt":"5001.400000006","correct":false,"confidence":2},{"trial_n":124,"span":10,"encoder":"0196549897","distractor":"0106549897","target":"absent","response":"absent","rt":"2890.5","correct":true,"confidence":5},{"trial_n":125,"span":10,"encoder":"9868763866","distractor":"9868762866","target":"absent","response":"absent","rt":"5722.400000006","correct":true,"confidence":3},{"trial_n":126,"span":11,"encoder":"04492765427","distractor":"74492765427","target":"present","response":"present","rt":"4918.8999999762","correct":true,"confidence":2},{"trial_n":127,"span":11,"encoder":"26069152505","distractor":"24069152505","target":"present","response":"present","rt":"2699.599999994","correct":true,"confidence":3},{"trial_n":128,"span":12,"encoder":"742444402878","distractor":"742444409878","target":"present","response":"present","rt":"2628.1999999881","correct":true,"confidence":3},{"trial_n":129,"span":12,"encoder":"206047482185","distractor":"206047412185","target":"present","response":"present","rt":"8125.400000006","correct":true,"confidence":3},{"trial_n":130,"span":13,"encoder":"4219726790139","distractor":"7219726790139","target":"absent","response":"absent","rt":"6295.7999999821","correct":true,"confidence":5},{"trial_n":131,"span":13,"encoder":"1482102878017","distractor":"1482102878317","target":"present","response":"absent","rt":"4951.3000000119","correct":false,"confidence":1},{"trial_n":132,"span":12,"encoder":"712179838778","distractor":"712171838778","target":"present","response":"absent","rt":"8472.099999994","correct":false,"confidence":3},{"trial_n":133,"span":11,"encoder":"78416895626","distractor":"78416896626","target":"present","response":"present","rt":"3594.5","correct":true,"confidence":5},{"trial_n":134,"span":11,"encoder":"16397635656","distractor":"16397635652","target":"present","response":"present","rt":"2667.400000006","correct":true,"confidence":4},{"trial_n":135,"span":12,"encoder":"334430666667","distractor":"334430686667","target":"present","response":"present","rt":"2879.5","correct":true,"confidence":5},{"trial_n":136,"span":12,"encoder":"740009497497","distractor":"750009497497","target":"absent","response":"absent","rt":"3239.8000000119","correct":true,"confidence":5},{"trial_n":137,"span":13,"encoder":"9295842746850","distractor":"9295844746850","target":"present","response":"absent","rt":"5526","correct":false,"confidence":2},{"trial_n":138,"span":12,"encoder":"440315317675","distractor":"445315317675","target":"absent","response":"absent","rt":"5422.6999999881","correct":true,"confidence":3},{"trial_n":139,"span":12,"encoder":"530034513639","distractor":"530034513634","target":"absent","response":"absent","rt":"1675.6999999881","correct":true,"confidence":5},{"trial_n":140,"span":13,"encoder":"8750830247960","distractor":"8750837247960","target":"present","response":"absent","rt":"6063.8999999762","correct":false,"confidence":5}]