[{"trial_n":1,"min":25,"max":230,"target":"present","response":"present","rt":3176.6000000238,"correct":true,"confidence":-1},{"trial_n":2,"min":25,"max":230,"target":"present","response":"present","rt":1090.400000006,"correct":true,"confidence":-1},{"trial_n":3,"min":41,"max":214,"target":"absent","response":"absent","rt":936,"correct":true,"confidence":-1},{"trial_n":4,"min":41,"max":214,"target":"absent","response":"absent","rt":579.29999998212,"correct":true,"confidence":-1},{"trial_n":5,"min":57,"max":198,"target":"present","response":"present","rt":890.80000001192,"correct":true,"confidence":-1},{"trial_n":6,"min":57,"max":198,"target":"present","response":"present","rt":504.29999998212,"correct":true,"confidence":-1},{"trial_n":7,"min":73,"max":182,"target":"present","response":"present","rt":1123.8999999762,"correct":true,"confidence":-1},{"trial_n":8,"min":73,"max":182,"target":"absent","response":"absent","rt":1129.3000000119,"correct":true,"confidence":-1},{"trial_n":9,"min":89,"max":166,"target":"present","response":"absent","rt":736.80000001192,"correct":false,"confidence":-1},{"trial_n":10,"min":73,"max":182,"target":"absent","response":"absent","rt":487.5,"correct":true,"confidence":-1},{"trial_n":11,"min":73,"max":182,"target":"absent","response":"absent","rt":386.09999999404,"correct":true,"confidence":-1},{"trial_n":12,"min":81,"max":174,"target":"absent","response":"absent","rt":516.60000002384,"correct":true,"confidence":-1},{"trial_n":13,"min":81,"max":174,"target":"present","response":"absent","rt":348.89999997616,"correct":false,"confidence":-1},{"trial_n":14,"min":73,"max":182,"target":"absent","response":"present","rt":997.5,"correct":false,"confidence":-1},{"trial_n":15,"min":65,"max":190,"target":"present","response":"present","rt":851.29999998212,"correct":true,"confidence":-1},{"trial_n":16,"min":65,"max":190,"target":"absent","response":"absent","rt":900.60000002384,"correct":true,"confidence":-1},{"trial_n":17,"min":73,"max":182,"target":"absent","response":"present","rt":637.69999998808,"correct":false,"confidence":-1},{"trial_n":18,"min":65,"max":190,"target":"absent","response":"absent","rt":860.90000000596,"correct":true,"confidence":-1},{"trial_n":19,"min":65,"max":190,"target":"present","response":"present","rt":810.90000000596,"correct":true,"confidence":-1},{"trial_n":20,"min":73,"max":182,"target":"absent","response":"absent","rt":730,"correct":true,"confidence":-1},{"trial_n":21,"min":73,"max":182,"target":"absent","response":"absent","rt":596,"correct":true,"confidence":3},{"trial_n":22,"min":77,"max":178,"target":"present","response":"present","rt":851.29999998212,"correct":true,"confidence":4},{"trial_n":23,"min":77,"max":178,"target":"present","response":"present","rt":710.69999998808,"correct":true,"confidence":5},{"trial_n":24,"min":81,"max":174,"target":"absent","response":"absent","rt":1059.099999994,"correct":true,"confidence":5},{"trial_n":25,"min":81,"max":174,"target":"present","response":"absent","rt":908.59999999404,"correct":false,"confidence":4},{"trial_n":26,"min":77,"max":178,"target":"present","response":"absent","rt":743.30000001192,"correct":false,"confidence":3},{"trial_n":27,"min":73,"max":182,"target":"present","response":"present","rt":2117.5,"correct":true,"confidence":5},{"trial_n":28,"min":73,"max":182,"target":"absent","response":"absent","rt":892.20000001788,"correct":true,"confidence":4},{"trial_n":29,"min":77,"max":178,"target":"absent","response":"absent","rt":817.90000000596,"correct":true,"confidence":4},{"trial_n":30,"min":77,"max":178,"target":"absent","response":"absent","rt":1220.900000006,"correct":true,"confidence":5},{"trial_n":31,"min":79,"max":176,"target":"present","response":"present","rt":769.69999998808,"correct":true,"confidence":4},{"trial_n":32,"min":79,"max":176,"target":"absent","response":"absent","rt":650.70000001788,"correct":true,"confidence":4},{"trial_n":33,"min":81,"max":174,"target":"present","response":"absent","rt":768.40000000596,"correct":false,"confidence":5},{"trial_n":34,"min":79,"max":176,"target":"absent","response":"absent","rt":771.70000001788,"correct":true,"confidence":5},{"trial_n":35,"min":79,"max":176,"target":"absent","response":"absent","rt":670.40000000596,"correct":true,"confidence":5},{"trial_n":36,"min":81,"max":174,"target":"absent","response":"present","rt":1051.599999994,"correct":false,"confidence":3},{"trial_n":37,"min":79,"max":176,"target":"present","response":"present","rt":1010.7999999821,"correct":true,"confidence":5},{"trial_n":38,"min":79,"max":176,"target":"present","response":"present","rt":694.19999998808,"correct":true,"confidence":4},{"trial_n":39,"min":81,"max":174,"target":"present","response":"present","rt":612.5,"correct":true,"confidence":4},{"trial_n":40,"min":81,"max":174,"target":"present","response":"absent","rt":700,"correct":false,"confidence":5},{"trial_n":41,"min":80,"max":175,"target":"absent","response":"absent","rt":720.09999999404,"correct":true,"confidence":5},{"trial_n":42,"min":80,"max":175,"target":"present","response":"present","rt":744.70000001788,"correct":true,"confidence":5},{"trial_n":43,"min":81,"max":174,"target":"present","response":"absent","rt":1363.3000000119,"correct":false,"confidence":4},{"trial_n":44,"min":80,"max":175,"target":"absent","response":"absent","rt":934.69999998808,"correct":true,"confidence":5},{"trial_n":45,"min":80,"max":175,"target":"present","response":"present","rt":613.39999997616,"correct":true,"confidence":4},{"trial_n":46,"min":81,"max":174,"target":"absent","response":"absent","rt":737.80000001192,"correct":true,"confidence":4},{"trial_n":47,"min":81,"max":174,"target":"present","response":"present","rt":660.90000000596,"correct":true,"confidence":4},{"trial_n":48,"min":82,"max":173,"target":"present","response":"absent","rt":1023.7000000179,"correct":false,"confidence":5},{"trial_n":49,"min":81,"max":174,"target":"absent","response":"absent","rt":992.09999999404,"correct":true,"confidence":4},{"trial_n":50,"min":81,"max":174,"target":"present","response":"absent","rt":1079.3000000119,"correct":false,"confidence":5},{"trial_n":51,"min":80,"max":175,"target":"present","response":"present","rt":719,"correct":true,"confidence":4},{"trial_n":52,"min":80,"max":175,"target":"present","response":"absent","rt":700,"correct":false,"confidence":4},{"trial_n":53,"min":79,"max":176,"target":"absent","response":"absent","rt":722.30000001192,"correct":true,"confidence":5},{"trial_n":54,"min":79,"max":176,"target":"absent","response":"absent","rt":999.90000000596,"correct":true,"confidence":4},{"trial_n":55,"min":80,"max":175,"target":"present","response":"absent","rt":651.10000002384,"correct":false,"confidence":5},{"trial_n":56,"min":79,"max":176,"target":"present","response":"present","rt":816.19999998808,"correct":true,"confidence":5},{"trial_n":57,"min":79,"max":176,"target":"present","response":"present","rt":1059.599999994,"correct":true,"confidence":4},{"trial_n":58,"min":80,"max":175,"target":"absent","response":"absent","rt":1712.599999994,"correct":true,"confidence":5},{"trial_n":59,"min":80,"max":175,"target":"absent","response":"absent","rt":718.69999998808,"correct":true,"confidence":5},{"trial_n":60,"min":81,"max":174,"target":"absent","response":"absent","rt":653,"correct":true,"confidence":5},{"trial_n":61,"min":81,"max":174,"target":"present","response":"absent","rt":1032,"correct":false,"confidence":4},{"trial_n":62,"min":80,"max":175,"target":"present","response":"present","rt":700.59999999404,"correct":true,"confidence":3},{"trial_n":63,"min":80,"max":175,"target":"absent","response":"absent","rt":1389.099999994,"correct":true,"confidence":3},{"trial_n":64,"min":81,"max":174,"target":"absent","response":"absent","rt":920.40000000596,"correct":true,"confidence":5},{"trial_n":65,"min":81,"max":174,"target":"absent","response":"absent","rt":709.79999998212,"correct":true,"confidence":5},{"trial_n":66,"min":82,"max":173,"target":"present","response":"absent","rt":647,"correct":false,"confidence":5},{"trial_n":67,"min":81,"max":174,"target":"absent","response":"absent","rt":1216.7999999821,"correct":true,"confidence":5},{"trial_n":68,"min":81,"max":174,"target":"present","response":"absent","rt":596.90000000596,"correct":false,"confidence":5},{"trial_n":69,"min":80,"max":175,"target":"absent","response":"absent","rt":725.80000001192,"correct":true,"confidence":5},{"trial_n":70,"min":80,"max":175,"target":"present","response":"absent","rt":645.59999999404,"correct":false,"confidence":5},{"trial_n":71,"min":41,"max":214,"target":"present","response":"present","rt":1155.900000006,"correct":true,"confidence":-1},{"trial_n":72,"min":41,"max":214,"target":"present","response":"present","rt":521.09999999404,"correct":true,"confidence":-1},{"trial_n":73,"min":57,"max":198,"target":"absent","response":"absent","rt":1126.3000000119,"correct":true,"confidence":-1},{"trial_n":74,"min":57,"max":198,"target":"absent","response":"absent","rt":573.40000000596,"correct":true,"confidence":-1},{"trial_n":75,"min":73,"max":182,"target":"present","response":"present","rt":289.10000002384,"correct":true,"confidence":-1},{"trial_n":76,"min":73,"max":182,"target":"absent","response":"absent","rt":269.59999999404,"correct":true,"confidence":-1},{"trial_n":77,"min":89,"max":166,"target":"present","response":"absent","rt":592.30000001192,"correct":false,"confidence":-1},{"trial_n":78,"min":73,"max":182,"target":"present","response":"present","rt":265.30000001192,"correct":true,"confidence":-1},{"trial_n":79,"min":73,"max":182,"target":"absent","response":"present","rt":424.19999998808,"correct":false,"confidence":-1},{"trial_n":80,"min":57,"max":198,"target":"absent","response":"absent","rt":446.29999998212,"correct":true,"confidence":-1},{"trial_n":81,"min":57,"max":198,"target":"absent","response":"present","rt":528.09999999404,"correct":false,"confidence":-1},{"trial_n":82,"min":49,"max":206,"target":"absent","response":"absent","rt":1012.7000000179,"correct":true,"confidence":-1},{"trial_n":83,"min":49,"max":206,"target":"present","response":"present","rt":413,"correct":true,"confidence":-1},{"trial_n":84,"min":57,"max":198,"target":"absent","response":"absent","rt":611.09999999404,"correct":true,"confidence":-1},{"trial_n":85,"min":57,"max":198,"target":"present","response":"present","rt":958.19999998808,"correct":true,"confidence":-1},{"trial_n":86,"min":65,"max":190,"target":"present","response":"present","rt":277,"correct":true,"confidence":-1},{"trial_n":87,"min":65,"max":190,"target":"absent","response":"absent","rt":466.90000000596,"correct":true,"confidence":-1},{"trial_n":88,"min":73,"max":182,"target":"absent","response":"absent","rt":236,"correct":true,"confidence":-1},{"trial_n":89,"min":73,"max":182,"target":"present","response":"present","rt":401,"correct":true,"confidence":-1},{"trial_n":90,"min":81,"max":174,"target":"present","response":"present","rt":533.70000001788,"correct":true,"confidence":-1},{"trial_n":91,"min":81,"max":174,"target":"absent","response":"absent","rt":611.29999998212,"correct":true,"confidence":3},{"trial_n":92,"min":85,"max":170,"target":"present","response":"present","rt":1301.8999999762,"correct":true,"confidence":1},{"trial_n":93,"min":85,"max":170,"target":"absent","response":"absent","rt":1128.2999999821,"correct":true,"confidence":2},{"trial_n":94,"min":89,"max":166,"target":"absent","response":"absent","rt":1073.6999999881,"correct":true,"confidence":3},{"trial_n":95,"min":89,"max":166,"target":"present","response":"present","rt":1356.1999999881,"correct":true,"confidence":2},{"trial_n":96,"min":93,"max":162,"target":"present","response":"present","rt":1042.599999994,"correct":true,"confidence":2},{"trial_n":97,"min":93,"max":162,"target":"absent","response":"present","rt":837.59999999404,"correct":false,"confidence":2},{"trial_n":98,"min":89,"max":166,"target":"present","response":"present","rt":2959.099999994,"correct":true,"confidence":2},{"trial_n":99,"min":89,"max":166,"target":"present","response":"present","rt":598.20000001788,"correct":true,"confidence":4},{"trial_n":100,"min":93,"max":162,"target":"absent","response":"absent","rt":833.70000001788,"correct":true,"confidence":2},{"trial_n":101,"min":93,"max":162,"target":"absent","response":"present","rt":1250.2000000179,"correct":false,"confidence":3},{"trial_n":102,"min":91,"max":164,"target":"absent","response":"present","rt":792.69999998808,"correct":false,"confidence":1},{"trial_n":103,"min":89,"max":166,"target":"present","response":"present","rt":1214,"correct":true,"confidence":1},{"trial_n":104,"min":89,"max":166,"target":"present","response":"present","rt":943,"correct":true,"confidence":3},{"trial_n":105,"min":91,"max":164,"target":"absent","response":"present","rt":1284.099999994,"correct":false,"confidence":1},{"trial_n":106,"min":89,"max":166,"target":"present","response":"present","rt":826.20000001788,"correct":true,"confidence":1},{"trial_n":107,"min":89,"max":166,"target":"present","response":"present","rt":829,"correct":true,"confidence":3},{"trial_n":108,"min":91,"max":164,"target":"absent","response":"present","rt":685.69999998808,"correct":false,"confidence":3},{"trial_n":109,"min":89,"max":166,"target":"present","response":"present","rt":699.29999998212,"correct":true,"confidence":3},{"trial_n":110,"min":89,"max":166,"target":"absent","response":"present","rt":593.5,"correct":false,"confidence":4},{"trial_n":111,"min":88,"max":167,"target":"absent","response":"present","rt":1065.900000006,"correct":false,"confidence":3},{"trial_n":112,"min":87,"max":168,"target":"absent","response":"present","rt":1247,"correct":false,"confidence":3},{"trial_n":113,"min":86,"max":169,"target":"present","response":"present","rt":386350.80000001,"correct":true,"confidence":1},{"trial_n":114,"min":86,"max":169,"target":"absent","response":"absent","rt":1224.599999994,"correct":true,"confidence":3},{"trial_n":115,"min":87,"max":168,"target":"absent","response":"absent","rt":964.60000002384,"correct":true,"confidence":3},{"trial_n":116,"min":87,"max":168,"target":"present","response":"present","rt":34.800000011921,"correct":true,"confidence":4},{"trial_n":117,"min":88,"max":167,"target":"present","response":"present","rt":42.90000000596,"correct":true,"confidence":3},{"trial_n":118,"min":88,"max":167,"target":"absent","response":"present","rt":1220.5,"correct":false,"confidence":3},{"trial_n":119,"min":87,"max":168,"target":"present","response":"absent","rt":3051.5,"correct":false,"confidence":1},{"trial_n":120,"min":86,"max":169,"target":"absent","response":"present","rt":134.30000001192,"correct":false,"confidence":3},{"trial_n":121,"min":85,"max":170,"target":"absent","response":"present","rt":814.30000001192,"correct":false,"confidence":1},{"trial_n":122,"min":84,"max":171,"target":"present","response":"present","rt":1012.7999999821,"correct":true,"confidence":1},{"trial_n":123,"min":84,"max":171,"target":"present","response":"present","rt":1244.900000006,"correct":true,"confidence":1},{"trial_n":124,"min":85,"max":170,"target":"absent","response":"absent","rt":841.10000002384,"correct":true,"confidence":3},{"trial_n":125,"min":85,"max":170,"target":"absent","response":"present","rt":400.59999999404,"correct":false,"confidence":2},{"trial_n":126,"min":84,"max":171,"target":"present","response":"present","rt":22.299999982119,"correct":true,"confidence":2},{"trial_n":127,"min":84,"max":171,"target":"present","response":"present","rt":317.90000000596,"correct":true,"confidence":2},{"trial_n":128,"min":85,"max":170,"target":"absent","response":"present","rt":686.20000001788,"correct":false,"confidence":3},{"trial_n":129,"min":84,"max":171,"target":"absent","response":"present","rt":180.5,"correct":false,"confidence":3},{"trial_n":130,"min":83,"max":172,"target":"present","response":"present","rt":140.59999999404,"correct":true,"confidence":2},{"trial_n":131,"min":83,"max":172,"target":"present","response":"present","rt":860.30000001192,"correct":true,"confidence":1},{"trial_n":132,"min":84,"max":171,"target":"present","response":"absent","rt":481.20000001788,"correct":false,"confidence":1},{"trial_n":133,"min":83,"max":172,"target":"absent","response":"present","rt":403.29999998212,"correct":false,"confidence":1},{"trial_n":134,"min":82,"max":173,"target":"present","response":"present","rt":337.89999997616,"correct":true,"confidence":3},{"trial_n":135,"min":82,"max":173,"target":"present","response":"present","rt":294.40000000596,"correct":true,"confidence":2},{"trial_n":136,"min":83,"max":172,"target":"absent","response":"absent","rt":843,"correct":true,"confidence":3},{"trial_n":137,"min":83,"max":172,"target":"present","response":"present","rt":327.29999998212,"correct":true,"confidence":3},{"trial_n":138,"min":84,"max":171,"target":"present","response":"present","rt":764.20000001788,"correct":true,"confidence":3},{"trial_n":139,"min":84,"max":171,"target":"absent","response":"present","rt":283.29999998212,"correct":false,"confidence":3},{"trial_n":140,"min":83,"max":172,"target":"present","response":"present","rt":86.300000011921,"correct":true,"confidence":3}]