[{"trial_n":1,"span":8,"encoder":"76117643","distractor":"66117643","target":"present","response":"absent","rt":"7628.599999994","correct":false,"confidence":-1},{"trial_n":2,"span":6,"encoder":"115371","distractor":"115971","target":"present","response":"present","rt":"2486","correct":true,"confidence":-1},{"trial_n":3,"span":6,"encoder":"386511","distractor":"346511","target":"absent","response":"absent","rt":"1476","correct":true,"confidence":-1},{"trial_n":4,"span":8,"encoder":"89301873","distractor":"89301872","target":"absent","response":"absent","rt":"3753.599999994","correct":true,"confidence":-1},{"trial_n":5,"span":8,"encoder":"59714008","distractor":"59714508","target":"present","response":"present","rt":"2320.6999999881","correct":true,"confidence":-1},{"trial_n":6,"span":10,"encoder":"5448685656","distractor":"5448682656","target":"present","response":"present","rt":"1745.7999999821","correct":true,"confidence":-1},{"trial_n":7,"span":10,"encoder":"2241717857","distractor":"8241717857","target":"present","response":"present","rt":"1818.3000000119","correct":true,"confidence":-1},{"trial_n":8,"span":12,"encoder":"623457778541","distractor":"623457778544","target":"absent","response":"present","rt":"761","correct":false,"confidence":-1},{"trial_n":9,"span":10,"encoder":"5364063527","distractor":"5364073527","target":"present","response":"present","rt":"1069","correct":true,"confidence":-1},{"trial_n":10,"span":10,"encoder":"4465744448","distractor":"4465774448","target":"present","response":"absent","rt":"54093.900000006","correct":false,"confidence":-1},{"trial_n":11,"span":8,"encoder":"12842325","distractor":"12842825","target":"absent","response":"present","rt":"1183.400000006","correct":false,"confidence":-1},{"trial_n":12,"span":7,"encoder":"7986847","distractor":"7386847","target":"present","response":"present","rt":"854.20000001788","correct":true,"confidence":-1},{"trial_n":13,"span":7,"encoder":"1820102","distractor":"1820104","target":"present","response":"present","rt":"1187.099999994","correct":true,"confidence":-1},{"trial_n":14,"span":8,"encoder":"14109347","distractor":"15109347","target":"present","response":"present","rt":"1098.1999999881","correct":true,"confidence":-1},{"trial_n":15,"span":8,"encoder":"61335509","distractor":"61135509","target":"absent","response":"present","rt":"651.30000001192","correct":false,"confidence":-1},{"trial_n":16,"span":7,"encoder":"6592315","distractor":"6592335","target":"present","response":"present","rt":"2001.3000000119","correct":true,"confidence":-1},{"trial_n":17,"span":7,"encoder":"2260446","distractor":"2260426","target":"present","response":"present","rt":"849.90000000596","correct":true,"confidence":-1},{"trial_n":18,"span":8,"encoder":"73931229","distractor":"73931225","target":"present","response":"present","rt":"731.80000001192","correct":true,"confidence":-1},{"trial_n":19,"span":8,"encoder":"18362611","distractor":"18262611","target":"present","response":"present","rt":"3451.7000000179","correct":true,"confidence":-1},{"trial_n":20,"span":9,"encoder":"774895059","distractor":"754895059","target":"present","response":"present","rt":"7962.599999994","correct":true,"confidence":-1},{"trial_n":21,"span":9,"encoder":"581624310","distractor":"581324310","target":"absent","response":"absent","rt":"1512","correct":true,"confidence":4},{"trial_n":22,"span":10,"encoder":"0667899006","distractor":"0664899006","target":"absent","response":"absent","rt":"2306.400000006","correct":true,"confidence":5},{"trial_n":23,"span":10,"encoder":"7106401741","distractor":"7106401761","target":"present","response":"present","rt":"2101.3000000119","correct":true,"confidence":4},{"trial_n":24,"span":11,"encoder":"20814611825","distractor":"20814611025","target":"present","response":"present","rt":"3298.1999999881","correct":true,"confidence":4},{"trial_n":25,"span":11,"encoder":"30083943291","distractor":"30083943295","target":"present","response":"present","rt":"2595.900000006","correct":true,"confidence":4},{"trial_n":26,"span":12,"encoder":"466219896703","distractor":"866219896703","target":"present","response":"present","rt":"1378","correct":true,"confidence":4},{"trial_n":27,"span":12,"encoder":"132123305396","distractor":"132123302396","target":"absent","response":"absent","rt":"1997.1999999881","correct":true,"confidence":3},{"trial_n":28,"span":13,"encoder":"1645018854119","distractor":"1625018854119","target":"absent","response":"present","rt":"1492","correct":false,"confidence":4},{"trial_n":29,"span":12,"encoder":"302414701335","distractor":"302214701335","target":"absent","response":"absent","rt":"1804.099999994","correct":true,"confidence":4},{"trial_n":30,"span":12,"encoder":"729518745198","distractor":"729558745198","target":"absent","response":"absent","rt":"1911.7000000179","correct":true,"confidence":3},{"trial_n":31,"span":13,"encoder":"0934748198827","distractor":"0934748198826","target":"absent","response":"present","rt":"2288.1999999881","correct":false,"confidence":3},{"trial_n":32,"span":12,"encoder":"255848883345","distractor":"755848883345","target":"present","response":"present","rt":"1296.8000000119","correct":true,"confidence":3},{"trial_n":33,"span":12,"encoder":"063656295080","distractor":"063656245080","target":"absent","response":"absent","rt":"95435.5","correct":true,"confidence":1},{"trial_n":34,"span":13,"encoder":"5746488190178","distractor":"5746488198178","target":"absent","response":"absent","rt":"2268.5","correct":true,"confidence":3},{"trial_n":35,"span":13,"encoder":"4619938051089","distractor":"4619936051089","target":"present","response":"absent","rt":"1297","correct":false,"confidence":1},{"trial_n":36,"span":12,"encoder":"664865194596","distractor":"664865194526","target":"present","response":"present","rt":"2350.7000000179","correct":true,"confidence":3},{"trial_n":37,"span":12,"encoder":"811170535186","distractor":"811170534186","target":"absent","response":"present","rt":"3639","correct":false,"confidence":3},{"trial_n":38,"span":11,"encoder":"57391115235","distractor":"57391115135","target":"absent","response":"present","rt":"2878.5","correct":false,"confidence":3},{"trial_n":39,"span":10,"encoder":"6966819132","distractor":"6966819102","target":"absent","response":"absent","rt":"4639.1999999881","correct":true,"confidence":1},{"trial_n":40,"span":10,"encoder":"2046276003","distractor":"2046216003","target":"absent","response":"present","rt":"1177.900000006","correct":false,"confidence":1},{"trial_n":41,"span":9,"encoder":"921939629","distractor":"921939627","target":"absent","response":"present","rt":"10495.399999976","correct":false,"confidence":1},{"trial_n":42,"span":8,"encoder":"77002775","distractor":"77092775","target":"absent","response":"present","rt":"2127.099999994","correct":false,"confidence":3},{"trial_n":43,"span":7,"encoder":"2739375","distractor":"2732375","target":"present","response":"present","rt":"24015.5","correct":true,"confidence":1},{"trial_n":44,"span":7,"encoder":"3863890","distractor":"6863890","target":"absent","response":"present","rt":"1367.1999999881","correct":false,"confidence":3},{"trial_n":45,"span":6,"encoder":"993049","distractor":"993099","target":"present","response":"present","rt":"1661.1999999881","correct":true,"confidence":4},{"trial_n":46,"span":6,"encoder":"102588","distractor":"602588","target":"present","response":"present","rt":"1265.599999994","correct":true,"confidence":4},{"trial_n":47,"span":7,"encoder":"9122986","distractor":"9522986","target":"absent","response":"present","rt":"1015.6999999881","correct":false,"confidence":1},{"trial_n":48,"span":6,"encoder":"418278","distractor":"418298","target":"present","response":"present","rt":"1261.599999994","correct":true,"confidence":4},{"trial_n":49,"span":6,"encoder":"323642","distractor":"323042","target":"present","response":"present","rt":"2304.6000000238","correct":true,"confidence":4},{"trial_n":50,"span":7,"encoder":"8745129","distractor":"8745429","target":"absent","response":"present","rt":"5334.5","correct":false,"confidence":1},{"trial_n":51,"span":6,"encoder":"329901","distractor":"329001","target":"absent","response":"absent","rt":"4754.5","correct":true,"confidence":4},{"trial_n":52,"span":6,"encoder":"347025","distractor":"347625","target":"absent","response":"absent","rt":"2590.6999999881","correct":true,"confidence":4},{"trial_n":53,"span":7,"encoder":"9189118","distractor":"8189118","target":"absent","response":"absent","rt":"4279.5","correct":true,"confidence":4},{"trial_n":54,"span":7,"encoder":"6216814","distractor":"6316814","target":"absent","response":"absent","rt":"1687.1999999881","correct":true,"confidence":1},{"trial_n":55,"span":8,"encoder":"86072060","distractor":"06072060","target":"present","response":"present","rt":"1046.6000000238","correct":true,"confidence":2},{"trial_n":56,"span":8,"encoder":"73787035","distractor":"73287035","target":"present","response":"absent","rt":"2132.400000006","correct":false,"confidence":3},{"trial_n":57,"span":7,"encoder":"1060733","distractor":"1460733","target":"absent","response":"absent","rt":"1670.599999994","correct":true,"confidence":1},{"trial_n":58,"span":7,"encoder":"4497983","distractor":"1497983","target":"present","response":"present","rt":"2020.6999999881","correct":true,"confidence":3},{"trial_n":59,"span":8,"encoder":"81656965","distractor":"81658965","target":"present","response":"absent","rt":"1816.599999994","correct":false,"confidence":1},{"trial_n":60,"span":7,"encoder":"1351073","distractor":"1353073","target":"present","response":"present","rt":"1004.6999999881","correct":true,"confidence":1},{"trial_n":61,"span":7,"encoder":"0657644","distractor":"6657644","target":"absent","response":"absent","rt":"1282.2000000179","correct":true,"confidence":3},{"trial_n":62,"span":8,"encoder":"94818608","distractor":"94818628","target":"absent","response":"present","rt":"13441.100000024","correct":false,"confidence":1},{"trial_n":63,"span":7,"encoder":"1093185","distractor":"1093155","target":"absent","response":"present","rt":"1435.099999994","correct":false,"confidence":2},{"trial_n":64,"span":6,"encoder":"658027","distractor":"651027","target":"absent","response":"absent","rt":"20587.199999988","correct":true,"confidence":1},{"trial_n":65,"span":6,"encoder":"123550","distractor":"124550","target":"present","response":"present","rt":"1784","correct":true,"confidence":4},{"trial_n":66,"span":7,"encoder":"5652101","distractor":"1652101","target":"present","response":"present","rt":"2283.3999999762","correct":true,"confidence":3},{"trial_n":67,"span":7,"encoder":"9798000","distractor":"9098000","target":"absent","response":"present","rt":"1125.900000006","correct":false,"confidence":4},{"trial_n":68,"span":6,"encoder":"477603","distractor":"407603","target":"absent","response":"absent","rt":"1731.099999994","correct":true,"confidence":3},{"trial_n":69,"span":6,"encoder":"435637","distractor":"435737","target":"present","response":"present","rt":"1496.6999999881","correct":true,"confidence":3},{"trial_n":70,"span":7,"encoder":"0544805","distractor":"0540805","target":"present","response":"present","rt":"1548","correct":true,"confidence":3},{"trial_n":71,"span":8,"encoder":"58891473","distractor":"58891413","target":"present","response":"present","rt":"2620.400000006","correct":true,"confidence":-1},{"trial_n":72,"span":8,"encoder":"30632301","distractor":"30732301","target":"present","response":"present","rt":"1848.2999999821","correct":true,"confidence":-1},{"trial_n":73,"span":9,"encoder":"214181086","distractor":"214181286","target":"absent","response":"present","rt":"3929.8000000119","correct":false,"confidence":-1},{"trial_n":74,"span":8,"encoder":"23655210","distractor":"29655210","target":"absent","response":"present","rt":"5607.7999999821","correct":false,"confidence":-1},{"trial_n":75,"span":7,"encoder":"3148483","distractor":"3148481","target":"present","response":"present","rt":"1393.599999994","correct":true,"confidence":-1},{"trial_n":76,"span":7,"encoder":"6522517","distractor":"0522517","target":"present","response":"present","rt":"2311.099999994","correct":true,"confidence":-1},{"trial_n":77,"span":8,"encoder":"60669787","distractor":"60269787","target":"absent","response":"present","rt":"1815.7999999821","correct":false,"confidence":-1},{"trial_n":78,"span":7,"encoder":"1551368","distractor":"1551328","target":"present","response":"present","rt":"1841","correct":true,"confidence":-1},{"trial_n":79,"span":7,"encoder":"4552191","distractor":"4532191","target":"absent","response":"absent","rt":"1655.5","correct":true,"confidence":-1},{"trial_n":80,"span":8,"encoder":"46941760","distractor":"46941160","target":"present","response":"absent","rt":"1492.1000000238","correct":false,"confidence":-1},{"trial_n":81,"span":7,"encoder":"9582585","distractor":"9512585","target":"absent","response":"absent","rt":"2152.599999994","correct":true,"confidence":-1},{"trial_n":82,"span":7,"encoder":"2401488","distractor":"2401458","target":"present","response":"absent","rt":"735.09999999404","correct":false,"confidence":-1},{"trial_n":83,"span":6,"encoder":"382973","distractor":"382173","target":"absent","response":"present","rt":"1830.7000000179","correct":false,"confidence":-1},{"trial_n":84,"span":5,"encoder":"67673","distractor":"67373","target":"absent","response":"present","rt":"9129.7000000179","correct":false,"confidence":-1},{"trial_n":85,"span":4,"encoder":"3447","distractor":"3487","target":"absent","response":"absent","rt":"1643","correct":true,"confidence":-1},{"trial_n":86,"span":4,"encoder":"1443","distractor":"1483","target":"present","response":"present","rt":"1090.599999994","correct":true,"confidence":-1},{"trial_n":87,"span":5,"encoder":"46955","distractor":"46953","target":"present","response":"present","rt":"1825.400000006","correct":true,"confidence":-1},{"trial_n":88,"span":5,"encoder":"86444","distractor":"46444","target":"present","response":"present","rt":"1806.900000006","correct":true,"confidence":-1},{"trial_n":89,"span":6,"encoder":"678899","distractor":"878899","target":"present","response":"present","rt":"2248.7999999821","correct":true,"confidence":-1},{"trial_n":90,"span":6,"encoder":"272287","distractor":"212287","target":"absent","response":"absent","rt":"1210.5","correct":true,"confidence":-1},{"trial_n":91,"span":7,"encoder":"6624136","distractor":"6654136","target":"absent","response":"present","rt":"795","correct":false,"confidence":1},{"trial_n":92,"span":6,"encoder":"965973","distractor":"465973","target":"present","response":"present","rt":"1891.400000006","correct":true,"confidence":1},{"trial_n":93,"span":6,"encoder":"376649","distractor":"306649","target":"absent","response":"absent","rt":"2117.7000000179","correct":true,"confidence":4},{"trial_n":94,"span":7,"encoder":"7978832","distractor":"7978812","target":"present","response":"present","rt":"2437.2999999821","correct":true,"confidence":1},{"trial_n":95,"span":7,"encoder":"2778790","distractor":"2772790","target":"present","response":"present","rt":"29056.699999988","correct":true,"confidence":1},{"trial_n":96,"span":8,"encoder":"62176325","distractor":"62177325","target":"absent","response":"present","rt":"9101","correct":false,"confidence":1},{"trial_n":97,"span":7,"encoder":"8795640","distractor":"8295640","target":"present","response":"present","rt":"8509.6000000238","correct":true,"confidence":1},{"trial_n":98,"span":7,"encoder":"2313379","distractor":"2313329","target":"present","response":"present","rt":"2083.099999994","correct":true,"confidence":3},{"trial_n":99,"span":8,"encoder":"43401473","distractor":"43401477","target":"absent","response":"absent","rt":"1114.5","correct":true,"confidence":4},{"trial_n":100,"span":8,"encoder":"79268326","distractor":"79268376","target":"absent","response":"absent","rt":"2236.5","correct":true,"confidence":4},{"trial_n":101,"span":9,"encoder":"708293160","distractor":"708299160","target":"absent","response":"absent","rt":"2067.6999999881","correct":true,"confidence":1},{"trial_n":102,"span":9,"encoder":"082353995","distractor":"082353985","target":"absent","response":"absent","rt":"2912.5","correct":true,"confidence":1},{"trial_n":103,"span":10,"encoder":"8551129027","distractor":"8551189027","target":"absent","response":"absent","rt":"4757.2000000179","correct":true,"confidence":1},{"trial_n":104,"span":10,"encoder":"6290862863","distractor":"6294862863","target":"absent","response":"absent","rt":"5314.3000000119","correct":true,"confidence":1},{"trial_n":105,"span":11,"encoder":"64650027406","distractor":"64651027406","target":"absent","response":"present","rt":"1538.099999994","correct":false,"confidence":1},{"trial_n":106,"span":10,"encoder":"3855408106","distractor":"3855408006","target":"present","response":"absent","rt":"3723","correct":false,"confidence":1},{"trial_n":107,"span":9,"encoder":"634523502","distractor":"634573502","target":"absent","response":"absent","rt":"4354.599999994","correct":true,"confidence":1},{"trial_n":108,"span":9,"encoder":"312925476","distractor":"312925456","target":"absent","response":"absent","rt":"1078","correct":true,"confidence":1},{"trial_n":109,"span":10,"encoder":"3266052947","distractor":"3266055947","target":"present","response":"present","rt":"4807.8000000119","correct":true,"confidence":1},{"trial_n":110,"span":10,"encoder":"2638822547","distractor":"2635822547","target":"absent","response":"present","rt":"1717.7000000179","correct":false,"confidence":1},{"trial_n":111,"span":9,"encoder":"396689015","distractor":"396689055","target":"absent","response":"absent","rt":"3488.8000000119","correct":true,"confidence":1},{"trial_n":112,"span":9,"encoder":"916121688","distractor":"316121688","target":"absent","response":"absent","rt":"6112.400000006","correct":true,"confidence":1},{"trial_n":113,"span":10,"encoder":"0082708056","distractor":"0072708056","target":"present","response":"present","rt":"1532.6000000238","correct":true,"confidence":1},{"trial_n":114,"span":10,"encoder":"6711057358","distractor":"6711055358","target":"present","response":"present","rt":"6726.3999999762","correct":true,"confidence":1},{"trial_n":115,"span":11,"encoder":"58105845249","distractor":"58105845299","target":"absent","response":"present","rt":"1349.5","correct":false,"confidence":1},{"trial_n":116,"span":10,"encoder":"1092171887","distractor":"1092173887","target":"absent","response":"absent","rt":"74143.5","correct":true,"confidence":1},{"trial_n":117,"span":10,"encoder":"6199868033","distractor":"6199865033","target":"absent","response":"absent","rt":"1404.2000000179","correct":true,"confidence":1},{"trial_n":118,"span":11,"encoder":"93578458384","distractor":"93578558384","target":"absent","response":"absent","rt":"2947.1999999881","correct":true,"confidence":4},{"trial_n":119,"span":11,"encoder":"56593007848","distractor":"56593077848","target":"present","response":"present","rt":"2779.8999999762","correct":true,"confidence":4},{"trial_n":120,"span":12,"encoder":"231169924221","distractor":"231169926221","target":"present","response":"present","rt":"1613.5","correct":true,"confidence":1},{"trial_n":121,"span":12,"encoder":"286652950440","distractor":"286652950400","target":"present","response":"absent","rt":"2718.1999999881","correct":false,"confidence":1},{"trial_n":122,"span":11,"encoder":"41285742989","distractor":"41280742989","target":"present","response":"absent","rt":"993","correct":false,"confidence":1},{"trial_n":123,"span":10,"encoder":"7793295866","distractor":"7793205866","target":"present","response":"absent","rt":"1687.599999994","correct":false,"confidence":1},{"trial_n":124,"span":9,"encoder":"966105093","distractor":"966115093","target":"present","response":"present","rt":"2047","correct":true,"confidence":4},{"trial_n":125,"span":9,"encoder":"931910383","distractor":"941910383","target":"present","response":"present","rt":"1306.400000006","correct":true,"confidence":1},{"trial_n":126,"span":10,"encoder":"8617833057","distractor":"8617863057","target":"present","response":"absent","rt":"6237.400000006","correct":false,"confidence":1},{"trial_n":127,"span":9,"encoder":"931847403","distractor":"930847403","target":"present","response":"present","rt":"1569.099999994","correct":true,"confidence":1},{"trial_n":128,"span":9,"encoder":"731909336","distractor":"731906336","target":"present","response":"present","rt":"2764.8000000119","correct":true,"confidence":3},{"trial_n":129,"span":10,"encoder":"7350639868","distractor":"6350639868","target":"present","response":"present","rt":"3863","correct":true,"confidence":1},{"trial_n":130,"span":10,"encoder":"5097483216","distractor":"5092483216","target":"absent","response":"absent","rt":"2084","correct":true,"confidence":3},{"trial_n":131,"span":11,"encoder":"65487455175","distractor":"64487455175","target":"present","response":"absent","rt":"1588.8000000119","correct":false,"confidence":1},{"trial_n":132,"span":10,"encoder":"9592820637","distractor":"9592820437","target":"absent","response":"present","rt":"873","correct":false,"confidence":3},{"trial_n":133,"span":9,"encoder":"940720169","distractor":"900720169","target":"present","response":"present","rt":"895.79999998212","correct":true,"confidence":1},{"trial_n":134,"span":9,"encoder":"896356745","distractor":"894356745","target":"present","response":"present","rt":"813.5","correct":true,"confidence":1},{"trial_n":135,"span":10,"encoder":"5764959000","distractor":"4764959000","target":"present","response":"present","rt":"6779.3999999762","correct":true,"confidence":3},{"trial_n":136,"span":10,"encoder":"6834673257","distractor":"6834673254","target":"absent","response":"absent","rt":"2556.400000006","correct":true,"confidence":1},{"trial_n":137,"span":11,"encoder":"75680083883","distractor":"75688083883","target":"absent","response":"absent","rt":"2043.400000006","correct":true,"confidence":3},{"trial_n":138,"span":11,"encoder":"43260725222","distractor":"43230725222","target":"absent","response":"present","rt":"1493.6999999881","correct":false,"confidence":1},{"trial_n":139,"span":10,"encoder":"5501536121","distractor":"5501536101","target":"present","response":"present","rt":"437.5","correct":true,"confidence":3},{"trial_n":140,"span":10,"encoder":"2999433419","distractor":"2979433419","target":"absent","response":"present","rt":"577.90000000596","correct":false,"confidence":3}]