[{"trial_n":1,"min":25,"max":230,"target":"present","response":"present","rt":8164,"correct":true,"confidence":-1},{"trial_n":2,"min":25,"max":230,"target":"present","response":"present","rt":386.40000000596,"correct":true,"confidence":-1},{"trial_n":3,"min":41,"max":214,"target":"absent","response":"absent","rt":157.79999999702,"correct":true,"confidence":-1},{"trial_n":4,"min":41,"max":214,"target":"absent","response":"absent","rt":272.10000000894,"correct":true,"confidence":-1},{"trial_n":5,"min":57,"max":198,"target":"present","response":"present","rt":298.10000000894,"correct":true,"confidence":-1},{"trial_n":6,"min":57,"max":198,"target":"absent","response":"absent","rt":338.09999999404,"correct":true,"confidence":-1},{"trial_n":7,"min":73,"max":182,"target":"absent","response":"absent","rt":317.79999999702,"correct":true,"confidence":-1},{"trial_n":8,"min":73,"max":182,"target":"absent","response":"absent","rt":154.20000000298,"correct":true,"confidence":-1},{"trial_n":9,"min":89,"max":166,"target":"absent","response":"absent","rt":158,"correct":true,"confidence":-1},{"trial_n":10,"min":89,"max":166,"target":"present","response":"absent","rt":211.29999999702,"correct":false,"confidence":-1},{"trial_n":11,"min":81,"max":174,"target":"present","response":"absent","rt":387.5,"correct":false,"confidence":-1},{"trial_n":12,"min":73,"max":182,"target":"absent","response":"absent","rt":1649.5,"correct":true,"confidence":-1},{"trial_n":13,"min":73,"max":182,"target":"present","response":"present","rt":740.29999999702,"correct":true,"confidence":-1},{"trial_n":14,"min":81,"max":174,"target":"present","response":"present","rt":312.70000000298,"correct":true,"confidence":-1},{"trial_n":15,"min":81,"max":174,"target":"present","response":"absent","rt":405.90000000596,"correct":false,"confidence":-1},{"trial_n":16,"min":73,"max":182,"target":"present","response":"present","rt":400,"correct":true,"confidence":-1},{"trial_n":17,"min":73,"max":182,"target":"present","response":"present","rt":392.5,"correct":true,"confidence":-1},{"trial_n":18,"min":81,"max":174,"target":"absent","response":"absent","rt":364.40000000596,"correct":true,"confidence":-1},{"trial_n":19,"min":81,"max":174,"target":"present","response":"present","rt":1108.1999999881,"correct":true,"confidence":-1},{"trial_n":20,"min":89,"max":166,"target":"present","response":"present","rt":397.30000001192,"correct":true,"confidence":-1},{"trial_n":21,"min":89,"max":166,"target":"present","response":"present","rt":1141,"correct":true,"confidence":1},{"trial_n":22,"min":93,"max":162,"target":"absent","response":"present","rt":46789.199999988,"correct":false,"confidence":3},{"trial_n":23,"min":89,"max":166,"target":"present","response":"present","rt":3534.099999994,"correct":true,"confidence":2},{"trial_n":24,"min":89,"max":166,"target":"absent","response":"present","rt":1232.400000006,"correct":false,"confidence":4},{"trial_n":25,"min":85,"max":170,"target":"present","response":"absent","rt":1357.8999999911,"correct":false,"confidence":2},{"trial_n":26,"min":81,"max":174,"target":"present","response":"present","rt":778,"correct":true,"confidence":4},{"trial_n":27,"min":81,"max":174,"target":"present","response":"present","rt":913,"correct":true,"confidence":4},{"trial_n":28,"min":85,"max":170,"target":"present","response":"absent","rt":1436.799999997,"correct":false,"confidence":1},{"trial_n":29,"min":81,"max":174,"target":"absent","response":"present","rt":796.10000000894,"correct":false,"confidence":1},{"trial_n":30,"min":77,"max":178,"target":"absent","response":"absent","rt":682.40000000596,"correct":true,"confidence":4},{"trial_n":31,"min":77,"max":178,"target":"present","response":"present","rt":858.5,"correct":true,"confidence":5},{"trial_n":32,"min":79,"max":176,"target":"present","response":"present","rt":1518.599999994,"correct":true,"confidence":3},{"trial_n":33,"min":79,"max":176,"target":"present","response":"present","rt":1238.8000000119,"correct":true,"confidence":3},{"trial_n":34,"min":81,"max":174,"target":"absent","response":"absent","rt":619.70000000298,"correct":true,"confidence":5},{"trial_n":35,"min":81,"max":174,"target":"absent","response":"absent","rt":1134.3999999911,"correct":true,"confidence":3},{"trial_n":36,"min":83,"max":172,"target":"present","response":"present","rt":1777.299999997,"correct":true,"confidence":1},{"trial_n":37,"min":83,"max":172,"target":"absent","response":"absent","rt":885.89999999106,"correct":true,"confidence":1},{"trial_n":38,"min":85,"max":170,"target":"absent","response":"absent","rt":865.89999999106,"correct":true,"confidence":1},{"trial_n":39,"min":85,"max":170,"target":"absent","response":"absent","rt":1129.200000003,"correct":true,"confidence":1},{"trial_n":40,"min":87,"max":168,"target":"present","response":"present","rt":1497.5,"correct":true,"confidence":2},{"trial_n":41,"min":87,"max":168,"target":"absent","response":"present","rt":7864.700000003,"correct":false,"confidence":1},{"trial_n":42,"min":86,"max":169,"target":"absent","response":"absent","rt":1095.200000003,"correct":true,"confidence":1},{"trial_n":43,"min":86,"max":169,"target":"absent","response":"present","rt":725.40000000596,"correct":false,"confidence":3},{"trial_n":44,"min":85,"max":170,"target":"absent","response":"present","rt":655.59999999404,"correct":false,"confidence":2},{"trial_n":45,"min":84,"max":171,"target":"present","response":"present","rt":694.5,"correct":true,"confidence":2},{"trial_n":46,"min":84,"max":171,"target":"absent","response":"absent","rt":531.90000000596,"correct":true,"confidence":5},{"trial_n":47,"min":85,"max":170,"target":"present","response":"absent","rt":742.79999999702,"correct":false,"confidence":5},{"trial_n":48,"min":84,"max":171,"target":"absent","response":"absent","rt":831.5,"correct":true,"confidence":5},{"trial_n":49,"min":84,"max":171,"target":"absent","response":"present","rt":943.39999999106,"correct":false,"confidence":1},{"trial_n":50,"min":83,"max":172,"target":"present","response":"present","rt":1046.599999994,"correct":true,"confidence":5},{"trial_n":51,"min":83,"max":172,"target":"absent","response":"present","rt":615.5,"correct":false,"confidence":1},{"trial_n":52,"min":82,"max":173,"target":"present","response":"present","rt":631.90000000596,"correct":true,"confidence":5},{"trial_n":53,"min":82,"max":173,"target":"absent","response":"present","rt":1108.299999997,"correct":false,"confidence":3},{"trial_n":54,"min":81,"max":174,"target":"absent","response":"present","rt":635.29999999702,"correct":false,"confidence":2},{"trial_n":55,"min":80,"max":175,"target":"present","response":"present","rt":714.40000000596,"correct":true,"confidence":5},{"trial_n":56,"min":80,"max":175,"target":"absent","response":"absent","rt":530.40000000596,"correct":true,"confidence":5},{"trial_n":57,"min":81,"max":174,"target":"present","response":"present","rt":745.20000000298,"correct":true,"confidence":4},{"trial_n":58,"min":81,"max":174,"target":"present","response":"present","rt":779.20000000298,"correct":true,"confidence":5},{"trial_n":59,"min":82,"max":173,"target":"absent","response":"absent","rt":635.59999999404,"correct":true,"confidence":2},{"trial_n":60,"min":82,"max":173,"target":"present","response":"present","rt":662.60000000894,"correct":true,"confidence":5},{"trial_n":61,"min":83,"max":172,"target":"absent","response":"absent","rt":663.40000000596,"correct":true,"confidence":3},{"trial_n":62,"min":83,"max":172,"target":"present","response":"present","rt":1216.299999997,"correct":true,"confidence":2},{"trial_n":63,"min":84,"max":171,"target":"absent","response":"present","rt":684.19999998808,"correct":false,"confidence":4},{"trial_n":64,"min":83,"max":172,"target":"present","response":"absent","rt":607.40000000596,"correct":false,"confidence":3},{"trial_n":65,"min":82,"max":173,"target":"present","response":"present","rt":755,"correct":true,"confidence":5},{"trial_n":66,"min":82,"max":173,"target":"absent","response":"absent","rt":546,"correct":true,"confidence":5},{"trial_n":67,"min":83,"max":172,"target":"absent","response":"present","rt":615.40000000596,"correct":false,"confidence":3},{"trial_n":68,"min":82,"max":173,"target":"present","response":"present","rt":1138.3999999911,"correct":true,"confidence":2},{"trial_n":69,"min":82,"max":173,"target":"present","response":"absent","rt":1632.599999994,"correct":false,"confidence":3},{"trial_n":70,"min":81,"max":174,"target":"absent","response":"absent","rt":720.40000000596,"correct":true,"confidence":4},{"trial_n":71,"min":41,"max":214,"target":"present","response":"present","rt":4529.200000003,"correct":true,"confidence":-1},{"trial_n":72,"min":41,"max":214,"target":"present","response":"present","rt":949,"correct":true,"confidence":-1},{"trial_n":73,"min":57,"max":198,"target":"absent","response":"absent","rt":422.70000000298,"correct":true,"confidence":-1},{"trial_n":74,"min":57,"max":198,"target":"absent","response":"absent","rt":632.20000000298,"correct":true,"confidence":-1},{"trial_n":75,"min":73,"max":182,"target":"present","response":"present","rt":164.20000000298,"correct":true,"confidence":-1},{"trial_n":76,"min":73,"max":182,"target":"absent","response":"present","rt":826.5,"correct":false,"confidence":-1},{"trial_n":77,"min":57,"max":198,"target":"present","response":"present","rt":233.40000000596,"correct":true,"confidence":-1},{"trial_n":78,"min":57,"max":198,"target":"absent","response":"absent","rt":369.5,"correct":true,"confidence":-1},{"trial_n":79,"min":73,"max":182,"target":"absent","response":"present","rt":551,"correct":false,"confidence":-1},{"trial_n":80,"min":57,"max":198,"target":"present","response":"present","rt":220,"correct":true,"confidence":-1},{"trial_n":81,"min":57,"max":198,"target":"present","response":"present","rt":162.10000000894,"correct":true,"confidence":-1},{"trial_n":82,"min":65,"max":190,"target":"present","response":"absent","rt":256.59999999404,"correct":false,"confidence":-1},{"trial_n":83,"min":57,"max":198,"target":"absent","response":"present","rt":1122.6000000089,"correct":false,"confidence":-1},{"trial_n":84,"min":49,"max":206,"target":"present","response":"present","rt":152.20000000298,"correct":true,"confidence":-1},{"trial_n":85,"min":49,"max":206,"target":"absent","response":"absent","rt":368.20000000298,"correct":true,"confidence":-1},{"trial_n":86,"min":57,"max":198,"target":"absent","response":"present","rt":282.79999999702,"correct":false,"confidence":-1},{"trial_n":87,"min":49,"max":206,"target":"absent","response":"present","rt":622,"correct":false,"confidence":-1},{"trial_n":88,"min":41,"max":214,"target":"absent","response":"absent","rt":400.10000000894,"correct":true,"confidence":-1},{"trial_n":89,"min":41,"max":214,"target":"present","response":"present","rt":277,"correct":true,"confidence":-1},{"trial_n":90,"min":49,"max":206,"target":"present","response":"present","rt":364.29999999702,"correct":true,"confidence":-1},{"trial_n":91,"min":49,"max":206,"target":"present","response":"present","rt":894.09999999404,"correct":true,"confidence":1},{"trial_n":92,"min":53,"max":202,"target":"absent","response":"absent","rt":619.29999999702,"correct":true,"confidence":5},{"trial_n":93,"min":53,"max":202,"target":"present","response":"present","rt":173.60000000894,"correct":true,"confidence":5},{"trial_n":94,"min":57,"max":198,"target":"present","response":"present","rt":573.29999999702,"correct":true,"confidence":5},{"trial_n":95,"min":57,"max":198,"target":"absent","response":"absent","rt":439.90000000596,"correct":true,"confidence":3},{"trial_n":96,"min":61,"max":194,"target":"absent","response":"present","rt":591.20000000298,"correct":false,"confidence":2},{"trial_n":97,"min":57,"max":198,"target":"absent","response":"absent","rt":456.29999999702,"correct":true,"confidence":3},{"trial_n":98,"min":57,"max":198,"target":"absent","response":"absent","rt":1261.3000000119,"correct":true,"confidence":5},{"trial_n":99,"min":61,"max":194,"target":"absent","response":"absent","rt":1047.200000003,"correct":true,"confidence":5},{"trial_n":100,"min":61,"max":194,"target":"absent","response":"absent","rt":534.20000000298,"correct":true,"confidence":4},{"trial_n":101,"min":63,"max":192,"target":"present","response":"present","rt":118.89999999106,"correct":true,"confidence":1},{"trial_n":102,"min":63,"max":192,"target":"absent","response":"absent","rt":500.59999999404,"correct":true,"confidence":4},{"trial_n":103,"min":65,"max":190,"target":"present","response":"present","rt":327.79999999702,"correct":true,"confidence":5},{"trial_n":104,"min":65,"max":190,"target":"present","response":"present","rt":1569.200000003,"correct":true,"confidence":3},{"trial_n":105,"min":67,"max":188,"target":"absent","response":"absent","rt":490.5,"correct":true,"confidence":3},{"trial_n":106,"min":67,"max":188,"target":"present","response":"present","rt":369.39999999106,"correct":true,"confidence":5},{"trial_n":107,"min":69,"max":186,"target":"present","response":"present","rt":439.09999999404,"correct":true,"confidence":5},{"trial_n":108,"min":69,"max":186,"target":"present","response":"present","rt":349.70000000298,"correct":true,"confidence":5},{"trial_n":109,"min":71,"max":184,"target":"absent","response":"absent","rt":1316.6000000089,"correct":true,"confidence":4},{"trial_n":110,"min":71,"max":184,"target":"absent","response":"absent","rt":539.30000001192,"correct":true,"confidence":2},{"trial_n":111,"min":72,"max":183,"target":"present","response":"present","rt":375.90000000596,"correct":true,"confidence":5},{"trial_n":112,"min":72,"max":183,"target":"present","response":"present","rt":606.29999999702,"correct":true,"confidence":5},{"trial_n":113,"min":73,"max":182,"target":"present","response":"present","rt":477.70000000298,"correct":true,"confidence":5},{"trial_n":114,"min":73,"max":182,"target":"absent","response":"absent","rt":821,"correct":true,"confidence":5},{"trial_n":115,"min":74,"max":181,"target":"present","response":"present","rt":508,"correct":true,"confidence":5},{"trial_n":116,"min":74,"max":181,"target":"present","response":"present","rt":362,"correct":true,"confidence":5},{"trial_n":117,"min":75,"max":180,"target":"present","response":"present","rt":395.39999999106,"correct":true,"confidence":5},{"trial_n":118,"min":75,"max":180,"target":"absent","response":"absent","rt":1021.900000006,"correct":true,"confidence":2},{"trial_n":119,"min":76,"max":179,"target":"absent","response":"absent","rt":923.19999998808,"correct":true,"confidence":2},{"trial_n":120,"min":76,"max":179,"target":"absent","response":"present","rt":540.79999999702,"correct":false,"confidence":1},{"trial_n":121,"min":75,"max":180,"target":"absent","response":"present","rt":907.5,"correct":false,"confidence":1},{"trial_n":122,"min":74,"max":181,"target":"absent","response":"absent","rt":574.5,"correct":true,"confidence":1},{"trial_n":123,"min":74,"max":181,"target":"absent","response":"absent","rt":588.89999999106,"correct":true,"confidence":1},{"trial_n":124,"min":75,"max":180,"target":"absent","response":"absent","rt":490.09999999404,"correct":true,"confidence":1},{"trial_n":125,"min":75,"max":180,"target":"present","response":"present","rt":568.09999999404,"correct":true,"confidence":1},{"trial_n":126,"min":76,"max":179,"target":"present","response":"absent","rt":363.40000000596,"correct":false,"confidence":4},{"trial_n":127,"min":75,"max":180,"target":"present","response":"present","rt":653.5,"correct":true,"confidence":3},{"trial_n":128,"min":75,"max":180,"target":"present","response":"present","rt":766,"correct":true,"confidence":5},{"trial_n":129,"min":76,"max":179,"target":"absent","response":"absent","rt":956.70000000298,"correct":true,"confidence":3},{"trial_n":130,"min":76,"max":179,"target":"present","response":"present","rt":729.79999999702,"correct":true,"confidence":2},{"trial_n":131,"min":77,"max":178,"target":"absent","response":"present","rt":1234.3999999911,"correct":false,"confidence":1},{"trial_n":132,"min":76,"max":179,"target":"present","response":"present","rt":303.20000000298,"correct":true,"confidence":4},{"trial_n":133,"min":76,"max":179,"target":"present","response":"present","rt":316.39999999106,"correct":true,"confidence":2},{"trial_n":134,"min":77,"max":178,"target":"absent","response":"absent","rt":512.70000000298,"correct":true,"confidence":1},{"trial_n":135,"min":77,"max":178,"target":"present","response":"present","rt":346.90000000596,"correct":true,"confidence":4},{"trial_n":136,"min":78,"max":177,"target":"present","response":"present","rt":308.30000001192,"correct":true,"confidence":3},{"trial_n":137,"min":78,"max":177,"target":"absent","response":"absent","rt":493.60000000894,"correct":true,"confidence":3},{"trial_n":138,"min":79,"max":176,"target":"absent","response":"present","rt":429.70000000298,"correct":false,"confidence":3},{"trial_n":139,"min":78,"max":177,"target":"present","response":"present","rt":221.60000000894,"correct":true,"confidence":1},{"trial_n":140,"min":78,"max":177,"target":"present","response":"present","rt":234,"correct":true,"confidence":1}]