[{"trial_n":1,"min":25,"max":230,"target":"present","response":"present","rt":4221,"correct":true,"confidence":-1},{"trial_n":2,"min":25,"max":230,"target":"present","response":"absent","rt":1895.6000000238,"correct":false,"confidence":-1},{"trial_n":3,"min":9,"max":246,"target":"absent","response":"present","rt":371.89999997616,"correct":false,"confidence":-1},{"trial_n":4,"min":0,"max":255,"target":"absent","response":"absent","rt":109.69999998808,"correct":true,"confidence":-1},{"trial_n":5,"min":0,"max":255,"target":"present","response":"absent","rt":96.5,"correct":false,"confidence":-1},{"trial_n":6,"min":0,"max":255,"target":"present","response":"present","rt":359.40000003576,"correct":true,"confidence":-1},{"trial_n":7,"min":0,"max":255,"target":"present","response":"present","rt":94.699999988079,"correct":true,"confidence":-1},{"trial_n":8,"min":16,"max":239,"target":"present","response":"present","rt":493.70000004768,"correct":true,"confidence":-1},{"trial_n":9,"min":16,"max":239,"target":"absent","response":"absent","rt":374.69999998808,"correct":true,"confidence":-1},{"trial_n":10,"min":32,"max":223,"target":"absent","response":"absent","rt":367.30000001192,"correct":true,"confidence":-1},{"trial_n":11,"min":32,"max":223,"target":"absent","response":"absent","rt":162.10000002384,"correct":true,"confidence":-1},{"trial_n":12,"min":40,"max":215,"target":"present","response":"present","rt":579.39999997616,"correct":true,"confidence":-1},{"trial_n":13,"min":40,"max":215,"target":"absent","response":"absent","rt":312.39999997616,"correct":true,"confidence":-1},{"trial_n":14,"min":48,"max":207,"target":"absent","response":"absent","rt":361.89999997616,"correct":true,"confidence":-1},{"trial_n":15,"min":48,"max":207,"target":"present","response":"present","rt":169.69999998808,"correct":true,"confidence":-1},{"trial_n":16,"min":56,"max":199,"target":"absent","response":"absent","rt":366.70000004768,"correct":true,"confidence":-1},{"trial_n":17,"min":56,"max":199,"target":"present","response":"present","rt":627.80000001192,"correct":true,"confidence":-1},{"trial_n":18,"min":64,"max":191,"target":"present","response":"present","rt":417.90000003576,"correct":true,"confidence":-1},{"trial_n":19,"min":64,"max":191,"target":"absent","response":"absent","rt":530.19999998808,"correct":true,"confidence":-1},{"trial_n":20,"min":72,"max":183,"target":"absent","response":"present","rt":113.79999995232,"correct":false,"confidence":-1},{"trial_n":21,"min":68,"max":187,"target":"present","response":"absent","rt":521.60000002384,"correct":false,"confidence":3},{"trial_n":22,"min":64,"max":191,"target":"absent","response":"absent","rt":1155.7000000477,"correct":true,"confidence":4},{"trial_n":23,"min":64,"max":191,"target":"absent","response":"absent","rt":4826.8000000119,"correct":true,"confidence":1},{"trial_n":24,"min":68,"max":187,"target":"absent","response":"absent","rt":893.59999996424,"correct":true,"confidence":4},{"trial_n":25,"min":68,"max":187,"target":"absent","response":"absent","rt":700.39999997616,"correct":true,"confidence":5},{"trial_n":26,"min":72,"max":183,"target":"absent","response":"present","rt":4476.6000000238,"correct":false,"confidence":3},{"trial_n":27,"min":68,"max":187,"target":"absent","response":"absent","rt":1751.1999999881,"correct":true,"confidence":3},{"trial_n":28,"min":68,"max":187,"target":"absent","response":"absent","rt":1819.0999999642,"correct":true,"confidence":3},{"trial_n":29,"min":72,"max":183,"target":"present","response":"absent","rt":34488.199999988,"correct":false,"confidence":3},{"trial_n":30,"min":68,"max":187,"target":"absent","response":"absent","rt":978.5,"correct":true,"confidence":3},{"trial_n":31,"min":68,"max":187,"target":"present","response":"absent","rt":513.80000001192,"correct":false,"confidence":2},{"trial_n":32,"min":66,"max":189,"target":"present","response":"absent","rt":110.59999996424,"correct":false,"confidence":3},{"trial_n":33,"min":64,"max":191,"target":"present","response":"present","rt":1264.1999999881,"correct":true,"confidence":2},{"trial_n":34,"min":64,"max":191,"target":"absent","response":"absent","rt":382.39999997616,"correct":true,"confidence":3},{"trial_n":35,"min":66,"max":189,"target":"absent","response":"present","rt":864.60000002384,"correct":false,"confidence":3},{"trial_n":36,"min":64,"max":191,"target":"absent","response":"present","rt":1812.7999999523,"correct":false,"confidence":3},{"trial_n":37,"min":62,"max":193,"target":"absent","response":"absent","rt":274,"correct":true,"confidence":3},{"trial_n":38,"min":62,"max":193,"target":"absent","response":"present","rt":609,"correct":false,"confidence":2},{"trial_n":39,"min":60,"max":195,"target":"present","response":"present","rt":865.30000001192,"correct":true,"confidence":4},{"trial_n":40,"min":60,"max":195,"target":"present","response":"absent","rt":731,"correct":false,"confidence":2},{"trial_n":41,"min":59,"max":196,"target":"present","response":"absent","rt":793.5,"correct":false,"confidence":2},{"trial_n":42,"min":58,"max":197,"target":"present","response":"absent","rt":963.40000003576,"correct":false,"confidence":3},{"trial_n":43,"min":57,"max":198,"target":"present","response":"present","rt":592.79999995232,"correct":true,"confidence":4},{"trial_n":44,"min":57,"max":198,"target":"present","response":"absent","rt":3061.1999999881,"correct":false,"confidence":2},{"trial_n":45,"min":56,"max":199,"target":"present","response":"absent","rt":491.79999995232,"correct":false,"confidence":4},{"trial_n":46,"min":55,"max":200,"target":"absent","response":"absent","rt":381.20000004768,"correct":true,"confidence":3},{"trial_n":47,"min":55,"max":200,"target":"present","response":"present","rt":507.30000001192,"correct":true,"confidence":4},{"trial_n":48,"min":56,"max":199,"target":"absent","response":"absent","rt":504.70000004768,"correct":true,"confidence":3},{"trial_n":49,"min":56,"max":199,"target":"absent","response":"absent","rt":349.39999997616,"correct":true,"confidence":4},{"trial_n":50,"min":57,"max":198,"target":"present","response":"absent","rt":504.59999996424,"correct":false,"confidence":3},{"trial_n":51,"min":56,"max":199,"target":"present","response":"absent","rt":640.10000002384,"correct":false,"confidence":3},{"trial_n":52,"min":55,"max":200,"target":"present","response":"absent","rt":479.30000001192,"correct":false,"confidence":4},{"trial_n":53,"min":54,"max":201,"target":"absent","response":"absent","rt":443.10000002384,"correct":true,"confidence":3},{"trial_n":54,"min":54,"max":201,"target":"absent","response":"absent","rt":439.30000001192,"correct":true,"confidence":4},{"trial_n":55,"min":55,"max":200,"target":"present","response":"present","rt":596.30000001192,"correct":true,"confidence":3},{"trial_n":56,"min":55,"max":200,"target":"present","response":"absent","rt":678.39999997616,"correct":false,"confidence":4},{"trial_n":57,"min":54,"max":201,"target":"absent","response":"absent","rt":534.39999997616,"correct":true,"confidence":4},{"trial_n":58,"min":54,"max":201,"target":"absent","response":"absent","rt":1198.3000000119,"correct":true,"confidence":3},{"trial_n":59,"min":55,"max":200,"target":"present","response":"present","rt":1010.3999999762,"correct":true,"confidence":4},{"trial_n":60,"min":55,"max":200,"target":"present","response":"present","rt":568.30000001192,"correct":true,"confidence":4},{"trial_n":61,"min":56,"max":199,"target":"absent","response":"absent","rt":362.69999998808,"correct":true,"confidence":3},{"trial_n":62,"min":56,"max":199,"target":"present","response":"absent","rt":522.09999996424,"correct":false,"confidence":4},{"trial_n":63,"min":55,"max":200,"target":"absent","response":"absent","rt":338.5,"correct":true,"confidence":3},{"trial_n":64,"min":55,"max":200,"target":"present","response":"absent","rt":417.5,"correct":false,"confidence":4},{"trial_n":65,"min":54,"max":201,"target":"present","response":"absent","rt":332.39999997616,"correct":false,"confidence":3},{"trial_n":66,"min":53,"max":202,"target":"present","response":"present","rt":823,"correct":true,"confidence":4},{"trial_n":67,"min":53,"max":202,"target":"present","response":"absent","rt":432.10000002384,"correct":false,"confidence":3},{"trial_n":68,"min":52,"max":203,"target":"absent","response":"absent","rt":346.30000001192,"correct":true,"confidence":3},{"trial_n":69,"min":52,"max":203,"target":"present","response":"present","rt":551.19999998808,"correct":true,"confidence":4},{"trial_n":70,"min":53,"max":202,"target":"absent","response":"absent","rt":657.5,"correct":true,"confidence":3},{"trial_n":71,"min":41,"max":214,"target":"present","response":"present","rt":3469.8999999762,"correct":true,"confidence":-1},{"trial_n":72,"min":41,"max":214,"target":"present","response":"absent","rt":59.800000011921,"correct":false,"confidence":-1},{"trial_n":73,"min":25,"max":230,"target":"absent","response":"absent","rt":269,"correct":true,"confidence":-1},{"trial_n":74,"min":25,"max":230,"target":"absent","response":"present","rt":240.40000003576,"correct":false,"confidence":-1},{"trial_n":75,"min":9,"max":246,"target":"present","response":"absent","rt":55.100000023842,"correct":false,"confidence":-1},{"trial_n":76,"min":0,"max":255,"target":"absent","response":"present","rt":355.40000003576,"correct":false,"confidence":-1},{"trial_n":77,"min":0,"max":255,"target":"absent","response":"absent","rt":281,"correct":true,"confidence":-1},{"trial_n":78,"min":0,"max":255,"target":"present","response":"absent","rt":1910.7999999523,"correct":false,"confidence":-1},{"trial_n":79,"min":0,"max":255,"target":"present","response":"absent","rt":589.80000001192,"correct":false,"confidence":-1},{"trial_n":80,"min":0,"max":255,"target":"present","response":"present","rt":88.799999952316,"correct":true,"confidence":-1},{"trial_n":81,"min":0,"max":255,"target":"present","response":"absent","rt":64.899999976158,"correct":false,"confidence":-1},{"trial_n":82,"min":0,"max":255,"target":"present","response":"present","rt":77,"correct":true,"confidence":-1},{"trial_n":83,"min":0,"max":255,"target":"absent","response":"present","rt":44.099999964237,"correct":false,"confidence":-1},{"trial_n":84,"min":0,"max":255,"target":"present","response":"present","rt":188.5,"correct":true,"confidence":-1},{"trial_n":85,"min":0,"max":255,"target":"absent","response":"absent","rt":122.5,"correct":true,"confidence":-1},{"trial_n":86,"min":8,"max":247,"target":"absent","response":"present","rt":19.900000035763,"correct":false,"confidence":-1},{"trial_n":87,"min":0,"max":255,"target":"absent","response":"absent","rt":307.40000003576,"correct":true,"confidence":-1},{"trial_n":88,"min":0,"max":255,"target":"absent","response":"absent","rt":148.80000001192,"correct":true,"confidence":-1},{"trial_n":89,"min":8,"max":247,"target":"absent","response":"absent","rt":146.70000004768,"correct":true,"confidence":-1},{"trial_n":90,"min":8,"max":247,"target":"present","response":"absent","rt":66.600000023842,"correct":false,"confidence":-1},{"trial_n":91,"min":4,"max":251,"target":"present","response":"present","rt":52.300000011921,"correct":true,"confidence":3},{"trial_n":92,"min":4,"max":251,"target":"absent","response":"absent","rt":458.79999995232,"correct":true,"confidence":3},{"trial_n":93,"min":8,"max":247,"target":"absent","response":"present","rt":1265.2000000477,"correct":false,"confidence":3},{"trial_n":94,"min":4,"max":251,"target":"present","response":"present","rt":238.80000001192,"correct":true,"confidence":3},{"trial_n":95,"min":4,"max":251,"target":"present","response":"absent","rt":635.40000003576,"correct":false,"confidence":3},{"trial_n":96,"min":0,"max":255,"target":"absent","response":"present","rt":655.39999997616,"correct":false,"confidence":1},{"trial_n":97,"min":0,"max":255,"target":"present","response":"present","rt":3587.5,"correct":true,"confidence":3},{"trial_n":98,"min":0,"max":255,"target":"absent","response":"present","rt":2071,"correct":false,"confidence":3},{"trial_n":99,"min":0,"max":255,"target":"present","response":"present","rt":1255.6000000238,"correct":true,"confidence":3},{"trial_n":100,"min":0,"max":255,"target":"absent","response":"present","rt":577.5,"correct":false,"confidence":3},{"trial_n":101,"min":0,"max":255,"target":"absent","response":"absent","rt":33.399999976158,"correct":true,"confidence":3},{"trial_n":102,"min":0,"max":255,"target":"absent","response":"present","rt":160.19999998808,"correct":false,"confidence":3},{"trial_n":103,"min":0,"max":255,"target":"present","response":"present","rt":48.800000011921,"correct":true,"confidence":3},{"trial_n":104,"min":0,"max":255,"target":"absent","response":"absent","rt":282,"correct":true,"confidence":1},{"trial_n":105,"min":2,"max":253,"target":"absent","response":"absent","rt":907.70000004768,"correct":true,"confidence":3},{"trial_n":106,"min":2,"max":253,"target":"absent","response":"present","rt":442.10000002384,"correct":false,"confidence":3},{"trial_n":107,"min":0,"max":255,"target":"absent","response":"absent","rt":7.4000000357628,"correct":true,"confidence":4},{"trial_n":108,"min":0,"max":255,"target":"present","response":"present","rt":186.59999996424,"correct":true,"confidence":3},{"trial_n":109,"min":2,"max":253,"target":"present","response":"absent","rt":53.400000035763,"correct":false,"confidence":3},{"trial_n":110,"min":0,"max":255,"target":"absent","response":"present","rt":395.39999997616,"correct":false,"confidence":3},{"trial_n":111,"min":0,"max":255,"target":"present","response":"absent","rt":87.699999988079,"correct":false,"confidence":3},{"trial_n":112,"min":0,"max":255,"target":"present","response":"present","rt":118.59999996424,"correct":true,"confidence":2},{"trial_n":113,"min":0,"max":255,"target":"present","response":"absent","rt":10.699999988079,"correct":false,"confidence":3},{"trial_n":114,"min":0,"max":255,"target":"absent","response":"present","rt":9.0999999642372,"correct":false,"confidence":2},{"trial_n":115,"min":0,"max":255,"target":"present","response":"absent","rt":117,"correct":false,"confidence":3},{"trial_n":116,"min":0,"max":255,"target":"present","response":"absent","rt":645,"correct":false,"confidence":3},{"trial_n":117,"min":0,"max":255,"target":"present","response":"present","rt":209.59999996424,"correct":true,"confidence":3},{"trial_n":118,"min":0,"max":255,"target":"present","response":"absent","rt":84.900000035763,"correct":false,"confidence":2},{"trial_n":119,"min":0,"max":255,"target":"absent","response":"present","rt":53.200000047684,"correct":false,"confidence":2},{"trial_n":120,"min":0,"max":255,"target":"present","response":"absent","rt":78.5,"correct":false,"confidence":2},{"trial_n":121,"min":0,"max":255,"target":"present","response":"absent","rt":131.90000003576,"correct":false,"confidence":3},{"trial_n":122,"min":0,"max":255,"target":"absent","response":"present","rt":153.69999998808,"correct":false,"confidence":2},{"trial_n":123,"min":0,"max":255,"target":"absent","response":"absent","rt":21.900000035763,"correct":true,"confidence":2},{"trial_n":124,"min":0,"max":255,"target":"absent","response":"absent","rt":176.5,"correct":true,"confidence":3},{"trial_n":125,"min":1,"max":254,"target":"absent","response":"present","rt":857,"correct":false,"confidence":2},{"trial_n":126,"min":0,"max":255,"target":"present","response":"absent","rt":992.80000001192,"correct":false,"confidence":4},{"trial_n":127,"min":0,"max":255,"target":"absent","response":"present","rt":186.19999998808,"correct":false,"confidence":2},{"trial_n":128,"min":0,"max":255,"target":"present","response":"absent","rt":81.699999988079,"correct":false,"confidence":3},{"trial_n":129,"min":0,"max":255,"target":"present","response":"absent","rt":776.69999998808,"correct":false,"confidence":2},{"trial_n":130,"min":0,"max":255,"target":"present","response":"present","rt":155.30000001192,"correct":true,"confidence":3},{"trial_n":131,"min":0,"max":255,"target":"absent","response":"present","rt":125.5,"correct":false,"confidence":2},{"trial_n":132,"min":0,"max":255,"target":"present","response":"absent","rt":586.80000001192,"correct":false,"confidence":3},{"trial_n":133,"min":0,"max":255,"target":"present","response":"present","rt":201.09999996424,"correct":true,"confidence":2},{"trial_n":134,"min":0,"max":255,"target":"present","response":"absent","rt":199,"correct":false,"confidence":3},{"trial_n":135,"min":0,"max":255,"target":"present","response":"present","rt":211.10000002384,"correct":true,"confidence":2},{"trial_n":136,"min":0,"max":255,"target":"present","response":"absent","rt":106.69999998808,"correct":false,"confidence":2},{"trial_n":137,"min":0,"max":255,"target":"absent","response":"present","rt":8.6000000238419,"correct":false,"confidence":4},{"trial_n":138,"min":0,"max":255,"target":"absent","response":"absent","rt":152.30000001192,"correct":true,"confidence":2},{"trial_n":139,"min":0,"max":255,"target":"absent","response":"absent","rt":850.19999998808,"correct":true,"confidence":4},{"trial_n":140,"min":1,"max":254,"target":"absent","response":"absent","rt":239.79999995232,"correct":true,"confidence":2}]