[{"trial_n":1,"min":25,"max":230,"target":"present","response":"absent","rt":5603.5,"correct":false,"confidence":-1},{"trial_n":2,"min":25,"max":230,"target":"present","response":"present","rt":1219.8999999985,"correct":true,"confidence":-1},{"trial_n":3,"min":25,"max":230,"target":"absent","response":"absent","rt":1106.3999999985,"correct":true,"confidence":-1},{"trial_n":4,"min":41,"max":214,"target":"absent","response":"present","rt":711.59999999776,"correct":false,"confidence":-1},{"trial_n":5,"min":25,"max":230,"target":"present","response":"absent","rt":248.89999999851,"correct":false,"confidence":-1},{"trial_n":6,"min":9,"max":246,"target":"absent","response":"absent","rt":337.80000000075,"correct":true,"confidence":-1},{"trial_n":7,"min":9,"max":246,"target":"absent","response":"present","rt":256.60000000149,"correct":false,"confidence":-1},{"trial_n":8,"min":0,"max":255,"target":"present","response":"present","rt":1010,"correct":true,"confidence":-1},{"trial_n":9,"min":0,"max":255,"target":"absent","response":"absent","rt":423.30000000075,"correct":true,"confidence":-1},{"trial_n":10,"min":16,"max":239,"target":"absent","response":"absent","rt":385.39999999851,"correct":true,"confidence":-1},{"trial_n":11,"min":16,"max":239,"target":"present","response":"present","rt":344.90000000224,"correct":true,"confidence":-1},{"trial_n":12,"min":24,"max":231,"target":"absent","response":"absent","rt":313.09999999776,"correct":true,"confidence":-1},{"trial_n":13,"min":24,"max":231,"target":"present","response":"present","rt":216.39999999851,"correct":true,"confidence":-1},{"trial_n":14,"min":32,"max":223,"target":"present","response":"present","rt":294.69999999925,"correct":true,"confidence":-1},{"trial_n":15,"min":32,"max":223,"target":"absent","response":"absent","rt":386.60000000149,"correct":true,"confidence":-1},{"trial_n":16,"min":40,"max":215,"target":"absent","response":"absent","rt":500.80000000075,"correct":true,"confidence":-1},{"trial_n":17,"min":40,"max":215,"target":"absent","response":"absent","rt":314.69999999925,"correct":true,"confidence":-1},{"trial_n":18,"min":48,"max":207,"target":"absent","response":"absent","rt":92.5,"correct":true,"confidence":-1},{"trial_n":19,"min":48,"max":207,"target":"absent","response":"absent","rt":87.5,"correct":true,"confidence":-1},{"trial_n":20,"min":56,"max":199,"target":"present","response":"absent","rt":98.900000002235,"correct":false,"confidence":-1},{"trial_n":21,"min":52,"max":203,"target":"present","response":"present","rt":363.5,"correct":true,"confidence":1},{"trial_n":22,"min":52,"max":203,"target":"absent","response":"absent","rt":634.60000000149,"correct":true,"confidence":4},{"trial_n":23,"min":56,"max":199,"target":"absent","response":"absent","rt":659.60000000149,"correct":true,"confidence":3},{"trial_n":24,"min":56,"max":199,"target":"present","response":"present","rt":774.10000000149,"correct":true,"confidence":3},{"trial_n":25,"min":60,"max":195,"target":"present","response":"present","rt":1373.6999999993,"correct":true,"confidence":3},{"trial_n":26,"min":60,"max":195,"target":"present","response":"absent","rt":455.09999999776,"correct":false,"confidence":1},{"trial_n":27,"min":56,"max":199,"target":"present","response":"present","rt":492.19999999925,"correct":true,"confidence":5},{"trial_n":28,"min":56,"max":199,"target":"absent","response":"absent","rt":373.59999999776,"correct":true,"confidence":3},{"trial_n":29,"min":60,"max":195,"target":"absent","response":"present","rt":424.60000000149,"correct":false,"confidence":1},{"trial_n":30,"min":56,"max":199,"target":"absent","response":"absent","rt":998.69999999925,"correct":true,"confidence":2},{"trial_n":31,"min":56,"max":199,"target":"absent","response":"present","rt":1134.8000000007,"correct":false,"confidence":3},{"trial_n":32,"min":54,"max":201,"target":"present","response":"present","rt":553.60000000149,"correct":true,"confidence":5},{"trial_n":33,"min":54,"max":201,"target":"present","response":"present","rt":514.10000000149,"correct":true,"confidence":5},{"trial_n":34,"min":56,"max":199,"target":"absent","response":"absent","rt":517.5,"correct":true,"confidence":3},{"trial_n":35,"min":56,"max":199,"target":"absent","response":"absent","rt":615.79999999702,"correct":true,"confidence":2},{"trial_n":36,"min":58,"max":197,"target":"absent","response":"absent","rt":403,"correct":true,"confidence":4},{"trial_n":37,"min":58,"max":197,"target":"absent","response":"present","rt":880.09999999776,"correct":false,"confidence":3},{"trial_n":38,"min":56,"max":199,"target":"present","response":"absent","rt":877.89999999851,"correct":false,"confidence":2},{"trial_n":39,"min":54,"max":201,"target":"present","response":"present","rt":787.30000000075,"correct":true,"confidence":5},{"trial_n":40,"min":54,"max":201,"target":"absent","response":"absent","rt":823.90000000224,"correct":true,"confidence":2},{"trial_n":41,"min":55,"max":200,"target":"present","response":"present","rt":384.69999999925,"correct":true,"confidence":1},{"trial_n":42,"min":55,"max":200,"target":"present","response":"absent","rt":1039.3999999985,"correct":false,"confidence":4},{"trial_n":43,"min":54,"max":201,"target":"present","response":"present","rt":1315.3999999985,"correct":true,"confidence":5},{"trial_n":44,"min":54,"max":201,"target":"absent","response":"absent","rt":453,"correct":true,"confidence":3},{"trial_n":45,"min":55,"max":200,"target":"present","response":"present","rt":305.90000000224,"correct":true,"confidence":5},{"trial_n":46,"min":55,"max":200,"target":"present","response":"present","rt":391,"correct":true,"confidence":5},{"trial_n":47,"min":56,"max":199,"target":"absent","response":"absent","rt":340.10000000149,"correct":true,"confidence":3},{"trial_n":48,"min":56,"max":199,"target":"present","response":"present","rt":386.40000000224,"correct":true,"confidence":4},{"trial_n":49,"min":57,"max":198,"target":"present","response":"present","rt":302.5,"correct":true,"confidence":4},{"trial_n":50,"min":57,"max":198,"target":"present","response":"present","rt":437.59999999776,"correct":true,"confidence":4},{"trial_n":51,"min":58,"max":197,"target":"present","response":"present","rt":1772.6000000015,"correct":true,"confidence":2},{"trial_n":52,"min":58,"max":197,"target":"present","response":"present","rt":1121.0999999978,"correct":true,"confidence":3},{"trial_n":53,"min":59,"max":196,"target":"present","response":"absent","rt":458.80000000075,"correct":false,"confidence":1},{"trial_n":54,"min":58,"max":197,"target":"absent","response":"absent","rt":699.5,"correct":true,"confidence":4},{"trial_n":55,"min":58,"max":197,"target":"absent","response":"absent","rt":356.20000000298,"correct":true,"confidence":4},{"trial_n":56,"min":59,"max":196,"target":"present","response":"present","rt":233.30000000075,"correct":true,"confidence":5},{"trial_n":57,"min":59,"max":196,"target":"absent","response":"absent","rt":1097.1000000015,"correct":true,"confidence":4},{"trial_n":58,"min":60,"max":195,"target":"present","response":"present","rt":231.19999999925,"correct":true,"confidence":5},{"trial_n":59,"min":60,"max":195,"target":"absent","response":"absent","rt":513.29999999702,"correct":true,"confidence":5},{"trial_n":60,"min":61,"max":194,"target":"absent","response":"absent","rt":531.80000000075,"correct":true,"confidence":4},{"trial_n":61,"min":61,"max":194,"target":"absent","response":"absent","rt":449.19999999925,"correct":true,"confidence":3},{"trial_n":62,"min":62,"max":193,"target":"absent","response":"absent","rt":596,"correct":true,"confidence":4},{"trial_n":63,"min":62,"max":193,"target":"present","response":"present","rt":339.80000000075,"correct":true,"confidence":5},{"trial_n":64,"min":63,"max":192,"target":"present","response":"present","rt":547.5,"correct":true,"confidence":4},{"trial_n":65,"min":63,"max":192,"target":"absent","response":"absent","rt":383,"correct":true,"confidence":4},{"trial_n":66,"min":64,"max":191,"target":"absent","response":"absent","rt":619.5,"correct":true,"confidence":3},{"trial_n":67,"min":64,"max":191,"target":"present","response":"present","rt":192.80000000075,"correct":true,"confidence":5},{"trial_n":68,"min":65,"max":190,"target":"present","response":"present","rt":315.40000000224,"correct":true,"confidence":3},{"trial_n":69,"min":65,"max":190,"target":"present","response":"present","rt":543.80000000075,"correct":true,"confidence":4},{"trial_n":70,"min":66,"max":189,"target":"present","response":"present","rt":417.19999999925,"correct":true,"confidence":3},{"trial_n":71,"min":41,"max":214,"target":"present","response":"present","rt":3698.1999999993,"correct":true,"confidence":-1},{"trial_n":72,"min":41,"max":214,"target":"present","response":"absent","rt":705.5,"correct":false,"confidence":-1},{"trial_n":73,"min":25,"max":230,"target":"absent","response":"absent","rt":289.80000000075,"correct":true,"confidence":-1},{"trial_n":74,"min":25,"max":230,"target":"absent","response":"absent","rt":293.60000000149,"correct":true,"confidence":-1},{"trial_n":75,"min":41,"max":214,"target":"present","response":"present","rt":778.40000000224,"correct":true,"confidence":-1},{"trial_n":76,"min":41,"max":214,"target":"absent","response":"absent","rt":297,"correct":true,"confidence":-1},{"trial_n":77,"min":57,"max":198,"target":"present","response":"present","rt":359.40000000224,"correct":true,"confidence":-1},{"trial_n":78,"min":57,"max":198,"target":"absent","response":"absent","rt":121.80000000075,"correct":true,"confidence":-1},{"trial_n":79,"min":73,"max":182,"target":"absent","response":"absent","rt":344.59999999776,"correct":true,"confidence":-1},{"trial_n":80,"min":73,"max":182,"target":"present","response":"present","rt":290.09999999776,"correct":true,"confidence":-1},{"trial_n":81,"min":81,"max":174,"target":"absent","response":"absent","rt":549.09999999776,"correct":true,"confidence":-1},{"trial_n":82,"min":81,"max":174,"target":"present","response":"present","rt":425.69999999925,"correct":true,"confidence":-1},{"trial_n":83,"min":89,"max":166,"target":"present","response":"present","rt":646.70000000298,"correct":true,"confidence":-1},{"trial_n":84,"min":89,"max":166,"target":"present","response":"absent","rt":374.69999999925,"correct":false,"confidence":-1},{"trial_n":85,"min":81,"max":174,"target":"present","response":"present","rt":432.80000000075,"correct":true,"confidence":-1},{"trial_n":86,"min":81,"max":174,"target":"absent","response":"present","rt":545.90000000224,"correct":false,"confidence":-1},{"trial_n":87,"min":73,"max":182,"target":"present","response":"present","rt":458.80000000075,"correct":true,"confidence":-1},{"trial_n":88,"min":73,"max":182,"target":"present","response":"absent","rt":328.59999999776,"correct":false,"confidence":-1},{"trial_n":89,"min":65,"max":190,"target":"absent","response":"present","rt":513.40000000224,"correct":false,"confidence":-1},{"trial_n":90,"min":57,"max":198,"target":"present","response":"present","rt":451.5,"correct":true,"confidence":-1},{"trial_n":91,"min":57,"max":198,"target":"absent","response":"absent","rt":643.69999999925,"correct":true,"confidence":3},{"trial_n":92,"min":61,"max":194,"target":"present","response":"present","rt":561.40000000224,"correct":true,"confidence":4},{"trial_n":93,"min":61,"max":194,"target":"present","response":"present","rt":515.5,"correct":true,"confidence":5},{"trial_n":94,"min":65,"max":190,"target":"absent","response":"absent","rt":328.80000000075,"correct":true,"confidence":5},{"trial_n":95,"min":65,"max":190,"target":"absent","response":"absent","rt":394.90000000224,"correct":true,"confidence":4},{"trial_n":96,"min":69,"max":186,"target":"present","response":"present","rt":450.40000000224,"correct":true,"confidence":5},{"trial_n":97,"min":69,"max":186,"target":"present","response":"present","rt":786.19999999925,"correct":true,"confidence":3},{"trial_n":98,"min":73,"max":182,"target":"absent","response":"absent","rt":382.39999999851,"correct":true,"confidence":4},{"trial_n":99,"min":73,"max":182,"target":"present","response":"present","rt":626.09999999776,"correct":true,"confidence":3},{"trial_n":100,"min":77,"max":178,"target":"absent","response":"absent","rt":557.80000000075,"correct":true,"confidence":2},{"trial_n":101,"min":77,"max":178,"target":"present","response":"present","rt":470.19999999925,"correct":true,"confidence":4},{"trial_n":102,"min":79,"max":176,"target":"absent","response":"absent","rt":388.69999999925,"correct":true,"confidence":4},{"trial_n":103,"min":79,"max":176,"target":"absent","response":"absent","rt":1243.0999999978,"correct":true,"confidence":3},{"trial_n":104,"min":81,"max":174,"target":"absent","response":"absent","rt":545.69999999925,"correct":true,"confidence":5},{"trial_n":105,"min":81,"max":174,"target":"present","response":"present","rt":418.80000000075,"correct":true,"confidence":5},{"trial_n":106,"min":83,"max":172,"target":"absent","response":"absent","rt":359.69999999925,"correct":true,"confidence":4},{"trial_n":107,"min":83,"max":172,"target":"absent","response":"absent","rt":916.69999999925,"correct":true,"confidence":2},{"trial_n":108,"min":85,"max":170,"target":"absent","response":"absent","rt":795,"correct":true,"confidence":1},{"trial_n":109,"min":85,"max":170,"target":"absent","response":"present","rt":1273.5999999978,"correct":false,"confidence":5},{"trial_n":110,"min":83,"max":172,"target":"absent","response":"absent","rt":464.90000000224,"correct":true,"confidence":5},{"trial_n":111,"min":83,"max":172,"target":"present","response":"absent","rt":640.59999999776,"correct":false,"confidence":3},{"trial_n":112,"min":82,"max":173,"target":"absent","response":"absent","rt":466.10000000149,"correct":true,"confidence":5},{"trial_n":113,"min":82,"max":173,"target":"absent","response":"absent","rt":341.79999999702,"correct":true,"confidence":3},{"trial_n":114,"min":83,"max":172,"target":"present","response":"absent","rt":588.69999999925,"correct":false,"confidence":3},{"trial_n":115,"min":82,"max":173,"target":"present","response":"present","rt":436.89999999851,"correct":true,"confidence":5},{"trial_n":116,"min":82,"max":173,"target":"present","response":"absent","rt":426.60000000149,"correct":false,"confidence":2},{"trial_n":117,"min":81,"max":174,"target":"present","response":"present","rt":1204.6000000015,"correct":true,"confidence":2},{"trial_n":118,"min":81,"max":174,"target":"present","response":"absent","rt":801.60000000149,"correct":false,"confidence":1},{"trial_n":119,"min":80,"max":175,"target":"present","response":"present","rt":372,"correct":true,"confidence":5},{"trial_n":120,"min":80,"max":175,"target":"absent","response":"absent","rt":376.89999999851,"correct":true,"confidence":4},{"trial_n":121,"min":81,"max":174,"target":"absent","response":"absent","rt":547.19999999925,"correct":true,"confidence":3},{"trial_n":122,"min":81,"max":174,"target":"absent","response":"absent","rt":912.5,"correct":true,"confidence":3},{"trial_n":123,"min":82,"max":173,"target":"present","response":"present","rt":784,"correct":true,"confidence":4},{"trial_n":124,"min":82,"max":173,"target":"present","response":"present","rt":1415.3000000007,"correct":true,"confidence":2},{"trial_n":125,"min":83,"max":172,"target":"present","response":"absent","rt":176454.3,"correct":false,"confidence":2},{"trial_n":126,"min":82,"max":173,"target":"absent","response":"present","rt":177411.7,"correct":false,"confidence":3},{"trial_n":127,"min":81,"max":174,"target":"present","response":"absent","rt":1150.3999999985,"correct":false,"confidence":1},{"trial_n":128,"min":80,"max":175,"target":"absent","response":"absent","rt":1245.8999999985,"correct":true,"confidence":3},{"trial_n":129,"min":80,"max":175,"target":"absent","response":"absent","rt":275.40000000224,"correct":true,"confidence":5},{"trial_n":130,"min":81,"max":174,"target":"absent","response":"absent","rt":729.69999999925,"correct":true,"confidence":4},{"trial_n":131,"min":81,"max":174,"target":"present","response":"present","rt":433.19999999925,"correct":true,"confidence":3},{"trial_n":132,"min":82,"max":173,"target":"absent","response":"absent","rt":674.89999999851,"correct":true,"confidence":3},{"trial_n":133,"min":82,"max":173,"target":"present","response":"present","rt":106.09999999776,"correct":true,"confidence":5},{"trial_n":134,"min":83,"max":172,"target":"present","response":"absent","rt":735,"correct":false,"confidence":4},{"trial_n":135,"min":82,"max":173,"target":"absent","response":"absent","rt":796.59999999776,"correct":true,"confidence":4},{"trial_n":136,"min":82,"max":173,"target":"absent","response":"absent","rt":939.60000000149,"correct":true,"confidence":5},{"trial_n":137,"min":83,"max":172,"target":"absent","response":"present","rt":1895.8000000007,"correct":false,"confidence":3},{"trial_n":138,"min":82,"max":173,"target":"present","response":"present","rt":533.80000000075,"correct":true,"confidence":3},{"trial_n":139,"min":82,"max":173,"target":"present","response":"present","rt":405.89999999851,"correct":true,"confidence":4},{"trial_n":140,"min":83,"max":172,"target":"present","response":"present","rt":439.39999999851,"correct":true,"confidence":5}]