[{"trial_n":1,"n_dots":4.25,"target":"left","response":"left","rt":2864.200000003,"correct":true,"confidence":-1},{"trial_n":2,"n_dots":4.25,"target":"left","response":"left","rt":867.09999999776,"correct":true,"confidence":-1},{"trial_n":3,"n_dots":3.85,"target":"right","response":"left","rt":698.90000000224,"correct":false,"confidence":-1},{"trial_n":4,"n_dots":4.25,"target":"right","response":"right","rt":355.5,"correct":true,"confidence":-1},{"trial_n":5,"n_dots":4.25,"target":"left","response":"left","rt":5473.1000000015,"correct":true,"confidence":-1},{"trial_n":6,"n_dots":3.85,"target":"left","response":"left","rt":460.79999999702,"correct":true,"confidence":-1},{"trial_n":7,"n_dots":3.85,"target":"left","response":"right","rt":358.90000000224,"correct":false,"confidence":-1},{"trial_n":8,"n_dots":4.05,"target":"right","response":"right","rt":453.10000000149,"correct":true,"confidence":-1},{"trial_n":9,"n_dots":4.05,"target":"right","response":"right","rt":795.10000000149,"correct":true,"confidence":-1},{"trial_n":10,"n_dots":3.85,"target":"right","response":"right","rt":331.10000000149,"correct":true,"confidence":-1},{"trial_n":11,"n_dots":3.85,"target":"right","response":"left","rt":1917.5,"correct":false,"confidence":-1},{"trial_n":12,"n_dots":4.05,"target":"left","response":"left","rt":580.80000000075,"correct":true,"confidence":-1},{"trial_n":13,"n_dots":4.05,"target":"right","response":"right","rt":122.19999999925,"correct":true,"confidence":-1},{"trial_n":14,"n_dots":3.95,"target":"right","response":"right","rt":542.89999999851,"correct":true,"confidence":-1},{"trial_n":15,"n_dots":3.95,"target":"left","response":"left","rt":497.80000000075,"correct":true,"confidence":-1},{"trial_n":16,"n_dots":3.85,"target":"left","response":"left","rt":92.5,"correct":true,"confidence":-1},{"trial_n":17,"n_dots":3.85,"target":"right","response":"right","rt":296.69999999925,"correct":true,"confidence":-1},{"trial_n":18,"n_dots":3.75,"target":"left","response":"left","rt":779.80000000075,"correct":true,"confidence":-1},{"trial_n":19,"n_dots":3.75,"target":"right","response":"right","rt":295,"correct":true,"confidence":-1},{"trial_n":20,"n_dots":3.65,"target":"right","response":"left","rt":472.80000000075,"correct":false,"confidence":-1},{"trial_n":21,"n_dots":3.75,"target":"left","response":"left","rt":706.5,"correct":true,"confidence":3},{"trial_n":22,"n_dots":3.75,"target":"left","response":"left","rt":805.10000000149,"correct":true,"confidence":3},{"trial_n":23,"n_dots":3.65,"target":"right","response":"right","rt":745.80000000075,"correct":true,"confidence":4},{"trial_n":24,"n_dots":3.65,"target":"left","response":"left","rt":730,"correct":true,"confidence":2},{"trial_n":25,"n_dots":3.55,"target":"right","response":"right","rt":1087.799999997,"correct":true,"confidence":4},{"trial_n":26,"n_dots":3.55,"target":"left","response":"left","rt":557.10000000149,"correct":true,"confidence":5},{"trial_n":27,"n_dots":3.45,"target":"left","response":"left","rt":1074.1000000015,"correct":true,"confidence":3},{"trial_n":28,"n_dots":3.45,"target":"left","response":"left","rt":1038,"correct":true,"confidence":2},{"trial_n":29,"n_dots":3.35,"target":"left","response":"right","rt":1166.5,"correct":false,"confidence":1},{"trial_n":30,"n_dots":3.45,"target":"right","response":"left","rt":611,"correct":false,"confidence":4},{"trial_n":31,"n_dots":3.55,"target":"left","response":"left","rt":615.19999999925,"correct":true,"confidence":5},{"trial_n":32,"n_dots":3.55,"target":"right","response":"left","rt":780.19999999925,"correct":false,"confidence":5},{"trial_n":33,"n_dots":3.65,"target":"right","response":"right","rt":1381.200000003,"correct":true,"confidence":4},{"trial_n":34,"n_dots":3.65,"target":"right","response":"left","rt":876.30000000075,"correct":false,"confidence":1},{"trial_n":35,"n_dots":3.75,"target":"right","response":"left","rt":946.5,"correct":false,"confidence":4},{"trial_n":36,"n_dots":3.85,"target":"left","response":"left","rt":691.39999999851,"correct":true,"confidence":5},{"trial_n":37,"n_dots":3.85,"target":"left","response":"right","rt":704.79999999702,"correct":false,"confidence":4},{"trial_n":38,"n_dots":3.95,"target":"left","response":"left","rt":690.19999999925,"correct":true,"confidence":4},{"trial_n":39,"n_dots":3.95,"target":"right","response":"right","rt":544.90000000224,"correct":true,"confidence":5},{"trial_n":40,"n_dots":3.85,"target":"left","response":"left","rt":584.60000000149,"correct":true,"confidence":4},{"trial_n":41,"n_dots":3.85,"target":"left","response":"left","rt":1875.8000000007,"correct":true,"confidence":1},{"trial_n":42,"n_dots":3.75,"target":"right","response":"right","rt":2576.6000000015,"correct":true,"confidence":3},{"trial_n":43,"n_dots":3.75,"target":"left","response":"left","rt":955.89999999851,"correct":true,"confidence":1},{"trial_n":44,"n_dots":3.65,"target":"left","response":"left","rt":821.5,"correct":true,"confidence":5},{"trial_n":45,"n_dots":3.65,"target":"left","response":"left","rt":1034.299999997,"correct":true,"confidence":5},{"trial_n":46,"n_dots":3.55,"target":"left","response":"left","rt":827.59999999776,"correct":true,"confidence":5},{"trial_n":47,"n_dots":3.55,"target":"right","response":"right","rt":873.60000000149,"correct":true,"confidence":2},{"trial_n":48,"n_dots":3.45,"target":"left","response":"left","rt":693.29999999702,"correct":true,"confidence":5},{"trial_n":49,"n_dots":3.45,"target":"right","response":"right","rt":446.80000000075,"correct":true,"confidence":5},{"trial_n":50,"n_dots":3.35,"target":"right","response":"right","rt":722.39999999851,"correct":true,"confidence":4},{"trial_n":51,"n_dots":3.35,"target":"right","response":"left","rt":873.39999999851,"correct":false,"confidence":3},{"trial_n":52,"n_dots":3.45,"target":"left","response":"right","rt":86027.900000002,"correct":false,"confidence":1},{"trial_n":53,"n_dots":3.55,"target":"right","response":"right","rt":879.79999999702,"correct":true,"confidence":2},{"trial_n":54,"n_dots":3.55,"target":"right","response":"right","rt":831.09999999776,"correct":true,"confidence":3},{"trial_n":55,"n_dots":3.45,"target":"right","response":"left","rt":2606.4000000022,"correct":false,"confidence":2},{"trial_n":56,"n_dots":3.55,"target":"right","response":"left","rt":594.60000000149,"correct":false,"confidence":5},{"trial_n":57,"n_dots":3.65,"target":"left","response":"left","rt":882.39999999851,"correct":true,"confidence":4},{"trial_n":58,"n_dots":3.65,"target":"left","response":"left","rt":1547.6000000015,"correct":true,"confidence":5},{"trial_n":59,"n_dots":3.55,"target":"left","response":"left","rt":976.40000000224,"correct":true,"confidence":3},{"trial_n":60,"n_dots":3.55,"target":"left","response":"left","rt":8131.8999999985,"correct":true,"confidence":4},{"trial_n":61,"n_dots":3.45,"target":"left","response":"left","rt":861.80000000075,"correct":true,"confidence":3},{"trial_n":62,"n_dots":3.45,"target":"left","response":"left","rt":592.19999999925,"correct":true,"confidence":2},{"trial_n":63,"n_dots":3.35,"target":"right","response":"left","rt":1030.8000000007,"correct":false,"confidence":3},{"trial_n":64,"n_dots":3.45,"target":"right","response":"left","rt":845.5,"correct":false,"confidence":1},{"trial_n":65,"n_dots":3.55,"target":"left","response":"left","rt":660.69999999925,"correct":true,"confidence":4},{"trial_n":66,"n_dots":3.55,"target":"left","response":"left","rt":1341,"correct":true,"confidence":2},{"trial_n":67,"n_dots":3.45,"target":"right","response":"left","rt":1308,"correct":false,"confidence":2},{"trial_n":68,"n_dots":3.55,"target":"left","response":"left","rt":515,"correct":true,"confidence":3},{"trial_n":69,"n_dots":3.55,"target":"left","response":"left","rt":649.5,"correct":true,"confidence":4},{"trial_n":70,"n_dots":3.45,"target":"right","response":"left","rt":1969.5,"correct":false,"confidence":5},{"trial_n":71,"n_dots":3.55,"target":"right","response":"right","rt":696.79999999702,"correct":true,"confidence":2},{"trial_n":72,"n_dots":3.55,"target":"left","response":"left","rt":680.30000000075,"correct":true,"confidence":4},{"trial_n":73,"n_dots":3.45,"target":"right","response":"right","rt":119109.9,"correct":true,"confidence":2},{"trial_n":74,"n_dots":3.45,"target":"left","response":"left","rt":841,"correct":true,"confidence":5},{"trial_n":75,"n_dots":3.35,"target":"right","response":"right","rt":422.80000000075,"correct":true,"confidence":3},{"trial_n":76,"n_dots":3.35,"target":"left","response":"left","rt":430.09999999776,"correct":true,"confidence":3},{"trial_n":77,"n_dots":3.25,"target":"left","response":"left","rt":535.5,"correct":true,"confidence":4},{"trial_n":78,"n_dots":3.25,"target":"left","response":"left","rt":486.69999999925,"correct":true,"confidence":3},{"trial_n":79,"n_dots":3.15,"target":"left","response":"left","rt":874.60000000149,"correct":true,"confidence":3},{"trial_n":80,"n_dots":3.15,"target":"left","response":"left","rt":612.5,"correct":true,"confidence":4},{"trial_n":81,"n_dots":3.05,"target":"right","response":"left","rt":1018.8000000007,"correct":false,"confidence":4},{"trial_n":82,"n_dots":3.15,"target":"left","response":"left","rt":750.5,"correct":true,"confidence":2},{"trial_n":83,"n_dots":3.15,"target":"left","response":"left","rt":945.80000000075,"correct":true,"confidence":4},{"trial_n":84,"n_dots":3.05,"target":"left","response":"right","rt":676.19999999925,"correct":false,"confidence":3},{"trial_n":85,"n_dots":3.15,"target":"right","response":"left","rt":1019.5,"correct":false,"confidence":2},{"trial_n":86,"n_dots":3.25,"target":"right","response":"left","rt":2389.1999999993,"correct":false,"confidence":2},{"trial_n":87,"n_dots":3.35,"target":"right","response":"left","rt":835.89999999851,"correct":false,"confidence":3},{"trial_n":88,"n_dots":3.45,"target":"right","response":"right","rt":653.80000000075,"correct":true,"confidence":2},{"trial_n":89,"n_dots":3.45,"target":"right","response":"left","rt":1009.8000000007,"correct":false,"confidence":2},{"trial_n":90,"n_dots":3.55,"target":"right","response":"right","rt":862.89999999851,"correct":true,"confidence":3},{"trial_n":91,"n_dots":3.55,"target":"right","response":"left","rt":485.19999999925,"correct":false,"confidence":2},{"trial_n":92,"n_dots":3.65,"target":"right","response":"left","rt":499.69999999925,"correct":false,"confidence":3},{"trial_n":93,"n_dots":3.75,"target":"right","response":"right","rt":633.20000000298,"correct":true,"confidence":3},{"trial_n":94,"n_dots":3.75,"target":"right","response":"left","rt":745.5,"correct":false,"confidence":2},{"trial_n":95,"n_dots":3.85,"target":"right","response":"right","rt":670.09999999776,"correct":true,"confidence":4},{"trial_n":96,"n_dots":3.85,"target":"left","response":"left","rt":423,"correct":true,"confidence":5},{"trial_n":97,"n_dots":3.75,"target":"left","response":"left","rt":630.60000000149,"correct":true,"confidence":2},{"trial_n":98,"n_dots":3.75,"target":"right","response":"left","rt":1000.5,"correct":false,"confidence":4},{"trial_n":99,"n_dots":3.85,"target":"right","response":"right","rt":851.70000000298,"correct":true,"confidence":3},{"trial_n":100,"n_dots":3.85,"target":"left","response":"left","rt":496,"correct":true,"confidence":5},{"trial_n":101,"n_dots":3.75,"target":"left","response":"left","rt":585.40000000224,"correct":true,"confidence":4},{"trial_n":102,"n_dots":3.75,"target":"left","response":"left","rt":563.69999999925,"correct":true,"confidence":2},{"trial_n":103,"n_dots":3.65,"target":"right","response":"right","rt":759.30000000075,"correct":true,"confidence":3},{"trial_n":104,"n_dots":3.65,"target":"right","response":"right","rt":565.69999999925,"correct":true,"confidence":3},{"trial_n":105,"n_dots":3.55,"target":"left","response":"left","rt":371.79999999702,"correct":true,"confidence":5},{"trial_n":106,"n_dots":3.55,"target":"right","response":"right","rt":517.39999999851,"correct":true,"confidence":3},{"trial_n":107,"n_dots":3.45,"target":"right","response":"left","rt":1388.1000000015,"correct":false,"confidence":4},{"trial_n":108,"n_dots":3.55,"target":"left","response":"left","rt":860.69999999925,"correct":true,"confidence":4},{"trial_n":109,"n_dots":3.55,"target":"right","response":"left","rt":573.5,"correct":false,"confidence":1},{"trial_n":110,"n_dots":3.65,"target":"right","response":"left","rt":894,"correct":false,"confidence":1},{"trial_n":111,"n_dots":3.75,"target":"right","response":"left","rt":1328.4000000022,"correct":false,"confidence":2},{"trial_n":112,"n_dots":3.85,"target":"left","response":"left","rt":928,"correct":true,"confidence":4},{"trial_n":113,"n_dots":3.85,"target":"left","response":"left","rt":740.80000000075,"correct":true,"confidence":4},{"trial_n":114,"n_dots":3.75,"target":"left","response":"left","rt":575.60000000149,"correct":true,"confidence":4},{"trial_n":115,"n_dots":3.75,"target":"right","response":"right","rt":909.09999999776,"correct":true,"confidence":4},{"trial_n":116,"n_dots":3.65,"target":"right","response":"right","rt":774,"correct":true,"confidence":4},{"trial_n":117,"n_dots":3.65,"target":"left","response":"left","rt":638.69999999925,"correct":true,"confidence":3},{"trial_n":118,"n_dots":3.55,"target":"right","response":"left","rt":904.39999999851,"correct":false,"confidence":2},{"trial_n":119,"n_dots":3.65,"target":"right","response":"right","rt":727.10000000149,"correct":true,"confidence":2},{"trial_n":120,"n_dots":3.65,"target":"left","response":"left","rt":1403.1999999993,"correct":true,"confidence":3}]