[{"trial_n":1,"span":8,"encoder":"34979124","distractor":"34979125","target":"present","response":"absent","rt":"2678.8999999985","correct":false,"confidence":-1},{"trial_n":2,"span":6,"encoder":"957819","distractor":"757819","target":"present","response":"present","rt":"2006.299999997","correct":true,"confidence":-1},{"trial_n":3,"span":6,"encoder":"821433","distractor":"821430","target":"absent","response":"absent","rt":"1812.5","correct":true,"confidence":-1},{"trial_n":4,"span":8,"encoder":"78121793","distractor":"78121733","target":"absent","response":"absent","rt":"2623","correct":true,"confidence":-1},{"trial_n":5,"span":8,"encoder":"43969507","distractor":"46969507","target":"present","response":"present","rt":"1670.3000000007","correct":true,"confidence":-1},{"trial_n":6,"span":10,"encoder":"9170057124","distractor":"9170057224","target":"absent","response":"absent","rt":"1648.8000000007","correct":true,"confidence":-1},{"trial_n":7,"span":10,"encoder":"1559962292","distractor":"1059962292","target":"present","response":"absent","rt":"2206.1000000015","correct":false,"confidence":-1},{"trial_n":8,"span":8,"encoder":"65631793","distractor":"65601793","target":"absent","response":"present","rt":"2469.6000000015","correct":false,"confidence":-1},{"trial_n":9,"span":6,"encoder":"916501","distractor":"916701","target":"present","response":"present","rt":"1245.1000000015","correct":true,"confidence":-1},{"trial_n":10,"span":6,"encoder":"593327","distractor":"553327","target":"absent","response":"present","rt":"4762.3999999985","correct":false,"confidence":-1},{"trial_n":11,"span":4,"encoder":"5071","distractor":"5074","target":"present","response":"present","rt":"1363.1999999993","correct":true,"confidence":-1},{"trial_n":12,"span":4,"encoder":"1149","distractor":"7149","target":"absent","response":"absent","rt":"2051","correct":true,"confidence":-1},{"trial_n":13,"span":5,"encoder":"98338","distractor":"98038","target":"present","response":"present","rt":"1326.8999999985","correct":true,"confidence":-1},{"trial_n":14,"span":5,"encoder":"83403","distractor":"83433","target":"present","response":"present","rt":"1900.5","correct":true,"confidence":-1},{"trial_n":15,"span":6,"encoder":"910076","distractor":"910376","target":"absent","response":"present","rt":"872.19999999925","correct":false,"confidence":-1},{"trial_n":16,"span":5,"encoder":"75807","distractor":"79807","target":"absent","response":"present","rt":"1205.3000000007","correct":false,"confidence":-1},{"trial_n":17,"span":4,"encoder":"5342","distractor":"0342","target":"present","response":"present","rt":"1442.5","correct":true,"confidence":-1},{"trial_n":18,"span":4,"encoder":"6749","distractor":"6719","target":"absent","response":"absent","rt":"2368.6000000015","correct":true,"confidence":-1},{"trial_n":19,"span":5,"encoder":"11200","distractor":"17200","target":"present","response":"present","rt":"1805.9000000022","correct":true,"confidence":-1},{"trial_n":20,"span":5,"encoder":"81990","distractor":"61990","target":"absent","response":"present","rt":"1978.3000000007","correct":false,"confidence":-1},{"trial_n":21,"span":4,"encoder":"4913","distractor":"7913","target":"absent","response":"present","rt":"1669.6000000015","correct":false,"confidence":2},{"trial_n":22,"span":3,"encoder":"795","distractor":"735","target":"absent","response":"absent","rt":"1853.5","correct":true,"confidence":5},{"trial_n":23,"span":3,"encoder":"008","distractor":"048","target":"absent","response":"present","rt":"2097.6999999993","correct":false,"confidence":1},{"trial_n":24,"span":2,"encoder":"71","distractor":"31","target":"present","response":"present","rt":"1166.1000000015","correct":true,"confidence":3},{"trial_n":25,"span":2,"encoder":"87","distractor":"47","target":"present","response":"present","rt":"109402.9","correct":true,"confidence":1},{"trial_n":26,"span":3,"encoder":"812","distractor":"814","target":"present","response":"present","rt":"1317.5999999978","correct":true,"confidence":5},{"trial_n":27,"span":3,"encoder":"058","distractor":"056","target":"present","response":"absent","rt":"1887.6999999993","correct":false,"confidence":3},{"trial_n":28,"span":2,"encoder":"87","distractor":"97","target":"present","response":"present","rt":"1301.8000000007","correct":true,"confidence":5},{"trial_n":29,"span":2,"encoder":"95","distractor":"55","target":"absent","response":"present","rt":"905.39999999851","correct":false,"confidence":5},{"trial_n":30,"span":2,"encoder":"53","distractor":"03","target":"present","response":"present","rt":"948.10000000149","correct":true,"confidence":5},{"trial_n":31,"span":2,"encoder":"25","distractor":"20","target":"absent","response":"absent","rt":"1633","correct":true,"confidence":5},{"trial_n":32,"span":3,"encoder":"586","distractor":"582","target":"present","response":"present","rt":"1246.8000000007","correct":true,"confidence":5},{"trial_n":33,"span":3,"encoder":"058","distractor":"050","target":"absent","response":"absent","rt":"1337.299999997","correct":true,"confidence":5},{"trial_n":34,"span":4,"encoder":"2411","distractor":"2011","target":"present","response":"present","rt":"1448.200000003","correct":true,"confidence":5},{"trial_n":35,"span":4,"encoder":"9546","distractor":"9746","target":"absent","response":"absent","rt":"1915.6999999993","correct":true,"confidence":5},{"trial_n":36,"span":5,"encoder":"75020","distractor":"75026","target":"absent","response":"absent","rt":"2367.1000000015","correct":true,"confidence":3},{"trial_n":37,"span":5,"encoder":"02875","distractor":"06875","target":"present","response":"present","rt":"3644.6999999993","correct":true,"confidence":5},{"trial_n":38,"span":6,"encoder":"034676","distractor":"030676","target":"absent","response":"present","rt":"2124.8999999985","correct":false,"confidence":3},{"trial_n":39,"span":5,"encoder":"07279","distractor":"07276","target":"absent","response":"absent","rt":"1888","correct":true,"confidence":5},{"trial_n":40,"span":5,"encoder":"37346","distractor":"37340","target":"present","response":"present","rt":"2088.8000000007","correct":true,"confidence":5},{"trial_n":41,"span":6,"encoder":"059564","distractor":"050564","target":"absent","response":"absent","rt":"3215.8000000007","correct":true,"confidence":5},{"trial_n":42,"span":6,"encoder":"549764","distractor":"549765","target":"absent","response":"absent","rt":"1238.5","correct":true,"confidence":5},{"trial_n":43,"span":7,"encoder":"1053495","distractor":"3053495","target":"present","response":"present","rt":"3334.200000003","correct":true,"confidence":3},{"trial_n":44,"span":7,"encoder":"8487445","distractor":"2487445","target":"present","response":"present","rt":"1745.6999999993","correct":true,"confidence":2},{"trial_n":45,"span":8,"encoder":"31428357","distractor":"31428356","target":"absent","response":"absent","rt":"1175.9000000022","correct":true,"confidence":5},{"trial_n":46,"span":8,"encoder":"97099022","distractor":"27099022","target":"absent","response":"present","rt":"2174.1000000015","correct":false,"confidence":3},{"trial_n":47,"span":7,"encoder":"5559483","distractor":"5559983","target":"present","response":"present","rt":"4220.6000000015","correct":true,"confidence":2},{"trial_n":48,"span":7,"encoder":"7277464","distractor":"7247464","target":"absent","response":"absent","rt":"2649","correct":true,"confidence":4},{"trial_n":49,"span":8,"encoder":"28051487","distractor":"28051486","target":"absent","response":"absent","rt":"1348.3999999985","correct":true,"confidence":1},{"trial_n":50,"span":8,"encoder":"90139559","distractor":"90139159","target":"absent","response":"absent","rt":"1879.3000000007","correct":true,"confidence":5},{"trial_n":51,"span":9,"encoder":"088397261","distractor":"088297261","target":"present","response":"absent","rt":"4251.8999999985","correct":false,"confidence":3},{"trial_n":52,"span":8,"encoder":"57829153","distractor":"57819153","target":"present","response":"absent","rt":"46690.899999999","correct":false,"confidence":2},{"trial_n":53,"span":7,"encoder":"9543108","distractor":"9543104","target":"present","response":"present","rt":"2061.3000000007","correct":true,"confidence":3},{"trial_n":54,"span":7,"encoder":"5013100","distractor":"5013700","target":"absent","response":"absent","rt":"8945.1999999993","correct":true,"confidence":3},{"trial_n":55,"span":8,"encoder":"12711652","distractor":"72711652","target":"absent","response":"present","rt":"3018","correct":false,"confidence":5},{"trial_n":56,"span":7,"encoder":"8601335","distractor":"9601335","target":"absent","response":"absent","rt":"2617","correct":true,"confidence":3},{"trial_n":57,"span":7,"encoder":"5954370","distractor":"5954376","target":"absent","response":"absent","rt":"1328.9000000022","correct":true,"confidence":5},{"trial_n":58,"span":8,"encoder":"76091745","distractor":"76091145","target":"absent","response":"present","rt":"1908.8999999985","correct":false,"confidence":2},{"trial_n":59,"span":7,"encoder":"2534458","distractor":"2534448","target":"absent","response":"absent","rt":"1536.5","correct":true,"confidence":5},{"trial_n":60,"span":7,"encoder":"3843253","distractor":"0843253","target":"present","response":"absent","rt":"1272.6000000015","correct":false,"confidence":2},{"trial_n":61,"span":6,"encoder":"815372","distractor":"815374","target":"absent","response":"absent","rt":"2277.200000003","correct":true,"confidence":5},{"trial_n":62,"span":6,"encoder":"361635","distractor":"361625","target":"present","response":"present","rt":"2770.6000000015","correct":true,"confidence":5},{"trial_n":63,"span":7,"encoder":"9400770","distractor":"9490770","target":"present","response":"present","rt":"3517.5","correct":true,"confidence":5},{"trial_n":64,"span":7,"encoder":"3580224","distractor":"3580724","target":"present","response":"absent","rt":"1972.6000000015","correct":false,"confidence":2},{"trial_n":65,"span":6,"encoder":"343965","distractor":"341965","target":"present","response":"absent","rt":"1222.1999999993","correct":false,"confidence":3},{"trial_n":66,"span":5,"encoder":"83107","distractor":"53107","target":"present","response":"absent","rt":"4764.700000003","correct":false,"confidence":3},{"trial_n":67,"span":4,"encoder":"9679","distractor":"9689","target":"present","response":"present","rt":"1153","correct":true,"confidence":5},{"trial_n":68,"span":4,"encoder":"4856","distractor":"4850","target":"present","response":"present","rt":"1758.700000003","correct":true,"confidence":5},{"trial_n":69,"span":5,"encoder":"40150","distractor":"40950","target":"present","response":"present","rt":"1806.6000000015","correct":true,"confidence":5},{"trial_n":70,"span":5,"encoder":"59695","distractor":"52695","target":"present","response":"present","rt":"1576.3999999985","correct":true,"confidence":5},{"trial_n":71,"span":8,"encoder":"88580698","distractor":"78580698","target":"present","response":"present","rt":"2946.1000000015","correct":true,"confidence":-1},{"trial_n":72,"span":8,"encoder":"52266306","distractor":"53266306","target":"present","response":"absent","rt":"1233.3999999985","correct":false,"confidence":-1},{"trial_n":73,"span":7,"encoder":"4058582","distractor":"4051582","target":"absent","response":"present","rt":"962.89999999851","correct":false,"confidence":-1},{"trial_n":74,"span":6,"encoder":"682436","distractor":"682416","target":"absent","response":"absent","rt":"1779.6000000015","correct":true,"confidence":-1},{"trial_n":75,"span":6,"encoder":"655007","distractor":"655002","target":"present","response":"present","rt":"1217.6000000015","correct":true,"confidence":-1},{"trial_n":76,"span":7,"encoder":"8466009","distractor":"3466009","target":"present","response":"present","rt":"2805.8000000007","correct":true,"confidence":-1},{"trial_n":77,"span":7,"encoder":"1813500","distractor":"1812500","target":"present","response":"present","rt":"2483.299999997","correct":true,"confidence":-1},{"trial_n":78,"span":8,"encoder":"51316208","distractor":"51316298","target":"present","response":"absent","rt":"1470.6000000015","correct":false,"confidence":-1},{"trial_n":79,"span":7,"encoder":"5272135","distractor":"5272535","target":"present","response":"present","rt":"1205.5","correct":true,"confidence":-1},{"trial_n":80,"span":7,"encoder":"7453193","distractor":"7653193","target":"absent","response":"absent","rt":"2977.3000000007","correct":true,"confidence":-1},{"trial_n":81,"span":8,"encoder":"32713185","distractor":"32712185","target":"absent","response":"present","rt":"2603.1000000015","correct":false,"confidence":-1},{"trial_n":82,"span":7,"encoder":"2618614","distractor":"2618114","target":"absent","response":"present","rt":"138795.3","correct":false,"confidence":-1},{"trial_n":83,"span":6,"encoder":"941278","distractor":"941778","target":"absent","response":"absent","rt":"1458.3999999985","correct":true,"confidence":-1},{"trial_n":84,"span":6,"encoder":"058042","distractor":"088042","target":"absent","response":"absent","rt":"5821","correct":true,"confidence":-1},{"trial_n":85,"span":7,"encoder":"7891730","distractor":"7891737","target":"present","response":"present","rt":"2093.3999999985","correct":true,"confidence":-1},{"trial_n":86,"span":7,"encoder":"1218007","distractor":"1818007","target":"present","response":"present","rt":"1937","correct":true,"confidence":-1},{"trial_n":87,"span":8,"encoder":"59963082","distractor":"99963082","target":"absent","response":"present","rt":"4514.5999999978","correct":false,"confidence":-1},{"trial_n":88,"span":7,"encoder":"2551677","distractor":"4551677","target":"present","response":"absent","rt":"399.89999999851","correct":false,"confidence":-1},{"trial_n":89,"span":6,"encoder":"995794","distractor":"995798","target":"absent","response":"present","rt":"1065.299999997","correct":false,"confidence":-1},{"trial_n":90,"span":5,"encoder":"14122","distractor":"14123","target":"present","response":"absent","rt":"1274.3000000007","correct":false,"confidence":-1},{"trial_n":91,"span":4,"encoder":"9954","distractor":"6954","target":"present","response":"present","rt":"1916.4000000022","correct":true,"confidence":5},{"trial_n":92,"span":4,"encoder":"8996","distractor":"1996","target":"present","response":"present","rt":"1986","correct":true,"confidence":5},{"trial_n":93,"span":5,"encoder":"46897","distractor":"46890","target":"present","response":"present","rt":"1630.1000000015","correct":true,"confidence":5},{"trial_n":94,"span":5,"encoder":"28106","distractor":"18106","target":"present","response":"present","rt":"4597.0999999978","correct":true,"confidence":3},{"trial_n":95,"span":6,"encoder":"014790","distractor":"114790","target":"present","response":"present","rt":"76881","correct":true,"confidence":2},{"trial_n":96,"span":6,"encoder":"233622","distractor":"233626","target":"present","response":"present","rt":"3580.3000000007","correct":true,"confidence":2},{"trial_n":97,"span":7,"encoder":"5680468","distractor":"5680068","target":"present","response":"absent","rt":"1087.1000000015","correct":false,"confidence":1},{"trial_n":98,"span":6,"encoder":"102556","distractor":"106556","target":"absent","response":"absent","rt":"3222.8999999985","correct":true,"confidence":2},{"trial_n":99,"span":6,"encoder":"748442","distractor":"748142","target":"present","response":"present","rt":"4126.8000000007","correct":true,"confidence":3},{"trial_n":100,"span":7,"encoder":"1151537","distractor":"1151737","target":"present","response":"absent","rt":"1989.200000003","correct":false,"confidence":5},{"trial_n":101,"span":6,"encoder":"342888","distractor":"342848","target":"absent","response":"absent","rt":"1126.1999999993","correct":true,"confidence":3},{"trial_n":102,"span":6,"encoder":"370227","distractor":"370297","target":"absent","response":"absent","rt":"1347.200000003","correct":true,"confidence":5},{"trial_n":103,"span":7,"encoder":"4428721","distractor":"4128721","target":"present","response":"absent","rt":"3977.3999999985","correct":false,"confidence":1},{"trial_n":104,"span":6,"encoder":"922290","distractor":"922190","target":"absent","response":"present","rt":"4027.0999999978","correct":false,"confidence":1},{"trial_n":105,"span":5,"encoder":"92984","distractor":"92684","target":"present","response":"present","rt":"1873.3000000007","correct":true,"confidence":1},{"trial_n":106,"span":5,"encoder":"84496","distractor":"84396","target":"present","response":"present","rt":"1816.5","correct":true,"confidence":1},{"trial_n":107,"span":6,"encoder":"119822","distractor":"179822","target":"present","response":"absent","rt":"555.80000000075","correct":false,"confidence":1},{"trial_n":108,"span":5,"encoder":"68459","distractor":"68489","target":"absent","response":"present","rt":"431.60000000149","correct":false,"confidence":1},{"trial_n":109,"span":4,"encoder":"8852","distractor":"8882","target":"present","response":"present","rt":"350.19999999925","correct":true,"confidence":1},{"trial_n":110,"span":4,"encoder":"5305","distractor":"5605","target":"absent","response":"absent","rt":"333.80000000075","correct":true,"confidence":1},{"trial_n":111,"span":5,"encoder":"01929","distractor":"01629","target":"present","response":"present","rt":"455.5","correct":true,"confidence":1},{"trial_n":112,"span":5,"encoder":"67015","distractor":"67815","target":"absent","response":"absent","rt":"398.29999999702","correct":true,"confidence":1},{"trial_n":113,"span":6,"encoder":"480815","distractor":"480835","target":"absent","response":"present","rt":"1222.1999999993","correct":false,"confidence":1},{"trial_n":114,"span":5,"encoder":"10842","distractor":"10742","target":"absent","response":"absent","rt":"579.30000000075","correct":true,"confidence":1},{"trial_n":115,"span":5,"encoder":"56329","distractor":"56129","target":"absent","response":"absent","rt":"439.39999999851","correct":true,"confidence":1},{"trial_n":116,"span":6,"encoder":"545729","distractor":"555729","target":"present","response":"present","rt":"851.30000000075","correct":true,"confidence":1},{"trial_n":117,"span":6,"encoder":"822608","distractor":"824608","target":"absent","response":"present","rt":"514.10000000149","correct":false,"confidence":1},{"trial_n":118,"span":5,"encoder":"82471","distractor":"80471","target":"absent","response":"present","rt":"512.10000000149","correct":false,"confidence":1},{"trial_n":119,"span":4,"encoder":"1465","distractor":"1463","target":"present","response":"present","rt":"903.69999999925","correct":true,"confidence":1},{"trial_n":120,"span":4,"encoder":"6085","distractor":"2085","target":"absent","response":"present","rt":"522.60000000149","correct":false,"confidence":1},{"trial_n":121,"span":3,"encoder":"037","distractor":"036","target":"absent","response":"present","rt":"449.39999999851","correct":false,"confidence":1},{"trial_n":122,"span":2,"encoder":"75","distractor":"71","target":"absent","response":"absent","rt":"3577.1000000015","correct":true,"confidence":2},{"trial_n":123,"span":2,"encoder":"44","distractor":"64","target":"present","response":"present","rt":"1828.8000000007","correct":true,"confidence":5},{"trial_n":124,"span":3,"encoder":"930","distractor":"933","target":"absent","response":"absent","rt":"1769.6999999993","correct":true,"confidence":5},{"trial_n":125,"span":3,"encoder":"203","distractor":"803","target":"absent","response":"absent","rt":"2103.8000000007","correct":true,"confidence":5},{"trial_n":126,"span":4,"encoder":"8664","distractor":"8864","target":"absent","response":"present","rt":"4596.1999999993","correct":false,"confidence":1},{"trial_n":127,"span":3,"encoder":"254","distractor":"274","target":"present","response":"present","rt":"8932.3000000007","correct":true,"confidence":5},{"trial_n":128,"span":3,"encoder":"384","distractor":"324","target":"present","response":"present","rt":"10891.199999999","correct":true,"confidence":2},{"trial_n":129,"span":4,"encoder":"8764","distractor":"8734","target":"absent","response":"absent","rt":"5309.3999999985","correct":true,"confidence":5},{"trial_n":130,"span":4,"encoder":"7663","distractor":"7667","target":"absent","response":"absent","rt":"7123.6000000015","correct":true,"confidence":2},{"trial_n":131,"span":5,"encoder":"68155","distractor":"69155","target":"absent","response":"absent","rt":"6553.6999999993","correct":true,"confidence":5},{"trial_n":132,"span":5,"encoder":"64942","distractor":"64932","target":"present","response":"present","rt":"4274.5","correct":true,"confidence":2},{"trial_n":133,"span":6,"encoder":"572818","distractor":"572811","target":"present","response":"present","rt":"362.40000000224","correct":true,"confidence":3},{"trial_n":134,"span":6,"encoder":"714481","distractor":"734481","target":"absent","response":"absent","rt":"2720.9000000022","correct":true,"confidence":1},{"trial_n":135,"span":7,"encoder":"7848713","distractor":"7848013","target":"present","response":"present","rt":"3671.1999999993","correct":true,"confidence":5},{"trial_n":136,"span":7,"encoder":"5139386","distractor":"1139386","target":"absent","response":"absent","rt":"1648.6999999993","correct":true,"confidence":3},{"trial_n":137,"span":8,"encoder":"04295632","distractor":"04295635","target":"present","response":"present","rt":"1467.1999999993","correct":true,"confidence":5},{"trial_n":138,"span":8,"encoder":"99062461","distractor":"09062461","target":"present","response":"absent","rt":"2663.8000000007","correct":false,"confidence":1},{"trial_n":139,"span":7,"encoder":"8171858","distractor":"8173858","target":"absent","response":"absent","rt":"2196.3999999985","correct":true,"confidence":5},{"trial_n":140,"span":7,"encoder":"7802729","distractor":"7802739","target":"absent","response":"absent","rt":"4282","correct":true,"confidence":5}]