[{"trial_n":1,"span":8,"encoder":"63380420","distractor":"65380420","target":"present","response":"absent","rt":"3804.3999998569","correct":false,"confidence":-1},{"trial_n":2,"span":6,"encoder":"116384","distractor":"116381","target":"present","response":"present","rt":"3676.3999998569","correct":true,"confidence":-1},{"trial_n":3,"span":6,"encoder":"211153","distractor":"211157","target":"absent","response":"absent","rt":"2740.8000001907","correct":true,"confidence":-1},{"trial_n":4,"span":8,"encoder":"46586428","distractor":"46586425","target":"absent","response":"absent","rt":"3010.2999999523","correct":true,"confidence":-1},{"trial_n":5,"span":8,"encoder":"50333549","distractor":"50333559","target":"present","response":"present","rt":"3046.7000000477","correct":true,"confidence":-1},{"trial_n":6,"span":10,"encoder":"9229237346","distractor":"9229337346","target":"absent","response":"present","rt":"3379.4000000954","correct":false,"confidence":-1},{"trial_n":7,"span":8,"encoder":"70073537","distractor":"60073537","target":"present","response":"absent","rt":"7761.2000000477","correct":false,"confidence":-1},{"trial_n":8,"span":6,"encoder":"167648","distractor":"167618","target":"present","response":"present","rt":"2044.7000000477","correct":true,"confidence":-1},{"trial_n":9,"span":6,"encoder":"396743","distractor":"306743","target":"present","response":"present","rt":"1686.6000001431","correct":true,"confidence":-1},{"trial_n":10,"span":8,"encoder":"27722052","distractor":"27822052","target":"present","response":"present","rt":"2441.6999998093","correct":true,"confidence":-1},{"trial_n":11,"span":8,"encoder":"69136601","distractor":"69136401","target":"absent","response":"absent","rt":"2324.8000001907","correct":true,"confidence":-1},{"trial_n":12,"span":9,"encoder":"614858535","distractor":"614858435","target":"present","response":"present","rt":"3241.2999999523","correct":true,"confidence":-1},{"trial_n":13,"span":9,"encoder":"422030051","distractor":"422030053","target":"present","response":"present","rt":"3230.1000001431","correct":true,"confidence":-1},{"trial_n":14,"span":10,"encoder":"5574946506","distractor":"5574926506","target":"present","response":"present","rt":"3387","correct":true,"confidence":-1},{"trial_n":15,"span":10,"encoder":"2062933004","distractor":"2092933004","target":"present","response":"present","rt":"3084","correct":true,"confidence":-1},{"trial_n":16,"span":11,"encoder":"92832306828","distractor":"92832306825","target":"present","response":"absent","rt":"3337","correct":false,"confidence":-1},{"trial_n":17,"span":10,"encoder":"8314732242","distractor":"8310732242","target":"present","response":"absent","rt":"1760","correct":false,"confidence":-1},{"trial_n":18,"span":9,"encoder":"063968923","distractor":"063568923","target":"present","response":"present","rt":"4081.4000000954","correct":true,"confidence":-1},{"trial_n":19,"span":9,"encoder":"151270902","distractor":"151276902","target":"absent","response":"present","rt":"2876.5","correct":false,"confidence":-1},{"trial_n":20,"span":8,"encoder":"70943347","distractor":"70843347","target":"present","response":"present","rt":"2623.5","correct":true,"confidence":-1},{"trial_n":21,"span":8,"encoder":"67761051","distractor":"67762051","target":"present","response":"present","rt":"1950","correct":true,"confidence":4},{"trial_n":22,"span":9,"encoder":"340200533","distractor":"340207533","target":"absent","response":"absent","rt":"3787.4000000954","correct":true,"confidence":3},{"trial_n":23,"span":9,"encoder":"782888337","distractor":"782888237","target":"absent","response":"absent","rt":"2289.2999999523","correct":true,"confidence":5},{"trial_n":24,"span":10,"encoder":"1397659970","distractor":"1397659976","target":"absent","response":"present","rt":"4714.0999999046","correct":false,"confidence":4},{"trial_n":25,"span":9,"encoder":"856149470","distractor":"856169470","target":"absent","response":"present","rt":"3875.5999999046","correct":false,"confidence":3},{"trial_n":26,"span":8,"encoder":"23649095","distractor":"23649092","target":"present","response":"present","rt":"3782.5999999046","correct":true,"confidence":4},{"trial_n":27,"span":8,"encoder":"57504358","distractor":"17504358","target":"present","response":"present","rt":"4547.8000001907","correct":true,"confidence":4},{"trial_n":28,"span":9,"encoder":"236772736","distractor":"232772736","target":"absent","response":"present","rt":"6334.7000000477","correct":false,"confidence":4},{"trial_n":29,"span":8,"encoder":"57719997","distractor":"57819997","target":"present","response":"absent","rt":"4259.7000000477","correct":false,"confidence":3},{"trial_n":30,"span":7,"encoder":"3314072","distractor":"3311072","target":"absent","response":"present","rt":"3319.5999999046","correct":false,"confidence":5},{"trial_n":31,"span":6,"encoder":"582398","distractor":"582391","target":"absent","response":"present","rt":"4119.2999999523","correct":false,"confidence":4},{"trial_n":32,"span":5,"encoder":"13064","distractor":"13664","target":"absent","response":"present","rt":"2582.7999999523","correct":false,"confidence":3},{"trial_n":33,"span":4,"encoder":"1913","distractor":"1917","target":"absent","response":"absent","rt":"1846.6000001431","correct":true,"confidence":5},{"trial_n":34,"span":4,"encoder":"6775","distractor":"6772","target":"present","response":"present","rt":"8896.5999999046","correct":true,"confidence":5},{"trial_n":35,"span":5,"encoder":"63171","distractor":"43171","target":"absent","response":"present","rt":"3797.7000000477","correct":false,"confidence":5},{"trial_n":36,"span":4,"encoder":"3832","distractor":"3532","target":"present","response":"present","rt":"3617.7000000477","correct":true,"confidence":5},{"trial_n":37,"span":4,"encoder":"0269","distractor":"0869","target":"present","response":"present","rt":"3941.5","correct":true,"confidence":5},{"trial_n":38,"span":5,"encoder":"66767","distractor":"66267","target":"present","response":"absent","rt":"5568.6000001431","correct":false,"confidence":3},{"trial_n":39,"span":4,"encoder":"1483","distractor":"1463","target":"absent","response":"absent","rt":"2131.2999999523","correct":true,"confidence":5},{"trial_n":40,"span":4,"encoder":"7731","distractor":"7739","target":"absent","response":"absent","rt":"1621.0999999046","correct":true,"confidence":5},{"trial_n":41,"span":5,"encoder":"92031","distractor":"92531","target":"absent","response":"absent","rt":"2509.3000001907","correct":true,"confidence":5},{"trial_n":42,"span":5,"encoder":"32767","distractor":"32067","target":"absent","response":"absent","rt":"6480.5","correct":true,"confidence":5},{"trial_n":43,"span":6,"encoder":"005513","distractor":"005512","target":"absent","response":"absent","rt":"3223.7999999523","correct":true,"confidence":5},{"trial_n":44,"span":6,"encoder":"727613","distractor":"727813","target":"present","response":"present","rt":"9140.5","correct":true,"confidence":4},{"trial_n":45,"span":7,"encoder":"3425441","distractor":"3425448","target":"absent","response":"absent","rt":"2454.4000000954","correct":true,"confidence":5},{"trial_n":46,"span":7,"encoder":"5233815","distractor":"5233875","target":"absent","response":"absent","rt":"3394.5999999046","correct":true,"confidence":4},{"trial_n":47,"span":8,"encoder":"26279640","distractor":"26279642","target":"present","response":"present","rt":"2097.5","correct":true,"confidence":3},{"trial_n":48,"span":8,"encoder":"38925775","distractor":"38925773","target":"present","response":"present","rt":"3651.7000000477","correct":true,"confidence":4},{"trial_n":49,"span":9,"encoder":"831785260","distractor":"861785260","target":"absent","response":"present","rt":"4842.1999998093","correct":false,"confidence":4},{"trial_n":50,"span":8,"encoder":"69094779","distractor":"69084779","target":"present","response":"absent","rt":"6272.5","correct":false,"confidence":2},{"trial_n":51,"span":7,"encoder":"5309585","distractor":"4309585","target":"present","response":"present","rt":"5604.8999998569","correct":true,"confidence":4},{"trial_n":52,"span":7,"encoder":"0501536","distractor":"1501536","target":"absent","response":"absent","rt":"10956","correct":true,"confidence":4},{"trial_n":53,"span":8,"encoder":"70981644","distractor":"70981674","target":"present","response":"present","rt":"5409.2000000477","correct":true,"confidence":5},{"trial_n":54,"span":8,"encoder":"80262773","distractor":"80462773","target":"absent","response":"absent","rt":"5264.2999999523","correct":true,"confidence":3},{"trial_n":55,"span":9,"encoder":"534359021","distractor":"934359021","target":"absent","response":"present","rt":"10146.299999952","correct":false,"confidence":1},{"trial_n":56,"span":8,"encoder":"86392666","distractor":"86392616","target":"absent","response":"absent","rt":"3695.7000000477","correct":true,"confidence":5},{"trial_n":57,"span":8,"encoder":"32922414","distractor":"32902414","target":"absent","response":"absent","rt":"5751.4000000954","correct":true,"confidence":3},{"trial_n":58,"span":9,"encoder":"623847938","distractor":"623847932","target":"present","response":"present","rt":"17335.600000143","correct":true,"confidence":5},{"trial_n":59,"span":9,"encoder":"128954648","distractor":"129954648","target":"present","response":"present","rt":"5156.5","correct":true,"confidence":4},{"trial_n":60,"span":10,"encoder":"2174243627","distractor":"2194243627","target":"absent","response":"absent","rt":"4110.8000001907","correct":true,"confidence":2},{"trial_n":61,"span":10,"encoder":"0825312217","distractor":"0824312217","target":"present","response":"present","rt":"6022.0999999046","correct":true,"confidence":4},{"trial_n":62,"span":11,"encoder":"94980131771","distractor":"97980131771","target":"absent","response":"absent","rt":"4601","correct":true,"confidence":4},{"trial_n":63,"span":11,"encoder":"28842032396","distractor":"28842042396","target":"absent","response":"absent","rt":"10770.100000143","correct":true,"confidence":3},{"trial_n":64,"span":12,"encoder":"377352549673","distractor":"377362549673","target":"present","response":"present","rt":"10913.5","correct":true,"confidence":4},{"trial_n":65,"span":12,"encoder":"085717399677","distractor":"080717399677","target":"absent","response":"present","rt":"11678.399999857","correct":false,"confidence":4},{"trial_n":66,"span":11,"encoder":"23096981263","distractor":"23096481263","target":"present","response":"present","rt":"5822.7000000477","correct":true,"confidence":3},{"trial_n":67,"span":11,"encoder":"85430095464","distractor":"85930095464","target":"present","response":"present","rt":"3319","correct":true,"confidence":3},{"trial_n":68,"span":12,"encoder":"728338704022","distractor":"728338700022","target":"present","response":"absent","rt":"1820.8999998569","correct":false,"confidence":5},{"trial_n":69,"span":11,"encoder":"95846987083","distractor":"95746987083","target":"absent","response":"absent","rt":"6461.3000001907","correct":true,"confidence":3},{"trial_n":70,"span":11,"encoder":"40162225177","distractor":"40162225777","target":"absent","response":"absent","rt":"4722.7999999523","correct":true,"confidence":4},{"trial_n":71,"span":8,"encoder":"98171419","distractor":"98170419","target":"present","response":"present","rt":"13034.900000095","correct":true,"confidence":-1},{"trial_n":72,"span":8,"encoder":"50245029","distractor":"50242029","target":"present","response":"absent","rt":"6839.5","correct":false,"confidence":-1},{"trial_n":73,"span":7,"encoder":"8920861","distractor":"8820861","target":"absent","response":"absent","rt":"5768.5999999046","correct":true,"confidence":-1},{"trial_n":74,"span":7,"encoder":"6054130","distractor":"6354130","target":"absent","response":"present","rt":"3479","correct":false,"confidence":-1},{"trial_n":75,"span":6,"encoder":"263111","distractor":"263161","target":"present","response":"present","rt":"3297.4000000954","correct":true,"confidence":-1},{"trial_n":76,"span":6,"encoder":"952743","distractor":"955743","target":"present","response":"present","rt":"2219.1000001431","correct":true,"confidence":-1},{"trial_n":77,"span":7,"encoder":"2027321","distractor":"2727321","target":"absent","response":"absent","rt":"4863.3999998569","correct":true,"confidence":-1},{"trial_n":78,"span":7,"encoder":"3446343","distractor":"3426343","target":"absent","response":"absent","rt":"4067.2999999523","correct":true,"confidence":-1},{"trial_n":79,"span":8,"encoder":"42035636","distractor":"42035036","target":"absent","response":"present","rt":"6896.2999999523","correct":false,"confidence":-1},{"trial_n":80,"span":7,"encoder":"6798356","distractor":"6748356","target":"present","response":"present","rt":"4989.7999999523","correct":true,"confidence":-1},{"trial_n":81,"span":7,"encoder":"9594276","distractor":"9594271","target":"present","response":"present","rt":"2625.1000001431","correct":true,"confidence":-1},{"trial_n":82,"span":8,"encoder":"72631265","distractor":"72633265","target":"absent","response":"absent","rt":"6219.7999999523","correct":true,"confidence":-1},{"trial_n":83,"span":8,"encoder":"06112104","distractor":"06142104","target":"present","response":"present","rt":"6131.1000001431","correct":true,"confidence":-1},{"trial_n":84,"span":9,"encoder":"656562649","distractor":"636562649","target":"absent","response":"absent","rt":"4194.1999998093","correct":true,"confidence":-1},{"trial_n":85,"span":9,"encoder":"631929236","distractor":"630929236","target":"present","response":"present","rt":"2422.3000001907","correct":true,"confidence":-1},{"trial_n":86,"span":10,"encoder":"9082519475","distractor":"9083519475","target":"present","response":"present","rt":"8981.3999998569","correct":true,"confidence":-1},{"trial_n":87,"span":10,"encoder":"4469766595","distractor":"4469766795","target":"absent","response":"absent","rt":"4517.5","correct":true,"confidence":-1},{"trial_n":88,"span":11,"encoder":"89625435127","distractor":"59625435127","target":"present","response":"absent","rt":"5253.2999999523","correct":false,"confidence":-1},{"trial_n":89,"span":10,"encoder":"5180655645","distractor":"5185655645","target":"present","response":"present","rt":"2022.1999998093","correct":true,"confidence":-1},{"trial_n":90,"span":10,"encoder":"9635045850","distractor":"9535045850","target":"present","response":"present","rt":"5392","correct":true,"confidence":-1},{"trial_n":91,"span":11,"encoder":"22295908880","distractor":"22295908830","target":"absent","response":"absent","rt":"4819","correct":true,"confidence":5},{"trial_n":92,"span":11,"encoder":"93531584660","distractor":"93538584660","target":"absent","response":"present","rt":"7107.5","correct":false,"confidence":3},{"trial_n":93,"span":10,"encoder":"6852255909","distractor":"6852215909","target":"absent","response":"absent","rt":"6079.7000000477","correct":true,"confidence":3},{"trial_n":94,"span":10,"encoder":"8467600410","distractor":"8468600410","target":"present","response":"absent","rt":"426.70000004768","correct":false,"confidence":1},{"trial_n":95,"span":9,"encoder":"639753050","distractor":"632753050","target":"absent","response":"absent","rt":"4923.8999998569","correct":true,"confidence":3},{"trial_n":96,"span":9,"encoder":"245481047","distractor":"245481067","target":"absent","response":"absent","rt":"5970.7000000477","correct":true,"confidence":5},{"trial_n":97,"span":10,"encoder":"0351685117","distractor":"0351685317","target":"absent","response":"absent","rt":"3499.1000001431","correct":true,"confidence":5},{"trial_n":98,"span":10,"encoder":"1451099768","distractor":"1451099268","target":"absent","response":"absent","rt":"6862.3000001907","correct":true,"confidence":4},{"trial_n":99,"span":11,"encoder":"56899250423","distractor":"56899250123","target":"absent","response":"absent","rt":"2509.0999999046","correct":true,"confidence":5},{"trial_n":100,"span":11,"encoder":"81956538653","distractor":"81916538653","target":"absent","response":"absent","rt":"6197.7999999523","correct":true,"confidence":3},{"trial_n":101,"span":12,"encoder":"120387898395","distractor":"120377898395","target":"absent","response":"absent","rt":"6029.3999998569","correct":true,"confidence":5},{"trial_n":102,"span":12,"encoder":"007706873333","distractor":"007706813333","target":"absent","response":"absent","rt":"14853.799999952","correct":true,"confidence":3},{"trial_n":103,"span":13,"encoder":"8582357612798","distractor":"8512357612798","target":"present","response":"present","rt":"10708.200000048","correct":true,"confidence":2},{"trial_n":104,"span":13,"encoder":"5880035765682","distractor":"5380035765682","target":"present","response":"absent","rt":"14753","correct":false,"confidence":3},{"trial_n":105,"span":12,"encoder":"460796978370","distractor":"460796978360","target":"absent","response":"absent","rt":"9166.2000000477","correct":true,"confidence":4},{"trial_n":106,"span":12,"encoder":"394351481513","distractor":"394391481513","target":"present","response":"absent","rt":"12479.899999857","correct":false,"confidence":2},{"trial_n":107,"span":11,"encoder":"62915150299","distractor":"62915550299","target":"present","response":"absent","rt":"13057.400000095","correct":false,"confidence":3},{"trial_n":108,"span":10,"encoder":"3474438890","distractor":"3474438290","target":"present","response":"present","rt":"5607.8000001907","correct":true,"confidence":4},{"trial_n":109,"span":10,"encoder":"0733407210","distractor":"0733307210","target":"present","response":"present","rt":"3721.2000000477","correct":true,"confidence":4},{"trial_n":110,"span":11,"encoder":"69369362735","distractor":"19369362735","target":"absent","response":"absent","rt":"4947.4000000954","correct":true,"confidence":5},{"trial_n":111,"span":11,"encoder":"37362257736","distractor":"37360257736","target":"present","response":"absent","rt":"13887.799999952","correct":false,"confidence":3},{"trial_n":112,"span":10,"encoder":"2478582067","distractor":"2478582047","target":"present","response":"absent","rt":"9175.5","correct":false,"confidence":3},{"trial_n":113,"span":9,"encoder":"334065222","distractor":"324065222","target":"present","response":"absent","rt":"10193.199999809","correct":false,"confidence":2},{"trial_n":114,"span":8,"encoder":"19991895","distractor":"19997895","target":"absent","response":"absent","rt":"7071.4000000954","correct":true,"confidence":4},{"trial_n":115,"span":8,"encoder":"66825438","distractor":"16825438","target":"present","response":"present","rt":"13835.700000048","correct":true,"confidence":3},{"trial_n":116,"span":9,"encoder":"189617262","distractor":"889617262","target":"absent","response":"absent","rt":"2423.2999999523","correct":true,"confidence":5},{"trial_n":117,"span":9,"encoder":"761308780","distractor":"766308780","target":"absent","response":"absent","rt":"8908.2999999523","correct":true,"confidence":1},{"trial_n":118,"span":10,"encoder":"7262439704","distractor":"7962439704","target":"present","response":"absent","rt":"7588.5999999046","correct":false,"confidence":4},{"trial_n":119,"span":9,"encoder":"352077318","distractor":"322077318","target":"absent","response":"absent","rt":"5444.2000000477","correct":true,"confidence":5},{"trial_n":120,"span":9,"encoder":"248158190","distractor":"248158191","target":"absent","response":"absent","rt":"4776.9000000954","correct":true,"confidence":5},{"trial_n":121,"span":10,"encoder":"7347125078","distractor":"8347125078","target":"absent","response":"absent","rt":"5493.5999999046","correct":true,"confidence":4},{"trial_n":122,"span":10,"encoder":"2733441487","distractor":"2733741487","target":"absent","response":"absent","rt":"9216.5","correct":true,"confidence":4},{"trial_n":123,"span":11,"encoder":"52893425658","distractor":"54893425658","target":"absent","response":"absent","rt":"6650.9000000954","correct":true,"confidence":2},{"trial_n":124,"span":11,"encoder":"43419223708","distractor":"43419253708","target":"present","response":"present","rt":"8500","correct":true,"confidence":3},{"trial_n":125,"span":12,"encoder":"733758553849","distractor":"730758553849","target":"present","response":"present","rt":"7108.4000000954","correct":true,"confidence":4},{"trial_n":126,"span":12,"encoder":"096015183724","distractor":"096015183744","target":"present","response":"present","rt":"7114","correct":true,"confidence":5},{"trial_n":127,"span":13,"encoder":"6325712761459","distractor":"3325712761459","target":"present","response":"present","rt":"14406.299999952","correct":true,"confidence":4},{"trial_n":128,"span":13,"encoder":"4331067708796","distractor":"4334067708796","target":"absent","response":"absent","rt":"10520.099999905","correct":true,"confidence":3},{"trial_n":129,"span":14,"encoder":"96145234995424","distractor":"56145234995424","target":"absent","response":"absent","rt":"12926.900000095","correct":true,"confidence":4},{"trial_n":130,"span":14,"encoder":"82499752304369","distractor":"82499752104369","target":"absent","response":"present","rt":"15323.700000048","correct":false,"confidence":1},{"trial_n":131,"span":13,"encoder":"6530121287386","distractor":"6530121247386","target":"present","response":"present","rt":"7107.7000000477","correct":true,"confidence":5},{"trial_n":132,"span":13,"encoder":"4994381145739","distractor":"4994381145239","target":"present","response":"present","rt":"21953.199999809","correct":true,"confidence":4},{"trial_n":133,"span":14,"encoder":"91690796996265","distractor":"91690791996265","target":"present","response":"absent","rt":"30097.099999905","correct":false,"confidence":2},{"trial_n":134,"span":13,"encoder":"9671253999945","distractor":"9673253999945","target":"present","response":"present","rt":"13314","correct":true,"confidence":3},{"trial_n":135,"span":13,"encoder":"5094666399510","distractor":"5024666399510","target":"present","response":"absent","rt":"8812.5","correct":false,"confidence":4},{"trial_n":136,"span":12,"encoder":"102135588723","distractor":"102135588726","target":"absent","response":"absent","rt":"9535.1000001431","correct":true,"confidence":5},{"trial_n":137,"span":12,"encoder":"933892564126","distractor":"933892664126","target":"present","response":"absent","rt":"10718.099999905","correct":false,"confidence":3},{"trial_n":138,"span":11,"encoder":"78408838690","distractor":"78408832690","target":"present","response":"present","rt":"6073","correct":true,"confidence":4},{"trial_n":139,"span":11,"encoder":"31829910687","distractor":"21829910687","target":"absent","response":"absent","rt":"12974.800000191","correct":true,"confidence":5},{"trial_n":140,"span":12,"encoder":"785255383150","distractor":"785755383150","target":"present","response":"absent","rt":"9957.0999999046","correct":false,"confidence":1}]