[{"trial_n":1,"n_dots":4.25,"target":"left","response":"left","rt":10221.299999952,"correct":true,"confidence":-1},{"trial_n":2,"n_dots":4.25,"target":"left","response":"right","rt":3729.0999999046,"correct":false,"confidence":-1},{"trial_n":3,"n_dots":4.65,"target":"left","response":"left","rt":676.60000014305,"correct":true,"confidence":-1},{"trial_n":4,"n_dots":4.65,"target":"left","response":"left","rt":740.79999995232,"correct":true,"confidence":-1},{"trial_n":5,"n_dots":4.25,"target":"right","response":"right","rt":285,"correct":true,"confidence":-1},{"trial_n":6,"n_dots":4.25,"target":"left","response":"right","rt":1254.7000000477,"correct":false,"confidence":-1},{"trial_n":7,"n_dots":4.65,"target":"left","response":"left","rt":163.79999995232,"correct":true,"confidence":-1},{"trial_n":8,"n_dots":4.65,"target":"left","response":"left","rt":2173.4000000954,"correct":true,"confidence":-1},{"trial_n":9,"n_dots":4.45,"target":"left","response":"right","rt":627.40000009537,"correct":false,"confidence":-1},{"trial_n":10,"n_dots":4.65,"target":"right","response":"right","rt":131.09999990463,"correct":true,"confidence":-1},{"trial_n":11,"n_dots":4.65,"target":"left","response":"left","rt":109.29999995232,"correct":true,"confidence":-1},{"trial_n":12,"n_dots":4.45,"target":"right","response":"right","rt":110.10000014305,"correct":true,"confidence":-1},{"trial_n":13,"n_dots":4.45,"target":"right","response":"right","rt":2.6999998092651,"correct":true,"confidence":-1},{"trial_n":14,"n_dots":4.35,"target":"right","response":"right","rt":61.400000095367,"correct":true,"confidence":-1},{"trial_n":15,"n_dots":4.35,"target":"right","response":"right","rt":252.5,"correct":true,"confidence":-1},{"trial_n":16,"n_dots":4.25,"target":"left","response":"left","rt":371.70000004768,"correct":true,"confidence":-1},{"trial_n":17,"n_dots":4.25,"target":"right","response":"right","rt":35.699999809265,"correct":true,"confidence":-1},{"trial_n":18,"n_dots":4.15,"target":"left","response":"left","rt":1128.8999998569,"correct":true,"confidence":-1},{"trial_n":19,"n_dots":4.15,"target":"left","response":"left","rt":900.90000009537,"correct":true,"confidence":-1},{"trial_n":20,"n_dots":4.05,"target":"right","response":"right","rt":235,"correct":true,"confidence":-1},{"trial_n":21,"n_dots":4.05,"target":"left","response":"left","rt":1963.6000001431,"correct":true,"confidence":5},{"trial_n":22,"n_dots":3.95,"target":"right","response":"right","rt":416.70000004768,"correct":true,"confidence":5},{"trial_n":23,"n_dots":3.95,"target":"right","response":"right","rt":775.90000009537,"correct":true,"confidence":5},{"trial_n":24,"n_dots":3.85,"target":"left","response":"left","rt":1325.6000001431,"correct":true,"confidence":2},{"trial_n":25,"n_dots":3.85,"target":"right","response":"right","rt":754.79999995232,"correct":true,"confidence":5},{"trial_n":26,"n_dots":3.75,"target":"left","response":"right","rt":1071.7000000477,"correct":false,"confidence":2},{"trial_n":27,"n_dots":3.85,"target":"right","response":"right","rt":615.10000014305,"correct":true,"confidence":4},{"trial_n":28,"n_dots":3.85,"target":"left","response":"left","rt":1011.0999999046,"correct":true,"confidence":3},{"trial_n":29,"n_dots":3.75,"target":"right","response":"right","rt":868.19999980927,"correct":true,"confidence":5},{"trial_n":30,"n_dots":3.75,"target":"right","response":"right","rt":531.90000009537,"correct":true,"confidence":5},{"trial_n":31,"n_dots":3.65,"target":"left","response":"left","rt":1278.7000000477,"correct":true,"confidence":3},{"trial_n":32,"n_dots":3.65,"target":"left","response":"left","rt":911.40000009537,"correct":true,"confidence":3},{"trial_n":33,"n_dots":3.55,"target":"left","response":"left","rt":982,"correct":true,"confidence":3},{"trial_n":34,"n_dots":3.55,"target":"left","response":"right","rt":787,"correct":false,"confidence":3},{"trial_n":35,"n_dots":3.65,"target":"right","response":"right","rt":907.19999980927,"correct":true,"confidence":4},{"trial_n":36,"n_dots":3.65,"target":"right","response":"right","rt":468.20000004768,"correct":true,"confidence":5},{"trial_n":37,"n_dots":3.55,"target":"right","response":"right","rt":251.79999995232,"correct":true,"confidence":5},{"trial_n":38,"n_dots":3.55,"target":"left","response":"right","rt":311,"correct":false,"confidence":4},{"trial_n":39,"n_dots":3.65,"target":"right","response":"right","rt":240.59999990463,"correct":true,"confidence":4},{"trial_n":40,"n_dots":3.65,"target":"right","response":"right","rt":717.09999990463,"correct":true,"confidence":5},{"trial_n":41,"n_dots":3.55,"target":"right","response":"left","rt":945.69999980927,"correct":false,"confidence":2},{"trial_n":42,"n_dots":3.65,"target":"left","response":"left","rt":755.69999980927,"correct":true,"confidence":2},{"trial_n":43,"n_dots":3.65,"target":"left","response":"left","rt":808.90000009537,"correct":true,"confidence":4},{"trial_n":44,"n_dots":3.55,"target":"left","response":"left","rt":813.29999995232,"correct":true,"confidence":3},{"trial_n":45,"n_dots":3.55,"target":"left","response":"left","rt":959.5,"correct":true,"confidence":2},{"trial_n":46,"n_dots":3.45,"target":"left","response":"left","rt":1542.7999999523,"correct":true,"confidence":2},{"trial_n":47,"n_dots":3.45,"target":"right","response":"right","rt":629.5,"correct":true,"confidence":4},{"trial_n":48,"n_dots":3.35,"target":"right","response":"right","rt":530.09999990463,"correct":true,"confidence":5},{"trial_n":49,"n_dots":3.35,"target":"left","response":"right","rt":664.29999995232,"correct":false,"confidence":4},{"trial_n":50,"n_dots":3.45,"target":"left","response":"left","rt":492.40000009537,"correct":true,"confidence":5},{"trial_n":51,"n_dots":3.45,"target":"left","response":"right","rt":529.59999990463,"correct":false,"confidence":3},{"trial_n":52,"n_dots":3.55,"target":"left","response":"left","rt":810.90000009537,"correct":true,"confidence":3},{"trial_n":53,"n_dots":3.55,"target":"left","response":"right","rt":591.89999985695,"correct":false,"confidence":3},{"trial_n":54,"n_dots":3.65,"target":"right","response":"right","rt":462.10000014305,"correct":true,"confidence":5},{"trial_n":55,"n_dots":3.65,"target":"right","response":"right","rt":516.09999990463,"correct":true,"confidence":5},{"trial_n":56,"n_dots":3.55,"target":"right","response":"right","rt":613.29999995232,"correct":true,"confidence":5},{"trial_n":57,"n_dots":3.55,"target":"right","response":"left","rt":747.19999980927,"correct":false,"confidence":1},{"trial_n":58,"n_dots":3.65,"target":"right","response":"right","rt":646.09999990463,"correct":true,"confidence":4},{"trial_n":59,"n_dots":3.65,"target":"right","response":"right","rt":752.69999980927,"correct":true,"confidence":4},{"trial_n":60,"n_dots":3.55,"target":"right","response":"right","rt":746.79999995232,"correct":true,"confidence":3},{"trial_n":61,"n_dots":3.55,"target":"left","response":"left","rt":943,"correct":true,"confidence":1},{"trial_n":62,"n_dots":3.45,"target":"right","response":"right","rt":765.30000019073,"correct":true,"confidence":3},{"trial_n":63,"n_dots":3.45,"target":"left","response":"right","rt":544.5,"correct":false,"confidence":3},{"trial_n":64,"n_dots":3.55,"target":"right","response":"right","rt":802.5,"correct":true,"confidence":4},{"trial_n":65,"n_dots":3.55,"target":"left","response":"left","rt":1114.9000000954,"correct":true,"confidence":2},{"trial_n":66,"n_dots":3.45,"target":"right","response":"right","rt":445,"correct":true,"confidence":4},{"trial_n":67,"n_dots":3.45,"target":"right","response":"right","rt":560,"correct":true,"confidence":3},{"trial_n":68,"n_dots":3.35,"target":"left","response":"right","rt":556.89999985695,"correct":false,"confidence":3},{"trial_n":69,"n_dots":3.45,"target":"left","response":"right","rt":990.29999995232,"correct":false,"confidence":4},{"trial_n":70,"n_dots":3.55,"target":"left","response":"right","rt":1030.7000000477,"correct":false,"confidence":4},{"trial_n":71,"n_dots":3.65,"target":"right","response":"right","rt":902.5,"correct":true,"confidence":4},{"trial_n":72,"n_dots":3.65,"target":"right","response":"right","rt":1322.7999999523,"correct":true,"confidence":3},{"trial_n":73,"n_dots":3.55,"target":"left","response":"left","rt":1565,"correct":true,"confidence":3},{"trial_n":74,"n_dots":3.55,"target":"right","response":"right","rt":929.79999995232,"correct":true,"confidence":4},{"trial_n":75,"n_dots":3.45,"target":"left","response":"left","rt":509.5,"correct":true,"confidence":4},{"trial_n":76,"n_dots":3.45,"target":"right","response":"right","rt":621.5,"correct":true,"confidence":4},{"trial_n":77,"n_dots":3.35,"target":"left","response":"right","rt":1215,"correct":false,"confidence":2},{"trial_n":78,"n_dots":3.45,"target":"right","response":"right","rt":1057.8999998569,"correct":true,"confidence":4},{"trial_n":79,"n_dots":3.45,"target":"left","response":"right","rt":954.70000004768,"correct":false,"confidence":4},{"trial_n":80,"n_dots":3.55,"target":"right","response":"right","rt":783.60000014305,"correct":true,"confidence":4},{"trial_n":81,"n_dots":3.55,"target":"left","response":"left","rt":952,"correct":true,"confidence":4},{"trial_n":82,"n_dots":3.45,"target":"right","response":"right","rt":1373.6000001431,"correct":true,"confidence":3},{"trial_n":83,"n_dots":3.45,"target":"left","response":"left","rt":734.90000009537,"correct":true,"confidence":5},{"trial_n":84,"n_dots":3.35,"target":"left","response":"right","rt":1307.3999998569,"correct":false,"confidence":3},{"trial_n":85,"n_dots":3.45,"target":"left","response":"left","rt":792.29999995232,"correct":true,"confidence":4},{"trial_n":86,"n_dots":3.45,"target":"right","response":"right","rt":733,"correct":true,"confidence":4},{"trial_n":87,"n_dots":3.35,"target":"left","response":"right","rt":440.79999995232,"correct":false,"confidence":4},{"trial_n":88,"n_dots":3.45,"target":"left","response":"right","rt":1495.9000000954,"correct":false,"confidence":3},{"trial_n":89,"n_dots":3.55,"target":"left","response":"right","rt":842.40000009537,"correct":false,"confidence":2},{"trial_n":90,"n_dots":3.65,"target":"left","response":"right","rt":1132.2000000477,"correct":false,"confidence":2},{"trial_n":91,"n_dots":3.75,"target":"right","response":"right","rt":586.80000019073,"correct":true,"confidence":4},{"trial_n":92,"n_dots":3.75,"target":"left","response":"left","rt":910.40000009537,"correct":true,"confidence":3},{"trial_n":93,"n_dots":3.65,"target":"right","response":"right","rt":485,"correct":true,"confidence":4},{"trial_n":94,"n_dots":3.65,"target":"left","response":"left","rt":819.10000014305,"correct":true,"confidence":3},{"trial_n":95,"n_dots":3.55,"target":"right","response":"right","rt":454.5,"correct":true,"confidence":4},{"trial_n":96,"n_dots":3.55,"target":"left","response":"left","rt":985.20000004768,"correct":true,"confidence":3},{"trial_n":97,"n_dots":3.45,"target":"right","response":"right","rt":592.89999985695,"correct":true,"confidence":4},{"trial_n":98,"n_dots":3.45,"target":"left","response":"left","rt":616.5,"correct":true,"confidence":3},{"trial_n":99,"n_dots":3.35,"target":"right","response":"right","rt":402.79999995232,"correct":true,"confidence":4},{"trial_n":100,"n_dots":3.35,"target":"left","response":"right","rt":691.29999995232,"correct":false,"confidence":3},{"trial_n":101,"n_dots":3.45,"target":"right","response":"right","rt":4810,"correct":true,"confidence":3},{"trial_n":102,"n_dots":3.45,"target":"right","response":"left","rt":702.79999995232,"correct":false,"confidence":3},{"trial_n":103,"n_dots":3.55,"target":"right","response":"right","rt":440.20000004768,"correct":true,"confidence":3},{"trial_n":104,"n_dots":3.55,"target":"right","response":"right","rt":924.10000014305,"correct":true,"confidence":4},{"trial_n":105,"n_dots":3.45,"target":"right","response":"right","rt":394.29999995232,"correct":true,"confidence":4},{"trial_n":106,"n_dots":3.45,"target":"right","response":"right","rt":212.10000014305,"correct":true,"confidence":4},{"trial_n":107,"n_dots":3.35,"target":"left","response":"left","rt":625.09999990463,"correct":true,"confidence":5},{"trial_n":108,"n_dots":3.35,"target":"left","response":"right","rt":683.79999995232,"correct":false,"confidence":5},{"trial_n":109,"n_dots":3.45,"target":"right","response":"right","rt":811.90000009537,"correct":true,"confidence":3},{"trial_n":110,"n_dots":3.45,"target":"left","response":"left","rt":553.5,"correct":true,"confidence":3},{"trial_n":111,"n_dots":3.35,"target":"right","response":"right","rt":794.60000014305,"correct":true,"confidence":3},{"trial_n":112,"n_dots":3.35,"target":"left","response":"left","rt":757,"correct":true,"confidence":3},{"trial_n":113,"n_dots":3.25,"target":"right","response":"right","rt":861.60000014305,"correct":true,"confidence":3},{"trial_n":114,"n_dots":3.25,"target":"right","response":"right","rt":351.59999990463,"correct":true,"confidence":4},{"trial_n":115,"n_dots":3.15,"target":"right","response":"right","rt":700.70000004768,"correct":true,"confidence":3},{"trial_n":116,"n_dots":3.15,"target":"left","response":"left","rt":902.20000004768,"correct":true,"confidence":3},{"trial_n":117,"n_dots":3.05,"target":"right","response":"right","rt":771.79999995232,"correct":true,"confidence":3},{"trial_n":118,"n_dots":3.05,"target":"right","response":"right","rt":595.10000014305,"correct":true,"confidence":4},{"trial_n":119,"n_dots":2.95,"target":"left","response":"left","rt":436.20000004768,"correct":true,"confidence":4},{"trial_n":120,"n_dots":2.95,"target":"right","response":"right","rt":518.10000014305,"correct":true,"confidence":4}]