[{"trial_n":1,"min":25,"max":230,"target":"present","response":"present","rt":15400.100000143,"correct":true,"confidence":-1},{"trial_n":2,"min":25,"max":230,"target":"present","response":"absent","rt":2130.6000001431,"correct":false,"confidence":-1},{"trial_n":3,"min":9,"max":246,"target":"absent","response":"absent","rt":1254.5,"correct":true,"confidence":-1},{"trial_n":4,"min":9,"max":246,"target":"absent","response":"absent","rt":866.89999985695,"correct":true,"confidence":-1},{"trial_n":5,"min":25,"max":230,"target":"present","response":"present","rt":1463.7999999523,"correct":true,"confidence":-1},{"trial_n":6,"min":25,"max":230,"target":"absent","response":"absent","rt":2176.2999999523,"correct":true,"confidence":-1},{"trial_n":7,"min":41,"max":214,"target":"absent","response":"absent","rt":683,"correct":true,"confidence":-1},{"trial_n":8,"min":41,"max":214,"target":"absent","response":"absent","rt":497.59999990463,"correct":true,"confidence":-1},{"trial_n":9,"min":57,"max":198,"target":"present","response":"present","rt":599.90000009537,"correct":true,"confidence":-1},{"trial_n":10,"min":57,"max":198,"target":"present","response":"present","rt":1054,"correct":true,"confidence":-1},{"trial_n":11,"min":65,"max":190,"target":"present","response":"present","rt":931.79999995232,"correct":true,"confidence":-1},{"trial_n":12,"min":65,"max":190,"target":"present","response":"present","rt":647.5,"correct":true,"confidence":-1},{"trial_n":13,"min":73,"max":182,"target":"present","response":"absent","rt":389.10000014305,"correct":false,"confidence":-1},{"trial_n":14,"min":65,"max":190,"target":"absent","response":"present","rt":716.5,"correct":false,"confidence":-1},{"trial_n":15,"min":57,"max":198,"target":"present","response":"absent","rt":2063.5,"correct":false,"confidence":-1},{"trial_n":16,"min":49,"max":206,"target":"absent","response":"present","rt":654.29999995232,"correct":false,"confidence":-1},{"trial_n":17,"min":41,"max":214,"target":"present","response":"present","rt":2529.5,"correct":true,"confidence":-1},{"trial_n":18,"min":41,"max":214,"target":"present","response":"present","rt":444.40000009537,"correct":true,"confidence":-1},{"trial_n":19,"min":49,"max":206,"target":"present","response":"present","rt":433.90000009537,"correct":true,"confidence":-1},{"trial_n":20,"min":49,"max":206,"target":"absent","response":"absent","rt":599.70000004768,"correct":true,"confidence":-1},{"trial_n":21,"min":53,"max":202,"target":"absent","response":"present","rt":2992.5,"correct":false,"confidence":1},{"trial_n":22,"min":49,"max":206,"target":"present","response":"present","rt":2833,"correct":true,"confidence":4},{"trial_n":23,"min":49,"max":206,"target":"absent","response":"absent","rt":10866.300000191,"correct":true,"confidence":4},{"trial_n":24,"min":53,"max":202,"target":"absent","response":"present","rt":3524.2999999523,"correct":false,"confidence":2},{"trial_n":25,"min":49,"max":206,"target":"present","response":"present","rt":1462.7999999523,"correct":true,"confidence":5},{"trial_n":26,"min":49,"max":206,"target":"present","response":"present","rt":1192.2999999523,"correct":true,"confidence":5},{"trial_n":27,"min":53,"max":202,"target":"absent","response":"absent","rt":1191.2000000477,"correct":true,"confidence":4},{"trial_n":28,"min":53,"max":202,"target":"present","response":"present","rt":2416.3999998569,"correct":true,"confidence":3},{"trial_n":29,"min":57,"max":198,"target":"present","response":"present","rt":1051.7999999523,"correct":true,"confidence":5},{"trial_n":30,"min":57,"max":198,"target":"absent","response":"absent","rt":1413.5999999046,"correct":true,"confidence":5},{"trial_n":31,"min":59,"max":196,"target":"present","response":"present","rt":1556.2999999523,"correct":true,"confidence":5},{"trial_n":32,"min":59,"max":196,"target":"present","response":"present","rt":1735.6000001431,"correct":true,"confidence":5},{"trial_n":33,"min":61,"max":194,"target":"absent","response":"absent","rt":1079.6000001431,"correct":true,"confidence":5},{"trial_n":34,"min":61,"max":194,"target":"absent","response":"absent","rt":1023.5,"correct":true,"confidence":5},{"trial_n":35,"min":63,"max":192,"target":"absent","response":"absent","rt":2346.2000000477,"correct":true,"confidence":3},{"trial_n":36,"min":63,"max":192,"target":"present","response":"present","rt":1193.5,"correct":true,"confidence":5},{"trial_n":37,"min":65,"max":190,"target":"absent","response":"absent","rt":1096.7999999523,"correct":true,"confidence":5},{"trial_n":38,"min":65,"max":190,"target":"present","response":"present","rt":2290.5,"correct":true,"confidence":5},{"trial_n":39,"min":67,"max":188,"target":"present","response":"present","rt":1177.5999999046,"correct":true,"confidence":5},{"trial_n":40,"min":67,"max":188,"target":"present","response":"present","rt":1965.7999999523,"correct":true,"confidence":4},{"trial_n":41,"min":68,"max":187,"target":"absent","response":"absent","rt":983.09999990463,"correct":true,"confidence":4},{"trial_n":42,"min":68,"max":187,"target":"absent","response":"absent","rt":882.20000004768,"correct":true,"confidence":5},{"trial_n":43,"min":69,"max":186,"target":"present","response":"present","rt":1518.5,"correct":true,"confidence":4},{"trial_n":44,"min":69,"max":186,"target":"absent","response":"absent","rt":855.5,"correct":true,"confidence":4},{"trial_n":45,"min":70,"max":185,"target":"present","response":"present","rt":1523,"correct":true,"confidence":3},{"trial_n":46,"min":70,"max":185,"target":"present","response":"present","rt":1103.2999999523,"correct":true,"confidence":4},{"trial_n":47,"min":71,"max":184,"target":"present","response":"present","rt":1081.5,"correct":true,"confidence":5},{"trial_n":48,"min":71,"max":184,"target":"present","response":"present","rt":1069.4000000954,"correct":true,"confidence":4},{"trial_n":49,"min":72,"max":183,"target":"present","response":"present","rt":1335.9000000954,"correct":true,"confidence":5},{"trial_n":50,"min":72,"max":183,"target":"present","response":"absent","rt":1466,"correct":false,"confidence":3},{"trial_n":51,"min":71,"max":184,"target":"absent","response":"absent","rt":988.09999990463,"correct":true,"confidence":5},{"trial_n":52,"min":71,"max":184,"target":"absent","response":"absent","rt":979.09999990463,"correct":true,"confidence":5},{"trial_n":53,"min":72,"max":183,"target":"present","response":"present","rt":926,"correct":true,"confidence":4},{"trial_n":54,"min":72,"max":183,"target":"present","response":"present","rt":1113.3999998569,"correct":true,"confidence":4},{"trial_n":55,"min":73,"max":182,"target":"absent","response":"absent","rt":887.5,"correct":true,"confidence":4},{"trial_n":56,"min":73,"max":182,"target":"present","response":"present","rt":930,"correct":true,"confidence":5},{"trial_n":57,"min":74,"max":181,"target":"absent","response":"absent","rt":916,"correct":true,"confidence":5},{"trial_n":58,"min":74,"max":181,"target":"absent","response":"absent","rt":1030.7000000477,"correct":true,"confidence":4},{"trial_n":59,"min":75,"max":180,"target":"absent","response":"absent","rt":1739.5,"correct":true,"confidence":5},{"trial_n":60,"min":75,"max":180,"target":"absent","response":"absent","rt":828.40000009537,"correct":true,"confidence":5},{"trial_n":61,"min":76,"max":179,"target":"absent","response":"absent","rt":2691.6000001431,"correct":true,"confidence":3},{"trial_n":62,"min":76,"max":179,"target":"absent","response":"absent","rt":1413,"correct":true,"confidence":4},{"trial_n":63,"min":77,"max":178,"target":"absent","response":"absent","rt":915.60000014305,"correct":true,"confidence":5},{"trial_n":64,"min":77,"max":178,"target":"present","response":"present","rt":1502.3000001907,"correct":true,"confidence":3},{"trial_n":65,"min":78,"max":177,"target":"absent","response":"absent","rt":761.09999990463,"correct":true,"confidence":5},{"trial_n":66,"min":78,"max":177,"target":"absent","response":"absent","rt":1498.1000001431,"correct":true,"confidence":5},{"trial_n":67,"min":79,"max":176,"target":"present","response":"present","rt":1027.2999999523,"correct":true,"confidence":5},{"trial_n":68,"min":79,"max":176,"target":"present","response":"absent","rt":3425.7000000477,"correct":false,"confidence":1},{"trial_n":69,"min":78,"max":177,"target":"absent","response":"absent","rt":1048.2000000477,"correct":true,"confidence":3},{"trial_n":70,"min":78,"max":177,"target":"absent","response":"absent","rt":1504.1000001431,"correct":true,"confidence":3},{"trial_n":71,"min":41,"max":214,"target":"present","response":"absent","rt":8753.2999999523,"correct":false,"confidence":-1},{"trial_n":72,"min":41,"max":214,"target":"present","response":"present","rt":1496.8000001907,"correct":true,"confidence":-1},{"trial_n":73,"min":41,"max":214,"target":"absent","response":"absent","rt":1057.2000000477,"correct":true,"confidence":-1},{"trial_n":74,"min":57,"max":198,"target":"absent","response":"absent","rt":755.29999995232,"correct":true,"confidence":-1},{"trial_n":75,"min":57,"max":198,"target":"present","response":"present","rt":629.09999990463,"correct":true,"confidence":-1},{"trial_n":76,"min":73,"max":182,"target":"absent","response":"absent","rt":533.40000009537,"correct":true,"confidence":-1},{"trial_n":77,"min":73,"max":182,"target":"absent","response":"absent","rt":704.20000004768,"correct":true,"confidence":-1},{"trial_n":78,"min":89,"max":166,"target":"absent","response":"present","rt":1031.2000000477,"correct":false,"confidence":-1},{"trial_n":79,"min":73,"max":182,"target":"present","response":"present","rt":494.5,"correct":true,"confidence":-1},{"trial_n":80,"min":73,"max":182,"target":"absent","response":"absent","rt":575.59999990463,"correct":true,"confidence":-1},{"trial_n":81,"min":81,"max":174,"target":"absent","response":"absent","rt":905.10000014305,"correct":true,"confidence":-1},{"trial_n":82,"min":81,"max":174,"target":"present","response":"present","rt":394.29999995232,"correct":true,"confidence":-1},{"trial_n":83,"min":89,"max":166,"target":"absent","response":"absent","rt":942.5,"correct":true,"confidence":-1},{"trial_n":84,"min":89,"max":166,"target":"absent","response":"absent","rt":822.40000009537,"correct":true,"confidence":-1},{"trial_n":85,"min":97,"max":158,"target":"absent","response":"absent","rt":592.79999995232,"correct":true,"confidence":-1},{"trial_n":86,"min":97,"max":158,"target":"absent","response":"absent","rt":790.39999985695,"correct":true,"confidence":-1},{"trial_n":87,"min":105,"max":150,"target":"present","response":"absent","rt":759.89999985695,"correct":false,"confidence":-1},{"trial_n":88,"min":97,"max":158,"target":"present","response":"absent","rt":725.80000019073,"correct":false,"confidence":-1},{"trial_n":89,"min":89,"max":166,"target":"present","response":"absent","rt":439.59999990463,"correct":false,"confidence":-1},{"trial_n":90,"min":81,"max":174,"target":"present","response":"present","rt":413.29999995232,"correct":true,"confidence":-1},{"trial_n":91,"min":81,"max":174,"target":"present","response":"absent","rt":3504.2999999523,"correct":false,"confidence":3},{"trial_n":92,"min":77,"max":178,"target":"present","response":"present","rt":1667.2000000477,"correct":true,"confidence":4},{"trial_n":93,"min":77,"max":178,"target":"present","response":"present","rt":1042.8999998569,"correct":true,"confidence":5},{"trial_n":94,"min":81,"max":174,"target":"present","response":"present","rt":1083.2999999523,"correct":true,"confidence":5},{"trial_n":95,"min":81,"max":174,"target":"absent","response":"absent","rt":2062,"correct":true,"confidence":2},{"trial_n":96,"min":85,"max":170,"target":"absent","response":"absent","rt":1414.5,"correct":true,"confidence":3},{"trial_n":97,"min":85,"max":170,"target":"present","response":"present","rt":1313.5999999046,"correct":true,"confidence":4},{"trial_n":98,"min":89,"max":166,"target":"present","response":"present","rt":991.20000004768,"correct":true,"confidence":4},{"trial_n":99,"min":89,"max":166,"target":"present","response":"absent","rt":1061.7999999523,"correct":false,"confidence":4},{"trial_n":100,"min":85,"max":170,"target":"present","response":"present","rt":1758.9000000954,"correct":true,"confidence":2},{"trial_n":101,"min":85,"max":170,"target":"absent","response":"absent","rt":1642.9000000954,"correct":true,"confidence":3},{"trial_n":102,"min":87,"max":168,"target":"absent","response":"present","rt":844.29999995232,"correct":false,"confidence":2},{"trial_n":103,"min":85,"max":170,"target":"present","response":"present","rt":680.5,"correct":true,"confidence":2},{"trial_n":104,"min":85,"max":170,"target":"present","response":"present","rt":702.60000014305,"correct":true,"confidence":3},{"trial_n":105,"min":87,"max":168,"target":"present","response":"present","rt":1949.8000001907,"correct":true,"confidence":2},{"trial_n":106,"min":87,"max":168,"target":"present","response":"present","rt":665.59999990463,"correct":true,"confidence":3},{"trial_n":107,"min":89,"max":166,"target":"present","response":"present","rt":1107,"correct":true,"confidence":3},{"trial_n":108,"min":89,"max":166,"target":"absent","response":"absent","rt":1225.5,"correct":true,"confidence":4},{"trial_n":109,"min":91,"max":164,"target":"present","response":"absent","rt":1248.2000000477,"correct":false,"confidence":3},{"trial_n":110,"min":89,"max":166,"target":"present","response":"absent","rt":1543.1000001431,"correct":false,"confidence":3},{"trial_n":111,"min":88,"max":167,"target":"absent","response":"present","rt":1183.7000000477,"correct":false,"confidence":2},{"trial_n":112,"min":87,"max":168,"target":"absent","response":"present","rt":1601.5999999046,"correct":false,"confidence":2},{"trial_n":113,"min":86,"max":169,"target":"absent","response":"absent","rt":1699,"correct":true,"confidence":2},{"trial_n":114,"min":86,"max":169,"target":"present","response":"absent","rt":1192.5,"correct":false,"confidence":4},{"trial_n":115,"min":85,"max":170,"target":"absent","response":"absent","rt":959.19999980927,"correct":true,"confidence":4},{"trial_n":116,"min":85,"max":170,"target":"absent","response":"absent","rt":1891,"correct":true,"confidence":3},{"trial_n":117,"min":86,"max":169,"target":"absent","response":"absent","rt":1522.3000001907,"correct":true,"confidence":3},{"trial_n":118,"min":86,"max":169,"target":"absent","response":"absent","rt":1997.9000000954,"correct":true,"confidence":2},{"trial_n":119,"min":87,"max":168,"target":"present","response":"present","rt":986.40000009537,"correct":true,"confidence":4},{"trial_n":120,"min":87,"max":168,"target":"absent","response":"absent","rt":1243.1000001431,"correct":true,"confidence":3},{"trial_n":121,"min":88,"max":167,"target":"present","response":"present","rt":1034.7000000477,"correct":true,"confidence":4},{"trial_n":122,"min":88,"max":167,"target":"absent","response":"present","rt":2344.1000001431,"correct":false,"confidence":2},{"trial_n":123,"min":87,"max":168,"target":"present","response":"present","rt":917.60000014305,"correct":true,"confidence":2},{"trial_n":124,"min":87,"max":168,"target":"absent","response":"absent","rt":1394.5999999046,"correct":true,"confidence":3},{"trial_n":125,"min":88,"max":167,"target":"absent","response":"absent","rt":1854.7000000477,"correct":true,"confidence":2},{"trial_n":126,"min":88,"max":167,"target":"present","response":"absent","rt":1072.2000000477,"correct":false,"confidence":2},{"trial_n":127,"min":87,"max":168,"target":"present","response":"present","rt":982.89999985695,"correct":true,"confidence":3},{"trial_n":128,"min":87,"max":168,"target":"absent","response":"present","rt":1711.4000000954,"correct":false,"confidence":3},{"trial_n":129,"min":86,"max":169,"target":"absent","response":"absent","rt":1681.0999999046,"correct":true,"confidence":3},{"trial_n":130,"min":86,"max":169,"target":"present","response":"present","rt":1469,"correct":true,"confidence":2},{"trial_n":131,"min":87,"max":168,"target":"absent","response":"absent","rt":1792.1000001431,"correct":true,"confidence":4},{"trial_n":132,"min":87,"max":168,"target":"present","response":"present","rt":1615.1000001431,"correct":true,"confidence":3},{"trial_n":133,"min":88,"max":167,"target":"absent","response":"present","rt":1640.5,"correct":false,"confidence":1},{"trial_n":134,"min":87,"max":168,"target":"present","response":"present","rt":1014.7999999523,"correct":true,"confidence":4},{"trial_n":135,"min":87,"max":168,"target":"present","response":"present","rt":1373,"correct":true,"confidence":4},{"trial_n":136,"min":88,"max":167,"target":"absent","response":"present","rt":1100.6000001431,"correct":false,"confidence":4},{"trial_n":137,"min":87,"max":168,"target":"present","response":"present","rt":1184.7000000477,"correct":true,"confidence":4},{"trial_n":138,"min":87,"max":168,"target":"present","response":"present","rt":2664.9000000954,"correct":true,"confidence":4},{"trial_n":139,"min":88,"max":167,"target":"absent","response":"absent","rt":1561.2000000477,"correct":true,"confidence":2},{"trial_n":140,"min":88,"max":167,"target":"absent","response":"present","rt":1006.7000000477,"correct":false,"confidence":2}]