[{"trial_n":1,"n_dots":4.25,"target":"right","response":"left","rt":5100,"correct":false,"confidence":-1},{"trial_n":2,"n_dots":4.25,"target":"left","response":"left","rt":619,"correct":true,"confidence":-1},{"trial_n":3,"n_dots":4.25,"target":"right","response":"right","rt":489,"correct":true,"confidence":-1},{"trial_n":4,"n_dots":3.85,"target":"left","response":"left","rt":537,"correct":true,"confidence":-1},{"trial_n":5,"n_dots":3.85,"target":"right","response":"right","rt":920,"correct":true,"confidence":-1},{"trial_n":6,"n_dots":3.45,"target":"left","response":"right","rt":535,"correct":false,"confidence":-1},{"trial_n":7,"n_dots":3.85,"target":"right","response":"right","rt":1295,"correct":true,"confidence":-1},{"trial_n":8,"n_dots":3.85,"target":"right","response":"right","rt":536.99999999999,"correct":true,"confidence":-1},{"trial_n":9,"n_dots":3.65,"target":"left","response":"left","rt":771,"correct":true,"confidence":-1},{"trial_n":10,"n_dots":3.65,"target":"right","response":"left","rt":111223,"correct":false,"confidence":-1},{"trial_n":11,"n_dots":3.85,"target":"left","response":"left","rt":106,"correct":true,"confidence":-1},{"trial_n":12,"n_dots":3.85,"target":"right","response":"right","rt":641,"correct":true,"confidence":-1},{"trial_n":13,"n_dots":3.75,"target":"right","response":"right","rt":191,"correct":true,"confidence":-1},{"trial_n":14,"n_dots":3.75,"target":"right","response":"right","rt":97,"correct":true,"confidence":-1},{"trial_n":15,"n_dots":3.65,"target":"right","response":"right","rt":1019,"correct":true,"confidence":-1},{"trial_n":16,"n_dots":3.65,"target":"right","response":"right","rt":437,"correct":true,"confidence":-1},{"trial_n":17,"n_dots":3.55,"target":"left","response":"left","rt":397.00000000003,"correct":true,"confidence":-1},{"trial_n":18,"n_dots":3.55,"target":"left","response":"left","rt":172,"correct":true,"confidence":-1},{"trial_n":19,"n_dots":3.45,"target":"left","response":"left","rt":761.00000000003,"correct":true,"confidence":-1},{"trial_n":20,"n_dots":3.45,"target":"left","response":"left","rt":453,"correct":true,"confidence":-1},{"trial_n":21,"n_dots":3.35,"target":"left","response":"left","rt":125,"correct":true,"confidence":3},{"trial_n":22,"n_dots":3.35,"target":"right","response":"right","rt":510,"correct":true,"confidence":3},{"trial_n":23,"n_dots":3.25,"target":"right","response":"left","rt":555.00000000023,"correct":false,"confidence":3},{"trial_n":24,"n_dots":3.35,"target":"left","response":"left","rt":515,"correct":true,"confidence":4},{"trial_n":25,"n_dots":3.35,"target":"left","response":"left","rt":729,"correct":true,"confidence":4},{"trial_n":26,"n_dots":3.25,"target":"right","response":"right","rt":618,"correct":true,"confidence":4},{"trial_n":27,"n_dots":3.25,"target":"left","response":"left","rt":621,"correct":true,"confidence":4},{"trial_n":28,"n_dots":3.15,"target":"right","response":"right","rt":583,"correct":true,"confidence":3},{"trial_n":29,"n_dots":3.15,"target":"right","response":"right","rt":1251,"correct":true,"confidence":4},{"trial_n":30,"n_dots":3.05,"target":"right","response":"left","rt":189,"correct":false,"confidence":4},{"trial_n":31,"n_dots":3.15,"target":"left","response":"left","rt":62,"correct":true,"confidence":5},{"trial_n":32,"n_dots":3.15,"target":"right","response":"right","rt":381.99999999977,"correct":true,"confidence":4},{"trial_n":33,"n_dots":3.05,"target":"right","response":"right","rt":348,"correct":true,"confidence":4},{"trial_n":34,"n_dots":3.05,"target":"left","response":"right","rt":170,"correct":false,"confidence":2},{"trial_n":35,"n_dots":3.15,"target":"right","response":"right","rt":492.99999999977,"correct":true,"confidence":4},{"trial_n":36,"n_dots":3.15,"target":"right","response":"left","rt":549,"correct":false,"confidence":4},{"trial_n":37,"n_dots":3.25,"target":"right","response":"right","rt":512,"correct":true,"confidence":4},{"trial_n":38,"n_dots":3.25,"target":"left","response":"left","rt":1312,"correct":true,"confidence":3},{"trial_n":39,"n_dots":3.15,"target":"left","response":"left","rt":428,"correct":true,"confidence":5},{"trial_n":40,"n_dots":3.15,"target":"right","response":"right","rt":589,"correct":true,"confidence":5},{"trial_n":41,"n_dots":3.05,"target":"left","response":"left","rt":667.00000000023,"correct":true,"confidence":3},{"trial_n":42,"n_dots":3.05,"target":"right","response":"left","rt":194,"correct":false,"confidence":2},{"trial_n":43,"n_dots":3.15,"target":"right","response":"left","rt":376,"correct":false,"confidence":4},{"trial_n":44,"n_dots":3.25,"target":"left","response":"left","rt":333,"correct":true,"confidence":5},{"trial_n":45,"n_dots":3.25,"target":"left","response":"left","rt":248,"correct":true,"confidence":5},{"trial_n":46,"n_dots":3.15,"target":"right","response":"left","rt":264,"correct":false,"confidence":3},{"trial_n":47,"n_dots":3.25,"target":"left","response":"left","rt":86,"correct":true,"confidence":4},{"trial_n":48,"n_dots":3.25,"target":"left","response":"left","rt":146.99999999977,"correct":true,"confidence":5},{"trial_n":49,"n_dots":3.15,"target":"left","response":"left","rt":273.99999999977,"correct":true,"confidence":5},{"trial_n":50,"n_dots":3.15,"target":"right","response":"left","rt":487,"correct":false,"confidence":5},{"trial_n":51,"n_dots":3.25,"target":"right","response":"right","rt":633,"correct":true,"confidence":3},{"trial_n":52,"n_dots":3.25,"target":"right","response":"right","rt":92,"correct":true,"confidence":4},{"trial_n":53,"n_dots":3.15,"target":"right","response":"left","rt":635,"correct":false,"confidence":4},{"trial_n":54,"n_dots":3.25,"target":"right","response":"right","rt":1055,"correct":true,"confidence":3},{"trial_n":55,"n_dots":3.25,"target":"right","response":"left","rt":1202,"correct":false,"confidence":4},{"trial_n":56,"n_dots":3.35,"target":"left","response":"left","rt":406,"correct":true,"confidence":5},{"trial_n":57,"n_dots":3.35,"target":"left","response":"left","rt":416,"correct":true,"confidence":5},{"trial_n":58,"n_dots":3.25,"target":"right","response":"right","rt":202,"correct":true,"confidence":5},{"trial_n":59,"n_dots":3.25,"target":"left","response":"left","rt":203,"correct":true,"confidence":4},{"trial_n":60,"n_dots":3.15,"target":"right","response":"right","rt":675,"correct":true,"confidence":4},{"trial_n":61,"n_dots":3.15,"target":"right","response":"right","rt":213.99999999977,"correct":true,"confidence":4},{"trial_n":62,"n_dots":3.05,"target":"left","response":"left","rt":242,"correct":true,"confidence":5},{"trial_n":63,"n_dots":3.05,"target":"right","response":"left","rt":651,"correct":false,"confidence":4},{"trial_n":64,"n_dots":3.15,"target":"right","response":"left","rt":399,"correct":false,"confidence":2},{"trial_n":65,"n_dots":3.25,"target":"left","response":"left","rt":274,"correct":true,"confidence":5},{"trial_n":66,"n_dots":3.25,"target":"right","response":"left","rt":592,"correct":false,"confidence":4},{"trial_n":67,"n_dots":3.35,"target":"left","response":"left","rt":125,"correct":true,"confidence":5},{"trial_n":68,"n_dots":3.35,"target":"left","response":"left","rt":265,"correct":true,"confidence":5},{"trial_n":69,"n_dots":3.25,"target":"left","response":"left","rt":409,"correct":true,"confidence":5},{"trial_n":70,"n_dots":3.25,"target":"left","response":"left","rt":485,"correct":true,"confidence":5},{"trial_n":71,"n_dots":3.15,"target":"left","response":"left","rt":280,"correct":true,"confidence":5},{"trial_n":72,"n_dots":3.15,"target":"left","response":"left","rt":956.00000000023,"correct":true,"confidence":4},{"trial_n":73,"n_dots":3.05,"target":"left","response":"left","rt":296,"correct":true,"confidence":5},{"trial_n":74,"n_dots":3.05,"target":"left","response":"left","rt":1187,"correct":true,"confidence":1},{"trial_n":75,"n_dots":2.95,"target":"right","response":"left","rt":524.00000000023,"correct":false,"confidence":4},{"trial_n":76,"n_dots":3.05,"target":"right","response":"left","rt":359.99999999977,"correct":false,"confidence":4},{"trial_n":77,"n_dots":3.15,"target":"left","response":"left","rt":274,"correct":true,"confidence":4},{"trial_n":78,"n_dots":3.15,"target":"left","response":"left","rt":392.00000000023,"correct":true,"confidence":4},{"trial_n":79,"n_dots":3.05,"target":"left","response":"left","rt":181.00000000023,"correct":true,"confidence":5},{"trial_n":80,"n_dots":3.05,"target":"left","response":"left","rt":102,"correct":true,"confidence":5},{"trial_n":81,"n_dots":2.95,"target":"left","response":"left","rt":114,"correct":true,"confidence":5},{"trial_n":82,"n_dots":2.95,"target":"right","response":"left","rt":124,"correct":false,"confidence":5},{"trial_n":83,"n_dots":3.05,"target":"right","response":"left","rt":260,"correct":false,"confidence":4},{"trial_n":84,"n_dots":3.15,"target":"left","response":"left","rt":135,"correct":true,"confidence":5},{"trial_n":85,"n_dots":3.15,"target":"right","response":"left","rt":321,"correct":false,"confidence":5},{"trial_n":86,"n_dots":3.25,"target":"right","response":"left","rt":27940,"correct":false,"confidence":1},{"trial_n":87,"n_dots":3.35,"target":"left","response":"left","rt":393,"correct":true,"confidence":4},{"trial_n":88,"n_dots":3.35,"target":"left","response":"left","rt":538,"correct":true,"confidence":5},{"trial_n":89,"n_dots":3.25,"target":"left","response":"left","rt":383.00000000023,"correct":true,"confidence":4},{"trial_n":90,"n_dots":3.25,"target":"right","response":"left","rt":278.00000000023,"correct":false,"confidence":4},{"trial_n":91,"n_dots":3.35,"target":"left","response":"left","rt":544,"correct":true,"confidence":5},{"trial_n":92,"n_dots":3.35,"target":"right","response":"right","rt":385,"correct":true,"confidence":4},{"trial_n":93,"n_dots":3.25,"target":"right","response":"left","rt":1109,"correct":false,"confidence":4},{"trial_n":94,"n_dots":3.35,"target":"right","response":"left","rt":542,"correct":false,"confidence":5},{"trial_n":95,"n_dots":3.45,"target":"right","response":"right","rt":462,"correct":true,"confidence":4},{"trial_n":96,"n_dots":3.45,"target":"right","response":"left","rt":370,"correct":false,"confidence":4},{"trial_n":97,"n_dots":3.55,"target":"left","response":"left","rt":142,"correct":true,"confidence":5},{"trial_n":98,"n_dots":3.55,"target":"left","response":"left","rt":306.00000000023,"correct":true,"confidence":5},{"trial_n":99,"n_dots":3.45,"target":"left","response":"left","rt":227.00000000023,"correct":true,"confidence":3},{"trial_n":100,"n_dots":3.45,"target":"right","response":"left","rt":243.99999999977,"correct":false,"confidence":5},{"trial_n":101,"n_dots":3.55,"target":"right","response":"right","rt":285.99999999977,"correct":true,"confidence":4},{"trial_n":102,"n_dots":3.55,"target":"left","response":"left","rt":282.00000000023,"correct":true,"confidence":4},{"trial_n":103,"n_dots":3.45,"target":"left","response":"left","rt":124,"correct":true,"confidence":4},{"trial_n":104,"n_dots":3.45,"target":"right","response":"left","rt":751,"correct":false,"confidence":4},{"trial_n":105,"n_dots":3.55,"target":"left","response":"left","rt":708,"correct":true,"confidence":4},{"trial_n":106,"n_dots":3.55,"target":"right","response":"left","rt":53.999999999767,"correct":false,"confidence":3},{"trial_n":107,"n_dots":3.65,"target":"left","response":"left","rt":756,"correct":true,"confidence":5},{"trial_n":108,"n_dots":3.65,"target":"right","response":"right","rt":417,"correct":true,"confidence":4},{"trial_n":109,"n_dots":3.55,"target":"right","response":"right","rt":512,"correct":true,"confidence":5},{"trial_n":110,"n_dots":3.55,"target":"left","response":"left","rt":268,"correct":true,"confidence":4},{"trial_n":111,"n_dots":3.45,"target":"right","response":"left","rt":165.99999999977,"correct":false,"confidence":5},{"trial_n":112,"n_dots":3.55,"target":"left","response":"left","rt":343.99999999977,"correct":true,"confidence":4},{"trial_n":113,"n_dots":3.55,"target":"right","response":"right","rt":275,"correct":true,"confidence":4},{"trial_n":114,"n_dots":3.45,"target":"left","response":"left","rt":282.99999999977,"correct":true,"confidence":5},{"trial_n":115,"n_dots":3.45,"target":"left","response":"left","rt":157.00000000023,"correct":true,"confidence":5},{"trial_n":116,"n_dots":3.35,"target":"left","response":"left","rt":463.99999999977,"correct":true,"confidence":5},{"trial_n":117,"n_dots":3.35,"target":"left","response":"left","rt":455.00000000023,"correct":true,"confidence":4},{"trial_n":118,"n_dots":3.25,"target":"left","response":"left","rt":966,"correct":true,"confidence":1},{"trial_n":119,"n_dots":3.25,"target":"right","response":"right","rt":260,"correct":true,"confidence":5},{"trial_n":120,"n_dots":3.15,"target":"right","response":"right","rt":348,"correct":true,"confidence":4}]