[{"trial_n":1,"span":8,"encoder":"34079389","distractor":"34079386","target":"present","response":"present","rt":"2471","correct":true,"confidence":-1},{"trial_n":2,"span":8,"encoder":"12838189","distractor":"12838989","target":"present","response":"present","rt":"2369","correct":true,"confidence":-1},{"trial_n":3,"span":10,"encoder":"2471860851","distractor":"2971860851","target":"absent","response":"present","rt":"1604","correct":false,"confidence":-1},{"trial_n":4,"span":8,"encoder":"37561606","distractor":"32561606","target":"absent","response":"present","rt":"1434","correct":false,"confidence":-1},{"trial_n":5,"span":6,"encoder":"232069","distractor":"262069","target":"present","response":"absent","rt":"1586","correct":false,"confidence":-1},{"trial_n":6,"span":4,"encoder":"8056","distractor":"2056","target":"present","response":"present","rt":"1859","correct":true,"confidence":-1},{"trial_n":7,"span":4,"encoder":"6520","distractor":"6720","target":"present","response":"present","rt":"1206","correct":true,"confidence":-1},{"trial_n":8,"span":6,"encoder":"577575","distractor":"570575","target":"absent","response":"absent","rt":"1922","correct":true,"confidence":-1},{"trial_n":9,"span":6,"encoder":"985695","distractor":"985645","target":"present","response":"absent","rt":"2719","correct":false,"confidence":-1},{"trial_n":10,"span":4,"encoder":"1913","distractor":"5913","target":"present","response":"present","rt":"1468","correct":true,"confidence":-1},{"trial_n":11,"span":4,"encoder":"8704","distractor":"2704","target":"absent","response":"absent","rt":"1619","correct":true,"confidence":-1},{"trial_n":12,"span":5,"encoder":"06225","distractor":"06625","target":"absent","response":"present","rt":"2349","correct":false,"confidence":-1},{"trial_n":13,"span":4,"encoder":"7400","distractor":"7500","target":"present","response":"absent","rt":"1659","correct":false,"confidence":-1},{"trial_n":14,"span":3,"encoder":"330","distractor":"331","target":"present","response":"absent","rt":"1815","correct":false,"confidence":-1},{"trial_n":15,"span":2,"encoder":"78","distractor":"73","target":"absent","response":"absent","rt":"1553","correct":true,"confidence":-1},{"trial_n":16,"span":2,"encoder":"25","distractor":"24","target":"absent","response":"absent","rt":"1150","correct":true,"confidence":-1},{"trial_n":17,"span":3,"encoder":"088","distractor":"058","target":"absent","response":"absent","rt":"949.00000000001","correct":true,"confidence":-1},{"trial_n":18,"span":3,"encoder":"069","distractor":"063","target":"present","response":"present","rt":"1500","correct":true,"confidence":-1},{"trial_n":19,"span":4,"encoder":"8902","distractor":"8905","target":"present","response":"present","rt":"1190","correct":true,"confidence":-1},{"trial_n":20,"span":4,"encoder":"9795","distractor":"7795","target":"absent","response":"absent","rt":"1369","correct":true,"confidence":-1},{"trial_n":21,"span":5,"encoder":"19658","distractor":"19698","target":"absent","response":"absent","rt":"1383","correct":true,"confidence":4},{"trial_n":22,"span":5,"encoder":"48877","distractor":"48875","target":"absent","response":"absent","rt":"1468","correct":true,"confidence":5},{"trial_n":23,"span":6,"encoder":"232356","distractor":"132356","target":"absent","response":"absent","rt":"1576","correct":true,"confidence":5},{"trial_n":24,"span":6,"encoder":"421851","distractor":"427851","target":"present","response":"present","rt":"1918","correct":true,"confidence":5},{"trial_n":25,"span":7,"encoder":"2822996","distractor":"2826996","target":"present","response":"absent","rt":"1781","correct":false,"confidence":5},{"trial_n":26,"span":6,"encoder":"382348","distractor":"384348","target":"absent","response":"present","rt":"2391","correct":false,"confidence":3},{"trial_n":27,"span":5,"encoder":"23001","distractor":"63001","target":"present","response":"absent","rt":"1460","correct":false,"confidence":5},{"trial_n":28,"span":4,"encoder":"3797","distractor":"3197","target":"present","response":"present","rt":"1672","correct":true,"confidence":4},{"trial_n":29,"span":4,"encoder":"0125","distractor":"2125","target":"present","response":"present","rt":"1337","correct":true,"confidence":5},{"trial_n":30,"span":5,"encoder":"94474","distractor":"14474","target":"absent","response":"absent","rt":"1200","correct":true,"confidence":5},{"trial_n":31,"span":5,"encoder":"00711","distractor":"03711","target":"absent","response":"absent","rt":"1207","correct":true,"confidence":5},{"trial_n":32,"span":6,"encoder":"946441","distractor":"940441","target":"absent","response":"absent","rt":"1676","correct":true,"confidence":5},{"trial_n":33,"span":6,"encoder":"098076","distractor":"098071","target":"absent","response":"absent","rt":"1867","correct":true,"confidence":5},{"trial_n":34,"span":7,"encoder":"0935604","distractor":"0945604","target":"present","response":"present","rt":"1923","correct":true,"confidence":4},{"trial_n":35,"span":7,"encoder":"9777978","distractor":"9777078","target":"present","response":"absent","rt":"1601","correct":false,"confidence":5},{"trial_n":36,"span":6,"encoder":"412219","distractor":"412211","target":"absent","response":"absent","rt":"1695","correct":true,"confidence":5},{"trial_n":37,"span":6,"encoder":"891223","distractor":"891228","target":"absent","response":"present","rt":"2301","correct":false,"confidence":5},{"trial_n":38,"span":5,"encoder":"35846","distractor":"37846","target":"absent","response":"absent","rt":"1317","correct":true,"confidence":5},{"trial_n":39,"span":5,"encoder":"28461","distractor":"28467","target":"absent","response":"absent","rt":"1585","correct":true,"confidence":5},{"trial_n":40,"span":6,"encoder":"606575","distractor":"906575","target":"present","response":"present","rt":"1440","correct":true,"confidence":5},{"trial_n":41,"span":6,"encoder":"010344","distractor":"010349","target":"absent","response":"present","rt":"2022","correct":false,"confidence":4},{"trial_n":42,"span":5,"encoder":"67556","distractor":"67546","target":"present","response":"present","rt":"1862","correct":true,"confidence":5},{"trial_n":43,"span":5,"encoder":"47674","distractor":"47974","target":"present","response":"present","rt":"1320","correct":true,"confidence":5},{"trial_n":44,"span":6,"encoder":"740291","distractor":"740251","target":"absent","response":"absent","rt":"1792","correct":true,"confidence":4},{"trial_n":45,"span":6,"encoder":"294277","distractor":"292277","target":"present","response":"absent","rt":"1612","correct":false,"confidence":3},{"trial_n":46,"span":5,"encoder":"84666","distractor":"84626","target":"absent","response":"absent","rt":"1809","correct":true,"confidence":5},{"trial_n":47,"span":5,"encoder":"58037","distractor":"58097","target":"present","response":"present","rt":"1523.9999999999","correct":true,"confidence":5},{"trial_n":48,"span":6,"encoder":"799263","distractor":"799268","target":"absent","response":"absent","rt":"2138","correct":true,"confidence":5},{"trial_n":49,"span":6,"encoder":"083347","distractor":"023347","target":"present","response":"present","rt":"1369","correct":true,"confidence":4},{"trial_n":50,"span":7,"encoder":"3486900","distractor":"3486960","target":"absent","response":"absent","rt":"2570","correct":true,"confidence":3},{"trial_n":51,"span":7,"encoder":"5348924","distractor":"5348920","target":"present","response":"present","rt":"2729","correct":true,"confidence":4},{"trial_n":52,"span":8,"encoder":"39244802","distractor":"39243802","target":"absent","response":"absent","rt":"2264","correct":true,"confidence":2},{"trial_n":53,"span":8,"encoder":"92206063","distractor":"92200063","target":"present","response":"present","rt":"1101","correct":true,"confidence":4},{"trial_n":54,"span":9,"encoder":"914068445","distractor":"914468445","target":"present","response":"present","rt":"2092","correct":true,"confidence":4},{"trial_n":55,"span":9,"encoder":"488978536","distractor":"488978236","target":"absent","response":"present","rt":"3496.0000000001","correct":false,"confidence":3},{"trial_n":56,"span":8,"encoder":"83376804","distractor":"83376805","target":"absent","response":"absent","rt":"2217.9999999999","correct":true,"confidence":5},{"trial_n":57,"span":8,"encoder":"29087385","distractor":"29087384","target":"present","response":"present","rt":"1359","correct":true,"confidence":5},{"trial_n":58,"span":9,"encoder":"031752665","distractor":"531752665","target":"absent","response":"absent","rt":"1915","correct":true,"confidence":1},{"trial_n":59,"span":9,"encoder":"461786437","distractor":"461786037","target":"present","response":"present","rt":"1420","correct":true,"confidence":4},{"trial_n":60,"span":10,"encoder":"4555331792","distractor":"4555331992","target":"present","response":"present","rt":"3929","correct":true,"confidence":3},{"trial_n":61,"span":10,"encoder":"9238531090","distractor":"9238531092","target":"absent","response":"absent","rt":"2091","correct":true,"confidence":3},{"trial_n":62,"span":11,"encoder":"99400533523","distractor":"99400733523","target":"absent","response":"present","rt":"2581","correct":false,"confidence":2},{"trial_n":63,"span":10,"encoder":"6733277989","distractor":"6731277989","target":"present","response":"absent","rt":"2582.9999999999","correct":false,"confidence":3},{"trial_n":64,"span":9,"encoder":"759269867","distractor":"719269867","target":"present","response":"present","rt":"1280.0000000001","correct":true,"confidence":4},{"trial_n":65,"span":9,"encoder":"578421187","distractor":"578401187","target":"present","response":"absent","rt":"2280.9999999999","correct":false,"confidence":1},{"trial_n":66,"span":8,"encoder":"94524634","distractor":"94584634","target":"absent","response":"present","rt":"2661","correct":false,"confidence":3},{"trial_n":67,"span":7,"encoder":"9420809","distractor":"9429809","target":"present","response":"absent","rt":"77832","correct":false,"confidence":1},{"trial_n":68,"span":6,"encoder":"135794","distractor":"635794","target":"present","response":"present","rt":"1335.9999999999","correct":true,"confidence":5},{"trial_n":69,"span":6,"encoder":"176645","distractor":"176615","target":"present","response":"present","rt":"1607.9999999999","correct":true,"confidence":3},{"trial_n":70,"span":7,"encoder":"5401770","distractor":"5401170","target":"absent","response":"present","rt":"2412","correct":false,"confidence":3},{"trial_n":71,"span":8,"encoder":"91635479","distractor":"91035479","target":"present","response":"absent","rt":"2653","correct":false,"confidence":-1},{"trial_n":72,"span":7,"encoder":"0725108","distractor":"0725104","target":"present","response":"present","rt":"2033","correct":true,"confidence":-1},{"trial_n":73,"span":7,"encoder":"5368643","distractor":"5368143","target":"absent","response":"absent","rt":"26755","correct":true,"confidence":-1},{"trial_n":74,"span":8,"encoder":"91739874","distractor":"91737874","target":"absent","response":"absent","rt":"2755","correct":true,"confidence":-1},{"trial_n":75,"span":8,"encoder":"73945254","distractor":"73945224","target":"present","response":"absent","rt":"5412","correct":false,"confidence":-1},{"trial_n":76,"span":7,"encoder":"1899274","distractor":"1899272","target":"present","response":"present","rt":"2044","correct":true,"confidence":-1},{"trial_n":77,"span":7,"encoder":"1996189","distractor":"1992189","target":"absent","response":"absent","rt":"2540","correct":true,"confidence":-1},{"trial_n":78,"span":8,"encoder":"84333462","distractor":"84330462","target":"absent","response":"absent","rt":"5115","correct":true,"confidence":-1},{"trial_n":79,"span":8,"encoder":"94565617","distractor":"94565612","target":"absent","response":"absent","rt":"3770","correct":true,"confidence":-1},{"trial_n":80,"span":9,"encoder":"946719845","distractor":"946319845","target":"absent","response":"absent","rt":"2712.0000000001","correct":true,"confidence":-1},{"trial_n":81,"span":9,"encoder":"881650813","distractor":"881650833","target":"absent","response":"absent","rt":"1540","correct":true,"confidence":-1},{"trial_n":82,"span":10,"encoder":"8161138993","distractor":"8191138993","target":"present","response":"absent","rt":"1602","correct":false,"confidence":-1},{"trial_n":83,"span":9,"encoder":"518049504","distractor":"548049504","target":"present","response":"absent","rt":"503","correct":false,"confidence":-1},{"trial_n":84,"span":8,"encoder":"51981283","distractor":"51981263","target":"present","response":"present","rt":"1312","correct":true,"confidence":-1},{"trial_n":85,"span":8,"encoder":"30292234","distractor":"30292244","target":"absent","response":"absent","rt":"3961","correct":true,"confidence":-1},{"trial_n":86,"span":9,"encoder":"266729965","distractor":"266749965","target":"present","response":"absent","rt":"949","correct":false,"confidence":-1},{"trial_n":87,"span":8,"encoder":"76742299","distractor":"76742297","target":"absent","response":"absent","rt":"814","correct":true,"confidence":-1},{"trial_n":88,"span":8,"encoder":"52820344","distractor":"53820344","target":"present","response":"absent","rt":"1967","correct":false,"confidence":-1},{"trial_n":89,"span":7,"encoder":"7714326","distractor":"1714326","target":"present","response":"absent","rt":"5678","correct":false,"confidence":-1},{"trial_n":90,"span":6,"encoder":"657308","distractor":"657305","target":"absent","response":"present","rt":"1558","correct":false,"confidence":-1},{"trial_n":91,"span":5,"encoder":"02825","distractor":"02829","target":"present","response":"present","rt":"1786","correct":true,"confidence":5},{"trial_n":92,"span":5,"encoder":"83462","distractor":"83468","target":"absent","response":"absent","rt":"3230","correct":true,"confidence":4},{"trial_n":93,"span":6,"encoder":"816732","distractor":"826732","target":"present","response":"present","rt":"2946","correct":true,"confidence":5},{"trial_n":94,"span":6,"encoder":"360147","distractor":"660147","target":"absent","response":"absent","rt":"1917","correct":true,"confidence":4},{"trial_n":95,"span":7,"encoder":"0913066","distractor":"0913046","target":"absent","response":"absent","rt":"5957","correct":true,"confidence":1},{"trial_n":96,"span":7,"encoder":"8324077","distractor":"8624077","target":"present","response":"present","rt":"993","correct":true,"confidence":1},{"trial_n":97,"span":8,"encoder":"49575909","distractor":"43575909","target":"absent","response":"present","rt":"4258","correct":false,"confidence":3},{"trial_n":98,"span":7,"encoder":"6866789","distractor":"6866782","target":"present","response":"absent","rt":"4073.0000000001","correct":false,"confidence":2},{"trial_n":99,"span":6,"encoder":"957177","distractor":"957107","target":"absent","response":"absent","rt":"2248","correct":true,"confidence":5},{"trial_n":100,"span":6,"encoder":"015614","distractor":"015619","target":"absent","response":"absent","rt":"1674","correct":true,"confidence":5},{"trial_n":101,"span":7,"encoder":"2595635","distractor":"2595535","target":"absent","response":"absent","rt":"4289.9999999999","correct":true,"confidence":3},{"trial_n":102,"span":7,"encoder":"2793862","distractor":"2793863","target":"absent","response":"absent","rt":"1592","correct":true,"confidence":5},{"trial_n":103,"span":8,"encoder":"58888801","distractor":"58881801","target":"present","response":"present","rt":"2442","correct":true,"confidence":5},{"trial_n":104,"span":8,"encoder":"02480903","distractor":"02480003","target":"absent","response":"absent","rt":"2433","correct":true,"confidence":5},{"trial_n":105,"span":9,"encoder":"999793946","distractor":"999795946","target":"present","response":"absent","rt":"2780","correct":false,"confidence":1},{"trial_n":106,"span":8,"encoder":"69256087","distractor":"69253087","target":"present","response":"absent","rt":"3490","correct":false,"confidence":3},{"trial_n":107,"span":7,"encoder":"1080658","distractor":"1086658","target":"present","response":"present","rt":"1753","correct":true,"confidence":5},{"trial_n":108,"span":7,"encoder":"9418539","distractor":"9418939","target":"absent","response":"absent","rt":"4087","correct":true,"confidence":2},{"trial_n":109,"span":8,"encoder":"89194702","distractor":"89194705","target":"absent","response":"absent","rt":"2335","correct":true,"confidence":5},{"trial_n":110,"span":8,"encoder":"89287544","distractor":"99287544","target":"absent","response":"absent","rt":"3454","correct":true,"confidence":5},{"trial_n":111,"span":9,"encoder":"640317885","distractor":"040317885","target":"absent","response":"absent","rt":"5543","correct":true,"confidence":4},{"trial_n":112,"span":9,"encoder":"996108484","distractor":"996108684","target":"absent","response":"present","rt":"2231","correct":false,"confidence":1},{"trial_n":113,"span":8,"encoder":"49091028","distractor":"49081028","target":"present","response":"absent","rt":"3035","correct":false,"confidence":3},{"trial_n":114,"span":7,"encoder":"8188602","distractor":"8181602","target":"present","response":"present","rt":"3096","correct":true,"confidence":5},{"trial_n":115,"span":7,"encoder":"1380882","distractor":"1380884","target":"present","response":"present","rt":"66157","correct":true,"confidence":1},{"trial_n":116,"span":8,"encoder":"13280050","distractor":"13080050","target":"present","response":"present","rt":"34535","correct":true,"confidence":1},{"trial_n":117,"span":8,"encoder":"90924136","distractor":"90926136","target":"present","response":"present","rt":"2102","correct":true,"confidence":5},{"trial_n":118,"span":9,"encoder":"051206353","distractor":"051246353","target":"present","response":"present","rt":"2050","correct":true,"confidence":5},{"trial_n":119,"span":9,"encoder":"663647159","distractor":"663647559","target":"present","response":"present","rt":"2980","correct":true,"confidence":5},{"trial_n":120,"span":10,"encoder":"8043343611","distractor":"8043343411","target":"present","response":"present","rt":"2538","correct":true,"confidence":5},{"trial_n":121,"span":10,"encoder":"7686726968","distractor":"7686126968","target":"present","response":"absent","rt":"4921","correct":false,"confidence":3},{"trial_n":122,"span":9,"encoder":"685494291","distractor":"685194291","target":"present","response":"present","rt":"2135","correct":true,"confidence":5},{"trial_n":123,"span":9,"encoder":"102505470","distractor":"102505870","target":"present","response":"absent","rt":"4366","correct":false,"confidence":4},{"trial_n":124,"span":8,"encoder":"84630943","distractor":"84330943","target":"present","response":"present","rt":"23995","correct":true,"confidence":1},{"trial_n":125,"span":8,"encoder":"27250298","distractor":"27240298","target":"absent","response":"absent","rt":"1426","correct":true,"confidence":5},{"trial_n":126,"span":9,"encoder":"575751505","distractor":"571751505","target":"present","response":"absent","rt":"1143","correct":false,"confidence":4},{"trial_n":127,"span":8,"encoder":"97843485","distractor":"97843483","target":"absent","response":"present","rt":"32876","correct":false,"confidence":1},{"trial_n":128,"span":7,"encoder":"3503420","distractor":"3503427","target":"absent","response":"absent","rt":"1913","correct":true,"confidence":5},{"trial_n":129,"span":7,"encoder":"4494658","distractor":"4494758","target":"absent","response":"absent","rt":"2071","correct":true,"confidence":5},{"trial_n":130,"span":8,"encoder":"30626010","distractor":"30626016","target":"absent","response":"absent","rt":"1084","correct":true,"confidence":5},{"trial_n":131,"span":8,"encoder":"00142555","distractor":"00842555","target":"absent","response":"absent","rt":"1621","correct":true,"confidence":5},{"trial_n":132,"span":9,"encoder":"167301912","distractor":"167361912","target":"present","response":"absent","rt":"5119.0000000002","correct":false,"confidence":3},{"trial_n":133,"span":8,"encoder":"83134995","distractor":"83136995","target":"present","response":"absent","rt":"1175.0000000002","correct":false,"confidence":1},{"trial_n":134,"span":7,"encoder":"7765545","distractor":"7765245","target":"present","response":"present","rt":"2178.0000000002","correct":true,"confidence":1},{"trial_n":135,"span":7,"encoder":"7981494","distractor":"7181494","target":"present","response":"absent","rt":"2901.0000000002","correct":false,"confidence":5},{"trial_n":136,"span":6,"encoder":"076857","distractor":"076557","target":"present","response":"present","rt":"3818","correct":true,"confidence":5},{"trial_n":137,"span":6,"encoder":"270085","distractor":"170085","target":"absent","response":"absent","rt":"1293.0000000002","correct":true,"confidence":5},{"trial_n":138,"span":7,"encoder":"0745340","distractor":"7745340","target":"absent","response":"absent","rt":"3081","correct":true,"confidence":1},{"trial_n":139,"span":7,"encoder":"4692848","distractor":"4696848","target":"absent","response":"absent","rt":"1843","correct":true,"confidence":5},{"trial_n":140,"span":8,"encoder":"92694003","distractor":"92694103","target":"absent","response":"present","rt":"3729","correct":false,"confidence":3}]