[{"trial_n":1,"min":25,"max":230,"target":"present","response":"present","rt":8374,"correct":true,"confidence":-1},{"trial_n":2,"min":25,"max":230,"target":"present","response":"present","rt":6027,"correct":true,"confidence":-1},{"trial_n":3,"min":41,"max":214,"target":"absent","response":"absent","rt":2177,"correct":true,"confidence":-1},{"trial_n":4,"min":41,"max":214,"target":"absent","response":"absent","rt":680,"correct":true,"confidence":-1},{"trial_n":5,"min":57,"max":198,"target":"present","response":"absent","rt":562.00000000001,"correct":false,"confidence":-1},{"trial_n":6,"min":41,"max":214,"target":"absent","response":"absent","rt":1382,"correct":true,"confidence":-1},{"trial_n":7,"min":41,"max":214,"target":"present","response":"present","rt":1019,"correct":true,"confidence":-1},{"trial_n":8,"min":57,"max":198,"target":"absent","response":"absent","rt":830,"correct":true,"confidence":-1},{"trial_n":9,"min":57,"max":198,"target":"absent","response":"absent","rt":602.00000000001,"correct":true,"confidence":-1},{"trial_n":10,"min":73,"max":182,"target":"present","response":"present","rt":870.00000000001,"correct":true,"confidence":-1},{"trial_n":11,"min":73,"max":182,"target":"absent","response":"absent","rt":1098,"correct":true,"confidence":-1},{"trial_n":12,"min":81,"max":174,"target":"present","response":"absent","rt":775,"correct":false,"confidence":-1},{"trial_n":13,"min":73,"max":182,"target":"present","response":"present","rt":863.99999999999,"correct":true,"confidence":-1},{"trial_n":14,"min":73,"max":182,"target":"absent","response":"absent","rt":956.00000000001,"correct":true,"confidence":-1},{"trial_n":15,"min":81,"max":174,"target":"absent","response":"absent","rt":657,"correct":true,"confidence":-1},{"trial_n":16,"min":81,"max":174,"target":"absent","response":"present","rt":783,"correct":false,"confidence":-1},{"trial_n":17,"min":73,"max":182,"target":"present","response":"present","rt":698,"correct":true,"confidence":-1},{"trial_n":18,"min":73,"max":182,"target":"present","response":"absent","rt":860.99999999999,"correct":false,"confidence":-1},{"trial_n":19,"min":65,"max":190,"target":"present","response":"present","rt":910,"correct":true,"confidence":-1},{"trial_n":20,"min":65,"max":190,"target":"absent","response":"absent","rt":896,"correct":true,"confidence":-1},{"trial_n":21,"min":69,"max":186,"target":"absent","response":"absent","rt":2316,"correct":true,"confidence":2},{"trial_n":22,"min":69,"max":186,"target":"present","response":"absent","rt":1214,"correct":false,"confidence":4},{"trial_n":23,"min":65,"max":190,"target":"absent","response":"absent","rt":935,"correct":true,"confidence":4},{"trial_n":24,"min":65,"max":190,"target":"present","response":"present","rt":1401,"correct":true,"confidence":5},{"trial_n":25,"min":69,"max":186,"target":"present","response":"absent","rt":1701,"correct":false,"confidence":4},{"trial_n":26,"min":65,"max":190,"target":"present","response":"present","rt":898,"correct":true,"confidence":5},{"trial_n":27,"min":65,"max":190,"target":"absent","response":"present","rt":1929,"correct":false,"confidence":3},{"trial_n":28,"min":61,"max":194,"target":"absent","response":"present","rt":1087,"correct":false,"confidence":4},{"trial_n":29,"min":57,"max":198,"target":"present","response":"absent","rt":976,"correct":false,"confidence":2},{"trial_n":30,"min":53,"max":202,"target":"present","response":"present","rt":771,"correct":true,"confidence":5},{"trial_n":31,"min":53,"max":202,"target":"absent","response":"present","rt":948.00000000001,"correct":false,"confidence":3},{"trial_n":32,"min":51,"max":204,"target":"present","response":"present","rt":780,"correct":true,"confidence":5},{"trial_n":33,"min":51,"max":204,"target":"absent","response":"absent","rt":888,"correct":true,"confidence":4},{"trial_n":34,"min":53,"max":202,"target":"present","response":"present","rt":3435,"correct":true,"confidence":5},{"trial_n":35,"min":53,"max":202,"target":"absent","response":"absent","rt":1196,"correct":true,"confidence":4},{"trial_n":36,"min":55,"max":200,"target":"present","response":"absent","rt":7796,"correct":false,"confidence":2},{"trial_n":37,"min":53,"max":202,"target":"present","response":"present","rt":782,"correct":true,"confidence":5},{"trial_n":38,"min":53,"max":202,"target":"present","response":"present","rt":4746,"correct":true,"confidence":3},{"trial_n":39,"min":55,"max":200,"target":"absent","response":"present","rt":1254,"correct":false,"confidence":3},{"trial_n":40,"min":53,"max":202,"target":"present","response":"present","rt":1033,"correct":true,"confidence":5},{"trial_n":41,"min":53,"max":202,"target":"present","response":"present","rt":960,"correct":true,"confidence":5},{"trial_n":42,"min":54,"max":201,"target":"absent","response":"absent","rt":1001,"correct":true,"confidence":5},{"trial_n":43,"min":54,"max":201,"target":"absent","response":"absent","rt":835,"correct":true,"confidence":4},{"trial_n":44,"min":55,"max":200,"target":"present","response":"present","rt":1081,"correct":true,"confidence":5},{"trial_n":45,"min":55,"max":200,"target":"present","response":"present","rt":796,"correct":true,"confidence":4},{"trial_n":46,"min":56,"max":199,"target":"present","response":"present","rt":876,"correct":true,"confidence":4},{"trial_n":47,"min":56,"max":199,"target":"present","response":"present","rt":791,"correct":true,"confidence":4},{"trial_n":48,"min":57,"max":198,"target":"present","response":"present","rt":1107,"correct":true,"confidence":5},{"trial_n":49,"min":57,"max":198,"target":"present","response":"present","rt":1041,"correct":true,"confidence":5},{"trial_n":50,"min":58,"max":197,"target":"present","response":"present","rt":916,"correct":true,"confidence":4},{"trial_n":51,"min":58,"max":197,"target":"absent","response":"absent","rt":1143,"correct":true,"confidence":4},{"trial_n":52,"min":59,"max":196,"target":"absent","response":"absent","rt":1207,"correct":true,"confidence":4},{"trial_n":53,"min":59,"max":196,"target":"absent","response":"absent","rt":930.99999999997,"correct":true,"confidence":4},{"trial_n":54,"min":60,"max":195,"target":"absent","response":"absent","rt":945,"correct":true,"confidence":5},{"trial_n":55,"min":60,"max":195,"target":"absent","response":"absent","rt":853,"correct":true,"confidence":4},{"trial_n":56,"min":61,"max":194,"target":"absent","response":"absent","rt":929,"correct":true,"confidence":4},{"trial_n":57,"min":61,"max":194,"target":"present","response":"present","rt":823.00000000003,"correct":true,"confidence":4},{"trial_n":58,"min":62,"max":193,"target":"present","response":"absent","rt":1673,"correct":false,"confidence":2},{"trial_n":59,"min":61,"max":194,"target":"present","response":"present","rt":837,"correct":true,"confidence":3},{"trial_n":60,"min":61,"max":194,"target":"present","response":"present","rt":806,"correct":true,"confidence":4},{"trial_n":61,"min":62,"max":193,"target":"absent","response":"absent","rt":946,"correct":true,"confidence":5},{"trial_n":62,"min":62,"max":193,"target":"absent","response":"present","rt":1066,"correct":false,"confidence":3},{"trial_n":63,"min":61,"max":194,"target":"present","response":"present","rt":705,"correct":true,"confidence":5},{"trial_n":64,"min":61,"max":194,"target":"absent","response":"absent","rt":1095,"correct":true,"confidence":4},{"trial_n":65,"min":62,"max":193,"target":"absent","response":"absent","rt":845,"correct":true,"confidence":5},{"trial_n":66,"min":62,"max":193,"target":"absent","response":"absent","rt":4311.9999999999,"correct":true,"confidence":2},{"trial_n":67,"min":63,"max":192,"target":"absent","response":"absent","rt":970,"correct":true,"confidence":5},{"trial_n":68,"min":63,"max":192,"target":"absent","response":"absent","rt":877.00000000006,"correct":true,"confidence":4},{"trial_n":69,"min":64,"max":191,"target":"present","response":"present","rt":808,"correct":true,"confidence":5},{"trial_n":70,"min":64,"max":191,"target":"absent","response":"absent","rt":2034,"correct":true,"confidence":3},{"trial_n":71,"min":41,"max":214,"target":"present","response":"present","rt":2392.0000000001,"correct":true,"confidence":-1},{"trial_n":72,"min":41,"max":214,"target":"present","response":"present","rt":634,"correct":true,"confidence":-1},{"trial_n":73,"min":57,"max":198,"target":"absent","response":"absent","rt":807,"correct":true,"confidence":-1},{"trial_n":74,"min":57,"max":198,"target":"absent","response":"absent","rt":1784.9999999999,"correct":true,"confidence":-1},{"trial_n":75,"min":73,"max":182,"target":"present","response":"present","rt":790,"correct":true,"confidence":-1},{"trial_n":76,"min":73,"max":182,"target":"absent","response":"absent","rt":933,"correct":true,"confidence":-1},{"trial_n":77,"min":89,"max":166,"target":"present","response":"absent","rt":1581,"correct":false,"confidence":-1},{"trial_n":78,"min":73,"max":182,"target":"absent","response":"absent","rt":1627,"correct":true,"confidence":-1},{"trial_n":79,"min":73,"max":182,"target":"present","response":"present","rt":722,"correct":true,"confidence":-1},{"trial_n":80,"min":89,"max":166,"target":"absent","response":"present","rt":661,"correct":false,"confidence":-1},{"trial_n":81,"min":81,"max":174,"target":"present","response":"present","rt":977,"correct":true,"confidence":-1},{"trial_n":82,"min":81,"max":174,"target":"present","response":"present","rt":533,"correct":true,"confidence":-1},{"trial_n":83,"min":89,"max":166,"target":"present","response":"present","rt":832,"correct":true,"confidence":-1},{"trial_n":84,"min":89,"max":166,"target":"present","response":"present","rt":680,"correct":true,"confidence":-1},{"trial_n":85,"min":97,"max":158,"target":"present","response":"absent","rt":962,"correct":false,"confidence":-1},{"trial_n":86,"min":89,"max":166,"target":"present","response":"present","rt":875,"correct":true,"confidence":-1},{"trial_n":87,"min":89,"max":166,"target":"absent","response":"present","rt":686,"correct":false,"confidence":-1},{"trial_n":88,"min":81,"max":174,"target":"present","response":"present","rt":606,"correct":true,"confidence":-1},{"trial_n":89,"min":81,"max":174,"target":"absent","response":"absent","rt":1124,"correct":true,"confidence":-1},{"trial_n":90,"min":89,"max":166,"target":"absent","response":"absent","rt":801,"correct":true,"confidence":-1},{"trial_n":91,"min":89,"max":166,"target":"absent","response":"absent","rt":1675.9999999999,"correct":true,"confidence":4},{"trial_n":92,"min":93,"max":162,"target":"present","response":"absent","rt":1358,"correct":false,"confidence":4},{"trial_n":93,"min":89,"max":166,"target":"present","response":"present","rt":705,"correct":true,"confidence":4},{"trial_n":94,"min":89,"max":166,"target":"absent","response":"absent","rt":1290,"correct":true,"confidence":3},{"trial_n":95,"min":93,"max":162,"target":"absent","response":"absent","rt":1705,"correct":true,"confidence":4},{"trial_n":96,"min":93,"max":162,"target":"absent","response":"absent","rt":855,"correct":true,"confidence":4},{"trial_n":97,"min":97,"max":158,"target":"absent","response":"absent","rt":900.99999999994,"correct":true,"confidence":1},{"trial_n":98,"min":97,"max":158,"target":"present","response":"absent","rt":1918,"correct":false,"confidence":3},{"trial_n":99,"min":93,"max":162,"target":"present","response":"present","rt":1154.9999999999,"correct":true,"confidence":3},{"trial_n":100,"min":93,"max":162,"target":"absent","response":"absent","rt":1471,"correct":true,"confidence":3},{"trial_n":101,"min":95,"max":160,"target":"present","response":"absent","rt":975,"correct":false,"confidence":4},{"trial_n":102,"min":93,"max":162,"target":"absent","response":"absent","rt":1123,"correct":true,"confidence":4},{"trial_n":103,"min":93,"max":162,"target":"present","response":"absent","rt":721,"correct":false,"confidence":4},{"trial_n":104,"min":91,"max":164,"target":"absent","response":"absent","rt":729,"correct":true,"confidence":3},{"trial_n":105,"min":91,"max":164,"target":"absent","response":"absent","rt":743.99999999994,"correct":true,"confidence":3},{"trial_n":106,"min":93,"max":162,"target":"absent","response":"absent","rt":705,"correct":true,"confidence":4},{"trial_n":107,"min":93,"max":162,"target":"present","response":"absent","rt":1124,"correct":false,"confidence":4},{"trial_n":108,"min":91,"max":164,"target":"present","response":"absent","rt":1107.0000000001,"correct":false,"confidence":4},{"trial_n":109,"min":89,"max":166,"target":"absent","response":"absent","rt":1100,"correct":true,"confidence":3},{"trial_n":110,"min":89,"max":166,"target":"absent","response":"absent","rt":713,"correct":true,"confidence":4},{"trial_n":111,"min":90,"max":165,"target":"present","response":"absent","rt":948,"correct":false,"confidence":1},{"trial_n":112,"min":89,"max":166,"target":"absent","response":"absent","rt":792,"correct":true,"confidence":4},{"trial_n":113,"min":89,"max":166,"target":"present","response":"present","rt":706.00000000006,"correct":true,"confidence":4},{"trial_n":114,"min":90,"max":165,"target":"absent","response":"absent","rt":769.00000000006,"correct":true,"confidence":4},{"trial_n":115,"min":90,"max":165,"target":"present","response":"absent","rt":698,"correct":false,"confidence":4},{"trial_n":116,"min":89,"max":166,"target":"present","response":"present","rt":918,"correct":true,"confidence":3},{"trial_n":117,"min":89,"max":166,"target":"absent","response":"absent","rt":809,"correct":true,"confidence":4},{"trial_n":118,"min":90,"max":165,"target":"present","response":"absent","rt":706,"correct":false,"confidence":4},{"trial_n":119,"min":89,"max":166,"target":"absent","response":"absent","rt":1487.0000000001,"correct":true,"confidence":4},{"trial_n":120,"min":89,"max":166,"target":"present","response":"present","rt":1455,"correct":true,"confidence":3},{"trial_n":121,"min":90,"max":165,"target":"absent","response":"absent","rt":1177,"correct":true,"confidence":4},{"trial_n":122,"min":90,"max":165,"target":"absent","response":"absent","rt":714,"correct":true,"confidence":4},{"trial_n":123,"min":91,"max":164,"target":"absent","response":"present","rt":699,"correct":false,"confidence":4},{"trial_n":124,"min":90,"max":165,"target":"present","response":"absent","rt":785,"correct":false,"confidence":4},{"trial_n":125,"min":89,"max":166,"target":"present","response":"present","rt":834,"correct":true,"confidence":3},{"trial_n":126,"min":89,"max":166,"target":"absent","response":"absent","rt":831,"correct":true,"confidence":4},{"trial_n":127,"min":90,"max":165,"target":"present","response":"absent","rt":1794,"correct":false,"confidence":4},{"trial_n":128,"min":89,"max":166,"target":"absent","response":"absent","rt":1107,"correct":true,"confidence":4},{"trial_n":129,"min":89,"max":166,"target":"present","response":"absent","rt":1096,"correct":false,"confidence":4},{"trial_n":130,"min":88,"max":167,"target":"absent","response":"present","rt":872,"correct":false,"confidence":3},{"trial_n":131,"min":87,"max":168,"target":"absent","response":"absent","rt":783,"correct":true,"confidence":4},{"trial_n":132,"min":87,"max":168,"target":"present","response":"present","rt":636.99999999988,"correct":true,"confidence":4},{"trial_n":133,"min":88,"max":167,"target":"absent","response":"absent","rt":830.99999999988,"correct":true,"confidence":4},{"trial_n":134,"min":88,"max":167,"target":"present","response":"absent","rt":2346,"correct":false,"confidence":1},{"trial_n":135,"min":87,"max":168,"target":"present","response":"present","rt":786,"correct":true,"confidence":4},{"trial_n":136,"min":87,"max":168,"target":"absent","response":"absent","rt":1133,"correct":true,"confidence":4},{"trial_n":137,"min":88,"max":167,"target":"present","response":"absent","rt":2466,"correct":false,"confidence":1},{"trial_n":138,"min":87,"max":168,"target":"present","response":"present","rt":715,"correct":true,"confidence":4},{"trial_n":139,"min":87,"max":168,"target":"absent","response":"present","rt":756,"correct":false,"confidence":4},{"trial_n":140,"min":86,"max":169,"target":"present","response":"present","rt":1032,"correct":true,"confidence":4}]