[{"trial_n":1,"span":8,"encoder":"11248450","distractor":"11298450","target":"present","response":"present","rt":"4686","correct":true,"confidence":-1},{"trial_n":2,"span":8,"encoder":"13084661","distractor":"13984661","target":"present","response":"present","rt":"2520.5","correct":true,"confidence":-1},{"trial_n":3,"span":10,"encoder":"3235161405","distractor":"3235561405","target":"absent","response":"present","rt":"2016.3999999762","correct":false,"confidence":-1},{"trial_n":4,"span":8,"encoder":"27501124","distractor":"07501124","target":"absent","response":"present","rt":"2266.7000000477","correct":false,"confidence":-1},{"trial_n":5,"span":6,"encoder":"369468","distractor":"349468","target":"present","response":"present","rt":"3637.5","correct":true,"confidence":-1},{"trial_n":6,"span":6,"encoder":"373754","distractor":"373752","target":"absent","response":"absent","rt":"2267.2999999523","correct":true,"confidence":-1},{"trial_n":7,"span":8,"encoder":"48113096","distractor":"48113046","target":"present","response":"absent","rt":"4777.3999999762","correct":false,"confidence":-1},{"trial_n":8,"span":6,"encoder":"178065","distractor":"178055","target":"absent","response":"absent","rt":"2780.7999999523","correct":true,"confidence":-1},{"trial_n":9,"span":6,"encoder":"791739","distractor":"791719","target":"absent","response":"present","rt":"2104.7000000477","correct":false,"confidence":-1},{"trial_n":10,"span":4,"encoder":"6425","distractor":"4425","target":"present","response":"present","rt":"1843.6999999285","correct":true,"confidence":-1},{"trial_n":11,"span":4,"encoder":"4029","distractor":"4329","target":"present","response":"present","rt":"1048.3000000715","correct":true,"confidence":-1},{"trial_n":12,"span":5,"encoder":"83904","distractor":"87904","target":"present","response":"present","rt":"1821.8999999762","correct":true,"confidence":-1},{"trial_n":13,"span":5,"encoder":"38872","distractor":"34872","target":"present","response":"absent","rt":"3423.8999999762","correct":false,"confidence":-1},{"trial_n":14,"span":4,"encoder":"3268","distractor":"3267","target":"absent","response":"absent","rt":"2481.1999999285","correct":true,"confidence":-1},{"trial_n":15,"span":4,"encoder":"7231","distractor":"7631","target":"present","response":"present","rt":"1288.2000000477","correct":true,"confidence":-1},{"trial_n":16,"span":5,"encoder":"38473","distractor":"38573","target":"present","response":"present","rt":"1340.8000000715","correct":true,"confidence":-1},{"trial_n":17,"span":5,"encoder":"47070","distractor":"77070","target":"present","response":"present","rt":"1370.1000000238","correct":true,"confidence":-1},{"trial_n":18,"span":6,"encoder":"872626","distractor":"872026","target":"present","response":"present","rt":"1708.8999999762","correct":true,"confidence":-1},{"trial_n":19,"span":6,"encoder":"613421","distractor":"613221","target":"present","response":"present","rt":"1868.5","correct":true,"confidence":-1},{"trial_n":20,"span":7,"encoder":"3643079","distractor":"3643379","target":"absent","response":"absent","rt":"2821.8000000715","correct":true,"confidence":-1},{"trial_n":21,"span":7,"encoder":"9758562","distractor":"9758569","target":"present","response":"absent","rt":"5942","correct":false,"confidence":2},{"trial_n":22,"span":6,"encoder":"132839","distractor":"182839","target":"absent","response":"absent","rt":"5537.8000000715","correct":true,"confidence":2},{"trial_n":23,"span":6,"encoder":"841346","distractor":"801346","target":"absent","response":"absent","rt":"3077.7000000477","correct":true,"confidence":4},{"trial_n":24,"span":7,"encoder":"6488208","distractor":"1488208","target":"absent","response":"absent","rt":"3842.5","correct":true,"confidence":5},{"trial_n":25,"span":7,"encoder":"9539612","distractor":"9939612","target":"absent","response":"absent","rt":"2208.5","correct":true,"confidence":5},{"trial_n":26,"span":8,"encoder":"81259155","distractor":"81259655","target":"absent","response":"present","rt":"2938.8999999762","correct":false,"confidence":5},{"trial_n":27,"span":7,"encoder":"6389824","distractor":"6389827","target":"present","response":"present","rt":"3195.8999999762","correct":true,"confidence":4},{"trial_n":28,"span":7,"encoder":"3908521","distractor":"3948521","target":"present","response":"present","rt":"4619.6999999285","correct":true,"confidence":4},{"trial_n":29,"span":8,"encoder":"60430793","distractor":"50430793","target":"absent","response":"absent","rt":"2005.1999999285","correct":true,"confidence":5},{"trial_n":30,"span":8,"encoder":"93430835","distractor":"93430435","target":"absent","response":"present","rt":"2869.0999999046","correct":false,"confidence":4},{"trial_n":31,"span":7,"encoder":"2385127","distractor":"2385427","target":"absent","response":"present","rt":"2272.3000000715","correct":false,"confidence":4},{"trial_n":32,"span":6,"encoder":"671543","distractor":"673543","target":"absent","response":"absent","rt":"3376.8999999762","correct":true,"confidence":5},{"trial_n":33,"span":6,"encoder":"825165","distractor":"895165","target":"present","response":"present","rt":"3250.2000000477","correct":true,"confidence":5},{"trial_n":34,"span":7,"encoder":"2118666","distractor":"2112666","target":"present","response":"present","rt":"3180.1000000238","correct":true,"confidence":5},{"trial_n":35,"span":7,"encoder":"2718949","distractor":"2718959","target":"absent","response":"present","rt":"2484.6999999285","correct":false,"confidence":4},{"trial_n":36,"span":6,"encoder":"817164","distractor":"817174","target":"present","response":"present","rt":"2682.7999999523","correct":true,"confidence":4},{"trial_n":37,"span":6,"encoder":"488211","distractor":"488311","target":"absent","response":"absent","rt":"2696.7999999523","correct":true,"confidence":5},{"trial_n":38,"span":7,"encoder":"9236968","distractor":"9256968","target":"present","response":"present","rt":"3566.7999999523","correct":true,"confidence":4},{"trial_n":39,"span":7,"encoder":"2452679","distractor":"5452679","target":"absent","response":"absent","rt":"4143.6000000238","correct":true,"confidence":5},{"trial_n":40,"span":8,"encoder":"96252170","distractor":"96252150","target":"absent","response":"present","rt":"2783.0999999046","correct":false,"confidence":4},{"trial_n":41,"span":7,"encoder":"9157424","distractor":"2157424","target":"absent","response":"absent","rt":"1972.3000000715","correct":true,"confidence":5},{"trial_n":42,"span":7,"encoder":"0175959","distractor":"0175559","target":"absent","response":"present","rt":"3204.5","correct":false,"confidence":4},{"trial_n":43,"span":6,"encoder":"888853","distractor":"888833","target":"absent","response":"absent","rt":"2863.7000000477","correct":true,"confidence":4},{"trial_n":44,"span":6,"encoder":"715980","distractor":"715930","target":"absent","response":"present","rt":"3057.4000000954","correct":false,"confidence":3},{"trial_n":45,"span":5,"encoder":"93451","distractor":"53451","target":"present","response":"present","rt":"2929.2999999523","correct":true,"confidence":4},{"trial_n":46,"span":5,"encoder":"92228","distractor":"95228","target":"absent","response":"absent","rt":"3158.2000000477","correct":true,"confidence":4},{"trial_n":47,"span":6,"encoder":"611923","distractor":"611927","target":"present","response":"present","rt":"3321.2000000477","correct":true,"confidence":5},{"trial_n":48,"span":6,"encoder":"653947","distractor":"693947","target":"present","response":"present","rt":"3412.8999999762","correct":true,"confidence":4},{"trial_n":49,"span":7,"encoder":"1522315","distractor":"1922315","target":"absent","response":"absent","rt":"2550.5","correct":true,"confidence":3},{"trial_n":50,"span":7,"encoder":"7602669","distractor":"7302669","target":"present","response":"present","rt":"2356.1999999285","correct":true,"confidence":4},{"trial_n":51,"span":8,"encoder":"25097219","distractor":"25097919","target":"present","response":"present","rt":"2509.5","correct":true,"confidence":4},{"trial_n":52,"span":8,"encoder":"35128115","distractor":"35118115","target":"absent","response":"absent","rt":"3604.3000000715","correct":true,"confidence":5},{"trial_n":53,"span":9,"encoder":"964766878","distractor":"961766878","target":"present","response":"present","rt":"3087.8999999762","correct":true,"confidence":4},{"trial_n":54,"span":9,"encoder":"761597200","distractor":"771597200","target":"present","response":"present","rt":"3743.6999999285","correct":true,"confidence":4},{"trial_n":55,"span":10,"encoder":"8754062184","distractor":"8654062184","target":"absent","response":"absent","rt":"4593.3999999762","correct":true,"confidence":5},{"trial_n":56,"span":10,"encoder":"2932435437","distractor":"2932435427","target":"present","response":"present","rt":"3381.3999999762","correct":true,"confidence":3},{"trial_n":57,"span":11,"encoder":"68826434763","distractor":"68826435763","target":"absent","response":"present","rt":"3359.9000000954","correct":false,"confidence":4},{"trial_n":58,"span":10,"encoder":"3897063986","distractor":"7897063986","target":"present","response":"present","rt":"2385.8999999762","correct":true,"confidence":5},{"trial_n":59,"span":10,"encoder":"7250105639","distractor":"7250705639","target":"absent","response":"present","rt":"2987.0999999046","correct":false,"confidence":4},{"trial_n":60,"span":9,"encoder":"119200781","distractor":"119200981","target":"present","response":"present","rt":"2252.2000000477","correct":true,"confidence":4},{"trial_n":61,"span":9,"encoder":"257693167","distractor":"257693067","target":"absent","response":"present","rt":"6699.5999999046","correct":false,"confidence":4},{"trial_n":62,"span":8,"encoder":"24258927","distractor":"24258997","target":"absent","response":"present","rt":"2470.9000000954","correct":false,"confidence":4},{"trial_n":63,"span":7,"encoder":"5827486","distractor":"5827480","target":"present","response":"present","rt":"2613.2000000477","correct":true,"confidence":4},{"trial_n":64,"span":7,"encoder":"3998540","distractor":"3992540","target":"absent","response":"absent","rt":"2608.5","correct":true,"confidence":4},{"trial_n":65,"span":8,"encoder":"64676599","distractor":"66676599","target":"present","response":"present","rt":"2787.1999999285","correct":true,"confidence":4},{"trial_n":66,"span":8,"encoder":"84069211","distractor":"84029211","target":"present","response":"present","rt":"3294.8999999762","correct":true,"confidence":4},{"trial_n":67,"span":9,"encoder":"077239289","distractor":"077239284","target":"present","response":"present","rt":"2992.3000000715","correct":true,"confidence":4},{"trial_n":68,"span":9,"encoder":"641470835","distractor":"649470835","target":"present","response":"present","rt":"2600.7999999523","correct":true,"confidence":4},{"trial_n":69,"span":10,"encoder":"3915513828","distractor":"3915513328","target":"absent","response":"present","rt":"2175.8000000715","correct":false,"confidence":3},{"trial_n":70,"span":9,"encoder":"946639443","distractor":"946339443","target":"present","response":"present","rt":"2490.6000000238","correct":true,"confidence":4},{"trial_n":71,"span":8,"encoder":"81722057","distractor":"11722057","target":"present","response":"present","rt":"5763.1999999285","correct":true,"confidence":-1},{"trial_n":72,"span":8,"encoder":"60208006","distractor":"60208004","target":"present","response":"present","rt":"2591.3000000715","correct":true,"confidence":-1},{"trial_n":73,"span":9,"encoder":"004711651","distractor":"004711631","target":"absent","response":"present","rt":"4362.3000000715","correct":false,"confidence":-1},{"trial_n":74,"span":8,"encoder":"57772505","distractor":"57771505","target":"absent","response":"present","rt":"1641.7000000477","correct":false,"confidence":-1},{"trial_n":75,"span":7,"encoder":"9772773","distractor":"9702773","target":"present","response":"present","rt":"2967.6999999285","correct":true,"confidence":-1},{"trial_n":76,"span":7,"encoder":"2156898","distractor":"6156898","target":"absent","response":"absent","rt":"2739.8000000715","correct":true,"confidence":-1},{"trial_n":77,"span":8,"encoder":"94214615","distractor":"94214215","target":"present","response":"present","rt":"5141.3999999762","correct":true,"confidence":-1},{"trial_n":78,"span":8,"encoder":"22764184","distractor":"22763184","target":"present","response":"present","rt":"2982.1000000238","correct":true,"confidence":-1},{"trial_n":79,"span":9,"encoder":"243315845","distractor":"243315849","target":"present","response":"present","rt":"4245.8999999762","correct":true,"confidence":-1},{"trial_n":80,"span":9,"encoder":"346896164","distractor":"356896164","target":"present","response":"present","rt":"3254","correct":true,"confidence":-1},{"trial_n":81,"span":10,"encoder":"1663398159","distractor":"1663898159","target":"present","response":"present","rt":"6536.6999999285","correct":true,"confidence":-1},{"trial_n":82,"span":10,"encoder":"4242904484","distractor":"4242904284","target":"present","response":"present","rt":"4458.2000000477","correct":true,"confidence":-1},{"trial_n":83,"span":11,"encoder":"10154615709","distractor":"10154618709","target":"present","response":"present","rt":"1169.7000000477","correct":true,"confidence":-1},{"trial_n":84,"span":11,"encoder":"11081349401","distractor":"14081349401","target":"absent","response":"absent","rt":"3320.8999999762","correct":true,"confidence":-1},{"trial_n":85,"span":12,"encoder":"298898865750","distractor":"298898465750","target":"absent","response":"present","rt":"4511.2000000477","correct":false,"confidence":-1},{"trial_n":86,"span":11,"encoder":"57960077470","distractor":"57960077479","target":"present","response":"absent","rt":"1711.7999999523","correct":false,"confidence":-1},{"trial_n":87,"span":10,"encoder":"5665224689","distractor":"5665224989","target":"absent","response":"present","rt":"1820.5","correct":false,"confidence":-1},{"trial_n":88,"span":9,"encoder":"448299359","distractor":"441299359","target":"absent","response":"absent","rt":"3716.7000000477","correct":true,"confidence":-1},{"trial_n":89,"span":9,"encoder":"530865127","distractor":"590865127","target":"absent","response":"absent","rt":"878.5","correct":true,"confidence":-1},{"trial_n":90,"span":10,"encoder":"1747061664","distractor":"1717061664","target":"absent","response":"absent","rt":"814","correct":true,"confidence":-1},{"trial_n":91,"span":10,"encoder":"6621445149","distractor":"8621445149","target":"absent","response":"absent","rt":"1636.3999999762","correct":true,"confidence":5},{"trial_n":92,"span":11,"encoder":"63403689388","distractor":"63403689988","target":"present","response":"absent","rt":"5625.7999999523","correct":false,"confidence":3},{"trial_n":93,"span":10,"encoder":"1984671134","distractor":"1984679134","target":"absent","response":"absent","rt":"4276.3000000715","correct":true,"confidence":3},{"trial_n":94,"span":10,"encoder":"0253117966","distractor":"0253117964","target":"present","response":"present","rt":"4803.1000000238","correct":true,"confidence":2},{"trial_n":95,"span":11,"encoder":"44853037884","distractor":"44853017884","target":"present","response":"absent","rt":"1954.7000000477","correct":false,"confidence":3},{"trial_n":96,"span":10,"encoder":"5654767224","distractor":"5604767224","target":"absent","response":"present","rt":"2055.1000000238","correct":false,"confidence":3},{"trial_n":97,"span":9,"encoder":"449354279","distractor":"449374279","target":"present","response":"present","rt":"3506.8999999762","correct":true,"confidence":3},{"trial_n":98,"span":9,"encoder":"437301462","distractor":"437309462","target":"absent","response":"absent","rt":"6242.2000000477","correct":true,"confidence":4},{"trial_n":99,"span":10,"encoder":"6434451154","distractor":"9434451154","target":"absent","response":"present","rt":"4041.7999999523","correct":false,"confidence":3},{"trial_n":100,"span":9,"encoder":"076643303","distractor":"076643803","target":"present","response":"present","rt":"3758.1000000238","correct":true,"confidence":2},{"trial_n":101,"span":9,"encoder":"083618752","distractor":"083618772","target":"present","response":"present","rt":"3588.8999999762","correct":true,"confidence":3},{"trial_n":102,"span":10,"encoder":"5312330422","distractor":"5302330422","target":"absent","response":"absent","rt":"1668.3999999762","correct":true,"confidence":3},{"trial_n":103,"span":10,"encoder":"7134412082","distractor":"7134412042","target":"present","response":"absent","rt":"4276.8999999762","correct":false,"confidence":2},{"trial_n":104,"span":9,"encoder":"379596076","distractor":"379596056","target":"absent","response":"absent","rt":"5600.3999999762","correct":true,"confidence":3},{"trial_n":105,"span":9,"encoder":"681513068","distractor":"681713068","target":"present","response":"absent","rt":"2817.6999999285","correct":false,"confidence":3},{"trial_n":106,"span":8,"encoder":"07351246","distractor":"77351246","target":"present","response":"present","rt":"3239.6999999285","correct":true,"confidence":4},{"trial_n":107,"span":8,"encoder":"31190470","distractor":"33190470","target":"absent","response":"absent","rt":"3115.8000000715","correct":true,"confidence":3},{"trial_n":108,"span":9,"encoder":"519796906","distractor":"519796901","target":"present","response":"absent","rt":"56566.399999976","correct":false,"confidence":2},{"trial_n":109,"span":8,"encoder":"43364992","distractor":"43364902","target":"absent","response":"absent","rt":"3736.6000000238","correct":true,"confidence":3},{"trial_n":110,"span":8,"encoder":"42145028","distractor":"42142028","target":"present","response":"absent","rt":"5653.2000000477","correct":false,"confidence":3},{"trial_n":111,"span":7,"encoder":"2301167","distractor":"2101167","target":"present","response":"present","rt":"1960","correct":true,"confidence":4},{"trial_n":112,"span":7,"encoder":"7228060","distractor":"7228069","target":"present","response":"present","rt":"4528.6999999285","correct":true,"confidence":2},{"trial_n":113,"span":8,"encoder":"13954884","distractor":"13954864","target":"present","response":"absent","rt":"4597.9000000954","correct":false,"confidence":3},{"trial_n":114,"span":7,"encoder":"5303602","distractor":"5303652","target":"absent","response":"present","rt":"6271.7000000477","correct":false,"confidence":2},{"trial_n":115,"span":6,"encoder":"911899","distractor":"911897","target":"absent","response":"absent","rt":"4380.7000000477","correct":true,"confidence":2},{"trial_n":116,"span":6,"encoder":"915994","distractor":"915997","target":"present","response":"present","rt":"9032","correct":true,"confidence":3},{"trial_n":117,"span":7,"encoder":"9267007","distractor":"7267007","target":"absent","response":"present","rt":"3686","correct":false,"confidence":2},{"trial_n":118,"span":6,"encoder":"647743","distractor":"647843","target":"absent","response":"absent","rt":"2579.8999999762","correct":true,"confidence":3},{"trial_n":119,"span":6,"encoder":"675071","distractor":"665071","target":"absent","response":"absent","rt":"1855.7999999523","correct":true,"confidence":4},{"trial_n":120,"span":7,"encoder":"7747719","distractor":"7347719","target":"absent","response":"absent","rt":"4639.8000000715","correct":true,"confidence":2},{"trial_n":121,"span":7,"encoder":"8575590","distractor":"8775590","target":"absent","response":"absent","rt":"6657.7000000477","correct":true,"confidence":2},{"trial_n":122,"span":8,"encoder":"34902108","distractor":"34602108","target":"absent","response":"absent","rt":"1933.3999999762","correct":true,"confidence":4},{"trial_n":123,"span":8,"encoder":"71315540","distractor":"71314540","target":"present","response":"present","rt":"3886.8999999762","correct":true,"confidence":2},{"trial_n":124,"span":9,"encoder":"739161472","distractor":"739161402","target":"present","response":"absent","rt":"3527","correct":false,"confidence":3},{"trial_n":125,"span":8,"encoder":"69687595","distractor":"69689595","target":"present","response":"absent","rt":"3169.2000000477","correct":false,"confidence":2},{"trial_n":126,"span":7,"encoder":"9969358","distractor":"9969558","target":"present","response":"absent","rt":"3705.8000000715","correct":false,"confidence":3},{"trial_n":127,"span":6,"encoder":"533484","distractor":"633484","target":"absent","response":"absent","rt":"2456.6000000238","correct":true,"confidence":3},{"trial_n":128,"span":6,"encoder":"226928","distractor":"226923","target":"present","response":"absent","rt":"3534.0999999046","correct":false,"confidence":3},{"trial_n":129,"span":5,"encoder":"96200","distractor":"86200","target":"absent","response":"absent","rt":"15542.899999976","correct":true,"confidence":2},{"trial_n":130,"span":5,"encoder":"15736","distractor":"15731","target":"present","response":"absent","rt":"4371.7000000477","correct":false,"confidence":2},{"trial_n":131,"span":4,"encoder":"4620","distractor":"4120","target":"absent","response":"absent","rt":"1606.2000000477","correct":true,"confidence":5},{"trial_n":132,"span":4,"encoder":"7067","distractor":"7467","target":"absent","response":"absent","rt":"1608","correct":true,"confidence":5},{"trial_n":133,"span":5,"encoder":"90311","distractor":"70311","target":"present","response":"present","rt":"2326.2999999523","correct":true,"confidence":4},{"trial_n":134,"span":5,"encoder":"33898","distractor":"38898","target":"absent","response":"absent","rt":"2735.8000000715","correct":true,"confidence":4},{"trial_n":135,"span":6,"encoder":"187149","distractor":"187199","target":"absent","response":"present","rt":"2695.1000000238","correct":false,"confidence":3},{"trial_n":136,"span":5,"encoder":"46403","distractor":"56403","target":"present","response":"present","rt":"3042.2000000477","correct":true,"confidence":2},{"trial_n":137,"span":5,"encoder":"39687","distractor":"39587","target":"present","response":"present","rt":"2593.3999999762","correct":true,"confidence":4},{"trial_n":138,"span":6,"encoder":"997253","distractor":"997853","target":"present","response":"present","rt":"1962.1000000238","correct":true,"confidence":4},{"trial_n":139,"span":6,"encoder":"488434","distractor":"488435","target":"absent","response":"absent","rt":"4111","correct":true,"confidence":3},{"trial_n":140,"span":7,"encoder":"2142209","distractor":"2142289","target":"absent","response":"present","rt":"2115.3000000715","correct":false,"confidence":3}]