[{"trial_n":1,"n_dots":4.25,"target":"right","response":"left","rt":5098.5,"correct":false,"confidence":-1},{"trial_n":2,"n_dots":4.25,"target":"right","response":"right","rt":1874.3999999762,"correct":true,"confidence":-1},{"trial_n":3,"n_dots":4.25,"target":"left","response":"left","rt":1455.7000000477,"correct":true,"confidence":-1},{"trial_n":4,"n_dots":3.85,"target":"right","response":"right","rt":1168.2000000477,"correct":true,"confidence":-1},{"trial_n":5,"n_dots":3.85,"target":"right","response":"right","rt":1080.1000000238,"correct":true,"confidence":-1},{"trial_n":6,"n_dots":3.45,"target":"left","response":"left","rt":1518.3000000715,"correct":true,"confidence":-1},{"trial_n":7,"n_dots":3.45,"target":"left","response":"left","rt":1017.2999999523,"correct":true,"confidence":-1},{"trial_n":8,"n_dots":3.25,"target":"right","response":"right","rt":2110,"correct":true,"confidence":-1},{"trial_n":9,"n_dots":3.25,"target":"left","response":"left","rt":1047.6000000238,"correct":true,"confidence":-1},{"trial_n":10,"n_dots":3.05,"target":"left","response":"left","rt":776.40000009537,"correct":true,"confidence":-1},{"trial_n":11,"n_dots":3.05,"target":"right","response":"left","rt":1351.2000000477,"correct":false,"confidence":-1},{"trial_n":12,"n_dots":3.25,"target":"left","response":"left","rt":826.39999997616,"correct":true,"confidence":-1},{"trial_n":13,"n_dots":3.25,"target":"right","response":"right","rt":903.10000002384,"correct":true,"confidence":-1},{"trial_n":14,"n_dots":3.15,"target":"right","response":"right","rt":921.19999992847,"correct":true,"confidence":-1},{"trial_n":15,"n_dots":3.15,"target":"right","response":"left","rt":893.60000002384,"correct":false,"confidence":-1},{"trial_n":16,"n_dots":3.25,"target":"left","response":"left","rt":1024.2000000477,"correct":true,"confidence":-1},{"trial_n":17,"n_dots":3.25,"target":"right","response":"right","rt":643.69999992847,"correct":true,"confidence":-1},{"trial_n":18,"n_dots":3.15,"target":"left","response":"right","rt":921.70000004768,"correct":false,"confidence":-1},{"trial_n":19,"n_dots":3.25,"target":"left","response":"right","rt":1459.7999999523,"correct":false,"confidence":-1},{"trial_n":20,"n_dots":3.35,"target":"right","response":"right","rt":765.70000004768,"correct":true,"confidence":-1},{"trial_n":21,"n_dots":3.35,"target":"right","response":"right","rt":1027.8999999762,"correct":true,"confidence":4},{"trial_n":22,"n_dots":3.25,"target":"left","response":"left","rt":2359.3000000715,"correct":true,"confidence":4},{"trial_n":23,"n_dots":3.25,"target":"right","response":"right","rt":1299.1000000238,"correct":true,"confidence":4},{"trial_n":24,"n_dots":3.15,"target":"right","response":"right","rt":1314.5,"correct":true,"confidence":3},{"trial_n":25,"n_dots":3.15,"target":"right","response":"right","rt":915.80000007153,"correct":true,"confidence":4},{"trial_n":26,"n_dots":3.05,"target":"left","response":"left","rt":1040.6000000238,"correct":true,"confidence":3},{"trial_n":27,"n_dots":3.05,"target":"right","response":"right","rt":1146.3000000715,"correct":true,"confidence":3},{"trial_n":28,"n_dots":2.95,"target":"left","response":"left","rt":1001.7000000477,"correct":true,"confidence":4},{"trial_n":29,"n_dots":2.95,"target":"right","response":"right","rt":1057.2000000477,"correct":true,"confidence":4},{"trial_n":30,"n_dots":2.85,"target":"left","response":"left","rt":932.89999997616,"correct":true,"confidence":3},{"trial_n":31,"n_dots":2.85,"target":"left","response":"left","rt":922.5,"correct":true,"confidence":4},{"trial_n":32,"n_dots":2.75,"target":"left","response":"right","rt":846.29999995232,"correct":false,"confidence":5},{"trial_n":33,"n_dots":2.85,"target":"left","response":"left","rt":1223.6000000238,"correct":true,"confidence":4},{"trial_n":34,"n_dots":2.85,"target":"left","response":"right","rt":1217.8999999762,"correct":false,"confidence":3},{"trial_n":35,"n_dots":2.95,"target":"right","response":"left","rt":834.60000002384,"correct":false,"confidence":4},{"trial_n":36,"n_dots":3.05,"target":"left","response":"left","rt":1029.7000000477,"correct":true,"confidence":4},{"trial_n":37,"n_dots":3.05,"target":"left","response":"left","rt":946.19999992847,"correct":true,"confidence":3},{"trial_n":38,"n_dots":2.95,"target":"right","response":"right","rt":1435.6999999285,"correct":true,"confidence":3},{"trial_n":39,"n_dots":2.95,"target":"left","response":"right","rt":2055.6000000238,"correct":false,"confidence":3},{"trial_n":40,"n_dots":3.05,"target":"left","response":"left","rt":982.89999997616,"correct":true,"confidence":4},{"trial_n":41,"n_dots":3.05,"target":"left","response":"left","rt":1056,"correct":true,"confidence":3},{"trial_n":42,"n_dots":2.95,"target":"left","response":"left","rt":820.79999995232,"correct":true,"confidence":4},{"trial_n":43,"n_dots":2.95,"target":"right","response":"left","rt":1769.2000000477,"correct":false,"confidence":4},{"trial_n":44,"n_dots":3.05,"target":"right","response":"right","rt":903.5,"correct":true,"confidence":4},{"trial_n":45,"n_dots":3.05,"target":"left","response":"left","rt":1164.3999999762,"correct":true,"confidence":4},{"trial_n":46,"n_dots":2.95,"target":"left","response":"left","rt":824.5,"correct":true,"confidence":4},{"trial_n":47,"n_dots":2.95,"target":"right","response":"right","rt":1112.3999999762,"correct":true,"confidence":4},{"trial_n":48,"n_dots":2.85,"target":"right","response":"right","rt":1129.2999999523,"correct":true,"confidence":4},{"trial_n":49,"n_dots":2.85,"target":"left","response":"left","rt":787.19999992847,"correct":true,"confidence":5},{"trial_n":50,"n_dots":2.75,"target":"left","response":"left","rt":848.90000009537,"correct":true,"confidence":4},{"trial_n":51,"n_dots":2.75,"target":"left","response":"left","rt":964,"correct":true,"confidence":5},{"trial_n":52,"n_dots":2.65,"target":"right","response":"left","rt":1274.8999999762,"correct":false,"confidence":4},{"trial_n":53,"n_dots":2.75,"target":"right","response":"right","rt":1065.2000000477,"correct":true,"confidence":3},{"trial_n":54,"n_dots":2.75,"target":"left","response":"left","rt":1562.5,"correct":true,"confidence":4},{"trial_n":55,"n_dots":2.65,"target":"right","response":"right","rt":2388,"correct":true,"confidence":4},{"trial_n":56,"n_dots":2.65,"target":"left","response":"right","rt":1249.8999999762,"correct":false,"confidence":4},{"trial_n":57,"n_dots":2.75,"target":"left","response":"right","rt":3039.6000000238,"correct":false,"confidence":3},{"trial_n":58,"n_dots":2.85,"target":"right","response":"right","rt":1153.3999999762,"correct":true,"confidence":4},{"trial_n":59,"n_dots":2.85,"target":"left","response":"left","rt":942,"correct":true,"confidence":4},{"trial_n":60,"n_dots":2.75,"target":"left","response":"right","rt":1334.8999999762,"correct":false,"confidence":4},{"trial_n":61,"n_dots":2.85,"target":"left","response":"left","rt":2358.1000000238,"correct":true,"confidence":2},{"trial_n":62,"n_dots":2.85,"target":"left","response":"left","rt":952.10000002384,"correct":true,"confidence":4},{"trial_n":63,"n_dots":2.75,"target":"left","response":"left","rt":1052.5,"correct":true,"confidence":3},{"trial_n":64,"n_dots":2.75,"target":"left","response":"left","rt":1499,"correct":true,"confidence":4},{"trial_n":65,"n_dots":2.65,"target":"right","response":"right","rt":1085.6000000238,"correct":true,"confidence":4},{"trial_n":66,"n_dots":2.65,"target":"right","response":"left","rt":735.70000004768,"correct":false,"confidence":4},{"trial_n":67,"n_dots":2.75,"target":"right","response":"right","rt":1989,"correct":true,"confidence":3},{"trial_n":68,"n_dots":2.75,"target":"left","response":"right","rt":1316.9000000954,"correct":false,"confidence":2},{"trial_n":69,"n_dots":2.85,"target":"right","response":"right","rt":935.60000002384,"correct":true,"confidence":4},{"trial_n":70,"n_dots":2.85,"target":"right","response":"right","rt":1120.5999999046,"correct":true,"confidence":3},{"trial_n":71,"n_dots":2.75,"target":"left","response":"left","rt":802.89999997616,"correct":true,"confidence":4},{"trial_n":72,"n_dots":2.75,"target":"right","response":"right","rt":911.30000007153,"correct":true,"confidence":4},{"trial_n":73,"n_dots":2.65,"target":"right","response":"left","rt":879.69999992847,"correct":false,"confidence":4},{"trial_n":74,"n_dots":2.75,"target":"right","response":"left","rt":986.70000004768,"correct":false,"confidence":3},{"trial_n":75,"n_dots":2.85,"target":"right","response":"right","rt":934.59999990463,"correct":true,"confidence":3},{"trial_n":76,"n_dots":2.85,"target":"left","response":"left","rt":1004.4000000954,"correct":true,"confidence":4},{"trial_n":77,"n_dots":2.75,"target":"right","response":"left","rt":1181.6000000238,"correct":false,"confidence":4},{"trial_n":78,"n_dots":2.85,"target":"right","response":"left","rt":942.5,"correct":false,"confidence":4},{"trial_n":79,"n_dots":2.95,"target":"right","response":"right","rt":830,"correct":true,"confidence":5},{"trial_n":80,"n_dots":2.95,"target":"right","response":"left","rt":669.80000007153,"correct":false,"confidence":4},{"trial_n":81,"n_dots":3.05,"target":"right","response":"right","rt":791.29999995232,"correct":true,"confidence":4},{"trial_n":82,"n_dots":3.05,"target":"left","response":"left","rt":861.79999995232,"correct":true,"confidence":4},{"trial_n":83,"n_dots":2.95,"target":"left","response":"right","rt":1150.8000000715,"correct":false,"confidence":3},{"trial_n":84,"n_dots":3.05,"target":"left","response":"left","rt":772.70000004768,"correct":true,"confidence":4},{"trial_n":85,"n_dots":3.05,"target":"right","response":"right","rt":1118.7999999523,"correct":true,"confidence":4},{"trial_n":86,"n_dots":2.95,"target":"left","response":"left","rt":866.5,"correct":true,"confidence":4},{"trial_n":87,"n_dots":2.95,"target":"left","response":"left","rt":853.60000002384,"correct":true,"confidence":4},{"trial_n":88,"n_dots":2.85,"target":"right","response":"left","rt":900.89999997616,"correct":false,"confidence":4},{"trial_n":89,"n_dots":2.95,"target":"left","response":"left","rt":774,"correct":true,"confidence":5},{"trial_n":90,"n_dots":2.95,"target":"left","response":"right","rt":1055.6000000238,"correct":false,"confidence":3},{"trial_n":91,"n_dots":3.05,"target":"right","response":"right","rt":994.29999995232,"correct":true,"confidence":5},{"trial_n":92,"n_dots":3.05,"target":"left","response":"left","rt":1209.0999999046,"correct":true,"confidence":4},{"trial_n":93,"n_dots":2.95,"target":"right","response":"right","rt":841,"correct":true,"confidence":4},{"trial_n":94,"n_dots":2.95,"target":"left","response":"left","rt":1017.8999999762,"correct":true,"confidence":4},{"trial_n":95,"n_dots":2.85,"target":"left","response":"left","rt":863.89999997616,"correct":true,"confidence":5},{"trial_n":96,"n_dots":2.85,"target":"right","response":"right","rt":865.30000007153,"correct":true,"confidence":5},{"trial_n":97,"n_dots":2.75,"target":"right","response":"left","rt":943.29999995232,"correct":false,"confidence":4},{"trial_n":98,"n_dots":2.85,"target":"left","response":"right","rt":1356.9000000954,"correct":false,"confidence":4},{"trial_n":99,"n_dots":2.95,"target":"right","response":"left","rt":1653.6000000238,"correct":false,"confidence":2},{"trial_n":100,"n_dots":3.05,"target":"left","response":"left","rt":1011.3999999762,"correct":true,"confidence":3},{"trial_n":101,"n_dots":3.05,"target":"left","response":"left","rt":1551.2000000477,"correct":true,"confidence":5},{"trial_n":102,"n_dots":2.95,"target":"left","response":"right","rt":984.39999997616,"correct":false,"confidence":3},{"trial_n":103,"n_dots":3.05,"target":"right","response":"right","rt":964.09999990463,"correct":true,"confidence":3},{"trial_n":104,"n_dots":3.05,"target":"right","response":"right","rt":1023.3000000715,"correct":true,"confidence":4},{"trial_n":105,"n_dots":2.95,"target":"right","response":"right","rt":1037.1000000238,"correct":true,"confidence":4},{"trial_n":106,"n_dots":2.95,"target":"left","response":"left","rt":777.89999997616,"correct":true,"confidence":5},{"trial_n":107,"n_dots":2.85,"target":"right","response":"right","rt":868,"correct":true,"confidence":4},{"trial_n":108,"n_dots":2.85,"target":"left","response":"right","rt":1179.6999999285,"correct":false,"confidence":3},{"trial_n":109,"n_dots":2.95,"target":"right","response":"right","rt":1176.7000000477,"correct":true,"confidence":4},{"trial_n":110,"n_dots":2.95,"target":"right","response":"left","rt":2147.5,"correct":false,"confidence":2},{"trial_n":111,"n_dots":3.05,"target":"left","response":"left","rt":1053.8999999762,"correct":true,"confidence":3},{"trial_n":112,"n_dots":3.05,"target":"right","response":"right","rt":1337.5,"correct":true,"confidence":2},{"trial_n":113,"n_dots":2.95,"target":"right","response":"left","rt":1151.5,"correct":false,"confidence":3},{"trial_n":114,"n_dots":3.05,"target":"left","response":"right","rt":1210.9000000954,"correct":false,"confidence":3},{"trial_n":115,"n_dots":3.15,"target":"right","response":"right","rt":1112.8999999762,"correct":true,"confidence":3},{"trial_n":116,"n_dots":3.15,"target":"right","response":"right","rt":6403.1000000238,"correct":true,"confidence":4},{"trial_n":117,"n_dots":3.05,"target":"right","response":"left","rt":1136.6999999285,"correct":false,"confidence":4},{"trial_n":118,"n_dots":3.15,"target":"right","response":"right","rt":1508.3999999762,"correct":true,"confidence":3},{"trial_n":119,"n_dots":3.15,"target":"left","response":"left","rt":1047.2000000477,"correct":true,"confidence":3},{"trial_n":120,"n_dots":3.05,"target":"left","response":"right","rt":1090.5,"correct":false,"confidence":4}]