[{"trial_n":1,"min":25,"max":230,"target":"present","response":"present","rt":11403.199999928,"correct":true,"confidence":-1},{"trial_n":2,"min":25,"max":230,"target":"present","response":"present","rt":1533.8999999762,"correct":true,"confidence":-1},{"trial_n":3,"min":41,"max":214,"target":"absent","response":"absent","rt":1957.0999999046,"correct":true,"confidence":-1},{"trial_n":4,"min":41,"max":214,"target":"absent","response":"absent","rt":862.80000007153,"correct":true,"confidence":-1},{"trial_n":5,"min":57,"max":198,"target":"present","response":"present","rt":1495.5,"correct":true,"confidence":-1},{"trial_n":6,"min":57,"max":198,"target":"present","response":"present","rt":737.39999997616,"correct":true,"confidence":-1},{"trial_n":7,"min":73,"max":182,"target":"present","response":"present","rt":842,"correct":true,"confidence":-1},{"trial_n":8,"min":73,"max":182,"target":"absent","response":"absent","rt":1491.1000000238,"correct":true,"confidence":-1},{"trial_n":9,"min":89,"max":166,"target":"absent","response":"absent","rt":740.5,"correct":true,"confidence":-1},{"trial_n":10,"min":89,"max":166,"target":"present","response":"absent","rt":720.20000004768,"correct":false,"confidence":-1},{"trial_n":11,"min":81,"max":174,"target":"present","response":"absent","rt":3028.8999999762,"correct":false,"confidence":-1},{"trial_n":12,"min":73,"max":182,"target":"absent","response":"present","rt":1218.8999999762,"correct":false,"confidence":-1},{"trial_n":13,"min":65,"max":190,"target":"absent","response":"absent","rt":2063.5,"correct":true,"confidence":-1},{"trial_n":14,"min":65,"max":190,"target":"absent","response":"absent","rt":1011.5,"correct":true,"confidence":-1},{"trial_n":15,"min":73,"max":182,"target":"absent","response":"absent","rt":866.89999997616,"correct":true,"confidence":-1},{"trial_n":16,"min":73,"max":182,"target":"absent","response":"absent","rt":812.19999992847,"correct":true,"confidence":-1},{"trial_n":17,"min":81,"max":174,"target":"absent","response":"absent","rt":998.39999997616,"correct":true,"confidence":-1},{"trial_n":18,"min":81,"max":174,"target":"absent","response":"absent","rt":811.80000007153,"correct":true,"confidence":-1},{"trial_n":19,"min":89,"max":166,"target":"absent","response":"absent","rt":854.09999990463,"correct":true,"confidence":-1},{"trial_n":20,"min":89,"max":166,"target":"present","response":"absent","rt":1014.2000000477,"correct":false,"confidence":-1},{"trial_n":21,"min":85,"max":170,"target":"present","response":"absent","rt":5045.8000000715,"correct":false,"confidence":4},{"trial_n":22,"min":81,"max":174,"target":"absent","response":"absent","rt":10474.800000072,"correct":true,"confidence":2},{"trial_n":23,"min":81,"max":174,"target":"present","response":"present","rt":1679.5999999046,"correct":true,"confidence":4},{"trial_n":24,"min":85,"max":170,"target":"present","response":"absent","rt":1636.5999999046,"correct":false,"confidence":4},{"trial_n":25,"min":81,"max":174,"target":"present","response":"present","rt":1532.8999999762,"correct":true,"confidence":4},{"trial_n":26,"min":81,"max":174,"target":"present","response":"present","rt":1290.5,"correct":true,"confidence":5},{"trial_n":27,"min":85,"max":170,"target":"present","response":"absent","rt":2180.7999999523,"correct":false,"confidence":3},{"trial_n":28,"min":81,"max":174,"target":"absent","response":"present","rt":1792.6999999285,"correct":false,"confidence":4},{"trial_n":29,"min":77,"max":178,"target":"absent","response":"absent","rt":1480.2000000477,"correct":true,"confidence":5},{"trial_n":30,"min":77,"max":178,"target":"absent","response":"absent","rt":5321.8999999762,"correct":true,"confidence":5},{"trial_n":31,"min":79,"max":176,"target":"present","response":"present","rt":2604.7000000477,"correct":true,"confidence":4},{"trial_n":32,"min":79,"max":176,"target":"absent","response":"present","rt":1919.4000000954,"correct":false,"confidence":3},{"trial_n":33,"min":77,"max":178,"target":"present","response":"present","rt":1478.2000000477,"correct":true,"confidence":5},{"trial_n":34,"min":77,"max":178,"target":"present","response":"present","rt":1357.2000000477,"correct":true,"confidence":4},{"trial_n":35,"min":79,"max":176,"target":"present","response":"present","rt":1227.6999999285,"correct":true,"confidence":4},{"trial_n":36,"min":79,"max":176,"target":"absent","response":"absent","rt":1460.7000000477,"correct":true,"confidence":5},{"trial_n":37,"min":81,"max":174,"target":"absent","response":"absent","rt":57810.600000024,"correct":true,"confidence":3},{"trial_n":38,"min":81,"max":174,"target":"present","response":"present","rt":1467.7000000477,"correct":true,"confidence":5},{"trial_n":39,"min":83,"max":172,"target":"present","response":"present","rt":1335.2999999523,"correct":true,"confidence":4},{"trial_n":40,"min":83,"max":172,"target":"present","response":"present","rt":1036.7000000477,"correct":true,"confidence":4},{"trial_n":41,"min":84,"max":171,"target":"present","response":"absent","rt":4614.2999999523,"correct":false,"confidence":3},{"trial_n":42,"min":83,"max":172,"target":"absent","response":"absent","rt":1400.6000000238,"correct":true,"confidence":5},{"trial_n":43,"min":83,"max":172,"target":"present","response":"present","rt":1047.1000000238,"correct":true,"confidence":5},{"trial_n":44,"min":84,"max":171,"target":"absent","response":"absent","rt":1238,"correct":true,"confidence":5},{"trial_n":45,"min":84,"max":171,"target":"present","response":"present","rt":1274,"correct":true,"confidence":5},{"trial_n":46,"min":85,"max":170,"target":"absent","response":"absent","rt":1321.1999999285,"correct":true,"confidence":5},{"trial_n":47,"min":85,"max":170,"target":"absent","response":"absent","rt":1678.6000000238,"correct":true,"confidence":5},{"trial_n":48,"min":86,"max":169,"target":"present","response":"absent","rt":1480.3000000715,"correct":false,"confidence":4},{"trial_n":49,"min":85,"max":170,"target":"present","response":"present","rt":1067.1000000238,"correct":true,"confidence":5},{"trial_n":50,"min":85,"max":170,"target":"present","response":"absent","rt":1712.6000000238,"correct":false,"confidence":3},{"trial_n":51,"min":84,"max":171,"target":"absent","response":"absent","rt":1676.8000000715,"correct":true,"confidence":4},{"trial_n":52,"min":84,"max":171,"target":"present","response":"absent","rt":2615.7000000477,"correct":false,"confidence":4},{"trial_n":53,"min":83,"max":172,"target":"present","response":"absent","rt":3916.8000000715,"correct":false,"confidence":4},{"trial_n":54,"min":82,"max":173,"target":"absent","response":"absent","rt":1574.6000000238,"correct":true,"confidence":4},{"trial_n":55,"min":82,"max":173,"target":"present","response":"present","rt":1111.3000000715,"correct":true,"confidence":5},{"trial_n":56,"min":83,"max":172,"target":"absent","response":"present","rt":1636.1000000238,"correct":false,"confidence":5},{"trial_n":57,"min":82,"max":173,"target":"present","response":"present","rt":1162.5,"correct":true,"confidence":5},{"trial_n":58,"min":82,"max":173,"target":"absent","response":"absent","rt":1750.1000000238,"correct":true,"confidence":3},{"trial_n":59,"min":83,"max":172,"target":"absent","response":"present","rt":1750.1999999285,"correct":false,"confidence":4},{"trial_n":60,"min":82,"max":173,"target":"absent","response":"absent","rt":1176.2000000477,"correct":true,"confidence":4},{"trial_n":61,"min":82,"max":173,"target":"present","response":"present","rt":1273.0999999046,"correct":true,"confidence":5},{"trial_n":62,"min":83,"max":172,"target":"absent","response":"present","rt":1335.2000000477,"correct":false,"confidence":4},{"trial_n":63,"min":82,"max":173,"target":"present","response":"absent","rt":1720.7000000477,"correct":false,"confidence":4},{"trial_n":64,"min":81,"max":174,"target":"present","response":"present","rt":1506.3999999762,"correct":true,"confidence":3},{"trial_n":65,"min":81,"max":174,"target":"present","response":"present","rt":1068.1999999285,"correct":true,"confidence":5},{"trial_n":66,"min":82,"max":173,"target":"present","response":"present","rt":1318.3000000715,"correct":true,"confidence":4},{"trial_n":67,"min":82,"max":173,"target":"absent","response":"absent","rt":1529.1000000238,"correct":true,"confidence":3},{"trial_n":68,"min":83,"max":172,"target":"absent","response":"present","rt":1288.3999999762,"correct":false,"confidence":4},{"trial_n":69,"min":82,"max":173,"target":"absent","response":"absent","rt":4327.7999999523,"correct":true,"confidence":4},{"trial_n":70,"min":82,"max":173,"target":"absent","response":"present","rt":1431.3999999762,"correct":false,"confidence":4},{"trial_n":71,"min":41,"max":214,"target":"present","response":"present","rt":4511.2999999523,"correct":true,"confidence":-1},{"trial_n":72,"min":41,"max":214,"target":"present","response":"present","rt":1277.7000000477,"correct":true,"confidence":-1},{"trial_n":73,"min":57,"max":198,"target":"absent","response":"absent","rt":1520,"correct":true,"confidence":-1},{"trial_n":74,"min":57,"max":198,"target":"absent","response":"absent","rt":1174.2999999523,"correct":true,"confidence":-1},{"trial_n":75,"min":73,"max":182,"target":"present","response":"present","rt":1220.3999999762,"correct":true,"confidence":-1},{"trial_n":76,"min":73,"max":182,"target":"absent","response":"absent","rt":1721.6000000238,"correct":true,"confidence":-1},{"trial_n":77,"min":89,"max":166,"target":"absent","response":"absent","rt":922.60000002384,"correct":true,"confidence":-1},{"trial_n":78,"min":89,"max":166,"target":"absent","response":"absent","rt":1939.1999999285,"correct":true,"confidence":-1},{"trial_n":79,"min":105,"max":150,"target":"absent","response":"absent","rt":909.39999997616,"correct":true,"confidence":-1},{"trial_n":80,"min":105,"max":150,"target":"present","response":"absent","rt":1357.8999999762,"correct":false,"confidence":-1},{"trial_n":81,"min":97,"max":158,"target":"absent","response":"absent","rt":1893.8999999762,"correct":true,"confidence":-1},{"trial_n":82,"min":97,"max":158,"target":"present","response":"present","rt":1449.7000000477,"correct":true,"confidence":-1},{"trial_n":83,"min":105,"max":150,"target":"absent","response":"present","rt":878.29999995232,"correct":false,"confidence":-1},{"trial_n":84,"min":97,"max":158,"target":"absent","response":"present","rt":707.19999992847,"correct":false,"confidence":-1},{"trial_n":85,"min":89,"max":166,"target":"absent","response":"present","rt":1685,"correct":false,"confidence":-1},{"trial_n":86,"min":81,"max":174,"target":"present","response":"absent","rt":1538.2000000477,"correct":false,"confidence":-1},{"trial_n":87,"min":73,"max":182,"target":"present","response":"present","rt":915.19999992847,"correct":true,"confidence":-1},{"trial_n":88,"min":73,"max":182,"target":"absent","response":"absent","rt":1568.8000000715,"correct":true,"confidence":-1},{"trial_n":89,"min":81,"max":174,"target":"present","response":"present","rt":1107.7999999523,"correct":true,"confidence":-1},{"trial_n":90,"min":81,"max":174,"target":"absent","response":"absent","rt":1930.6000000238,"correct":true,"confidence":-1},{"trial_n":91,"min":85,"max":170,"target":"absent","response":"present","rt":1405.1999999285,"correct":false,"confidence":4},{"trial_n":92,"min":81,"max":174,"target":"absent","response":"present","rt":1492.8999999762,"correct":false,"confidence":4},{"trial_n":93,"min":77,"max":178,"target":"present","response":"present","rt":1007.8000000715,"correct":true,"confidence":5},{"trial_n":94,"min":77,"max":178,"target":"absent","response":"absent","rt":1163.2999999523,"correct":true,"confidence":5},{"trial_n":95,"min":81,"max":174,"target":"absent","response":"absent","rt":1047.8999999762,"correct":true,"confidence":4},{"trial_n":96,"min":81,"max":174,"target":"present","response":"present","rt":1209,"correct":true,"confidence":5},{"trial_n":97,"min":85,"max":170,"target":"absent","response":"absent","rt":1231.2000000477,"correct":true,"confidence":4},{"trial_n":98,"min":85,"max":170,"target":"absent","response":"absent","rt":2050,"correct":true,"confidence":3},{"trial_n":99,"min":89,"max":166,"target":"present","response":"absent","rt":1100.2999999523,"correct":false,"confidence":3},{"trial_n":100,"min":85,"max":170,"target":"present","response":"present","rt":940.80000007153,"correct":true,"confidence":4},{"trial_n":101,"min":85,"max":170,"target":"present","response":"present","rt":1279.7000000477,"correct":true,"confidence":4},{"trial_n":102,"min":87,"max":168,"target":"absent","response":"absent","rt":1833.7000000477,"correct":true,"confidence":5},{"trial_n":103,"min":87,"max":168,"target":"present","response":"present","rt":2803.6000000238,"correct":true,"confidence":4},{"trial_n":104,"min":89,"max":166,"target":"present","response":"present","rt":1240.8000000715,"correct":true,"confidence":3},{"trial_n":105,"min":89,"max":166,"target":"present","response":"present","rt":1069.2000000477,"correct":true,"confidence":5},{"trial_n":106,"min":91,"max":164,"target":"absent","response":"present","rt":1354.1999999285,"correct":false,"confidence":5},{"trial_n":107,"min":89,"max":166,"target":"present","response":"present","rt":1124.1000000238,"correct":true,"confidence":5},{"trial_n":108,"min":89,"max":166,"target":"present","response":"present","rt":1471.8999999762,"correct":true,"confidence":4},{"trial_n":109,"min":91,"max":164,"target":"present","response":"present","rt":2277.7999999523,"correct":true,"confidence":3},{"trial_n":110,"min":91,"max":164,"target":"absent","response":"absent","rt":1242,"correct":true,"confidence":3},{"trial_n":111,"min":92,"max":163,"target":"absent","response":"present","rt":4976.3999999762,"correct":false,"confidence":4},{"trial_n":112,"min":91,"max":164,"target":"absent","response":"present","rt":908.70000004768,"correct":false,"confidence":4},{"trial_n":113,"min":90,"max":165,"target":"present","response":"present","rt":1403.6999999285,"correct":true,"confidence":4},{"trial_n":114,"min":90,"max":165,"target":"present","response":"present","rt":1293.5,"correct":true,"confidence":5},{"trial_n":115,"min":91,"max":164,"target":"present","response":"present","rt":1369.7000000477,"correct":true,"confidence":3},{"trial_n":116,"min":91,"max":164,"target":"present","response":"present","rt":1369.8999999762,"correct":true,"confidence":4},{"trial_n":117,"min":92,"max":163,"target":"present","response":"absent","rt":1511.1000000238,"correct":false,"confidence":3},{"trial_n":118,"min":91,"max":164,"target":"absent","response":"absent","rt":1431.7000000477,"correct":true,"confidence":3},{"trial_n":119,"min":91,"max":164,"target":"present","response":"present","rt":1219.3999999762,"correct":true,"confidence":4},{"trial_n":120,"min":92,"max":163,"target":"present","response":"absent","rt":2291.6999999285,"correct":false,"confidence":3},{"trial_n":121,"min":91,"max":164,"target":"present","response":"present","rt":1014.3000000715,"correct":true,"confidence":5},{"trial_n":122,"min":91,"max":164,"target":"present","response":"present","rt":1754,"correct":true,"confidence":3},{"trial_n":123,"min":92,"max":163,"target":"present","response":"present","rt":1332.3000000715,"correct":true,"confidence":4},{"trial_n":124,"min":92,"max":163,"target":"absent","response":"absent","rt":1286.9000000954,"correct":true,"confidence":4},{"trial_n":125,"min":93,"max":162,"target":"present","response":"absent","rt":1494,"correct":false,"confidence":4},{"trial_n":126,"min":92,"max":163,"target":"absent","response":"present","rt":1969.1999999285,"correct":false,"confidence":4},{"trial_n":127,"min":91,"max":164,"target":"present","response":"present","rt":1356.5,"correct":true,"confidence":4},{"trial_n":128,"min":91,"max":164,"target":"absent","response":"absent","rt":1337,"correct":true,"confidence":3},{"trial_n":129,"min":92,"max":163,"target":"absent","response":"present","rt":1647,"correct":false,"confidence":3},{"trial_n":130,"min":91,"max":164,"target":"absent","response":"absent","rt":2758.6999999285,"correct":true,"confidence":4},{"trial_n":131,"min":91,"max":164,"target":"present","response":"absent","rt":1712.1000000238,"correct":false,"confidence":3},{"trial_n":132,"min":90,"max":165,"target":"present","response":"present","rt":1288.6000000238,"correct":true,"confidence":5},{"trial_n":133,"min":90,"max":165,"target":"absent","response":"absent","rt":1119.1000000238,"correct":true,"confidence":4},{"trial_n":134,"min":91,"max":164,"target":"present","response":"present","rt":1001.7000000477,"correct":true,"confidence":5},{"trial_n":135,"min":91,"max":164,"target":"absent","response":"present","rt":1859.8999999762,"correct":false,"confidence":2},{"trial_n":136,"min":90,"max":165,"target":"present","response":"present","rt":1441.7999999523,"correct":true,"confidence":5},{"trial_n":137,"min":90,"max":165,"target":"absent","response":"absent","rt":1224.3999999762,"correct":true,"confidence":3},{"trial_n":138,"min":91,"max":164,"target":"absent","response":"present","rt":2352.3999999762,"correct":false,"confidence":4},{"trial_n":139,"min":90,"max":165,"target":"present","response":"present","rt":1075.2999999523,"correct":true,"confidence":4},{"trial_n":140,"min":90,"max":165,"target":"absent","response":"present","rt":2382.2000000477,"correct":false,"confidence":4}]