[{"trial_n":1,"n_dots":4.25,"target":"left","response":"left","rt":3072.8999999985,"correct":true,"confidence":-1},{"trial_n":2,"n_dots":4.25,"target":"left","response":"left","rt":474.29999999702,"correct":true,"confidence":-1},{"trial_n":3,"n_dots":3.85,"target":"left","response":"left","rt":551.5,"correct":true,"confidence":-1},{"trial_n":4,"n_dots":3.85,"target":"right","response":"right","rt":411.30000000447,"correct":true,"confidence":-1},{"trial_n":5,"n_dots":3.45,"target":"right","response":"left","rt":1033.6000000015,"correct":false,"confidence":-1},{"trial_n":6,"n_dots":3.85,"target":"left","response":"left","rt":79.69999999553,"correct":true,"confidence":-1},{"trial_n":7,"n_dots":3.85,"target":"right","response":"left","rt":354.70000000298,"correct":false,"confidence":-1},{"trial_n":8,"n_dots":4.05,"target":"right","response":"right","rt":395,"correct":true,"confidence":-1},{"trial_n":9,"n_dots":4.05,"target":"left","response":"left","rt":121.10000000149,"correct":true,"confidence":-1},{"trial_n":10,"n_dots":3.85,"target":"left","response":"left","rt":90.60000000149,"correct":true,"confidence":-1},{"trial_n":11,"n_dots":3.85,"target":"right","response":"right","rt":346.60000000149,"correct":true,"confidence":-1},{"trial_n":12,"n_dots":3.65,"target":"right","response":"right","rt":360.89999999851,"correct":true,"confidence":-1},{"trial_n":13,"n_dots":3.65,"target":"left","response":"left","rt":115.30000000447,"correct":true,"confidence":-1},{"trial_n":14,"n_dots":3.55,"target":"right","response":"left","rt":287.59999999404,"correct":false,"confidence":-1},{"trial_n":15,"n_dots":3.65,"target":"left","response":"left","rt":794,"correct":true,"confidence":-1},{"trial_n":16,"n_dots":3.65,"target":"left","response":"left","rt":755.70000000298,"correct":true,"confidence":-1},{"trial_n":17,"n_dots":3.55,"target":"left","response":"left","rt":374.59999999404,"correct":true,"confidence":-1},{"trial_n":18,"n_dots":3.55,"target":"right","response":"right","rt":369,"correct":true,"confidence":-1},{"trial_n":19,"n_dots":3.45,"target":"right","response":"left","rt":442.89999999851,"correct":false,"confidence":-1},{"trial_n":20,"n_dots":3.55,"target":"left","response":"left","rt":374.70000000298,"correct":true,"confidence":-1},{"trial_n":21,"n_dots":3.55,"target":"right","response":"left","rt":571,"correct":false,"confidence":3},{"trial_n":22,"n_dots":3.65,"target":"right","response":"left","rt":281.60000000149,"correct":false,"confidence":4},{"trial_n":23,"n_dots":3.75,"target":"left","response":"left","rt":66.39999999851,"correct":true,"confidence":5},{"trial_n":24,"n_dots":3.75,"target":"right","response":"left","rt":745.60000000149,"correct":false,"confidence":2},{"trial_n":25,"n_dots":3.85,"target":"left","response":"left","rt":335.10000000149,"correct":true,"confidence":3},{"trial_n":26,"n_dots":3.85,"target":"right","response":"right","rt":640.20000000298,"correct":true,"confidence":1},{"trial_n":27,"n_dots":3.75,"target":"left","response":"left","rt":249.5,"correct":true,"confidence":5},{"trial_n":28,"n_dots":3.75,"target":"right","response":"right","rt":718.20000000298,"correct":true,"confidence":4},{"trial_n":29,"n_dots":3.65,"target":"left","response":"left","rt":425.89999999851,"correct":true,"confidence":3},{"trial_n":30,"n_dots":3.65,"target":"left","response":"left","rt":290.10000000149,"correct":true,"confidence":3},{"trial_n":31,"n_dots":3.55,"target":"left","response":"left","rt":403.30000000447,"correct":true,"confidence":5},{"trial_n":32,"n_dots":3.55,"target":"left","response":"left","rt":105.5,"correct":true,"confidence":4},{"trial_n":33,"n_dots":3.45,"target":"right","response":"right","rt":499.60000000149,"correct":true,"confidence":4},{"trial_n":34,"n_dots":3.45,"target":"right","response":"left","rt":274.79999999702,"correct":false,"confidence":3},{"trial_n":35,"n_dots":3.55,"target":"left","response":"left","rt":194.79999999702,"correct":true,"confidence":3},{"trial_n":36,"n_dots":3.55,"target":"left","response":"left","rt":21.20000000298,"correct":true,"confidence":5},{"trial_n":37,"n_dots":3.45,"target":"left","response":"left","rt":135.80000000447,"correct":true,"confidence":5},{"trial_n":38,"n_dots":3.45,"target":"left","response":"left","rt":1032.3000000045,"correct":true,"confidence":4},{"trial_n":39,"n_dots":3.35,"target":"right","response":"left","rt":531.69999999553,"correct":false,"confidence":3},{"trial_n":40,"n_dots":3.45,"target":"left","response":"left","rt":410.5,"correct":true,"confidence":5},{"trial_n":41,"n_dots":3.45,"target":"right","response":"right","rt":653.20000000298,"correct":true,"confidence":5},{"trial_n":42,"n_dots":3.35,"target":"left","response":"left","rt":63,"correct":true,"confidence":4},{"trial_n":43,"n_dots":3.35,"target":"left","response":"left","rt":40.79999999702,"correct":true,"confidence":3},{"trial_n":44,"n_dots":3.25,"target":"right","response":"left","rt":297.30000000447,"correct":false,"confidence":3},{"trial_n":45,"n_dots":3.35,"target":"right","response":"right","rt":471.60000000149,"correct":true,"confidence":1},{"trial_n":46,"n_dots":3.35,"target":"right","response":"left","rt":302.80000000447,"correct":false,"confidence":3},{"trial_n":47,"n_dots":3.45,"target":"left","response":"left","rt":690.59999999404,"correct":true,"confidence":4},{"trial_n":48,"n_dots":3.45,"target":"right","response":"left","rt":484.19999999553,"correct":false,"confidence":2},{"trial_n":49,"n_dots":3.55,"target":"right","response":"right","rt":370.40000000596,"correct":true,"confidence":3},{"trial_n":50,"n_dots":3.55,"target":"left","response":"left","rt":34.60000000149,"correct":true,"confidence":4},{"trial_n":51,"n_dots":3.45,"target":"left","response":"left","rt":120.39999999851,"correct":true,"confidence":3},{"trial_n":52,"n_dots":3.45,"target":"left","response":"left","rt":315,"correct":true,"confidence":4},{"trial_n":53,"n_dots":3.35,"target":"right","response":"right","rt":516.40000000596,"correct":true,"confidence":1},{"trial_n":54,"n_dots":3.35,"target":"left","response":"left","rt":252,"correct":true,"confidence":3},{"trial_n":55,"n_dots":3.25,"target":"left","response":"left","rt":261.09999999404,"correct":true,"confidence":4},{"trial_n":56,"n_dots":3.25,"target":"right","response":"left","rt":166.59999999404,"correct":false,"confidence":3},{"trial_n":57,"n_dots":3.35,"target":"left","response":"left","rt":201.20000000298,"correct":true,"confidence":3},{"trial_n":58,"n_dots":3.35,"target":"right","response":"right","rt":604.60000000149,"correct":true,"confidence":3},{"trial_n":59,"n_dots":3.25,"target":"left","response":"left","rt":344.29999999702,"correct":true,"confidence":4},{"trial_n":60,"n_dots":3.25,"target":"left","response":"left","rt":232.79999999702,"correct":true,"confidence":5},{"trial_n":61,"n_dots":3.15,"target":"left","response":"left","rt":611.60000000149,"correct":true,"confidence":5},{"trial_n":62,"n_dots":3.15,"target":"right","response":"left","rt":301.89999999851,"correct":false,"confidence":4},{"trial_n":63,"n_dots":3.25,"target":"left","response":"left","rt":348.09999999404,"correct":true,"confidence":4},{"trial_n":64,"n_dots":3.25,"target":"left","response":"left","rt":861.10000000149,"correct":true,"confidence":4},{"trial_n":65,"n_dots":3.15,"target":"right","response":"left","rt":606.60000000149,"correct":false,"confidence":1},{"trial_n":66,"n_dots":3.25,"target":"right","response":"left","rt":470.60000000149,"correct":false,"confidence":2},{"trial_n":67,"n_dots":3.35,"target":"right","response":"left","rt":361.30000000447,"correct":false,"confidence":3},{"trial_n":68,"n_dots":3.45,"target":"right","response":"left","rt":273.89999999851,"correct":false,"confidence":1},{"trial_n":69,"n_dots":3.55,"target":"right","response":"left","rt":51.10000000149,"correct":false,"confidence":3},{"trial_n":70,"n_dots":3.65,"target":"left","response":"left","rt":254.59999999404,"correct":true,"confidence":4},{"trial_n":71,"n_dots":3.65,"target":"right","response":"right","rt":316.30000000447,"correct":true,"confidence":4},{"trial_n":72,"n_dots":3.55,"target":"right","response":"right","rt":211,"correct":true,"confidence":4},{"trial_n":73,"n_dots":3.55,"target":"left","response":"left","rt":280.70000000298,"correct":true,"confidence":4},{"trial_n":74,"n_dots":3.45,"target":"left","response":"left","rt":103.20000000298,"correct":true,"confidence":5},{"trial_n":75,"n_dots":3.45,"target":"left","response":"left","rt":64.5,"correct":true,"confidence":5},{"trial_n":76,"n_dots":3.35,"target":"left","response":"left","rt":319.19999999553,"correct":true,"confidence":5},{"trial_n":77,"n_dots":3.35,"target":"right","response":"right","rt":444.90000000596,"correct":true,"confidence":2},{"trial_n":78,"n_dots":3.25,"target":"right","response":"left","rt":283.29999999702,"correct":false,"confidence":2},{"trial_n":79,"n_dots":3.35,"target":"left","response":"left","rt":684.79999999702,"correct":true,"confidence":4},{"trial_n":80,"n_dots":3.35,"target":"right","response":"right","rt":391.39999999851,"correct":true,"confidence":4},{"trial_n":81,"n_dots":3.25,"target":"right","response":"right","rt":78.89999999851,"correct":true,"confidence":4},{"trial_n":82,"n_dots":3.25,"target":"right","response":"right","rt":335.5,"correct":true,"confidence":3},{"trial_n":83,"n_dots":3.15,"target":"right","response":"right","rt":323.60000000149,"correct":true,"confidence":4},{"trial_n":84,"n_dots":3.15,"target":"left","response":"left","rt":76,"correct":true,"confidence":5},{"trial_n":85,"n_dots":3.05,"target":"left","response":"left","rt":303.60000000149,"correct":true,"confidence":5},{"trial_n":86,"n_dots":3.05,"target":"left","response":"left","rt":318.79999999702,"correct":true,"confidence":5},{"trial_n":87,"n_dots":2.95,"target":"left","response":"left","rt":260.60000000149,"correct":true,"confidence":2},{"trial_n":88,"n_dots":2.95,"target":"left","response":"left","rt":286,"correct":true,"confidence":4},{"trial_n":89,"n_dots":2.85,"target":"right","response":"left","rt":264.89999999851,"correct":false,"confidence":3},{"trial_n":90,"n_dots":2.95,"target":"right","response":"left","rt":283.39999999851,"correct":false,"confidence":3},{"trial_n":91,"n_dots":3.05,"target":"right","response":"right","rt":366.30000000447,"correct":true,"confidence":2},{"trial_n":92,"n_dots":3.05,"target":"left","response":"left","rt":287.29999999702,"correct":true,"confidence":2},{"trial_n":93,"n_dots":2.95,"target":"right","response":"left","rt":360.20000000298,"correct":false,"confidence":4},{"trial_n":94,"n_dots":3.05,"target":"right","response":"left","rt":350.59999999404,"correct":false,"confidence":4},{"trial_n":95,"n_dots":3.15,"target":"right","response":"left","rt":222,"correct":false,"confidence":3},{"trial_n":96,"n_dots":3.25,"target":"left","response":"left","rt":755.10000000149,"correct":true,"confidence":3},{"trial_n":97,"n_dots":3.25,"target":"right","response":"left","rt":249.80000000447,"correct":false,"confidence":3},{"trial_n":98,"n_dots":3.35,"target":"right","response":"right","rt":302.10000000149,"correct":true,"confidence":4},{"trial_n":99,"n_dots":3.35,"target":"right","response":"left","rt":314.5,"correct":false,"confidence":4},{"trial_n":100,"n_dots":3.45,"target":"right","response":"left","rt":570.10000000149,"correct":false,"confidence":1},{"trial_n":101,"n_dots":3.55,"target":"left","response":"left","rt":246.20000000298,"correct":true,"confidence":2},{"trial_n":102,"n_dots":3.55,"target":"right","response":"right","rt":1319.1000000015,"correct":true,"confidence":1},{"trial_n":103,"n_dots":3.45,"target":"left","response":"left","rt":770.5,"correct":true,"confidence":3},{"trial_n":104,"n_dots":3.45,"target":"right","response":"right","rt":315.89999999851,"correct":true,"confidence":3},{"trial_n":105,"n_dots":3.35,"target":"left","response":"left","rt":646.69999999553,"correct":true,"confidence":4},{"trial_n":106,"n_dots":3.35,"target":"left","response":"left","rt":316.69999999553,"correct":true,"confidence":4},{"trial_n":107,"n_dots":3.25,"target":"right","response":"right","rt":388.69999999553,"correct":true,"confidence":4},{"trial_n":108,"n_dots":3.25,"target":"left","response":"left","rt":12.30000000447,"correct":true,"confidence":4},{"trial_n":109,"n_dots":3.15,"target":"right","response":"right","rt":335,"correct":true,"confidence":3},{"trial_n":110,"n_dots":3.15,"target":"left","response":"left","rt":71.20000000298,"correct":true,"confidence":4},{"trial_n":111,"n_dots":3.05,"target":"right","response":"left","rt":307,"correct":false,"confidence":3},{"trial_n":112,"n_dots":3.15,"target":"right","response":"right","rt":65.20000000298,"correct":true,"confidence":5},{"trial_n":113,"n_dots":3.15,"target":"left","response":"left","rt":131.80000000447,"correct":true,"confidence":3},{"trial_n":114,"n_dots":3.05,"target":"left","response":"left","rt":40.90000000596,"correct":true,"confidence":4},{"trial_n":115,"n_dots":3.05,"target":"right","response":"right","rt":173.59999999404,"correct":true,"confidence":4},{"trial_n":116,"n_dots":2.95,"target":"left","response":"left","rt":616.60000000149,"correct":true,"confidence":3},{"trial_n":117,"n_dots":2.95,"target":"right","response":"left","rt":409.5,"correct":false,"confidence":3},{"trial_n":118,"n_dots":3.05,"target":"right","response":"left","rt":-2.7999999970198,"correct":false,"confidence":2},{"trial_n":119,"n_dots":3.15,"target":"left","response":"left","rt":492.60000000149,"correct":true,"confidence":4},{"trial_n":120,"n_dots":3.15,"target":"right","response":"right","rt":627.20000000298,"correct":true,"confidence":4}]