[{"trial_n":1,"n_dots":4.25,"target":"right","response":"left","rt":6447,"correct":false,"confidence":-1},{"trial_n":2,"n_dots":4.25,"target":"left","response":"right","rt":974.09999996424,"correct":false,"confidence":-1},{"trial_n":3,"n_dots":4.65,"target":"left","response":"left","rt":435.69999998808,"correct":true,"confidence":-1},{"trial_n":4,"n_dots":4.65,"target":"left","response":"left","rt":326.30000001192,"correct":true,"confidence":-1},{"trial_n":5,"n_dots":4.25,"target":"left","response":"left","rt":474,"correct":true,"confidence":-1},{"trial_n":6,"n_dots":4.25,"target":"left","response":"left","rt":515.69999998808,"correct":true,"confidence":-1},{"trial_n":7,"n_dots":3.85,"target":"right","response":"right","rt":554.70000004768,"correct":true,"confidence":-1},{"trial_n":8,"n_dots":3.85,"target":"left","response":"left","rt":148.80000001192,"correct":true,"confidence":-1},{"trial_n":9,"n_dots":3.65,"target":"right","response":"left","rt":449.69999998808,"correct":false,"confidence":-1},{"trial_n":10,"n_dots":3.85,"target":"right","response":"right","rt":227,"correct":true,"confidence":-1},{"trial_n":11,"n_dots":3.85,"target":"right","response":"left","rt":119.19999998808,"correct":false,"confidence":-1},{"trial_n":12,"n_dots":4.05,"target":"left","response":"left","rt":39.899999976158,"correct":true,"confidence":-1},{"trial_n":13,"n_dots":4.05,"target":"right","response":"left","rt":416.30000001192,"correct":false,"confidence":-1},{"trial_n":14,"n_dots":4.15,"target":"right","response":"left","rt":347.29999995232,"correct":false,"confidence":-1},{"trial_n":15,"n_dots":4.25,"target":"right","response":"right","rt":1718.6999999881,"correct":true,"confidence":-1},{"trial_n":16,"n_dots":4.25,"target":"right","response":"right","rt":493.19999998808,"correct":true,"confidence":-1},{"trial_n":17,"n_dots":4.15,"target":"right","response":"right","rt":473.09999996424,"correct":true,"confidence":-1},{"trial_n":18,"n_dots":4.15,"target":"left","response":"left","rt":523.69999998808,"correct":true,"confidence":-1},{"trial_n":19,"n_dots":4.05,"target":"right","response":"right","rt":406.30000001192,"correct":true,"confidence":-1},{"trial_n":20,"n_dots":4.05,"target":"right","response":"right","rt":437,"correct":true,"confidence":-1},{"trial_n":21,"n_dots":3.95,"target":"left","response":"left","rt":125.10000002384,"correct":true,"confidence":4},{"trial_n":22,"n_dots":3.95,"target":"left","response":"left","rt":1117.3000000119,"correct":true,"confidence":3},{"trial_n":23,"n_dots":3.85,"target":"right","response":"right","rt":691.39999997616,"correct":true,"confidence":2},{"trial_n":24,"n_dots":3.85,"target":"left","response":"left","rt":448.80000001192,"correct":true,"confidence":4},{"trial_n":25,"n_dots":3.75,"target":"right","response":"right","rt":704.09999996424,"correct":true,"confidence":3},{"trial_n":26,"n_dots":3.75,"target":"left","response":"left","rt":548.40000003576,"correct":true,"confidence":2},{"trial_n":27,"n_dots":3.65,"target":"left","response":"left","rt":496,"correct":true,"confidence":3},{"trial_n":28,"n_dots":3.65,"target":"right","response":"right","rt":704.5,"correct":true,"confidence":3},{"trial_n":29,"n_dots":3.55,"target":"right","response":"left","rt":908.59999996424,"correct":false,"confidence":1},{"trial_n":30,"n_dots":3.65,"target":"left","response":"left","rt":551.39999997616,"correct":true,"confidence":4},{"trial_n":31,"n_dots":3.65,"target":"left","response":"left","rt":509.89999997616,"correct":true,"confidence":4},{"trial_n":32,"n_dots":3.55,"target":"left","response":"left","rt":333.39999997616,"correct":true,"confidence":1},{"trial_n":33,"n_dots":3.55,"target":"left","response":"left","rt":511.60000002384,"correct":true,"confidence":3},{"trial_n":34,"n_dots":3.45,"target":"left","response":"left","rt":625.20000004768,"correct":true,"confidence":3},{"trial_n":35,"n_dots":3.45,"target":"right","response":"right","rt":380.30000001192,"correct":true,"confidence":3},{"trial_n":36,"n_dots":3.35,"target":"left","response":"left","rt":487,"correct":true,"confidence":3},{"trial_n":37,"n_dots":3.35,"target":"left","response":"left","rt":724.80000001192,"correct":true,"confidence":2},{"trial_n":38,"n_dots":3.25,"target":"right","response":"right","rt":480.60000002384,"correct":true,"confidence":2},{"trial_n":39,"n_dots":3.25,"target":"left","response":"left","rt":458.30000001192,"correct":true,"confidence":2},{"trial_n":40,"n_dots":3.15,"target":"left","response":"right","rt":752.09999996424,"correct":false,"confidence":1},{"trial_n":41,"n_dots":3.25,"target":"left","response":"left","rt":343.79999995232,"correct":true,"confidence":3},{"trial_n":42,"n_dots":3.25,"target":"right","response":"right","rt":514,"correct":true,"confidence":1},{"trial_n":43,"n_dots":3.15,"target":"left","response":"left","rt":799.10000002384,"correct":true,"confidence":3},{"trial_n":44,"n_dots":3.15,"target":"right","response":"left","rt":597.89999997616,"correct":false,"confidence":3},{"trial_n":45,"n_dots":3.25,"target":"right","response":"left","rt":1008.9000000358,"correct":false,"confidence":2},{"trial_n":46,"n_dots":3.35,"target":"left","response":"left","rt":534,"correct":true,"confidence":4},{"trial_n":47,"n_dots":3.35,"target":"left","response":"left","rt":708.80000001192,"correct":true,"confidence":4},{"trial_n":48,"n_dots":3.25,"target":"left","response":"left","rt":583.5,"correct":true,"confidence":4},{"trial_n":49,"n_dots":3.25,"target":"right","response":"left","rt":714.80000001192,"correct":false,"confidence":1},{"trial_n":50,"n_dots":3.35,"target":"right","response":"right","rt":527.5,"correct":true,"confidence":4},{"trial_n":51,"n_dots":3.35,"target":"right","response":"right","rt":496.19999998808,"correct":true,"confidence":4},{"trial_n":52,"n_dots":3.25,"target":"left","response":"left","rt":629.69999998808,"correct":true,"confidence":4},{"trial_n":53,"n_dots":3.25,"target":"left","response":"left","rt":512,"correct":true,"confidence":4},{"trial_n":54,"n_dots":3.15,"target":"left","response":"left","rt":474,"correct":true,"confidence":4},{"trial_n":55,"n_dots":3.15,"target":"right","response":"right","rt":609.5,"correct":true,"confidence":3},{"trial_n":56,"n_dots":3.05,"target":"right","response":"left","rt":670.69999998808,"correct":false,"confidence":3},{"trial_n":57,"n_dots":3.15,"target":"right","response":"left","rt":544.80000001192,"correct":false,"confidence":2},{"trial_n":58,"n_dots":3.25,"target":"left","response":"right","rt":490.89999997616,"correct":false,"confidence":1},{"trial_n":59,"n_dots":3.35,"target":"left","response":"left","rt":616.30000001192,"correct":true,"confidence":1},{"trial_n":60,"n_dots":3.35,"target":"right","response":"right","rt":559.10000002384,"correct":true,"confidence":2},{"trial_n":61,"n_dots":3.25,"target":"right","response":"left","rt":881.69999998808,"correct":false,"confidence":2},{"trial_n":62,"n_dots":3.35,"target":"right","response":"right","rt":587.89999997616,"correct":true,"confidence":4},{"trial_n":63,"n_dots":3.35,"target":"left","response":"left","rt":824.30000001192,"correct":true,"confidence":3},{"trial_n":64,"n_dots":3.25,"target":"left","response":"left","rt":500,"correct":true,"confidence":3},{"trial_n":65,"n_dots":3.25,"target":"left","response":"left","rt":911.5,"correct":true,"confidence":3},{"trial_n":66,"n_dots":3.15,"target":"left","response":"right","rt":587.69999998808,"correct":false,"confidence":3},{"trial_n":67,"n_dots":3.25,"target":"left","response":"right","rt":1167.6999999881,"correct":false,"confidence":1},{"trial_n":68,"n_dots":3.35,"target":"left","response":"left","rt":432.19999998808,"correct":true,"confidence":3},{"trial_n":69,"n_dots":3.35,"target":"left","response":"left","rt":588.60000002384,"correct":true,"confidence":3},{"trial_n":70,"n_dots":3.25,"target":"left","response":"left","rt":576.5,"correct":true,"confidence":3},{"trial_n":71,"n_dots":3.25,"target":"left","response":"left","rt":422.10000002384,"correct":true,"confidence":3},{"trial_n":72,"n_dots":3.15,"target":"right","response":"right","rt":584.19999998808,"correct":true,"confidence":3},{"trial_n":73,"n_dots":3.15,"target":"right","response":"left","rt":392.19999998808,"correct":false,"confidence":3},{"trial_n":74,"n_dots":3.25,"target":"right","response":"left","rt":591.69999998808,"correct":false,"confidence":3},{"trial_n":75,"n_dots":3.35,"target":"right","response":"right","rt":746.80000001192,"correct":true,"confidence":3},{"trial_n":76,"n_dots":3.35,"target":"right","response":"left","rt":682.5,"correct":false,"confidence":3},{"trial_n":77,"n_dots":3.45,"target":"left","response":"left","rt":354,"correct":true,"confidence":3},{"trial_n":78,"n_dots":3.45,"target":"right","response":"left","rt":215.5,"correct":false,"confidence":3},{"trial_n":79,"n_dots":3.55,"target":"left","response":"left","rt":1909.5999999642,"correct":true,"confidence":3},{"trial_n":80,"n_dots":3.55,"target":"left","response":"left","rt":342.59999996424,"correct":true,"confidence":3},{"trial_n":81,"n_dots":3.45,"target":"right","response":"right","rt":249.80000001192,"correct":true,"confidence":3},{"trial_n":82,"n_dots":3.45,"target":"right","response":"right","rt":431.69999998808,"correct":true,"confidence":2},{"trial_n":83,"n_dots":3.35,"target":"left","response":"left","rt":523.30000001192,"correct":true,"confidence":4},{"trial_n":84,"n_dots":3.35,"target":"right","response":"right","rt":700.09999996424,"correct":true,"confidence":4},{"trial_n":85,"n_dots":3.25,"target":"left","response":"right","rt":689.19999998808,"correct":false,"confidence":2},{"trial_n":86,"n_dots":3.35,"target":"right","response":"left","rt":570.10000002384,"correct":false,"confidence":3},{"trial_n":87,"n_dots":3.45,"target":"right","response":"right","rt":666.40000003576,"correct":true,"confidence":3},{"trial_n":88,"n_dots":3.45,"target":"right","response":"right","rt":1348.8999999762,"correct":true,"confidence":2},{"trial_n":89,"n_dots":3.35,"target":"right","response":"right","rt":1545.6000000238,"correct":true,"confidence":3},{"trial_n":90,"n_dots":3.35,"target":"left","response":"left","rt":627.30000001192,"correct":true,"confidence":3},{"trial_n":91,"n_dots":3.25,"target":"right","response":"right","rt":1287.7999999523,"correct":true,"confidence":3},{"trial_n":92,"n_dots":3.25,"target":"right","response":"right","rt":1353.8000000119,"correct":true,"confidence":3},{"trial_n":93,"n_dots":3.15,"target":"left","response":"left","rt":948.29999995232,"correct":true,"confidence":2},{"trial_n":94,"n_dots":3.15,"target":"right","response":"right","rt":2218,"correct":true,"confidence":2},{"trial_n":95,"n_dots":3.05,"target":"left","response":"right","rt":1680.8999999762,"correct":false,"confidence":2},{"trial_n":96,"n_dots":3.15,"target":"right","response":"left","rt":2013.5,"correct":false,"confidence":1},{"trial_n":97,"n_dots":3.25,"target":"left","response":"left","rt":929.89999997616,"correct":true,"confidence":2},{"trial_n":98,"n_dots":3.25,"target":"right","response":"right","rt":1396.3000000119,"correct":true,"confidence":3},{"trial_n":99,"n_dots":3.15,"target":"left","response":"left","rt":956.30000001192,"correct":true,"confidence":3},{"trial_n":100,"n_dots":3.15,"target":"left","response":"left","rt":2420.6999999881,"correct":true,"confidence":2},{"trial_n":101,"n_dots":3.05,"target":"right","response":"left","rt":1139.5,"correct":false,"confidence":3},{"trial_n":102,"n_dots":3.15,"target":"left","response":"right","rt":1086.5,"correct":false,"confidence":3},{"trial_n":103,"n_dots":3.25,"target":"right","response":"left","rt":857.60000002384,"correct":false,"confidence":4},{"trial_n":104,"n_dots":3.35,"target":"left","response":"left","rt":969.19999998808,"correct":true,"confidence":4},{"trial_n":105,"n_dots":3.35,"target":"left","response":"left","rt":683.69999998808,"correct":true,"confidence":3},{"trial_n":106,"n_dots":3.25,"target":"right","response":"left","rt":692.69999998808,"correct":false,"confidence":3},{"trial_n":107,"n_dots":3.35,"target":"right","response":"left","rt":872.29999995232,"correct":false,"confidence":3},{"trial_n":108,"n_dots":3.45,"target":"right","response":"left","rt":1054.1999999881,"correct":false,"confidence":3},{"trial_n":109,"n_dots":3.55,"target":"left","response":"left","rt":785.90000003576,"correct":true,"confidence":3},{"trial_n":110,"n_dots":3.55,"target":"right","response":"right","rt":1365.6999999881,"correct":true,"confidence":3},{"trial_n":111,"n_dots":3.45,"target":"right","response":"left","rt":609.80000001192,"correct":false,"confidence":3},{"trial_n":112,"n_dots":3.55,"target":"right","response":"right","rt":949.20000004768,"correct":true,"confidence":3},{"trial_n":113,"n_dots":3.55,"target":"right","response":"right","rt":545.5,"correct":true,"confidence":3},{"trial_n":114,"n_dots":3.45,"target":"left","response":"right","rt":770.60000002384,"correct":false,"confidence":3},{"trial_n":115,"n_dots":3.55,"target":"right","response":"left","rt":668.89999997616,"correct":false,"confidence":2},{"trial_n":116,"n_dots":3.65,"target":"left","response":"left","rt":1057.7999999523,"correct":true,"confidence":3},{"trial_n":117,"n_dots":3.65,"target":"right","response":"right","rt":782.69999998808,"correct":true,"confidence":3},{"trial_n":118,"n_dots":3.55,"target":"left","response":"right","rt":782.5,"correct":false,"confidence":3},{"trial_n":119,"n_dots":3.65,"target":"left","response":"left","rt":942.10000002384,"correct":true,"confidence":3},{"trial_n":120,"n_dots":3.65,"target":"right","response":"right","rt":682.09999996424,"correct":true,"confidence":3}]