[{"trial_n":1,"min":25,"max":230,"target":"present","response":"absent","rt":6702.200000003,"correct":false,"confidence":-1},{"trial_n":2,"min":25,"max":230,"target":"present","response":"present","rt":571.40000000596,"correct":true,"confidence":-1},{"trial_n":3,"min":25,"max":230,"target":"absent","response":"absent","rt":418.39999999851,"correct":true,"confidence":-1},{"trial_n":4,"min":41,"max":214,"target":"absent","response":"absent","rt":409.60000000149,"correct":true,"confidence":-1},{"trial_n":5,"min":41,"max":214,"target":"present","response":"absent","rt":226.29999999702,"correct":false,"confidence":-1},{"trial_n":6,"min":25,"max":230,"target":"present","response":"present","rt":165.79999999702,"correct":true,"confidence":-1},{"trial_n":7,"min":25,"max":230,"target":"present","response":"present","rt":122.29999999702,"correct":true,"confidence":-1},{"trial_n":8,"min":41,"max":214,"target":"present","response":"absent","rt":142.20000000298,"correct":false,"confidence":-1},{"trial_n":9,"min":25,"max":230,"target":"present","response":"present","rt":160.39999999851,"correct":true,"confidence":-1},{"trial_n":10,"min":25,"max":230,"target":"absent","response":"absent","rt":352.70000000298,"correct":true,"confidence":-1},{"trial_n":11,"min":33,"max":222,"target":"present","response":"present","rt":249.80000000447,"correct":true,"confidence":-1},{"trial_n":12,"min":33,"max":222,"target":"absent","response":"absent","rt":482.69999999553,"correct":true,"confidence":-1},{"trial_n":13,"min":41,"max":214,"target":"absent","response":"absent","rt":213.20000000298,"correct":true,"confidence":-1},{"trial_n":14,"min":41,"max":214,"target":"present","response":"present","rt":358,"correct":true,"confidence":-1},{"trial_n":15,"min":49,"max":206,"target":"present","response":"present","rt":356,"correct":true,"confidence":-1},{"trial_n":16,"min":49,"max":206,"target":"present","response":"absent","rt":416,"correct":false,"confidence":-1},{"trial_n":17,"min":41,"max":214,"target":"present","response":"present","rt":237.69999999553,"correct":true,"confidence":-1},{"trial_n":18,"min":41,"max":214,"target":"absent","response":"absent","rt":365,"correct":true,"confidence":-1},{"trial_n":19,"min":49,"max":206,"target":"absent","response":"absent","rt":245.29999999702,"correct":true,"confidence":-1},{"trial_n":20,"min":49,"max":206,"target":"absent","response":"absent","rt":310.59999999404,"correct":true,"confidence":-1},{"trial_n":21,"min":53,"max":202,"target":"absent","response":"absent","rt":345.5,"correct":true,"confidence":5},{"trial_n":22,"min":53,"max":202,"target":"absent","response":"absent","rt":442.5,"correct":true,"confidence":5},{"trial_n":23,"min":57,"max":198,"target":"present","response":"present","rt":348.5,"correct":true,"confidence":5},{"trial_n":24,"min":57,"max":198,"target":"present","response":"present","rt":426.20000000298,"correct":true,"confidence":5},{"trial_n":25,"min":61,"max":194,"target":"present","response":"present","rt":227.10000000149,"correct":true,"confidence":1},{"trial_n":26,"min":61,"max":194,"target":"absent","response":"absent","rt":850.29999999702,"correct":true,"confidence":1},{"trial_n":27,"min":65,"max":190,"target":"absent","response":"absent","rt":923.60000000149,"correct":true,"confidence":5},{"trial_n":28,"min":65,"max":190,"target":"absent","response":"absent","rt":887.29999999702,"correct":true,"confidence":5},{"trial_n":29,"min":69,"max":186,"target":"present","response":"present","rt":585.5,"correct":true,"confidence":5},{"trial_n":30,"min":69,"max":186,"target":"present","response":"present","rt":855.79999999702,"correct":true,"confidence":5},{"trial_n":31,"min":71,"max":184,"target":"absent","response":"absent","rt":1064.8999999985,"correct":true,"confidence":5},{"trial_n":32,"min":71,"max":184,"target":"absent","response":"absent","rt":218.89999999851,"correct":true,"confidence":4},{"trial_n":33,"min":73,"max":182,"target":"present","response":"present","rt":534.79999999702,"correct":true,"confidence":4},{"trial_n":34,"min":73,"max":182,"target":"absent","response":"absent","rt":549.69999999553,"correct":true,"confidence":5},{"trial_n":35,"min":75,"max":180,"target":"absent","response":"absent","rt":738.5,"correct":true,"confidence":5},{"trial_n":36,"min":75,"max":180,"target":"absent","response":"absent","rt":1179.1000000015,"correct":true,"confidence":5},{"trial_n":37,"min":77,"max":178,"target":"present","response":"present","rt":368.5,"correct":true,"confidence":5},{"trial_n":38,"min":77,"max":178,"target":"absent","response":"present","rt":649.29999999702,"correct":false,"confidence":3},{"trial_n":39,"min":75,"max":180,"target":"absent","response":"absent","rt":698.20000000298,"correct":true,"confidence":4},{"trial_n":40,"min":75,"max":180,"target":"present","response":"present","rt":690.09999999404,"correct":true,"confidence":4},{"trial_n":41,"min":76,"max":179,"target":"present","response":"present","rt":1490.1000000015,"correct":true,"confidence":4},{"trial_n":42,"min":76,"max":179,"target":"present","response":"present","rt":326.19999999553,"correct":true,"confidence":4},{"trial_n":43,"min":77,"max":178,"target":"present","response":"absent","rt":877.79999999702,"correct":false,"confidence":3},{"trial_n":44,"min":76,"max":179,"target":"present","response":"present","rt":582.79999999702,"correct":true,"confidence":3},{"trial_n":45,"min":76,"max":179,"target":"present","response":"present","rt":325.79999999702,"correct":true,"confidence":5},{"trial_n":46,"min":77,"max":178,"target":"absent","response":"absent","rt":477.20000000298,"correct":true,"confidence":5},{"trial_n":47,"min":77,"max":178,"target":"absent","response":"present","rt":716,"correct":false,"confidence":4},{"trial_n":48,"min":76,"max":179,"target":"present","response":"present","rt":371.59999999404,"correct":true,"confidence":4},{"trial_n":49,"min":76,"max":179,"target":"absent","response":"present","rt":447.89999999851,"correct":false,"confidence":4},{"trial_n":50,"min":75,"max":180,"target":"absent","response":"present","rt":368.19999999553,"correct":false,"confidence":3},{"trial_n":51,"min":74,"max":181,"target":"absent","response":"present","rt":964,"correct":false,"confidence":1},{"trial_n":52,"min":73,"max":182,"target":"present","response":"present","rt":452,"correct":true,"confidence":4},{"trial_n":53,"min":73,"max":182,"target":"absent","response":"present","rt":730.60000000149,"correct":false,"confidence":4},{"trial_n":54,"min":72,"max":183,"target":"absent","response":"present","rt":517.59999999404,"correct":false,"confidence":4},{"trial_n":55,"min":71,"max":184,"target":"present","response":"present","rt":418.89999999851,"correct":true,"confidence":4},{"trial_n":56,"min":71,"max":184,"target":"present","response":"present","rt":388.10000000149,"correct":true,"confidence":5},{"trial_n":57,"min":72,"max":183,"target":"present","response":"present","rt":317.80000000447,"correct":true,"confidence":5},{"trial_n":58,"min":72,"max":183,"target":"absent","response":"absent","rt":620,"correct":true,"confidence":5},{"trial_n":59,"min":73,"max":182,"target":"absent","response":"present","rt":778.10000000149,"correct":false,"confidence":5},{"trial_n":60,"min":72,"max":183,"target":"present","response":"present","rt":464.59999999404,"correct":true,"confidence":5},{"trial_n":61,"min":72,"max":183,"target":"present","response":"present","rt":1139.1999999955,"correct":true,"confidence":1},{"trial_n":62,"min":73,"max":182,"target":"present","response":"present","rt":1135.299999997,"correct":true,"confidence":5},{"trial_n":63,"min":73,"max":182,"target":"present","response":"present","rt":674.79999999702,"correct":true,"confidence":4},{"trial_n":64,"min":74,"max":181,"target":"absent","response":"absent","rt":867.79999999702,"correct":true,"confidence":4},{"trial_n":65,"min":74,"max":181,"target":"absent","response":"absent","rt":858.5,"correct":true,"confidence":1},{"trial_n":66,"min":75,"max":180,"target":"absent","response":"present","rt":665.69999999553,"correct":false,"confidence":4},{"trial_n":67,"min":74,"max":181,"target":"present","response":"present","rt":312.19999999553,"correct":true,"confidence":4},{"trial_n":68,"min":74,"max":181,"target":"present","response":"present","rt":313,"correct":true,"confidence":4},{"trial_n":69,"min":75,"max":180,"target":"absent","response":"present","rt":437.89999999851,"correct":false,"confidence":4},{"trial_n":70,"min":74,"max":181,"target":"absent","response":"absent","rt":662.80000000447,"correct":true,"confidence":4},{"trial_n":71,"min":41,"max":214,"target":"present","response":"present","rt":3472.200000003,"correct":true,"confidence":-1},{"trial_n":72,"min":41,"max":214,"target":"present","response":"present","rt":631.89999999851,"correct":true,"confidence":-1},{"trial_n":73,"min":57,"max":198,"target":"absent","response":"present","rt":509.89999999851,"correct":false,"confidence":-1},{"trial_n":74,"min":41,"max":214,"target":"absent","response":"absent","rt":323.09999999404,"correct":true,"confidence":-1},{"trial_n":75,"min":41,"max":214,"target":"present","response":"present","rt":317.09999999404,"correct":true,"confidence":-1},{"trial_n":76,"min":57,"max":198,"target":"absent","response":"absent","rt":319.89999999851,"correct":true,"confidence":-1},{"trial_n":77,"min":57,"max":198,"target":"absent","response":"absent","rt":316.89999999851,"correct":true,"confidence":-1},{"trial_n":78,"min":73,"max":182,"target":"present","response":"present","rt":242.79999999702,"correct":true,"confidence":-1},{"trial_n":79,"min":73,"max":182,"target":"absent","response":"present","rt":367.40000000596,"correct":false,"confidence":-1},{"trial_n":80,"min":57,"max":198,"target":"absent","response":"present","rt":388,"correct":false,"confidence":-1},{"trial_n":81,"min":49,"max":206,"target":"present","response":"present","rt":212.20000000298,"correct":true,"confidence":-1},{"trial_n":82,"min":49,"max":206,"target":"present","response":"present","rt":276.79999999702,"correct":true,"confidence":-1},{"trial_n":83,"min":57,"max":198,"target":"present","response":"present","rt":384.10000000149,"correct":true,"confidence":-1},{"trial_n":84,"min":57,"max":198,"target":"absent","response":"absent","rt":283.70000000298,"correct":true,"confidence":-1},{"trial_n":85,"min":65,"max":190,"target":"present","response":"present","rt":129.40000000596,"correct":true,"confidence":-1},{"trial_n":86,"min":65,"max":190,"target":"absent","response":"absent","rt":488.09999999404,"correct":true,"confidence":-1},{"trial_n":87,"min":73,"max":182,"target":"absent","response":"absent","rt":381.90000000596,"correct":true,"confidence":-1},{"trial_n":88,"min":73,"max":182,"target":"absent","response":"present","rt":269.69999999553,"correct":false,"confidence":-1},{"trial_n":89,"min":65,"max":190,"target":"present","response":"present","rt":316.60000000149,"correct":true,"confidence":-1},{"trial_n":90,"min":65,"max":190,"target":"absent","response":"present","rt":342.89999999851,"correct":false,"confidence":-1},{"trial_n":91,"min":61,"max":194,"target":"absent","response":"absent","rt":317.29999999702,"correct":true,"confidence":4},{"trial_n":92,"min":61,"max":194,"target":"absent","response":"absent","rt":498.79999999702,"correct":true,"confidence":4},{"trial_n":93,"min":65,"max":190,"target":"present","response":"present","rt":481.5,"correct":true,"confidence":4},{"trial_n":94,"min":65,"max":190,"target":"absent","response":"absent","rt":1229.099999994,"correct":true,"confidence":4},{"trial_n":95,"min":69,"max":186,"target":"present","response":"present","rt":234,"correct":true,"confidence":5},{"trial_n":96,"min":69,"max":186,"target":"present","response":"absent","rt":1056.700000003,"correct":false,"confidence":2},{"trial_n":97,"min":65,"max":190,"target":"absent","response":"absent","rt":525.5,"correct":true,"confidence":5},{"trial_n":98,"min":65,"max":190,"target":"present","response":"present","rt":160.69999999553,"correct":true,"confidence":5},{"trial_n":99,"min":69,"max":186,"target":"absent","response":"absent","rt":409.29999999702,"correct":true,"confidence":5},{"trial_n":100,"min":69,"max":186,"target":"present","response":"absent","rt":169.69999999553,"correct":false,"confidence":1},{"trial_n":101,"min":67,"max":188,"target":"absent","response":"absent","rt":534.90000000596,"correct":true,"confidence":4},{"trial_n":102,"min":67,"max":188,"target":"absent","response":"absent","rt":605.19999999553,"correct":true,"confidence":4},{"trial_n":103,"min":69,"max":186,"target":"present","response":"present","rt":138.29999999702,"correct":true,"confidence":4},{"trial_n":104,"min":69,"max":186,"target":"absent","response":"absent","rt":458.20000000298,"correct":true,"confidence":4},{"trial_n":105,"min":71,"max":184,"target":"present","response":"present","rt":261.69999999553,"correct":true,"confidence":4},{"trial_n":106,"min":71,"max":184,"target":"present","response":"present","rt":293,"correct":true,"confidence":4},{"trial_n":107,"min":73,"max":182,"target":"present","response":"present","rt":415.80000000447,"correct":true,"confidence":5},{"trial_n":108,"min":73,"max":182,"target":"present","response":"present","rt":294,"correct":true,"confidence":5},{"trial_n":109,"min":75,"max":180,"target":"absent","response":"absent","rt":458.60000000149,"correct":true,"confidence":5},{"trial_n":110,"min":75,"max":180,"target":"absent","response":"present","rt":596.79999999702,"correct":false,"confidence":2},{"trial_n":111,"min":74,"max":181,"target":"present","response":"present","rt":1692,"correct":true,"confidence":3},{"trial_n":112,"min":74,"max":181,"target":"present","response":"present","rt":670.79999999702,"correct":true,"confidence":3},{"trial_n":113,"min":75,"max":180,"target":"absent","response":"present","rt":640.59999999404,"correct":false,"confidence":4},{"trial_n":114,"min":74,"max":181,"target":"absent","response":"absent","rt":566.10000000149,"correct":true,"confidence":4},{"trial_n":115,"min":74,"max":181,"target":"present","response":"present","rt":315.5,"correct":true,"confidence":5},{"trial_n":116,"min":75,"max":180,"target":"present","response":"present","rt":1143.5,"correct":true,"confidence":5},{"trial_n":117,"min":75,"max":180,"target":"present","response":"absent","rt":1401.799999997,"correct":false,"confidence":2},{"trial_n":118,"min":74,"max":181,"target":"absent","response":"absent","rt":882,"correct":true,"confidence":2},{"trial_n":119,"min":74,"max":181,"target":"present","response":"present","rt":341.5,"correct":true,"confidence":5},{"trial_n":120,"min":75,"max":180,"target":"absent","response":"present","rt":660.30000000447,"correct":false,"confidence":5},{"trial_n":121,"min":74,"max":181,"target":"absent","response":"present","rt":894.60000000149,"correct":false,"confidence":1},{"trial_n":122,"min":73,"max":182,"target":"present","response":"present","rt":298.60000000149,"correct":true,"confidence":4},{"trial_n":123,"min":73,"max":182,"target":"present","response":"present","rt":208.40000000596,"correct":true,"confidence":4},{"trial_n":124,"min":74,"max":181,"target":"absent","response":"absent","rt":674.89999999851,"correct":true,"confidence":3},{"trial_n":125,"min":74,"max":181,"target":"present","response":"present","rt":270.5,"correct":true,"confidence":5},{"trial_n":126,"min":75,"max":180,"target":"present","response":"present","rt":308.5,"correct":true,"confidence":4},{"trial_n":127,"min":75,"max":180,"target":"present","response":"present","rt":324.30000000447,"correct":true,"confidence":4},{"trial_n":128,"min":76,"max":179,"target":"absent","response":"present","rt":421.5,"correct":false,"confidence":1},{"trial_n":129,"min":75,"max":180,"target":"absent","response":"absent","rt":829.10000000149,"correct":true,"confidence":3},{"trial_n":130,"min":75,"max":180,"target":"present","response":"present","rt":749,"correct":true,"confidence":1},{"trial_n":131,"min":76,"max":179,"target":"absent","response":"absent","rt":520.80000000447,"correct":true,"confidence":4},{"trial_n":132,"min":76,"max":179,"target":"absent","response":"absent","rt":863.39999999851,"correct":true,"confidence":1},{"trial_n":133,"min":77,"max":178,"target":"absent","response":"absent","rt":458.89999999851,"correct":true,"confidence":2},{"trial_n":134,"min":77,"max":178,"target":"present","response":"present","rt":324.30000000447,"correct":true,"confidence":4},{"trial_n":135,"min":78,"max":177,"target":"present","response":"present","rt":454.5,"correct":true,"confidence":3},{"trial_n":136,"min":78,"max":177,"target":"present","response":"present","rt":1411,"correct":true,"confidence":2},{"trial_n":137,"min":79,"max":176,"target":"absent","response":"absent","rt":868,"correct":true,"confidence":1},{"trial_n":138,"min":79,"max":176,"target":"absent","response":"present","rt":588.20000000298,"correct":false,"confidence":1},{"trial_n":139,"min":78,"max":177,"target":"present","response":"present","rt":312.39999999851,"correct":true,"confidence":4},{"trial_n":140,"min":78,"max":177,"target":"present","response":"present","rt":245.79999999702,"correct":true,"confidence":3}]