[{"trial_n":1,"span":8,"encoder":"78913544","distractor":"78953544","target":"present","response":"absent","rt":"2045.3000000119","correct":false,"confidence":-1},{"trial_n":2,"span":6,"encoder":"353487","distractor":"353497","target":"present","response":"present","rt":"2946.1000000238","correct":true,"confidence":-1},{"trial_n":3,"span":6,"encoder":"704302","distractor":"904302","target":"absent","response":"present","rt":"1694.1999999881","correct":false,"confidence":-1},{"trial_n":4,"span":4,"encoder":"6239","distractor":"6539","target":"absent","response":"present","rt":"1632.5999999642","correct":false,"confidence":-1},{"trial_n":5,"span":2,"encoder":"94","distractor":"98","target":"present","response":"present","rt":"1459.5","correct":true,"confidence":-1},{"trial_n":6,"span":2,"encoder":"87","distractor":"07","target":"present","response":"absent","rt":"1441.1999999881","correct":false,"confidence":-1},{"trial_n":7,"span":2,"encoder":"62","distractor":"22","target":"absent","response":"absent","rt":"1145.3999999762","correct":true,"confidence":-1},{"trial_n":8,"span":2,"encoder":"95","distractor":"92","target":"present","response":"present","rt":"1535.5","correct":true,"confidence":-1},{"trial_n":9,"span":4,"encoder":"0265","distractor":"0465","target":"absent","response":"absent","rt":"1323","correct":true,"confidence":-1},{"trial_n":10,"span":4,"encoder":"6759","distractor":"3759","target":"absent","response":"absent","rt":"1078.3999999762","correct":true,"confidence":-1},{"trial_n":11,"span":6,"encoder":"043186","distractor":"643186","target":"absent","response":"absent","rt":"1081.6999999881","correct":true,"confidence":-1},{"trial_n":12,"span":6,"encoder":"487603","distractor":"487609","target":"absent","response":"absent","rt":"1898.8000000119","correct":true,"confidence":-1},{"trial_n":13,"span":7,"encoder":"2409003","distractor":"2409043","target":"absent","response":"present","rt":"2073.3999999762","correct":false,"confidence":-1},{"trial_n":14,"span":6,"encoder":"730451","distractor":"760451","target":"absent","response":"present","rt":"1734.1999999881","correct":false,"confidence":-1},{"trial_n":15,"span":5,"encoder":"90677","distractor":"90377","target":"absent","response":"absent","rt":"1430.1000000238","correct":true,"confidence":-1},{"trial_n":16,"span":5,"encoder":"83275","distractor":"83295","target":"absent","response":"absent","rt":"1823.4000000358","correct":true,"confidence":-1},{"trial_n":17,"span":6,"encoder":"052103","distractor":"052193","target":"present","response":"present","rt":"1997.1000000238","correct":true,"confidence":-1},{"trial_n":18,"span":6,"encoder":"720719","distractor":"420719","target":"present","response":"present","rt":"2121.1000000238","correct":true,"confidence":-1},{"trial_n":19,"span":7,"encoder":"4466081","distractor":"4466281","target":"present","response":"present","rt":"2299.1999999881","correct":true,"confidence":-1},{"trial_n":20,"span":7,"encoder":"3383543","distractor":"3383549","target":"present","response":"absent","rt":"1791.7999999523","correct":false,"confidence":-1},{"trial_n":21,"span":6,"encoder":"335409","distractor":"335609","target":"present","response":"present","rt":"1273.5","correct":true,"confidence":3},{"trial_n":22,"span":6,"encoder":"105697","distractor":"805697","target":"present","response":"present","rt":"1757.3999999762","correct":true,"confidence":4},{"trial_n":23,"span":7,"encoder":"6888972","distractor":"6888572","target":"absent","response":"absent","rt":"2381.8000000119","correct":true,"confidence":4},{"trial_n":24,"span":7,"encoder":"4323925","distractor":"4523925","target":"absent","response":"present","rt":"2670.5","correct":false,"confidence":4},{"trial_n":25,"span":6,"encoder":"263813","distractor":"663813","target":"absent","response":"absent","rt":"1947","correct":true,"confidence":4},{"trial_n":26,"span":6,"encoder":"492559","distractor":"472559","target":"present","response":"absent","rt":"4019.2999999523","correct":false,"confidence":4},{"trial_n":27,"span":5,"encoder":"11848","distractor":"11868","target":"absent","response":"absent","rt":"2718","correct":true,"confidence":4},{"trial_n":28,"span":5,"encoder":"29109","distractor":"29119","target":"absent","response":"absent","rt":"2874","correct":true,"confidence":4},{"trial_n":29,"span":6,"encoder":"110137","distractor":"119137","target":"present","response":"present","rt":"4043.0999999642","correct":true,"confidence":4},{"trial_n":30,"span":6,"encoder":"552314","distractor":"552317","target":"absent","response":"absent","rt":"2169.1000000238","correct":true,"confidence":4},{"trial_n":31,"span":7,"encoder":"8088999","distractor":"8088995","target":"present","response":"present","rt":"3057.1999999881","correct":true,"confidence":4},{"trial_n":32,"span":7,"encoder":"1462922","distractor":"1452922","target":"present","response":"absent","rt":"3756.3000000119","correct":false,"confidence":4},{"trial_n":33,"span":6,"encoder":"164936","distractor":"164931","target":"present","response":"present","rt":"1767.6999999881","correct":true,"confidence":5},{"trial_n":34,"span":6,"encoder":"328502","distractor":"328552","target":"present","response":"present","rt":"2363.5","correct":true,"confidence":4},{"trial_n":35,"span":7,"encoder":"3481688","distractor":"3481668","target":"absent","response":"absent","rt":"2141.5","correct":true,"confidence":2},{"trial_n":36,"span":7,"encoder":"8211496","distractor":"8251496","target":"absent","response":"present","rt":"5115.6000000238","correct":false,"confidence":2},{"trial_n":37,"span":6,"encoder":"247477","distractor":"247475","target":"present","response":"present","rt":"5251.4000000358","correct":true,"confidence":3},{"trial_n":38,"span":6,"encoder":"600748","distractor":"000748","target":"present","response":"present","rt":"1953.9000000358","correct":true,"confidence":3},{"trial_n":39,"span":7,"encoder":"9007897","distractor":"9007837","target":"absent","response":"absent","rt":"5483.1999999881","correct":true,"confidence":3},{"trial_n":40,"span":7,"encoder":"5067010","distractor":"5067080","target":"absent","response":"absent","rt":"2338.2000000477","correct":true,"confidence":5},{"trial_n":41,"span":8,"encoder":"22625653","distractor":"22623653","target":"present","response":"absent","rt":"2686.1000000238","correct":false,"confidence":4},{"trial_n":42,"span":7,"encoder":"1116007","distractor":"1117007","target":"present","response":"present","rt":"2054.7000000477","correct":true,"confidence":2},{"trial_n":43,"span":7,"encoder":"1008675","distractor":"1008775","target":"present","response":"present","rt":"2277.8999999762","correct":true,"confidence":3},{"trial_n":44,"span":8,"encoder":"65727575","distractor":"65727675","target":"absent","response":"absent","rt":"3777.3000000119","correct":true,"confidence":3},{"trial_n":45,"span":8,"encoder":"76641571","distractor":"76671571","target":"present","response":"absent","rt":"4691.6000000238","correct":false,"confidence":3},{"trial_n":46,"span":7,"encoder":"8924507","distractor":"8124507","target":"present","response":"present","rt":"2957.6999999881","correct":true,"confidence":3},{"trial_n":47,"span":7,"encoder":"6205791","distractor":"6205797","target":"absent","response":"present","rt":"4638.9000000358","correct":false,"confidence":3},{"trial_n":48,"span":6,"encoder":"897415","distractor":"897414","target":"absent","response":"absent","rt":"1767.7999999523","correct":true,"confidence":5},{"trial_n":49,"span":6,"encoder":"012424","distractor":"812424","target":"absent","response":"absent","rt":"3232","correct":true,"confidence":5},{"trial_n":50,"span":7,"encoder":"2886548","distractor":"2816548","target":"present","response":"present","rt":"2443.6000000238","correct":true,"confidence":5},{"trial_n":51,"span":7,"encoder":"8742642","distractor":"5742642","target":"present","response":"present","rt":"3437.5999999642","correct":true,"confidence":4},{"trial_n":52,"span":8,"encoder":"89648161","distractor":"89848161","target":"absent","response":"present","rt":"2905.2999999523","correct":false,"confidence":4},{"trial_n":53,"span":7,"encoder":"5998475","distractor":"5990475","target":"present","response":"present","rt":"7917.1999999881","correct":true,"confidence":3},{"trial_n":54,"span":7,"encoder":"1998569","distractor":"1998769","target":"present","response":"present","rt":"1838.8999999762","correct":true,"confidence":2},{"trial_n":55,"span":8,"encoder":"27882277","distractor":"27886277","target":"present","response":"present","rt":"4602.9000000358","correct":true,"confidence":3},{"trial_n":56,"span":8,"encoder":"58651085","distractor":"18651085","target":"present","response":"present","rt":"3059.3999999762","correct":true,"confidence":4},{"trial_n":57,"span":9,"encoder":"927829703","distractor":"927829803","target":"absent","response":"absent","rt":"7326.8000000119","correct":true,"confidence":5},{"trial_n":58,"span":9,"encoder":"922217418","distractor":"922117418","target":"absent","response":"present","rt":"4211.1000000238","correct":false,"confidence":3},{"trial_n":59,"span":8,"encoder":"04937309","distractor":"54937309","target":"present","response":"present","rt":"3660.6999999881","correct":true,"confidence":3},{"trial_n":60,"span":8,"encoder":"89633543","distractor":"89633573","target":"absent","response":"absent","rt":"5600.3999999762","correct":true,"confidence":5},{"trial_n":61,"span":9,"encoder":"970535331","distractor":"970565331","target":"absent","response":"absent","rt":"3409.1999999881","correct":true,"confidence":5},{"trial_n":62,"span":9,"encoder":"440477027","distractor":"440497027","target":"present","response":"present","rt":"1983.4000000358","correct":true,"confidence":4},{"trial_n":63,"span":10,"encoder":"2993010327","distractor":"2993010329","target":"present","response":"present","rt":"2991.5","correct":true,"confidence":2},{"trial_n":64,"span":10,"encoder":"8685738891","distractor":"8685718891","target":"absent","response":"absent","rt":"5012.7999999523","correct":true,"confidence":3},{"trial_n":65,"span":11,"encoder":"04361443448","distractor":"04381443448","target":"absent","response":"absent","rt":"4453.8999999762","correct":true,"confidence":2},{"trial_n":66,"span":11,"encoder":"08238456042","distractor":"08238456048","target":"present","response":"present","rt":"2789.1999999881","correct":true,"confidence":4},{"trial_n":67,"span":12,"encoder":"477572948815","distractor":"470572948815","target":"absent","response":"present","rt":"3124.3000000119","correct":false,"confidence":3},{"trial_n":68,"span":11,"encoder":"56983784770","distractor":"56983784777","target":"present","response":"present","rt":"2433.6999999881","correct":true,"confidence":2},{"trial_n":69,"span":11,"encoder":"00548861743","distractor":"00648861743","target":"absent","response":"present","rt":"2435.8999999762","correct":false,"confidence":2},{"trial_n":70,"span":10,"encoder":"5523103710","distractor":"5524103710","target":"present","response":"present","rt":"2018.6999999881","correct":true,"confidence":2},{"trial_n":71,"span":8,"encoder":"38901751","distractor":"38901741","target":"present","response":"present","rt":"3206.4000000358","correct":true,"confidence":-1},{"trial_n":72,"span":8,"encoder":"03302616","distractor":"23302616","target":"present","response":"absent","rt":"2335.2000000477","correct":false,"confidence":-1},{"trial_n":73,"span":7,"encoder":"9634209","distractor":"9634201","target":"absent","response":"absent","rt":"1769","correct":true,"confidence":-1},{"trial_n":74,"span":7,"encoder":"0426914","distractor":"0426714","target":"absent","response":"absent","rt":"2463.8999999762","correct":true,"confidence":-1},{"trial_n":75,"span":8,"encoder":"75123062","distractor":"75123042","target":"present","response":"present","rt":"1671","correct":true,"confidence":-1},{"trial_n":76,"span":8,"encoder":"59332083","distractor":"59332089","target":"absent","response":"absent","rt":"2645.5","correct":true,"confidence":-1},{"trial_n":77,"span":9,"encoder":"009069023","distractor":"029069023","target":"absent","response":"present","rt":"6264.2000000477","correct":false,"confidence":-1},{"trial_n":78,"span":8,"encoder":"77051071","distractor":"77851071","target":"present","response":"present","rt":"5076.3999999762","correct":true,"confidence":-1},{"trial_n":79,"span":8,"encoder":"82676917","distractor":"82676915","target":"absent","response":"absent","rt":"2241.5","correct":true,"confidence":-1},{"trial_n":80,"span":9,"encoder":"422086794","distractor":"522086794","target":"present","response":"present","rt":"3903.6000000238","correct":true,"confidence":-1},{"trial_n":81,"span":9,"encoder":"030656594","distractor":"030956594","target":"present","response":"present","rt":"6987.4000000358","correct":true,"confidence":-1},{"trial_n":82,"span":10,"encoder":"8533081434","distractor":"1533081434","target":"absent","response":"present","rt":"2870.8000000119","correct":false,"confidence":-1},{"trial_n":83,"span":9,"encoder":"261066350","distractor":"261086350","target":"absent","response":"present","rt":"3760.5","correct":false,"confidence":-1},{"trial_n":84,"span":8,"encoder":"03317059","distractor":"43317059","target":"absent","response":"present","rt":"5115.3999999762","correct":false,"confidence":-1},{"trial_n":85,"span":7,"encoder":"6969732","distractor":"1969732","target":"present","response":"absent","rt":"3602.8999999762","correct":false,"confidence":-1},{"trial_n":86,"span":6,"encoder":"296262","distractor":"290262","target":"absent","response":"present","rt":"2847.9000000358","correct":false,"confidence":-1},{"trial_n":87,"span":5,"encoder":"79983","distractor":"79383","target":"present","response":"present","rt":"1677.6999999881","correct":true,"confidence":-1},{"trial_n":88,"span":5,"encoder":"24473","distractor":"24477","target":"absent","response":"absent","rt":"3067.5","correct":true,"confidence":-1},{"trial_n":89,"span":6,"encoder":"586110","distractor":"586116","target":"present","response":"present","rt":"2123","correct":true,"confidence":-1},{"trial_n":90,"span":6,"encoder":"624976","distractor":"621976","target":"absent","response":"absent","rt":"3860.5","correct":true,"confidence":-1},{"trial_n":91,"span":7,"encoder":"8931976","distractor":"8931776","target":"present","response":"present","rt":"12991.599999964","correct":true,"confidence":4},{"trial_n":92,"span":7,"encoder":"0087924","distractor":"8087924","target":"present","response":"present","rt":"5490.7000000477","correct":true,"confidence":5},{"trial_n":93,"span":8,"encoder":"36928371","distractor":"36927371","target":"absent","response":"absent","rt":"4512.1999999881","correct":true,"confidence":5},{"trial_n":94,"span":8,"encoder":"09787882","distractor":"09787842","target":"present","response":"present","rt":"4928","correct":true,"confidence":4},{"trial_n":95,"span":9,"encoder":"289965652","distractor":"289965052","target":"absent","response":"present","rt":"8591.1999999881","correct":false,"confidence":2},{"trial_n":96,"span":8,"encoder":"67814603","distractor":"67814673","target":"present","response":"present","rt":"4504.0999999642","correct":true,"confidence":4},{"trial_n":97,"span":8,"encoder":"33543701","distractor":"33593701","target":"present","response":"present","rt":"4377.1999999881","correct":true,"confidence":1},{"trial_n":98,"span":9,"encoder":"674294232","distractor":"674294202","target":"absent","response":"absent","rt":"3114.1999999881","correct":true,"confidence":5},{"trial_n":99,"span":9,"encoder":"042191777","distractor":"012191777","target":"present","response":"absent","rt":"4810.6000000238","correct":false,"confidence":2},{"trial_n":100,"span":8,"encoder":"19503001","distractor":"19703001","target":"absent","response":"present","rt":"7031.6999999881","correct":false,"confidence":1},{"trial_n":101,"span":7,"encoder":"1155034","distractor":"1115034","target":"present","response":"present","rt":"7934.8000000119","correct":true,"confidence":2},{"trial_n":102,"span":7,"encoder":"8354309","distractor":"7354309","target":"present","response":"present","rt":"4737.2999999523","correct":true,"confidence":5},{"trial_n":103,"span":8,"encoder":"47499421","distractor":"47499491","target":"present","response":"present","rt":"4659.0999999642","correct":true,"confidence":5},{"trial_n":104,"span":8,"encoder":"51108002","distractor":"51108802","target":"present","response":"absent","rt":"9137.3000000119","correct":false,"confidence":3},{"trial_n":105,"span":7,"encoder":"9057291","distractor":"9057591","target":"absent","response":"absent","rt":"4935","correct":true,"confidence":4},{"trial_n":106,"span":7,"encoder":"2259169","distractor":"2259109","target":"present","response":"absent","rt":"3843.0999999642","correct":false,"confidence":1},{"trial_n":107,"span":6,"encoder":"757499","distractor":"717499","target":"present","response":"present","rt":"4463.8000000119","correct":true,"confidence":5},{"trial_n":108,"span":6,"encoder":"687608","distractor":"657608","target":"present","response":"present","rt":"3458.6000000238","correct":true,"confidence":5},{"trial_n":109,"span":7,"encoder":"9653363","distractor":"9623363","target":"absent","response":"present","rt":"3662.5","correct":false,"confidence":1},{"trial_n":110,"span":6,"encoder":"910370","distractor":"910670","target":"absent","response":"absent","rt":"3864.3000000119","correct":true,"confidence":5},{"trial_n":111,"span":6,"encoder":"808946","distractor":"808976","target":"present","response":"present","rt":"2798.8999999762","correct":true,"confidence":4},{"trial_n":112,"span":7,"encoder":"9403867","distractor":"7403867","target":"present","response":"present","rt":"5740.6999999881","correct":true,"confidence":4},{"trial_n":113,"span":7,"encoder":"5581138","distractor":"5581128","target":"absent","response":"absent","rt":"3881.9000000358","correct":true,"confidence":5},{"trial_n":114,"span":8,"encoder":"36543402","distractor":"36443402","target":"present","response":"present","rt":"5564.8000000119","correct":true,"confidence":1},{"trial_n":115,"span":8,"encoder":"14265740","distractor":"14225740","target":"absent","response":"absent","rt":"7348","correct":true,"confidence":1},{"trial_n":116,"span":9,"encoder":"949168781","distractor":"949138781","target":"present","response":"present","rt":"8404.8000000119","correct":true,"confidence":2},{"trial_n":117,"span":9,"encoder":"131778849","distractor":"139778849","target":"present","response":"present","rt":"5457.6999999881","correct":true,"confidence":4},{"trial_n":118,"span":10,"encoder":"3019907353","distractor":"3619907353","target":"absent","response":"absent","rt":"11516.899999976","correct":true,"confidence":3},{"trial_n":119,"span":10,"encoder":"3817673835","distractor":"4817673835","target":"absent","response":"absent","rt":"6989.6999999881","correct":true,"confidence":2},{"trial_n":120,"span":11,"encoder":"83046988812","distractor":"83046988212","target":"absent","response":"absent","rt":"3515.7000000477","correct":true,"confidence":5},{"trial_n":121,"span":11,"encoder":"76804611803","distractor":"76604611803","target":"absent","response":"absent","rt":"5199.3999999762","correct":true,"confidence":3},{"trial_n":122,"span":12,"encoder":"564057763682","distractor":"564057763685","target":"absent","response":"absent","rt":"3123.9000000358","correct":true,"confidence":5},{"trial_n":123,"span":12,"encoder":"232576448428","distractor":"222576448428","target":"absent","response":"absent","rt":"6384.3000000119","correct":true,"confidence":3},{"trial_n":124,"span":13,"encoder":"7986056230746","distractor":"7986056290746","target":"absent","response":"absent","rt":"8802.1999999881","correct":true,"confidence":3},{"trial_n":125,"span":13,"encoder":"0849820563411","distractor":"0849820569411","target":"absent","response":"absent","rt":"3574.1000000238","correct":true,"confidence":4},{"trial_n":126,"span":14,"encoder":"54618456420688","distractor":"55618456420688","target":"present","response":"absent","rt":"8672.5","correct":false,"confidence":1},{"trial_n":127,"span":13,"encoder":"2523824716970","distractor":"2523524716970","target":"present","response":"present","rt":"7049.5","correct":true,"confidence":1},{"trial_n":128,"span":13,"encoder":"1155250612770","distractor":"5155250612770","target":"absent","response":"absent","rt":"11293","correct":true,"confidence":3},{"trial_n":129,"span":14,"encoder":"71112488330957","distractor":"71112488330457","target":"present","response":"absent","rt":"4713.1999999881","correct":false,"confidence":2},{"trial_n":130,"span":13,"encoder":"4980489349823","distractor":"4980489349813","target":"absent","response":"absent","rt":"3555.3999999762","correct":true,"confidence":1},{"trial_n":131,"span":13,"encoder":"1664321244811","distractor":"1666321244811","target":"present","response":"absent","rt":"8867.6000000238","correct":false,"confidence":1},{"trial_n":132,"span":12,"encoder":"161566214867","distractor":"161566294867","target":"absent","response":"absent","rt":"6697.5999999642","correct":true,"confidence":1},{"trial_n":133,"span":12,"encoder":"603862674878","distractor":"603862474878","target":"present","response":"present","rt":"8186.1999999881","correct":true,"confidence":2},{"trial_n":134,"span":13,"encoder":"3728885151243","distractor":"5728885151243","target":"present","response":"present","rt":"6987.6999999881","correct":true,"confidence":3},{"trial_n":135,"span":13,"encoder":"3154494916607","distractor":"3154494919607","target":"present","response":"present","rt":"4777.3000000119","correct":true,"confidence":1},{"trial_n":136,"span":14,"encoder":"10696267383321","distractor":"10696767383321","target":"absent","response":"absent","rt":"8918.1999999881","correct":true,"confidence":1},{"trial_n":137,"span":14,"encoder":"50569986532722","distractor":"50569986536722","target":"absent","response":"absent","rt":"4857.1000000238","correct":true,"confidence":1},{"trial_n":138,"span":15,"encoder":"265549590537044","distractor":"165549590537044","target":"absent","response":"absent","rt":"7344.6999999881","correct":true,"confidence":1},{"trial_n":139,"span":15,"encoder":"011902069241069","distractor":"012902069241069","target":"present","response":"absent","rt":"6593.5","correct":false,"confidence":2},{"trial_n":140,"span":14,"encoder":"72424565017853","distractor":"72424565017813","target":"present","response":"present","rt":"4566.2999999523","correct":true,"confidence":1}]