[{"trial_n":1,"min":25,"max":230,"target":"present","response":"present","rt":15317.399999976,"correct":true,"confidence":-1},{"trial_n":2,"min":25,"max":230,"target":"present","response":"present","rt":2629.5999999642,"correct":true,"confidence":-1},{"trial_n":3,"min":41,"max":214,"target":"absent","response":"present","rt":850.5,"correct":false,"confidence":-1},{"trial_n":4,"min":25,"max":230,"target":"absent","response":"absent","rt":1255.6000000238,"correct":true,"confidence":-1},{"trial_n":5,"min":25,"max":230,"target":"present","response":"present","rt":3820,"correct":true,"confidence":-1},{"trial_n":6,"min":41,"max":214,"target":"present","response":"present","rt":915.60000002384,"correct":true,"confidence":-1},{"trial_n":7,"min":41,"max":214,"target":"present","response":"present","rt":524.5,"correct":true,"confidence":-1},{"trial_n":8,"min":57,"max":198,"target":"present","response":"absent","rt":532.90000003576,"correct":false,"confidence":-1},{"trial_n":9,"min":41,"max":214,"target":"present","response":"present","rt":625.10000002384,"correct":true,"confidence":-1},{"trial_n":10,"min":41,"max":214,"target":"absent","response":"absent","rt":458.39999997616,"correct":true,"confidence":-1},{"trial_n":11,"min":49,"max":206,"target":"present","response":"present","rt":736.10000002384,"correct":true,"confidence":-1},{"trial_n":12,"min":49,"max":206,"target":"absent","response":"absent","rt":412,"correct":true,"confidence":-1},{"trial_n":13,"min":57,"max":198,"target":"absent","response":"absent","rt":434.90000003576,"correct":true,"confidence":-1},{"trial_n":14,"min":57,"max":198,"target":"present","response":"present","rt":460.09999996424,"correct":true,"confidence":-1},{"trial_n":15,"min":65,"max":190,"target":"absent","response":"absent","rt":590.5,"correct":true,"confidence":-1},{"trial_n":16,"min":65,"max":190,"target":"absent","response":"absent","rt":556.80000001192,"correct":true,"confidence":-1},{"trial_n":17,"min":73,"max":182,"target":"present","response":"present","rt":532.89999997616,"correct":true,"confidence":-1},{"trial_n":18,"min":73,"max":182,"target":"present","response":"present","rt":524.80000001192,"correct":true,"confidence":-1},{"trial_n":19,"min":81,"max":174,"target":"present","response":"present","rt":797.69999998808,"correct":true,"confidence":-1},{"trial_n":20,"min":81,"max":174,"target":"present","response":"absent","rt":514.80000001192,"correct":false,"confidence":-1},{"trial_n":21,"min":77,"max":178,"target":"absent","response":"present","rt":643.80000001192,"correct":false,"confidence":3},{"trial_n":22,"min":73,"max":182,"target":"present","response":"present","rt":1040.3999999762,"correct":true,"confidence":5},{"trial_n":23,"min":73,"max":182,"target":"present","response":"present","rt":1130.3000000119,"correct":true,"confidence":5},{"trial_n":24,"min":77,"max":178,"target":"absent","response":"present","rt":550.89999997616,"correct":false,"confidence":5},{"trial_n":25,"min":73,"max":182,"target":"absent","response":"present","rt":745.30000001192,"correct":false,"confidence":4},{"trial_n":26,"min":69,"max":186,"target":"present","response":"present","rt":694.40000003576,"correct":true,"confidence":5},{"trial_n":27,"min":69,"max":186,"target":"present","response":"present","rt":351.10000002384,"correct":true,"confidence":5},{"trial_n":28,"min":73,"max":182,"target":"present","response":"present","rt":479,"correct":true,"confidence":5},{"trial_n":29,"min":73,"max":182,"target":"present","response":"present","rt":370.70000004768,"correct":true,"confidence":5},{"trial_n":30,"min":77,"max":178,"target":"absent","response":"absent","rt":1887.5,"correct":true,"confidence":4},{"trial_n":31,"min":77,"max":178,"target":"absent","response":"absent","rt":1194.7000000477,"correct":true,"confidence":3},{"trial_n":32,"min":79,"max":176,"target":"absent","response":"present","rt":826.80000001192,"correct":false,"confidence":3},{"trial_n":33,"min":77,"max":178,"target":"absent","response":"present","rt":363.69999998808,"correct":false,"confidence":4},{"trial_n":34,"min":75,"max":180,"target":"absent","response":"present","rt":472.70000004768,"correct":false,"confidence":4},{"trial_n":35,"min":73,"max":182,"target":"absent","response":"present","rt":373.79999995232,"correct":false,"confidence":4},{"trial_n":36,"min":71,"max":184,"target":"present","response":"present","rt":478.59999996424,"correct":true,"confidence":4},{"trial_n":37,"min":71,"max":184,"target":"absent","response":"absent","rt":1287.6000000238,"correct":true,"confidence":2},{"trial_n":38,"min":73,"max":182,"target":"absent","response":"absent","rt":1589.6000000238,"correct":true,"confidence":2},{"trial_n":39,"min":73,"max":182,"target":"absent","response":"present","rt":754.90000003576,"correct":false,"confidence":3},{"trial_n":40,"min":71,"max":184,"target":"present","response":"present","rt":422.89999997616,"correct":true,"confidence":5},{"trial_n":41,"min":71,"max":184,"target":"present","response":"present","rt":948.19999998808,"correct":true,"confidence":5},{"trial_n":42,"min":72,"max":183,"target":"present","response":"present","rt":679.89999997616,"correct":true,"confidence":5},{"trial_n":43,"min":72,"max":183,"target":"present","response":"present","rt":371.79999995232,"correct":true,"confidence":5},{"trial_n":44,"min":73,"max":182,"target":"present","response":"present","rt":191,"correct":true,"confidence":5},{"trial_n":45,"min":73,"max":182,"target":"absent","response":"present","rt":445.40000003576,"correct":false,"confidence":5},{"trial_n":46,"min":72,"max":183,"target":"absent","response":"present","rt":372,"correct":false,"confidence":5},{"trial_n":47,"min":71,"max":184,"target":"present","response":"present","rt":559.19999998808,"correct":true,"confidence":5},{"trial_n":48,"min":71,"max":184,"target":"absent","response":"present","rt":340,"correct":false,"confidence":5},{"trial_n":49,"min":70,"max":185,"target":"absent","response":"present","rt":285,"correct":false,"confidence":5},{"trial_n":50,"min":69,"max":186,"target":"present","response":"present","rt":283.69999998808,"correct":true,"confidence":5},{"trial_n":51,"min":69,"max":186,"target":"present","response":"present","rt":379.90000003576,"correct":true,"confidence":5},{"trial_n":52,"min":70,"max":185,"target":"present","response":"present","rt":209.70000004768,"correct":true,"confidence":5},{"trial_n":53,"min":70,"max":185,"target":"absent","response":"absent","rt":947.10000002384,"correct":true,"confidence":4},{"trial_n":54,"min":71,"max":184,"target":"present","response":"present","rt":397.60000002384,"correct":true,"confidence":5},{"trial_n":55,"min":71,"max":184,"target":"absent","response":"absent","rt":1325.6000000238,"correct":true,"confidence":2},{"trial_n":56,"min":72,"max":183,"target":"present","response":"present","rt":270.5,"correct":true,"confidence":5},{"trial_n":57,"min":72,"max":183,"target":"present","response":"present","rt":123.90000003576,"correct":true,"confidence":5},{"trial_n":58,"min":73,"max":182,"target":"absent","response":"absent","rt":798.5,"correct":true,"confidence":3},{"trial_n":59,"min":73,"max":182,"target":"present","response":"present","rt":431.69999998808,"correct":true,"confidence":5},{"trial_n":60,"min":74,"max":181,"target":"absent","response":"absent","rt":816.69999998808,"correct":true,"confidence":3},{"trial_n":61,"min":74,"max":181,"target":"present","response":"present","rt":348.30000001192,"correct":true,"confidence":5},{"trial_n":62,"min":75,"max":180,"target":"absent","response":"absent","rt":710.69999998808,"correct":true,"confidence":3},{"trial_n":63,"min":75,"max":180,"target":"absent","response":"absent","rt":666,"correct":true,"confidence":1},{"trial_n":64,"min":76,"max":179,"target":"absent","response":"absent","rt":3465.3000000119,"correct":true,"confidence":1},{"trial_n":65,"min":76,"max":179,"target":"absent","response":"present","rt":420.39999997616,"correct":false,"confidence":2},{"trial_n":66,"min":75,"max":180,"target":"absent","response":"absent","rt":757,"correct":true,"confidence":4},{"trial_n":67,"min":75,"max":180,"target":"absent","response":"absent","rt":737.80000001192,"correct":true,"confidence":3},{"trial_n":68,"min":76,"max":179,"target":"present","response":"present","rt":380.5,"correct":true,"confidence":5},{"trial_n":69,"min":76,"max":179,"target":"present","response":"absent","rt":557.80000001192,"correct":false,"confidence":1},{"trial_n":70,"min":75,"max":180,"target":"absent","response":"present","rt":565.30000001192,"correct":false,"confidence":3},{"trial_n":71,"min":41,"max":214,"target":"present","response":"present","rt":2704.5999999642,"correct":true,"confidence":-1},{"trial_n":72,"min":41,"max":214,"target":"present","response":"present","rt":557.60000002384,"correct":true,"confidence":-1},{"trial_n":73,"min":57,"max":198,"target":"absent","response":"absent","rt":442.5,"correct":true,"confidence":-1},{"trial_n":74,"min":57,"max":198,"target":"absent","response":"absent","rt":371,"correct":true,"confidence":-1},{"trial_n":75,"min":73,"max":182,"target":"present","response":"present","rt":432.10000002384,"correct":true,"confidence":-1},{"trial_n":76,"min":73,"max":182,"target":"absent","response":"absent","rt":438.19999998808,"correct":true,"confidence":-1},{"trial_n":77,"min":89,"max":166,"target":"absent","response":"present","rt":1237.5,"correct":false,"confidence":-1},{"trial_n":78,"min":73,"max":182,"target":"present","response":"present","rt":355.10000002384,"correct":true,"confidence":-1},{"trial_n":79,"min":73,"max":182,"target":"absent","response":"absent","rt":557.39999997616,"correct":true,"confidence":-1},{"trial_n":80,"min":89,"max":166,"target":"absent","response":"absent","rt":368.30000001192,"correct":true,"confidence":-1},{"trial_n":81,"min":89,"max":166,"target":"absent","response":"present","rt":427.70000004768,"correct":false,"confidence":-1},{"trial_n":82,"min":81,"max":174,"target":"present","response":"present","rt":599.29999995232,"correct":true,"confidence":-1},{"trial_n":83,"min":81,"max":174,"target":"present","response":"present","rt":514.19999998808,"correct":true,"confidence":-1},{"trial_n":84,"min":89,"max":166,"target":"present","response":"present","rt":402.40000003576,"correct":true,"confidence":-1},{"trial_n":85,"min":89,"max":166,"target":"present","response":"absent","rt":1499.6999999881,"correct":false,"confidence":-1},{"trial_n":86,"min":81,"max":174,"target":"present","response":"present","rt":378.40000003576,"correct":true,"confidence":-1},{"trial_n":87,"min":81,"max":174,"target":"present","response":"present","rt":557.10000002384,"correct":true,"confidence":-1},{"trial_n":88,"min":89,"max":166,"target":"absent","response":"absent","rt":610.09999996424,"correct":true,"confidence":-1},{"trial_n":89,"min":89,"max":166,"target":"absent","response":"present","rt":353.60000002384,"correct":false,"confidence":-1},{"trial_n":90,"min":81,"max":174,"target":"present","response":"present","rt":486.89999997616,"correct":true,"confidence":-1},{"trial_n":91,"min":81,"max":174,"target":"absent","response":"present","rt":516,"correct":false,"confidence":2},{"trial_n":92,"min":77,"max":178,"target":"absent","response":"absent","rt":599.20000004768,"correct":true,"confidence":3},{"trial_n":93,"min":77,"max":178,"target":"present","response":"present","rt":257.09999996424,"correct":true,"confidence":5},{"trial_n":94,"min":81,"max":174,"target":"absent","response":"absent","rt":1755.3999999762,"correct":true,"confidence":1},{"trial_n":95,"min":81,"max":174,"target":"absent","response":"absent","rt":1046.1999999881,"correct":true,"confidence":1},{"trial_n":96,"min":85,"max":170,"target":"absent","response":"present","rt":3578.8000000119,"correct":false,"confidence":1},{"trial_n":97,"min":81,"max":174,"target":"present","response":"absent","rt":616.60000002384,"correct":false,"confidence":3},{"trial_n":98,"min":77,"max":178,"target":"present","response":"present","rt":262.5,"correct":true,"confidence":4},{"trial_n":99,"min":77,"max":178,"target":"absent","response":"absent","rt":542.20000004768,"correct":true,"confidence":4},{"trial_n":100,"min":81,"max":174,"target":"present","response":"present","rt":507.60000002384,"correct":true,"confidence":4},{"trial_n":101,"min":81,"max":174,"target":"absent","response":"absent","rt":536.60000002384,"correct":true,"confidence":4},{"trial_n":102,"min":83,"max":172,"target":"present","response":"present","rt":401.10000002384,"correct":true,"confidence":4},{"trial_n":103,"min":83,"max":172,"target":"present","response":"present","rt":329.89999997616,"correct":true,"confidence":4},{"trial_n":104,"min":85,"max":170,"target":"present","response":"present","rt":345.89999997616,"correct":true,"confidence":4},{"trial_n":105,"min":85,"max":170,"target":"absent","response":"present","rt":331.60000002384,"correct":false,"confidence":4},{"trial_n":106,"min":83,"max":172,"target":"absent","response":"present","rt":518.39999997616,"correct":false,"confidence":3},{"trial_n":107,"min":81,"max":174,"target":"absent","response":"present","rt":380.29999995232,"correct":false,"confidence":3},{"trial_n":108,"min":79,"max":176,"target":"absent","response":"absent","rt":616.10000002384,"correct":true,"confidence":3},{"trial_n":109,"min":79,"max":176,"target":"absent","response":"absent","rt":1236.5999999642,"correct":true,"confidence":3},{"trial_n":110,"min":81,"max":174,"target":"absent","response":"present","rt":729,"correct":false,"confidence":2},{"trial_n":111,"min":80,"max":175,"target":"present","response":"present","rt":900.10000002384,"correct":true,"confidence":2},{"trial_n":112,"min":80,"max":175,"target":"absent","response":"absent","rt":776.5,"correct":true,"confidence":2},{"trial_n":113,"min":81,"max":174,"target":"absent","response":"absent","rt":525,"correct":true,"confidence":2},{"trial_n":114,"min":81,"max":174,"target":"present","response":"absent","rt":564.5,"correct":false,"confidence":2},{"trial_n":115,"min":80,"max":175,"target":"absent","response":"present","rt":735.30000001192,"correct":false,"confidence":2},{"trial_n":116,"min":79,"max":176,"target":"absent","response":"absent","rt":703.19999998808,"correct":true,"confidence":3},{"trial_n":117,"min":79,"max":176,"target":"present","response":"present","rt":833.69999998808,"correct":true,"confidence":4},{"trial_n":118,"min":80,"max":175,"target":"present","response":"present","rt":327.09999996424,"correct":true,"confidence":4},{"trial_n":119,"min":80,"max":175,"target":"present","response":"present","rt":217.69999998808,"correct":true,"confidence":4},{"trial_n":120,"min":81,"max":174,"target":"absent","response":"absent","rt":1110.6000000238,"correct":true,"confidence":4},{"trial_n":121,"min":81,"max":174,"target":"present","response":"present","rt":551,"correct":true,"confidence":4},{"trial_n":122,"min":82,"max":173,"target":"present","response":"present","rt":242.79999995232,"correct":true,"confidence":4},{"trial_n":123,"min":82,"max":173,"target":"absent","response":"absent","rt":419.60000002384,"correct":true,"confidence":4},{"trial_n":124,"min":83,"max":172,"target":"present","response":"present","rt":654.19999998808,"correct":true,"confidence":3},{"trial_n":125,"min":83,"max":172,"target":"absent","response":"absent","rt":758.89999997616,"correct":true,"confidence":3},{"trial_n":126,"min":84,"max":171,"target":"present","response":"present","rt":558.30000001192,"correct":true,"confidence":3},{"trial_n":127,"min":84,"max":171,"target":"present","response":"present","rt":315,"correct":true,"confidence":3},{"trial_n":128,"min":85,"max":170,"target":"absent","response":"absent","rt":576.69999998808,"correct":true,"confidence":3},{"trial_n":129,"min":85,"max":170,"target":"present","response":"present","rt":1057,"correct":true,"confidence":3},{"trial_n":130,"min":86,"max":169,"target":"absent","response":"present","rt":1034.8000000119,"correct":false,"confidence":2},{"trial_n":131,"min":85,"max":170,"target":"present","response":"present","rt":242,"correct":true,"confidence":4},{"trial_n":132,"min":85,"max":170,"target":"absent","response":"present","rt":828.60000002384,"correct":false,"confidence":3},{"trial_n":133,"min":84,"max":171,"target":"absent","response":"absent","rt":614.19999998808,"correct":true,"confidence":3},{"trial_n":134,"min":84,"max":171,"target":"present","response":"present","rt":341.89999997616,"correct":true,"confidence":3},{"trial_n":135,"min":85,"max":170,"target":"present","response":"present","rt":678.19999998808,"correct":true,"confidence":3},{"trial_n":136,"min":85,"max":170,"target":"present","response":"present","rt":230.30000001192,"correct":true,"confidence":3},{"trial_n":137,"min":86,"max":169,"target":"present","response":"absent","rt":407.70000004768,"correct":false,"confidence":2},{"trial_n":138,"min":85,"max":170,"target":"absent","response":"present","rt":607.5,"correct":false,"confidence":3},{"trial_n":139,"min":84,"max":171,"target":"present","response":"present","rt":287.80000001192,"correct":true,"confidence":3},{"trial_n":140,"min":84,"max":171,"target":"present","response":"present","rt":359.40000003576,"correct":true,"confidence":3}]