[{"trial_n":1,"span":8,"encoder":"54399662","distractor":"54399667","target":"present","response":"present","rt":"6367.5","correct":true,"confidence":-1},{"trial_n":2,"span":8,"encoder":"41670258","distractor":"41670253","target":"present","response":"absent","rt":"1926.1000000238","correct":false,"confidence":-1},{"trial_n":3,"span":6,"encoder":"582270","distractor":"589270","target":"absent","response":"present","rt":"1033.2000000477","correct":false,"confidence":-1},{"trial_n":4,"span":4,"encoder":"0942","distractor":"0912","target":"absent","response":"absent","rt":"1518.8999999762","correct":true,"confidence":-1},{"trial_n":5,"span":4,"encoder":"2405","distractor":"2465","target":"present","response":"present","rt":"951.29999995232","correct":true,"confidence":-1},{"trial_n":6,"span":6,"encoder":"292990","distractor":"297990","target":"absent","response":"absent","rt":"1799.3000000715","correct":true,"confidence":-1},{"trial_n":7,"span":6,"encoder":"037966","distractor":"037962","target":"absent","response":"present","rt":"2682.2999999523","correct":false,"confidence":-1},{"trial_n":8,"span":4,"encoder":"3415","distractor":"1415","target":"absent","response":"absent","rt":"825.89999997616","correct":true,"confidence":-1},{"trial_n":9,"span":4,"encoder":"0886","distractor":"0885","target":"present","response":"present","rt":"649.69999992847","correct":true,"confidence":-1},{"trial_n":10,"span":6,"encoder":"452553","distractor":"052553","target":"present","response":"present","rt":"2133.7999999523","correct":true,"confidence":-1},{"trial_n":11,"span":6,"encoder":"809716","distractor":"809616","target":"present","response":"present","rt":"2168.2999999523","correct":true,"confidence":-1},{"trial_n":12,"span":7,"encoder":"8377588","distractor":"8777588","target":"absent","response":"absent","rt":"1021.9000000954","correct":true,"confidence":-1},{"trial_n":13,"span":7,"encoder":"8648501","distractor":"8646501","target":"present","response":"absent","rt":"1845.3999999762","correct":false,"confidence":-1},{"trial_n":14,"span":6,"encoder":"129627","distractor":"109627","target":"absent","response":"absent","rt":"872.80000007153","correct":true,"confidence":-1},{"trial_n":15,"span":6,"encoder":"282849","distractor":"282845","target":"present","response":"present","rt":"768.10000002384","correct":true,"confidence":-1},{"trial_n":16,"span":7,"encoder":"5750962","distractor":"5750961","target":"present","response":"present","rt":"2801","correct":true,"confidence":-1},{"trial_n":17,"span":7,"encoder":"0892815","distractor":"0092815","target":"absent","response":"present","rt":"2076","correct":false,"confidence":-1},{"trial_n":18,"span":6,"encoder":"214221","distractor":"214229","target":"absent","response":"absent","rt":"1117.2000000477","correct":true,"confidence":-1},{"trial_n":19,"span":6,"encoder":"327484","distractor":"327784","target":"absent","response":"absent","rt":"1828","correct":true,"confidence":-1},{"trial_n":20,"span":7,"encoder":"1162918","distractor":"1762918","target":"absent","response":"absent","rt":"994.89999997616","correct":true,"confidence":-1},{"trial_n":21,"span":7,"encoder":"6667486","distractor":"6667986","target":"absent","response":"absent","rt":"814.40000009537","correct":true,"confidence":5},{"trial_n":22,"span":8,"encoder":"02081746","distractor":"02081846","target":"absent","response":"absent","rt":"2533.2000000477","correct":true,"confidence":5},{"trial_n":23,"span":8,"encoder":"29180360","distractor":"29180368","target":"present","response":"absent","rt":"1678","correct":false,"confidence":3},{"trial_n":24,"span":7,"encoder":"6177215","distractor":"9177215","target":"present","response":"present","rt":"2826.0999999046","correct":true,"confidence":5},{"trial_n":25,"span":7,"encoder":"8806975","distractor":"8806977","target":"present","response":"present","rt":"4331.7999999523","correct":true,"confidence":4},{"trial_n":26,"span":8,"encoder":"13390500","distractor":"13290500","target":"absent","response":"absent","rt":"2135.2999999523","correct":true,"confidence":4},{"trial_n":27,"span":8,"encoder":"55492778","distractor":"55492478","target":"present","response":"absent","rt":"1184.0999999046","correct":false,"confidence":4},{"trial_n":28,"span":7,"encoder":"9059882","distractor":"9359882","target":"present","response":"present","rt":"1643.2000000477","correct":true,"confidence":2},{"trial_n":29,"span":7,"encoder":"6348725","distractor":"6348705","target":"present","response":"present","rt":"3031.7999999523","correct":true,"confidence":3},{"trial_n":30,"span":8,"encoder":"05257532","distractor":"05757532","target":"present","response":"absent","rt":"1496.1000000238","correct":false,"confidence":3},{"trial_n":31,"span":7,"encoder":"7204934","distractor":"7202934","target":"absent","response":"present","rt":"4679.2999999523","correct":false,"confidence":1},{"trial_n":32,"span":6,"encoder":"321907","distractor":"323907","target":"absent","response":"absent","rt":"2736.1000000238","correct":true,"confidence":3},{"trial_n":33,"span":6,"encoder":"867396","distractor":"867306","target":"present","response":"present","rt":"1293.5","correct":true,"confidence":4},{"trial_n":34,"span":7,"encoder":"3467812","distractor":"3467816","target":"absent","response":"absent","rt":"4159.3000000715","correct":true,"confidence":2},{"trial_n":35,"span":7,"encoder":"4234537","distractor":"4204537","target":"absent","response":"present","rt":"2695.5","correct":false,"confidence":4},{"trial_n":36,"span":6,"encoder":"269116","distractor":"264116","target":"present","response":"present","rt":"1076.2999999523","correct":true,"confidence":3},{"trial_n":37,"span":6,"encoder":"500604","distractor":"509604","target":"present","response":"present","rt":"1564","correct":true,"confidence":4},{"trial_n":38,"span":7,"encoder":"9416428","distractor":"9416498","target":"absent","response":"present","rt":"1334.5","correct":false,"confidence":4},{"trial_n":39,"span":6,"encoder":"128974","distractor":"428974","target":"absent","response":"present","rt":"1889.1999999285","correct":false,"confidence":3},{"trial_n":40,"span":5,"encoder":"86903","distractor":"84903","target":"present","response":"present","rt":"1222.3000000715","correct":true,"confidence":3},{"trial_n":41,"span":5,"encoder":"42406","distractor":"42416","target":"absent","response":"absent","rt":"2558","correct":true,"confidence":5},{"trial_n":42,"span":6,"encoder":"181238","distractor":"181237","target":"present","response":"present","rt":"1723.2000000477","correct":true,"confidence":4},{"trial_n":43,"span":6,"encoder":"494649","distractor":"495649","target":"absent","response":"absent","rt":"1461.1000000238","correct":true,"confidence":2},{"trial_n":44,"span":7,"encoder":"1326546","distractor":"1346546","target":"absent","response":"present","rt":"2499.4000000954","correct":false,"confidence":4},{"trial_n":45,"span":6,"encoder":"047859","distractor":"947859","target":"present","response":"present","rt":"1176.6000000238","correct":true,"confidence":3},{"trial_n":46,"span":6,"encoder":"733960","distractor":"533960","target":"absent","response":"absent","rt":"1609.3999999762","correct":true,"confidence":5},{"trial_n":47,"span":7,"encoder":"8909213","distractor":"8709213","target":"absent","response":"present","rt":"1234","correct":false,"confidence":3},{"trial_n":48,"span":6,"encoder":"135875","distractor":"135870","target":"present","response":"present","rt":"1094.2999999523","correct":true,"confidence":4},{"trial_n":49,"span":6,"encoder":"080551","distractor":"080151","target":"absent","response":"absent","rt":"1989.3000000715","correct":true,"confidence":2},{"trial_n":50,"span":7,"encoder":"5271853","distractor":"5251853","target":"absent","response":"absent","rt":"2801.8999999762","correct":true,"confidence":5},{"trial_n":51,"span":7,"encoder":"2779895","distractor":"2759895","target":"present","response":"absent","rt":"1881.8999999762","correct":false,"confidence":3},{"trial_n":52,"span":6,"encoder":"203692","distractor":"283692","target":"absent","response":"present","rt":"992.70000004768","correct":false,"confidence":4},{"trial_n":53,"span":5,"encoder":"81079","distractor":"11079","target":"present","response":"present","rt":"1545.8000000715","correct":true,"confidence":5},{"trial_n":54,"span":5,"encoder":"98345","distractor":"98645","target":"present","response":"absent","rt":"3136.3000000715","correct":false,"confidence":3},{"trial_n":55,"span":4,"encoder":"9584","distractor":"4584","target":"present","response":"present","rt":"1356.2999999523","correct":true,"confidence":5},{"trial_n":56,"span":4,"encoder":"4496","distractor":"4498","target":"present","response":"present","rt":"1353.0999999046","correct":true,"confidence":5},{"trial_n":57,"span":5,"encoder":"45202","distractor":"45502","target":"present","response":"present","rt":"1253.6000000238","correct":true,"confidence":5},{"trial_n":58,"span":5,"encoder":"69698","distractor":"49698","target":"absent","response":"present","rt":"4680.6000000238","correct":false,"confidence":3},{"trial_n":59,"span":4,"encoder":"0229","distractor":"0227","target":"absent","response":"absent","rt":"1384.1000000238","correct":true,"confidence":5},{"trial_n":60,"span":4,"encoder":"6891","distractor":"6191","target":"present","response":"absent","rt":"1885.3999999762","correct":false,"confidence":2},{"trial_n":61,"span":3,"encoder":"118","distractor":"116","target":"absent","response":"absent","rt":"1087.7999999523","correct":true,"confidence":5},{"trial_n":62,"span":3,"encoder":"356","distractor":"358","target":"present","response":"present","rt":"1309.1000000238","correct":true,"confidence":4},{"trial_n":63,"span":4,"encoder":"3689","distractor":"2689","target":"present","response":"present","rt":"1070.5","correct":true,"confidence":5},{"trial_n":64,"span":4,"encoder":"5197","distractor":"5497","target":"absent","response":"absent","rt":"1799.2999999523","correct":true,"confidence":5},{"trial_n":65,"span":5,"encoder":"08990","distractor":"08690","target":"present","response":"present","rt":"4817.3999999762","correct":true,"confidence":4},{"trial_n":66,"span":5,"encoder":"93643","distractor":"93633","target":"present","response":"present","rt":"1961.0999999046","correct":true,"confidence":4},{"trial_n":67,"span":6,"encoder":"126557","distractor":"126567","target":"absent","response":"absent","rt":"2409.6000000238","correct":true,"confidence":3},{"trial_n":68,"span":6,"encoder":"017407","distractor":"019407","target":"present","response":"present","rt":"1519.8000000715","correct":true,"confidence":4},{"trial_n":69,"span":7,"encoder":"9261094","distractor":"9261694","target":"absent","response":"absent","rt":"1315.1999999285","correct":true,"confidence":3},{"trial_n":70,"span":7,"encoder":"4515028","distractor":"4565028","target":"present","response":"present","rt":"2351","correct":true,"confidence":4},{"trial_n":71,"span":8,"encoder":"79138857","distractor":"79738857","target":"present","response":"present","rt":"7095.6999999285","correct":true,"confidence":-1},{"trial_n":72,"span":8,"encoder":"76634057","distractor":"76604057","target":"present","response":"present","rt":"3276.3999999762","correct":true,"confidence":-1},{"trial_n":73,"span":9,"encoder":"736995017","distractor":"786995017","target":"absent","response":"absent","rt":"5951.2000000477","correct":true,"confidence":-1},{"trial_n":74,"span":9,"encoder":"765880075","distractor":"765880055","target":"absent","response":"absent","rt":"2492.5","correct":true,"confidence":-1},{"trial_n":75,"span":10,"encoder":"4923422772","distractor":"4953422772","target":"present","response":"absent","rt":"4217.1999999285","correct":false,"confidence":-1},{"trial_n":76,"span":9,"encoder":"603681576","distractor":"609681576","target":"present","response":"present","rt":"1992.8999999762","correct":true,"confidence":-1},{"trial_n":77,"span":9,"encoder":"346670661","distractor":"346679661","target":"present","response":"absent","rt":"4486.8999999762","correct":false,"confidence":-1},{"trial_n":78,"span":8,"encoder":"25252192","distractor":"25252122","target":"present","response":"present","rt":"5911.8999999762","correct":true,"confidence":-1},{"trial_n":79,"span":8,"encoder":"46003788","distractor":"46003388","target":"absent","response":"absent","rt":"2718","correct":true,"confidence":-1},{"trial_n":80,"span":9,"encoder":"954209675","distractor":"954709675","target":"present","response":"present","rt":"4183.7999999523","correct":true,"confidence":-1},{"trial_n":81,"span":9,"encoder":"584721671","distractor":"583721671","target":"present","response":"present","rt":"6515.0999999046","correct":true,"confidence":-1},{"trial_n":82,"span":10,"encoder":"4597938440","distractor":"4567938440","target":"present","response":"present","rt":"3713.8000000715","correct":true,"confidence":-1},{"trial_n":83,"span":10,"encoder":"1508999728","distractor":"5508999728","target":"present","response":"present","rt":"4570.9000000954","correct":true,"confidence":-1},{"trial_n":84,"span":11,"encoder":"92117241705","distractor":"92117241785","target":"present","response":"absent","rt":"8722.1000000238","correct":false,"confidence":-1},{"trial_n":85,"span":10,"encoder":"5676269249","distractor":"5876269249","target":"absent","response":"absent","rt":"3239.1000000238","correct":true,"confidence":-1},{"trial_n":86,"span":10,"encoder":"5939089629","distractor":"5939009629","target":"absent","response":"absent","rt":"2469.7000000477","correct":true,"confidence":-1},{"trial_n":87,"span":11,"encoder":"11116163806","distractor":"11616163806","target":"absent","response":"present","rt":"5693.5","correct":false,"confidence":-1},{"trial_n":88,"span":10,"encoder":"4057648978","distractor":"4057628978","target":"absent","response":"present","rt":"5508.8000000715","correct":false,"confidence":-1},{"trial_n":89,"span":9,"encoder":"527083344","distractor":"527083304","target":"present","response":"present","rt":"4507.0999999046","correct":true,"confidence":-1},{"trial_n":90,"span":9,"encoder":"980444997","distractor":"980444967","target":"absent","response":"absent","rt":"7530","correct":true,"confidence":-1},{"trial_n":91,"span":10,"encoder":"0046415224","distractor":"0046415223","target":"absent","response":"absent","rt":"1426","correct":true,"confidence":5},{"trial_n":92,"span":10,"encoder":"5272153874","distractor":"5272123874","target":"absent","response":"absent","rt":"5495.6000000238","correct":true,"confidence":3},{"trial_n":93,"span":11,"encoder":"69288311495","distractor":"69288011495","target":"absent","response":"present","rt":"6147.2999999523","correct":false,"confidence":2},{"trial_n":94,"span":10,"encoder":"6407441017","distractor":"6407441011","target":"absent","response":"absent","rt":"6543.2000000477","correct":true,"confidence":2},{"trial_n":95,"span":10,"encoder":"8951691044","distractor":"8951691064","target":"present","response":"present","rt":"4761.2000000477","correct":true,"confidence":2},{"trial_n":96,"span":11,"encoder":"84400455883","distractor":"84400455889","target":"absent","response":"absent","rt":"1602.1999999285","correct":true,"confidence":5},{"trial_n":97,"span":11,"encoder":"02884028308","distractor":"02880028308","target":"absent","response":"absent","rt":"3944.1000000238","correct":true,"confidence":3},{"trial_n":98,"span":12,"encoder":"663976639515","distractor":"663976639595","target":"absent","response":"absent","rt":"1576.5","correct":true,"confidence":5},{"trial_n":99,"span":12,"encoder":"553578575738","distractor":"553978575738","target":"absent","response":"absent","rt":"4734","correct":true,"confidence":4},{"trial_n":100,"span":13,"encoder":"1800338424303","distractor":"1800338434303","target":"present","response":"present","rt":"4112.3999999762","correct":true,"confidence":4},{"trial_n":101,"span":13,"encoder":"4420383661151","distractor":"4420383641151","target":"present","response":"present","rt":"2252","correct":true,"confidence":5},{"trial_n":102,"span":14,"encoder":"44015955880573","distractor":"44013955880573","target":"present","response":"present","rt":"5258.3999999762","correct":true,"confidence":3},{"trial_n":103,"span":14,"encoder":"77384836065698","distractor":"77384836055698","target":"present","response":"present","rt":"4313.1999999285","correct":true,"confidence":3},{"trial_n":104,"span":15,"encoder":"279342559932361","distractor":"179342559932361","target":"present","response":"present","rt":"2498.1000000238","correct":true,"confidence":3},{"trial_n":105,"span":15,"encoder":"427598067129178","distractor":"427198067129178","target":"absent","response":"present","rt":"7111.7000000477","correct":false,"confidence":3},{"trial_n":106,"span":14,"encoder":"74274292767812","distractor":"74274292767872","target":"absent","response":"absent","rt":"2083.6999999285","correct":true,"confidence":5},{"trial_n":107,"span":14,"encoder":"05161856359972","distractor":"05161856859972","target":"absent","response":"present","rt":"4719","correct":false,"confidence":1},{"trial_n":108,"span":13,"encoder":"2652925064405","distractor":"2652995064405","target":"present","response":"absent","rt":"6403.7000000477","correct":false,"confidence":2},{"trial_n":109,"span":12,"encoder":"658619733461","distractor":"658618733461","target":"present","response":"present","rt":"2301.3999999762","correct":true,"confidence":1},{"trial_n":110,"span":12,"encoder":"574514982175","distractor":"574414982175","target":"present","response":"present","rt":"983.70000004768","correct":true,"confidence":1},{"trial_n":111,"span":13,"encoder":"6278523640004","distractor":"6278533640004","target":"absent","response":"present","rt":"3459.6000000238","correct":false,"confidence":2},{"trial_n":112,"span":12,"encoder":"606276621654","distractor":"608276621654","target":"present","response":"present","rt":"3416.2999999523","correct":true,"confidence":2},{"trial_n":113,"span":12,"encoder":"037490688568","distractor":"030490688568","target":"absent","response":"absent","rt":"1419.3999999762","correct":true,"confidence":5},{"trial_n":114,"span":13,"encoder":"8118876735683","distractor":"8118816735683","target":"present","response":"absent","rt":"6384.3999999762","correct":false,"confidence":2},{"trial_n":115,"span":12,"encoder":"315658572639","distractor":"335658572639","target":"present","response":"present","rt":"2328.5999999046","correct":true,"confidence":1},{"trial_n":116,"span":12,"encoder":"685344042441","distractor":"685345042441","target":"absent","response":"present","rt":"6425.4000000954","correct":false,"confidence":2},{"trial_n":117,"span":11,"encoder":"38556806814","distractor":"38557806814","target":"present","response":"present","rt":"5470.4000000954","correct":true,"confidence":5},{"trial_n":118,"span":11,"encoder":"73390195339","distractor":"73392195339","target":"present","response":"present","rt":"7726.3000000715","correct":true,"confidence":1},{"trial_n":119,"span":12,"encoder":"447726143436","distractor":"443726143436","target":"absent","response":"present","rt":"7115","correct":false,"confidence":3},{"trial_n":120,"span":11,"encoder":"44086141749","distractor":"44086141799","target":"absent","response":"absent","rt":"3960","correct":true,"confidence":1},{"trial_n":121,"span":11,"encoder":"76587360046","distractor":"76587160046","target":"present","response":"present","rt":"2812.1000000238","correct":true,"confidence":5},{"trial_n":122,"span":12,"encoder":"842436365852","distractor":"842636365852","target":"present","response":"present","rt":"9076.7999999523","correct":true,"confidence":1},{"trial_n":123,"span":12,"encoder":"938142778019","distractor":"938142728019","target":"absent","response":"absent","rt":"2201.3999999762","correct":true,"confidence":5},{"trial_n":124,"span":13,"encoder":"6711306815831","distractor":"6711306815811","target":"absent","response":"present","rt":"5293.5","correct":false,"confidence":1},{"trial_n":125,"span":12,"encoder":"934849803558","distractor":"934840803558","target":"absent","response":"absent","rt":"9615.3999999762","correct":true,"confidence":4},{"trial_n":126,"span":12,"encoder":"675890794684","distractor":"675890194684","target":"present","response":"absent","rt":"8867.7999999523","correct":false,"confidence":2},{"trial_n":127,"span":11,"encoder":"61125759305","distractor":"61125757305","target":"present","response":"present","rt":"2202.0999999046","correct":true,"confidence":4},{"trial_n":128,"span":11,"encoder":"48138683049","distractor":"58138683049","target":"present","response":"absent","rt":"6862.2000000477","correct":false,"confidence":2},{"trial_n":129,"span":10,"encoder":"9995903166","distractor":"9995903162","target":"absent","response":"absent","rt":"1269.1999999285","correct":true,"confidence":5},{"trial_n":130,"span":10,"encoder":"9212528006","distractor":"9272528006","target":"absent","response":"absent","rt":"4078.5","correct":true,"confidence":3},{"trial_n":131,"span":11,"encoder":"44309893762","distractor":"74309893762","target":"present","response":"present","rt":"4343.1000000238","correct":true,"confidence":4},{"trial_n":132,"span":11,"encoder":"92767074768","distractor":"92867074768","target":"absent","response":"absent","rt":"6069.1999999285","correct":true,"confidence":1},{"trial_n":133,"span":12,"encoder":"185189434846","distractor":"185189434146","target":"present","response":"present","rt":"2317.2999999523","correct":true,"confidence":5},{"trial_n":134,"span":12,"encoder":"731892969817","distractor":"761892969817","target":"present","response":"present","rt":"7159.0999999046","correct":true,"confidence":4},{"trial_n":135,"span":13,"encoder":"8767834321532","distractor":"3767834321532","target":"present","response":"absent","rt":"4199.6000000238","correct":false,"confidence":2},{"trial_n":136,"span":12,"encoder":"546384010072","distractor":"546384040072","target":"present","response":"present","rt":"4856.9000000954","correct":true,"confidence":2},{"trial_n":137,"span":12,"encoder":"080285392249","distractor":"080285392949","target":"absent","response":"present","rt":"5659.7000000477","correct":false,"confidence":2},{"trial_n":138,"span":11,"encoder":"21147637901","distractor":"21147657901","target":"absent","response":"absent","rt":"4911.2000000477","correct":true,"confidence":3},{"trial_n":139,"span":11,"encoder":"80151230954","distractor":"80151230964","target":"absent","response":"absent","rt":"1419","correct":true,"confidence":5},{"trial_n":140,"span":12,"encoder":"502753267348","distractor":"502753267148","target":"absent","response":"present","rt":"10943","correct":false,"confidence":1}]