[{"trial_n":1,"n_dots":4.25,"target":"left","response":"left","rt":5818.3999999762,"correct":true,"confidence":-1},{"trial_n":2,"n_dots":4.25,"target":"right","response":"right","rt":781.89999997616,"correct":true,"confidence":-1},{"trial_n":3,"n_dots":3.85,"target":"right","response":"left","rt":770,"correct":false,"confidence":-1},{"trial_n":4,"n_dots":4.25,"target":"left","response":"right","rt":919.40000009537,"correct":false,"confidence":-1},{"trial_n":5,"n_dots":4.65,"target":"right","response":"right","rt":522.40000009537,"correct":true,"confidence":-1},{"trial_n":6,"n_dots":4.65,"target":"left","response":"left","rt":482.69999992847,"correct":true,"confidence":-1},{"trial_n":7,"n_dots":4.25,"target":"left","response":"left","rt":495.5,"correct":true,"confidence":-1},{"trial_n":8,"n_dots":4.25,"target":"left","response":"left","rt":701.69999992847,"correct":true,"confidence":-1},{"trial_n":9,"n_dots":4.05,"target":"left","response":"left","rt":667.10000002384,"correct":true,"confidence":-1},{"trial_n":10,"n_dots":4.05,"target":"left","response":"left","rt":592.59999990463,"correct":true,"confidence":-1},{"trial_n":11,"n_dots":3.85,"target":"right","response":"left","rt":487.19999992847,"correct":false,"confidence":-1},{"trial_n":12,"n_dots":4.05,"target":"right","response":"right","rt":698.89999997616,"correct":true,"confidence":-1},{"trial_n":13,"n_dots":4.05,"target":"left","response":"left","rt":449.40000009537,"correct":true,"confidence":-1},{"trial_n":14,"n_dots":3.95,"target":"left","response":"left","rt":617.29999995232,"correct":true,"confidence":-1},{"trial_n":15,"n_dots":3.95,"target":"right","response":"right","rt":485.90000009537,"correct":true,"confidence":-1},{"trial_n":16,"n_dots":3.85,"target":"right","response":"right","rt":487.29999995232,"correct":true,"confidence":-1},{"trial_n":17,"n_dots":3.85,"target":"right","response":"right","rt":494.29999995232,"correct":true,"confidence":-1},{"trial_n":18,"n_dots":3.75,"target":"right","response":"right","rt":905.90000009537,"correct":true,"confidence":-1},{"trial_n":19,"n_dots":3.75,"target":"right","response":"right","rt":823.40000009537,"correct":true,"confidence":-1},{"trial_n":20,"n_dots":3.65,"target":"left","response":"left","rt":216.29999995232,"correct":true,"confidence":-1},{"trial_n":21,"n_dots":3.65,"target":"right","response":"right","rt":1096.2999999523,"correct":true,"confidence":2},{"trial_n":22,"n_dots":3.55,"target":"right","response":"left","rt":528.29999995232,"correct":false,"confidence":3},{"trial_n":23,"n_dots":3.65,"target":"right","response":"right","rt":494.60000002384,"correct":true,"confidence":4},{"trial_n":24,"n_dots":3.65,"target":"left","response":"left","rt":608.29999995232,"correct":true,"confidence":4},{"trial_n":25,"n_dots":3.55,"target":"right","response":"right","rt":871.30000007153,"correct":true,"confidence":3},{"trial_n":26,"n_dots":3.55,"target":"right","response":"left","rt":565.79999995232,"correct":false,"confidence":3},{"trial_n":27,"n_dots":3.65,"target":"right","response":"left","rt":378.89999997616,"correct":false,"confidence":4},{"trial_n":28,"n_dots":3.75,"target":"left","response":"left","rt":464.20000004768,"correct":true,"confidence":4},{"trial_n":29,"n_dots":3.75,"target":"left","response":"left","rt":319.29999995232,"correct":true,"confidence":4},{"trial_n":30,"n_dots":3.65,"target":"right","response":"left","rt":2172.8999999762,"correct":false,"confidence":2},{"trial_n":31,"n_dots":3.75,"target":"left","response":"left","rt":367.39999997616,"correct":true,"confidence":3},{"trial_n":32,"n_dots":3.75,"target":"right","response":"left","rt":2541.8999999762,"correct":false,"confidence":3},{"trial_n":33,"n_dots":3.85,"target":"left","response":"left","rt":1609.2000000477,"correct":true,"confidence":5},{"trial_n":34,"n_dots":3.85,"target":"right","response":"right","rt":359.89999997616,"correct":true,"confidence":4},{"trial_n":35,"n_dots":3.75,"target":"left","response":"left","rt":1861.5999999046,"correct":true,"confidence":5},{"trial_n":36,"n_dots":3.75,"target":"right","response":"left","rt":1505.1999999285,"correct":false,"confidence":4},{"trial_n":37,"n_dots":3.85,"target":"left","response":"left","rt":367.60000002384,"correct":true,"confidence":5},{"trial_n":38,"n_dots":3.85,"target":"left","response":"left","rt":346.60000002384,"correct":true,"confidence":5},{"trial_n":39,"n_dots":3.75,"target":"left","response":"left","rt":428.29999995232,"correct":true,"confidence":2},{"trial_n":40,"n_dots":3.75,"target":"right","response":"left","rt":611.10000002384,"correct":false,"confidence":4},{"trial_n":41,"n_dots":3.85,"target":"left","response":"left","rt":926.39999997616,"correct":true,"confidence":5},{"trial_n":42,"n_dots":3.85,"target":"left","response":"left","rt":452,"correct":true,"confidence":5},{"trial_n":43,"n_dots":3.75,"target":"left","response":"left","rt":452.59999990463,"correct":true,"confidence":2},{"trial_n":44,"n_dots":3.75,"target":"right","response":"right","rt":874.79999995232,"correct":true,"confidence":3},{"trial_n":45,"n_dots":3.65,"target":"right","response":"right","rt":518.39999997616,"correct":true,"confidence":5},{"trial_n":46,"n_dots":3.65,"target":"right","response":"right","rt":510.89999997616,"correct":true,"confidence":3},{"trial_n":47,"n_dots":3.55,"target":"right","response":"right","rt":859.5,"correct":true,"confidence":3},{"trial_n":48,"n_dots":3.55,"target":"left","response":"left","rt":845.09999990463,"correct":true,"confidence":5},{"trial_n":49,"n_dots":3.45,"target":"left","response":"right","rt":740.69999992847,"correct":false,"confidence":2},{"trial_n":50,"n_dots":3.55,"target":"left","response":"left","rt":375.89999997616,"correct":true,"confidence":4},{"trial_n":51,"n_dots":3.55,"target":"left","response":"left","rt":436,"correct":true,"confidence":4},{"trial_n":52,"n_dots":3.45,"target":"left","response":"left","rt":434.69999992847,"correct":true,"confidence":5},{"trial_n":53,"n_dots":3.45,"target":"right","response":"right","rt":234.39999997616,"correct":true,"confidence":4},{"trial_n":54,"n_dots":3.35,"target":"right","response":"right","rt":314.29999995232,"correct":true,"confidence":4},{"trial_n":55,"n_dots":3.35,"target":"left","response":"left","rt":767.60000002384,"correct":true,"confidence":3},{"trial_n":56,"n_dots":3.25,"target":"right","response":"right","rt":811.5,"correct":true,"confidence":2},{"trial_n":57,"n_dots":3.25,"target":"right","response":"right","rt":517.89999997616,"correct":true,"confidence":4},{"trial_n":58,"n_dots":3.15,"target":"right","response":"left","rt":455.69999992847,"correct":false,"confidence":3},{"trial_n":59,"n_dots":3.25,"target":"right","response":"left","rt":618.89999997616,"correct":false,"confidence":3},{"trial_n":60,"n_dots":3.35,"target":"left","response":"left","rt":264.39999997616,"correct":true,"confidence":4},{"trial_n":61,"n_dots":3.35,"target":"left","response":"left","rt":379.89999997616,"correct":true,"confidence":4},{"trial_n":62,"n_dots":3.25,"target":"right","response":"left","rt":243.29999995232,"correct":false,"confidence":3},{"trial_n":63,"n_dots":3.35,"target":"left","response":"left","rt":380.80000007153,"correct":true,"confidence":2},{"trial_n":64,"n_dots":3.35,"target":"right","response":"right","rt":150.5,"correct":true,"confidence":2},{"trial_n":65,"n_dots":3.25,"target":"right","response":"left","rt":370.10000002384,"correct":false,"confidence":1},{"trial_n":66,"n_dots":3.35,"target":"right","response":"right","rt":28.200000047684,"correct":true,"confidence":4},{"trial_n":67,"n_dots":3.35,"target":"left","response":"left","rt":922.79999995232,"correct":true,"confidence":4},{"trial_n":68,"n_dots":3.25,"target":"left","response":"left","rt":551,"correct":true,"confidence":3},{"trial_n":69,"n_dots":3.25,"target":"left","response":"left","rt":175,"correct":true,"confidence":4},{"trial_n":70,"n_dots":3.15,"target":"left","response":"left","rt":317.5,"correct":true,"confidence":4},{"trial_n":71,"n_dots":3.15,"target":"left","response":"left","rt":1119.1000000238,"correct":true,"confidence":1},{"trial_n":72,"n_dots":3.05,"target":"left","response":"left","rt":67.299999952316,"correct":true,"confidence":5},{"trial_n":73,"n_dots":3.05,"target":"right","response":"right","rt":501.69999992847,"correct":true,"confidence":4},{"trial_n":74,"n_dots":2.95,"target":"right","response":"left","rt":881.30000007153,"correct":false,"confidence":3},{"trial_n":75,"n_dots":3.05,"target":"right","response":"left","rt":666.60000002384,"correct":false,"confidence":4},{"trial_n":76,"n_dots":3.15,"target":"left","response":"left","rt":679,"correct":true,"confidence":3},{"trial_n":77,"n_dots":3.15,"target":"left","response":"left","rt":126,"correct":true,"confidence":4},{"trial_n":78,"n_dots":3.05,"target":"right","response":"right","rt":193.30000007153,"correct":true,"confidence":4},{"trial_n":79,"n_dots":3.05,"target":"right","response":"left","rt":394.80000007153,"correct":false,"confidence":3},{"trial_n":80,"n_dots":3.15,"target":"left","response":"left","rt":617.79999995232,"correct":true,"confidence":3},{"trial_n":81,"n_dots":3.15,"target":"right","response":"left","rt":952.40000009537,"correct":false,"confidence":5},{"trial_n":82,"n_dots":3.25,"target":"right","response":"left","rt":614,"correct":false,"confidence":2},{"trial_n":83,"n_dots":3.35,"target":"left","response":"left","rt":143.19999992847,"correct":true,"confidence":5},{"trial_n":84,"n_dots":3.35,"target":"left","response":"left","rt":131.60000002384,"correct":true,"confidence":5},{"trial_n":85,"n_dots":3.25,"target":"left","response":"left","rt":771,"correct":true,"confidence":2},{"trial_n":86,"n_dots":3.25,"target":"right","response":"left","rt":549.89999997616,"correct":false,"confidence":4},{"trial_n":87,"n_dots":3.35,"target":"right","response":"right","rt":1249.3999999762,"correct":true,"confidence":2},{"trial_n":88,"n_dots":3.35,"target":"right","response":"left","rt":685.79999995232,"correct":false,"confidence":3},{"trial_n":89,"n_dots":3.45,"target":"left","response":"left","rt":883.89999997616,"correct":true,"confidence":1},{"trial_n":90,"n_dots":3.45,"target":"left","response":"right","rt":425.90000009537,"correct":false,"confidence":1},{"trial_n":91,"n_dots":3.55,"target":"right","response":"right","rt":362.30000007153,"correct":true,"confidence":4},{"trial_n":92,"n_dots":3.55,"target":"left","response":"left","rt":250.89999997616,"correct":true,"confidence":4},{"trial_n":93,"n_dots":3.45,"target":"right","response":"left","rt":1477.5,"correct":false,"confidence":2},{"trial_n":94,"n_dots":3.55,"target":"left","response":"left","rt":403.59999990463,"correct":true,"confidence":4},{"trial_n":95,"n_dots":3.55,"target":"right","response":"right","rt":336.79999995232,"correct":true,"confidence":3},{"trial_n":96,"n_dots":3.45,"target":"left","response":"left","rt":263.80000007153,"correct":true,"confidence":4},{"trial_n":97,"n_dots":3.45,"target":"right","response":"right","rt":330,"correct":true,"confidence":4},{"trial_n":98,"n_dots":3.35,"target":"left","response":"left","rt":492.70000004768,"correct":true,"confidence":3},{"trial_n":99,"n_dots":3.35,"target":"right","response":"right","rt":759.39999997616,"correct":true,"confidence":2},{"trial_n":100,"n_dots":3.25,"target":"right","response":"right","rt":470.5,"correct":true,"confidence":2},{"trial_n":101,"n_dots":3.25,"target":"left","response":"left","rt":448.60000002384,"correct":true,"confidence":3},{"trial_n":102,"n_dots":3.15,"target":"left","response":"left","rt":69.599999904633,"correct":true,"confidence":2},{"trial_n":103,"n_dots":3.15,"target":"left","response":"left","rt":560.90000009537,"correct":true,"confidence":3},{"trial_n":104,"n_dots":3.05,"target":"right","response":"right","rt":488.70000004768,"correct":true,"confidence":3},{"trial_n":105,"n_dots":3.05,"target":"left","response":"left","rt":712.10000002384,"correct":true,"confidence":4},{"trial_n":106,"n_dots":2.95,"target":"right","response":"left","rt":747.5,"correct":false,"confidence":1},{"trial_n":107,"n_dots":3.05,"target":"right","response":"left","rt":269.60000002384,"correct":false,"confidence":4},{"trial_n":108,"n_dots":3.15,"target":"left","response":"left","rt":343.10000002384,"correct":true,"confidence":3},{"trial_n":109,"n_dots":3.15,"target":"left","response":"left","rt":646.10000002384,"correct":true,"confidence":2},{"trial_n":110,"n_dots":3.05,"target":"left","response":"left","rt":4217.2999999523,"correct":true,"confidence":1},{"trial_n":111,"n_dots":3.05,"target":"left","response":"left","rt":383.29999995232,"correct":true,"confidence":3},{"trial_n":112,"n_dots":2.95,"target":"right","response":"right","rt":434.29999995232,"correct":true,"confidence":2},{"trial_n":113,"n_dots":2.95,"target":"right","response":"left","rt":248.09999990463,"correct":false,"confidence":3},{"trial_n":114,"n_dots":3.05,"target":"left","response":"left","rt":402.10000002384,"correct":true,"confidence":4},{"trial_n":115,"n_dots":3.05,"target":"right","response":"left","rt":483.5,"correct":false,"confidence":2},{"trial_n":116,"n_dots":3.15,"target":"left","response":"left","rt":177.79999995232,"correct":true,"confidence":5},{"trial_n":117,"n_dots":3.15,"target":"left","response":"left","rt":420.30000007153,"correct":true,"confidence":4},{"trial_n":118,"n_dots":3.05,"target":"right","response":"right","rt":444.09999990463,"correct":true,"confidence":4},{"trial_n":119,"n_dots":3.05,"target":"right","response":"right","rt":550.60000002384,"correct":true,"confidence":4},{"trial_n":120,"n_dots":2.95,"target":"right","response":"right","rt":883.90000009537,"correct":true,"confidence":3}]