[{"trial_n":1,"span":8,"encoder":"25437114","distractor":"25437119","target":"present","response":"present","rt":"5112.6000000015","correct":true,"confidence":-1},{"trial_n":2,"span":8,"encoder":"05064223","distractor":"05064623","target":"present","response":"present","rt":"2044.400000006","correct":true,"confidence":-1},{"trial_n":3,"span":10,"encoder":"9205796121","distractor":"9205396121","target":"absent","response":"absent","rt":"1881.5","correct":true,"confidence":-1},{"trial_n":4,"span":10,"encoder":"6737965087","distractor":"6734965087","target":"absent","response":"present","rt":"2368.6000000015","correct":false,"confidence":-1},{"trial_n":5,"span":8,"encoder":"57623186","distractor":"87623186","target":"present","response":"present","rt":"2728.8000000045","correct":true,"confidence":-1},{"trial_n":6,"span":8,"encoder":"75052224","distractor":"75052724","target":"present","response":"present","rt":"1531.1999999955","correct":true,"confidence":-1},{"trial_n":7,"span":10,"encoder":"1836832009","distractor":"4836832009","target":"absent","response":"present","rt":"1355.200000003","correct":false,"confidence":-1},{"trial_n":8,"span":8,"encoder":"91569308","distractor":"91669308","target":"present","response":"present","rt":"3521","correct":true,"confidence":-1},{"trial_n":9,"span":8,"encoder":"81892918","distractor":"81092918","target":"absent","response":"present","rt":"4375.400000006","correct":false,"confidence":-1},{"trial_n":10,"span":6,"encoder":"600642","distractor":"680642","target":"present","response":"present","rt":"1065.200000003","correct":true,"confidence":-1},{"trial_n":11,"span":6,"encoder":"690277","distractor":"690237","target":"present","response":"present","rt":"982.5","correct":true,"confidence":-1},{"trial_n":12,"span":7,"encoder":"2429941","distractor":"2429241","target":"absent","response":"absent","rt":"1678","correct":true,"confidence":-1},{"trial_n":13,"span":7,"encoder":"1454292","distractor":"1454262","target":"absent","response":"present","rt":"9231.5","correct":false,"confidence":-1},{"trial_n":14,"span":6,"encoder":"749063","distractor":"749863","target":"absent","response":"absent","rt":"3039.599999994","correct":true,"confidence":-1},{"trial_n":15,"span":6,"encoder":"846011","distractor":"746011","target":"present","response":"present","rt":"1008","correct":true,"confidence":-1},{"trial_n":16,"span":7,"encoder":"1335183","distractor":"6335183","target":"absent","response":"absent","rt":"1044.8999999985","correct":true,"confidence":-1},{"trial_n":17,"span":7,"encoder":"0776363","distractor":"2776363","target":"absent","response":"absent","rt":"1105.1000000015","correct":true,"confidence":-1},{"trial_n":18,"span":8,"encoder":"00480043","distractor":"07480043","target":"absent","response":"present","rt":"606.10000000149","correct":false,"confidence":-1},{"trial_n":19,"span":7,"encoder":"8815844","distractor":"3815844","target":"absent","response":"absent","rt":"1219.1999999955","correct":true,"confidence":-1},{"trial_n":20,"span":7,"encoder":"1691227","distractor":"4691227","target":"absent","response":"present","rt":"718.10000000149","correct":false,"confidence":-1},{"trial_n":21,"span":6,"encoder":"600897","distractor":"604897","target":"absent","response":"absent","rt":"2027.1000000015","correct":true,"confidence":5},{"trial_n":22,"span":6,"encoder":"804640","distractor":"804646","target":"present","response":"present","rt":"1783.200000003","correct":true,"confidence":4},{"trial_n":23,"span":7,"encoder":"7846478","distractor":"7846878","target":"present","response":"present","rt":"1265.200000003","correct":true,"confidence":3},{"trial_n":24,"span":7,"encoder":"1783065","distractor":"1789065","target":"present","response":"present","rt":"2022.400000006","correct":true,"confidence":4},{"trial_n":25,"span":8,"encoder":"01704770","distractor":"01704970","target":"present","response":"present","rt":"1896.6000000015","correct":true,"confidence":4},{"trial_n":26,"span":8,"encoder":"46243463","distractor":"36243463","target":"absent","response":"absent","rt":"1355.5","correct":true,"confidence":3},{"trial_n":27,"span":9,"encoder":"590333645","distractor":"590333045","target":"present","response":"absent","rt":"2505","correct":false,"confidence":4},{"trial_n":28,"span":8,"encoder":"25189313","distractor":"25189913","target":"absent","response":"absent","rt":"1565.599999994","correct":true,"confidence":2},{"trial_n":29,"span":8,"encoder":"11066424","distractor":"61066424","target":"present","response":"present","rt":"1508.299999997","correct":true,"confidence":4},{"trial_n":30,"span":9,"encoder":"803413464","distractor":"803313464","target":"absent","response":"absent","rt":"1789.1000000015","correct":true,"confidence":4},{"trial_n":31,"span":9,"encoder":"475907364","distractor":"475907354","target":"present","response":"present","rt":"1800.200000003","correct":true,"confidence":4},{"trial_n":32,"span":10,"encoder":"3696160072","distractor":"3696760072","target":"absent","response":"present","rt":"2261.8000000045","correct":false,"confidence":5},{"trial_n":33,"span":9,"encoder":"524580443","distractor":"524580843","target":"present","response":"present","rt":"2602.3999999985","correct":true,"confidence":4},{"trial_n":34,"span":9,"encoder":"015717503","distractor":"015757503","target":"absent","response":"absent","rt":"2397.3999999985","correct":true,"confidence":3},{"trial_n":35,"span":10,"encoder":"1980028645","distractor":"1980038645","target":"present","response":"present","rt":"2517.5","correct":true,"confidence":4},{"trial_n":36,"span":10,"encoder":"4892686115","distractor":"4892686125","target":"absent","response":"absent","rt":"2186.3999999985","correct":true,"confidence":4},{"trial_n":37,"span":11,"encoder":"97280670527","distractor":"97280570527","target":"absent","response":"present","rt":"6691.799999997","correct":false,"confidence":3},{"trial_n":38,"span":10,"encoder":"2228910714","distractor":"2224910714","target":"present","response":"present","rt":"3046","correct":true,"confidence":5},{"trial_n":39,"span":10,"encoder":"1456693632","distractor":"1456893632","target":"present","response":"present","rt":"3854.900000006","correct":true,"confidence":4},{"trial_n":40,"span":11,"encoder":"64426119362","distractor":"64426119462","target":"absent","response":"absent","rt":"1868.8000000045","correct":true,"confidence":3},{"trial_n":41,"span":11,"encoder":"81390974259","distractor":"81380974259","target":"absent","response":"absent","rt":"3481.8999999985","correct":true,"confidence":3},{"trial_n":42,"span":12,"encoder":"530835850510","distractor":"550835850510","target":"absent","response":"absent","rt":"2476.900000006","correct":true,"confidence":3},{"trial_n":43,"span":12,"encoder":"542865348994","distractor":"242865348994","target":"present","response":"present","rt":"2142.8999999985","correct":true,"confidence":4},{"trial_n":44,"span":13,"encoder":"8257172345850","distractor":"8857172345850","target":"absent","response":"absent","rt":"2296.3999999985","correct":true,"confidence":4},{"trial_n":45,"span":13,"encoder":"6407859658925","distractor":"6407899658925","target":"absent","response":"absent","rt":"3118.1000000015","correct":true,"confidence":3},{"trial_n":46,"span":14,"encoder":"63318517252672","distractor":"63618517252672","target":"present","response":"present","rt":"4228.8000000045","correct":true,"confidence":3},{"trial_n":47,"span":14,"encoder":"18906347191984","distractor":"18906347191954","target":"present","response":"present","rt":"3728.6000000015","correct":true,"confidence":2},{"trial_n":48,"span":15,"encoder":"883422307618418","distractor":"883522307618418","target":"present","response":"present","rt":"2469","correct":true,"confidence":2},{"trial_n":49,"span":15,"encoder":"963479623485050","distractor":"963279623485050","target":"present","response":"absent","rt":"4376.1000000089","correct":false,"confidence":4},{"trial_n":50,"span":14,"encoder":"32555929099409","distractor":"32595929099409","target":"absent","response":"absent","rt":"2051.299999997","correct":true,"confidence":4},{"trial_n":51,"span":14,"encoder":"00175148486737","distractor":"80175148486737","target":"present","response":"absent","rt":"5105.099999994","correct":false,"confidence":1},{"trial_n":52,"span":13,"encoder":"1255985442681","distractor":"1255985442881","target":"present","response":"present","rt":"2518.8999999911","correct":true,"confidence":4},{"trial_n":53,"span":13,"encoder":"7061316474869","distractor":"7061416474869","target":"present","response":"present","rt":"3152.200000003","correct":true,"confidence":3},{"trial_n":54,"span":14,"encoder":"31411370126589","distractor":"31411375126589","target":"absent","response":"present","rt":"1952.700000003","correct":false,"confidence":3},{"trial_n":55,"span":13,"encoder":"4086034991101","distractor":"4086834991101","target":"present","response":"present","rt":"1969","correct":true,"confidence":4},{"trial_n":56,"span":13,"encoder":"5278783006545","distractor":"5278781006545","target":"present","response":"present","rt":"2031.900000006","correct":true,"confidence":2},{"trial_n":57,"span":14,"encoder":"18519741641778","distractor":"19519741641778","target":"present","response":"absent","rt":"2165.6000000089","correct":false,"confidence":3},{"trial_n":58,"span":13,"encoder":"0034981015912","distractor":"0034983015912","target":"present","response":"present","rt":"2163","correct":true,"confidence":4},{"trial_n":59,"span":13,"encoder":"8570059058682","distractor":"8770059058682","target":"absent","response":"absent","rt":"2270","correct":true,"confidence":2},{"trial_n":60,"span":14,"encoder":"52658595964357","distractor":"54658595964357","target":"present","response":"absent","rt":"1370.8000000119","correct":false,"confidence":4},{"trial_n":61,"span":13,"encoder":"3459280684660","distractor":"3459280694660","target":"present","response":"absent","rt":"70447.600000009","correct":false,"confidence":1},{"trial_n":62,"span":12,"encoder":"636511174154","distractor":"630511174154","target":"absent","response":"absent","rt":"2172.5","correct":true,"confidence":3},{"trial_n":63,"span":12,"encoder":"243259735444","distractor":"243259735844","target":"present","response":"present","rt":"1647","correct":true,"confidence":1},{"trial_n":64,"span":13,"encoder":"0028496616597","distractor":"0828496616597","target":"absent","response":"absent","rt":"1376.5","correct":true,"confidence":5},{"trial_n":65,"span":13,"encoder":"5779110565657","distractor":"5779110565653","target":"absent","response":"absent","rt":"2208.400000006","correct":true,"confidence":2},{"trial_n":66,"span":14,"encoder":"08572473125069","distractor":"08572373125069","target":"present","response":"absent","rt":"2842.5","correct":false,"confidence":1},{"trial_n":67,"span":13,"encoder":"1988567549091","distractor":"1982567549091","target":"absent","response":"present","rt":"3373.400000006","correct":false,"confidence":3},{"trial_n":68,"span":12,"encoder":"873751793470","distractor":"871751793470","target":"present","response":"present","rt":"1617.599999994","correct":true,"confidence":2},{"trial_n":69,"span":12,"encoder":"112033451375","distractor":"112033451475","target":"absent","response":"present","rt":"2181.200000003","correct":false,"confidence":3},{"trial_n":70,"span":11,"encoder":"41725738160","distractor":"41725838160","target":"absent","response":"present","rt":"2150.200000003","correct":false,"confidence":4},{"trial_n":71,"span":8,"encoder":"94483203","distractor":"94383203","target":"present","response":"present","rt":"11446.200000003","correct":true,"confidence":-1},{"trial_n":72,"span":8,"encoder":"86672860","distractor":"86672870","target":"present","response":"present","rt":"4618.5","correct":true,"confidence":-1},{"trial_n":73,"span":9,"encoder":"851582693","distractor":"751582693","target":"absent","response":"absent","rt":"3113.1000000089","correct":true,"confidence":-1},{"trial_n":74,"span":9,"encoder":"062217748","distractor":"862217748","target":"absent","response":"absent","rt":"1316.700000003","correct":true,"confidence":-1},{"trial_n":75,"span":10,"encoder":"6855201636","distractor":"6855211636","target":"present","response":"absent","rt":"3976.6000000089","correct":false,"confidence":-1},{"trial_n":76,"span":9,"encoder":"210163390","distractor":"210163396","target":"present","response":"present","rt":"2920","correct":true,"confidence":-1},{"trial_n":77,"span":9,"encoder":"533896051","distractor":"533896053","target":"absent","response":"absent","rt":"3646.700000003","correct":true,"confidence":-1},{"trial_n":78,"span":10,"encoder":"0519934359","distractor":"0519934389","target":"absent","response":"present","rt":"5755.200000003","correct":false,"confidence":-1},{"trial_n":79,"span":9,"encoder":"225970412","distractor":"725970412","target":"absent","response":"absent","rt":"5507","correct":true,"confidence":-1},{"trial_n":80,"span":9,"encoder":"723910102","distractor":"722910102","target":"absent","response":"absent","rt":"1391","correct":true,"confidence":-1},{"trial_n":81,"span":10,"encoder":"9587341722","distractor":"2587341722","target":"absent","response":"absent","rt":"2584.3999999911","correct":true,"confidence":-1},{"trial_n":82,"span":10,"encoder":"3590802472","distractor":"3890802472","target":"absent","response":"absent","rt":"1399.799999997","correct":true,"confidence":-1},{"trial_n":83,"span":11,"encoder":"53157872031","distractor":"53157882031","target":"present","response":"present","rt":"4811.1999999881","correct":true,"confidence":-1},{"trial_n":84,"span":11,"encoder":"32402112062","distractor":"32402112002","target":"present","response":"present","rt":"2186.700000003","correct":true,"confidence":-1},{"trial_n":85,"span":12,"encoder":"513485684216","distractor":"503485684216","target":"present","response":"present","rt":"2500.900000006","correct":true,"confidence":-1},{"trial_n":86,"span":12,"encoder":"523233080367","distractor":"583233080367","target":"present","response":"present","rt":"4407.5","correct":true,"confidence":-1},{"trial_n":87,"span":13,"encoder":"4483996904456","distractor":"4483996914456","target":"present","response":"present","rt":"4673.099999994","correct":true,"confidence":-1},{"trial_n":88,"span":13,"encoder":"8810145319183","distractor":"8810105319183","target":"absent","response":"present","rt":"3204.5","correct":false,"confidence":-1},{"trial_n":89,"span":12,"encoder":"100616136980","distractor":"100616136984","target":"present","response":"present","rt":"1670.5","correct":true,"confidence":-1},{"trial_n":90,"span":12,"encoder":"224662774932","distractor":"224162774932","target":"absent","response":"present","rt":"4529","correct":false,"confidence":-1},{"trial_n":91,"span":11,"encoder":"02682569939","distractor":"02682069939","target":"absent","response":"present","rt":"6873","correct":false,"confidence":3},{"trial_n":92,"span":10,"encoder":"9518472489","distractor":"9718472489","target":"absent","response":"present","rt":"3433.6000000089","correct":false,"confidence":3},{"trial_n":93,"span":9,"encoder":"913402697","distractor":"913402693","target":"absent","response":"present","rt":"3616.299999997","correct":false,"confidence":4},{"trial_n":94,"span":8,"encoder":"48817216","distractor":"98817216","target":"absent","response":"absent","rt":"4007","correct":true,"confidence":5},{"trial_n":95,"span":8,"encoder":"15095403","distractor":"15095493","target":"present","response":"absent","rt":"3210.099999994","correct":false,"confidence":3},{"trial_n":96,"span":7,"encoder":"2860514","distractor":"2800514","target":"present","response":"present","rt":"2415.5","correct":true,"confidence":5},{"trial_n":97,"span":7,"encoder":"6722837","distractor":"6722830","target":"present","response":"present","rt":"3406","correct":true,"confidence":4},{"trial_n":98,"span":8,"encoder":"97868075","distractor":"37868075","target":"absent","response":"absent","rt":"1676.700000003","correct":true,"confidence":5},{"trial_n":99,"span":8,"encoder":"18475488","distractor":"18475482","target":"present","response":"present","rt":"4277","correct":true,"confidence":3},{"trial_n":100,"span":9,"encoder":"285423553","distractor":"285423853","target":"absent","response":"present","rt":"3141.5","correct":false,"confidence":3},{"trial_n":101,"span":8,"encoder":"76028006","distractor":"76088006","target":"absent","response":"absent","rt":"2038.5","correct":true,"confidence":5},{"trial_n":102,"span":8,"encoder":"48824986","distractor":"48824956","target":"present","response":"absent","rt":"3290.900000006","correct":false,"confidence":2},{"trial_n":103,"span":7,"encoder":"4618228","distractor":"4618238","target":"absent","response":"present","rt":"4811.799999997","correct":false,"confidence":1},{"trial_n":104,"span":6,"encoder":"055803","distractor":"055806","target":"present","response":"absent","rt":"2902.700000003","correct":false,"confidence":4},{"trial_n":105,"span":5,"encoder":"34826","distractor":"34886","target":"present","response":"present","rt":"3072.299999997","correct":true,"confidence":5},{"trial_n":106,"span":5,"encoder":"40236","distractor":"40216","target":"absent","response":"absent","rt":"1624.3000000119","correct":true,"confidence":5},{"trial_n":107,"span":6,"encoder":"852554","distractor":"802554","target":"absent","response":"absent","rt":"2524.6999999881","correct":true,"confidence":4},{"trial_n":108,"span":6,"encoder":"091187","distractor":"091787","target":"present","response":"present","rt":"2385.599999994","correct":true,"confidence":5},{"trial_n":109,"span":7,"encoder":"6140208","distractor":"6145208","target":"absent","response":"absent","rt":"2499.3000000119","correct":true,"confidence":5},{"trial_n":110,"span":7,"encoder":"4332206","distractor":"4302206","target":"present","response":"absent","rt":"3160.599999994","correct":false,"confidence":3},{"trial_n":111,"span":6,"encoder":"477084","distractor":"377084","target":"absent","response":"absent","rt":"1288.200000003","correct":true,"confidence":5},{"trial_n":112,"span":6,"encoder":"089655","distractor":"089656","target":"present","response":"absent","rt":"3061.900000006","correct":false,"confidence":4},{"trial_n":113,"span":5,"encoder":"46483","distractor":"46183","target":"present","response":"present","rt":"1830","correct":true,"confidence":5},{"trial_n":114,"span":5,"encoder":"37813","distractor":"35813","target":"absent","response":"absent","rt":"1374.8000000119","correct":true,"confidence":5},{"trial_n":115,"span":6,"encoder":"296808","distractor":"299808","target":"present","response":"present","rt":"2999.5","correct":true,"confidence":4},{"trial_n":116,"span":6,"encoder":"478661","distractor":"478668","target":"absent","response":"absent","rt":"1314.5","correct":true,"confidence":5},{"trial_n":117,"span":7,"encoder":"0521489","distractor":"0521289","target":"present","response":"absent","rt":"2049.1000000089","correct":false,"confidence":3},{"trial_n":118,"span":6,"encoder":"387201","distractor":"387101","target":"present","response":"present","rt":"3764","correct":true,"confidence":4},{"trial_n":119,"span":6,"encoder":"904508","distractor":"904538","target":"absent","response":"absent","rt":"1835.299999997","correct":true,"confidence":5},{"trial_n":120,"span":7,"encoder":"4089098","distractor":"3089098","target":"present","response":"present","rt":"1941.799999997","correct":true,"confidence":5},{"trial_n":121,"span":7,"encoder":"9457319","distractor":"2457319","target":"absent","response":"absent","rt":"1865.6000000089","correct":true,"confidence":5},{"trial_n":122,"span":8,"encoder":"69416046","distractor":"69417046","target":"present","response":"absent","rt":"3443","correct":false,"confidence":4},{"trial_n":123,"span":7,"encoder":"1190876","distractor":"1190872","target":"absent","response":"absent","rt":"5226.099999994","correct":true,"confidence":4},{"trial_n":124,"span":7,"encoder":"7399080","distractor":"7099080","target":"present","response":"present","rt":"3911.900000006","correct":true,"confidence":4},{"trial_n":125,"span":8,"encoder":"18922341","distractor":"18902341","target":"absent","response":"present","rt":"4364","correct":false,"confidence":3},{"trial_n":126,"span":7,"encoder":"2890921","distractor":"2590921","target":"present","response":"present","rt":"2221.900000006","correct":true,"confidence":4},{"trial_n":127,"span":7,"encoder":"2315025","distractor":"2313025","target":"absent","response":"present","rt":"4427.1999999881","correct":false,"confidence":4},{"trial_n":128,"span":6,"encoder":"100272","distractor":"110272","target":"present","response":"present","rt":"2102.3999999911","correct":true,"confidence":5},{"trial_n":129,"span":6,"encoder":"174434","distractor":"174424","target":"present","response":"present","rt":"2173.599999994","correct":true,"confidence":5},{"trial_n":130,"span":7,"encoder":"0596500","distractor":"0596400","target":"absent","response":"absent","rt":"2031.8000000119","correct":true,"confidence":4},{"trial_n":131,"span":7,"encoder":"7126121","distractor":"7126321","target":"present","response":"present","rt":"3228.5","correct":true,"confidence":5},{"trial_n":132,"span":8,"encoder":"08933278","distractor":"08939278","target":"present","response":"present","rt":"4958.400000006","correct":true,"confidence":4},{"trial_n":133,"span":8,"encoder":"02160580","distractor":"02130580","target":"absent","response":"absent","rt":"2019.1000000089","correct":true,"confidence":5},{"trial_n":134,"span":9,"encoder":"283611121","distractor":"213611121","target":"present","response":"present","rt":"6019.799999997","correct":true,"confidence":4},{"trial_n":135,"span":9,"encoder":"932211150","distractor":"132211150","target":"absent","response":"present","rt":"2830.3999999911","correct":false,"confidence":3},{"trial_n":136,"span":8,"encoder":"60134017","distractor":"60134007","target":"present","response":"absent","rt":"3501.5","correct":false,"confidence":3},{"trial_n":137,"span":7,"encoder":"4642196","distractor":"4642199","target":"present","response":"present","rt":"2430.099999994","correct":true,"confidence":4},{"trial_n":138,"span":7,"encoder":"5417819","distractor":"5917819","target":"absent","response":"absent","rt":"1992.099999994","correct":true,"confidence":3},{"trial_n":139,"span":8,"encoder":"53311214","distractor":"13311214","target":"present","response":"present","rt":"1985.3999999911","correct":true,"confidence":5},{"trial_n":140,"span":8,"encoder":"74300848","distractor":"74300448","target":"absent","response":"absent","rt":"2017.099999994","correct":true,"confidence":2}]