[{"trial_n":1,"min":25,"max":230,"target":"present","response":"present","rt":6928.8000000715,"correct":true,"confidence":-1},{"trial_n":2,"min":25,"max":230,"target":"present","response":"present","rt":685.5,"correct":true,"confidence":-1},{"trial_n":3,"min":41,"max":214,"target":"absent","response":"present","rt":476.20000004768,"correct":false,"confidence":-1},{"trial_n":4,"min":25,"max":230,"target":"absent","response":"present","rt":3577.3999999762,"correct":false,"confidence":-1},{"trial_n":5,"min":9,"max":246,"target":"present","response":"present","rt":860.69999992847,"correct":true,"confidence":-1},{"trial_n":6,"min":9,"max":246,"target":"present","response":"present","rt":1073.2000000477,"correct":true,"confidence":-1},{"trial_n":7,"min":25,"max":230,"target":"absent","response":"present","rt":2315.3000000715,"correct":false,"confidence":-1},{"trial_n":8,"min":9,"max":246,"target":"absent","response":"absent","rt":1014.3999999762,"correct":true,"confidence":-1},{"trial_n":9,"min":9,"max":246,"target":"absent","response":"present","rt":860.70000004768,"correct":false,"confidence":-1},{"trial_n":10,"min":0,"max":255,"target":"present","response":"present","rt":412.69999992847,"correct":true,"confidence":-1},{"trial_n":11,"min":0,"max":255,"target":"absent","response":"absent","rt":490.5,"correct":true,"confidence":-1},{"trial_n":12,"min":8,"max":247,"target":"present","response":"present","rt":348.69999992847,"correct":true,"confidence":-1},{"trial_n":13,"min":8,"max":247,"target":"present","response":"absent","rt":478,"correct":false,"confidence":-1},{"trial_n":14,"min":0,"max":255,"target":"present","response":"present","rt":254.89999997616,"correct":true,"confidence":-1},{"trial_n":15,"min":0,"max":255,"target":"present","response":"present","rt":262.59999990463,"correct":true,"confidence":-1},{"trial_n":16,"min":8,"max":247,"target":"absent","response":"absent","rt":383.19999992847,"correct":true,"confidence":-1},{"trial_n":17,"min":8,"max":247,"target":"present","response":"present","rt":313.39999997616,"correct":true,"confidence":-1},{"trial_n":18,"min":16,"max":239,"target":"present","response":"present","rt":364.10000002384,"correct":true,"confidence":-1},{"trial_n":19,"min":16,"max":239,"target":"present","response":"present","rt":304.69999992847,"correct":true,"confidence":-1},{"trial_n":20,"min":24,"max":231,"target":"present","response":"present","rt":352.79999995232,"correct":true,"confidence":-1},{"trial_n":21,"min":24,"max":231,"target":"present","response":"present","rt":698.60000002384,"correct":true,"confidence":4},{"trial_n":22,"min":28,"max":227,"target":"absent","response":"absent","rt":484.59999990463,"correct":true,"confidence":4},{"trial_n":23,"min":28,"max":227,"target":"present","response":"present","rt":379.60000002384,"correct":true,"confidence":4},{"trial_n":24,"min":32,"max":223,"target":"absent","response":"absent","rt":2267.6999999285,"correct":true,"confidence":3},{"trial_n":25,"min":32,"max":223,"target":"present","response":"present","rt":1082.8999999762,"correct":true,"confidence":5},{"trial_n":26,"min":36,"max":219,"target":"present","response":"present","rt":2447.7000000477,"correct":true,"confidence":5},{"trial_n":27,"min":36,"max":219,"target":"absent","response":"absent","rt":1258.5,"correct":true,"confidence":4},{"trial_n":28,"min":40,"max":215,"target":"absent","response":"absent","rt":1688.3999999762,"correct":true,"confidence":3},{"trial_n":29,"min":40,"max":215,"target":"present","response":"present","rt":1324.6000000238,"correct":true,"confidence":3},{"trial_n":30,"min":44,"max":211,"target":"absent","response":"absent","rt":703.10000002384,"correct":true,"confidence":5},{"trial_n":31,"min":44,"max":211,"target":"present","response":"present","rt":2335.0999999046,"correct":true,"confidence":3},{"trial_n":32,"min":46,"max":209,"target":"present","response":"present","rt":802,"correct":true,"confidence":4},{"trial_n":33,"min":46,"max":209,"target":"present","response":"present","rt":514.69999992847,"correct":true,"confidence":4},{"trial_n":34,"min":48,"max":207,"target":"absent","response":"absent","rt":1074.5,"correct":true,"confidence":4},{"trial_n":35,"min":48,"max":207,"target":"absent","response":"absent","rt":761.89999997616,"correct":true,"confidence":3},{"trial_n":36,"min":50,"max":205,"target":"absent","response":"absent","rt":928.90000009537,"correct":true,"confidence":4},{"trial_n":37,"min":50,"max":205,"target":"absent","response":"absent","rt":451,"correct":true,"confidence":4},{"trial_n":38,"min":52,"max":203,"target":"present","response":"present","rt":1170.7999999523,"correct":true,"confidence":5},{"trial_n":39,"min":52,"max":203,"target":"absent","response":"absent","rt":680.89999997616,"correct":true,"confidence":3},{"trial_n":40,"min":54,"max":201,"target":"absent","response":"absent","rt":619.89999997616,"correct":true,"confidence":3},{"trial_n":41,"min":54,"max":201,"target":"present","response":"present","rt":727.40000009537,"correct":true,"confidence":5},{"trial_n":42,"min":55,"max":200,"target":"absent","response":"absent","rt":772.79999995232,"correct":true,"confidence":2},{"trial_n":43,"min":55,"max":200,"target":"absent","response":"absent","rt":1000.3999999762,"correct":true,"confidence":2},{"trial_n":44,"min":56,"max":199,"target":"present","response":"present","rt":684.39999997616,"correct":true,"confidence":4},{"trial_n":45,"min":56,"max":199,"target":"present","response":"present","rt":671.39999997616,"correct":true,"confidence":4},{"trial_n":46,"min":57,"max":198,"target":"present","response":"present","rt":535.29999995232,"correct":true,"confidence":4},{"trial_n":47,"min":57,"max":198,"target":"absent","response":"present","rt":1202.6000000238,"correct":false,"confidence":3},{"trial_n":48,"min":56,"max":199,"target":"present","response":"present","rt":567.70000004768,"correct":true,"confidence":3},{"trial_n":49,"min":56,"max":199,"target":"absent","response":"absent","rt":549.10000002384,"correct":true,"confidence":2},{"trial_n":50,"min":57,"max":198,"target":"present","response":"present","rt":1839.7999999523,"correct":true,"confidence":5},{"trial_n":51,"min":57,"max":198,"target":"absent","response":"absent","rt":591.70000004768,"correct":true,"confidence":3},{"trial_n":52,"min":58,"max":197,"target":"absent","response":"absent","rt":708.19999992847,"correct":true,"confidence":3},{"trial_n":53,"min":58,"max":197,"target":"absent","response":"absent","rt":472.89999997616,"correct":true,"confidence":3},{"trial_n":54,"min":59,"max":196,"target":"absent","response":"absent","rt":968.30000007153,"correct":true,"confidence":1},{"trial_n":55,"min":59,"max":196,"target":"present","response":"present","rt":551.29999995232,"correct":true,"confidence":4},{"trial_n":56,"min":60,"max":195,"target":"present","response":"present","rt":828.39999997616,"correct":true,"confidence":4},{"trial_n":57,"min":60,"max":195,"target":"absent","response":"absent","rt":708.80000007153,"correct":true,"confidence":4},{"trial_n":58,"min":61,"max":194,"target":"absent","response":"absent","rt":5199.5,"correct":true,"confidence":3},{"trial_n":59,"min":61,"max":194,"target":"absent","response":"absent","rt":1504.1000000238,"correct":true,"confidence":3},{"trial_n":60,"min":62,"max":193,"target":"absent","response":"absent","rt":545.60000002384,"correct":true,"confidence":4},{"trial_n":61,"min":62,"max":193,"target":"absent","response":"present","rt":991.70000004768,"correct":false,"confidence":2},{"trial_n":62,"min":61,"max":194,"target":"present","response":"present","rt":570.19999992847,"correct":true,"confidence":2},{"trial_n":63,"min":61,"max":194,"target":"present","response":"present","rt":965,"correct":true,"confidence":3},{"trial_n":64,"min":62,"max":193,"target":"present","response":"present","rt":565.39999997616,"correct":true,"confidence":4},{"trial_n":65,"min":62,"max":193,"target":"present","response":"present","rt":456.5,"correct":true,"confidence":4},{"trial_n":66,"min":63,"max":192,"target":"absent","response":"absent","rt":478.09999990463,"correct":true,"confidence":5},{"trial_n":67,"min":63,"max":192,"target":"present","response":"present","rt":511.60000002384,"correct":true,"confidence":3},{"trial_n":68,"min":64,"max":191,"target":"absent","response":"absent","rt":621.39999997616,"correct":true,"confidence":2},{"trial_n":69,"min":64,"max":191,"target":"present","response":"present","rt":468.5,"correct":true,"confidence":3},{"trial_n":70,"min":65,"max":190,"target":"absent","response":"absent","rt":588.89999997616,"correct":true,"confidence":2},{"trial_n":71,"min":41,"max":214,"target":"present","response":"absent","rt":10010,"correct":false,"confidence":-1},{"trial_n":72,"min":41,"max":214,"target":"present","response":"present","rt":2144.5,"correct":true,"confidence":-1},{"trial_n":73,"min":41,"max":214,"target":"absent","response":"absent","rt":1944.3999999762,"correct":true,"confidence":-1},{"trial_n":74,"min":57,"max":198,"target":"absent","response":"absent","rt":462.29999995232,"correct":true,"confidence":-1},{"trial_n":75,"min":57,"max":198,"target":"present","response":"present","rt":137.80000007153,"correct":true,"confidence":-1},{"trial_n":76,"min":73,"max":182,"target":"present","response":"present","rt":39.799999952316,"correct":true,"confidence":-1},{"trial_n":77,"min":73,"max":182,"target":"absent","response":"absent","rt":112.70000004768,"correct":true,"confidence":-1},{"trial_n":78,"min":89,"max":166,"target":"present","response":"absent","rt":525.39999997616,"correct":false,"confidence":-1},{"trial_n":79,"min":73,"max":182,"target":"absent","response":"absent","rt":387.70000004768,"correct":true,"confidence":-1},{"trial_n":80,"min":73,"max":182,"target":"absent","response":"present","rt":371.39999997616,"correct":false,"confidence":-1},{"trial_n":81,"min":65,"max":190,"target":"absent","response":"absent","rt":469.70000004768,"correct":true,"confidence":-1},{"trial_n":82,"min":65,"max":190,"target":"present","response":"absent","rt":222.70000004768,"correct":false,"confidence":-1},{"trial_n":83,"min":57,"max":198,"target":"present","response":"present","rt":178.79999995232,"correct":true,"confidence":-1},{"trial_n":84,"min":57,"max":198,"target":"present","response":"present","rt":95.800000071526,"correct":true,"confidence":-1},{"trial_n":85,"min":65,"max":190,"target":"absent","response":"absent","rt":268.60000002384,"correct":true,"confidence":-1},{"trial_n":86,"min":65,"max":190,"target":"absent","response":"absent","rt":288.19999992847,"correct":true,"confidence":-1},{"trial_n":87,"min":73,"max":182,"target":"absent","response":"present","rt":318.20000004768,"correct":false,"confidence":-1},{"trial_n":88,"min":65,"max":190,"target":"absent","response":"absent","rt":373.29999995232,"correct":true,"confidence":-1},{"trial_n":89,"min":65,"max":190,"target":"absent","response":"absent","rt":244.29999995232,"correct":true,"confidence":-1},{"trial_n":90,"min":73,"max":182,"target":"present","response":"present","rt":265.09999990463,"correct":true,"confidence":-1},{"trial_n":91,"min":73,"max":182,"target":"present","response":"present","rt":364.70000004768,"correct":true,"confidence":3},{"trial_n":92,"min":77,"max":178,"target":"absent","response":"present","rt":1078,"correct":false,"confidence":1},{"trial_n":93,"min":73,"max":182,"target":"absent","response":"present","rt":770.19999992847,"correct":false,"confidence":3},{"trial_n":94,"min":69,"max":186,"target":"absent","response":"absent","rt":316.80000007153,"correct":true,"confidence":4},{"trial_n":95,"min":69,"max":186,"target":"present","response":"present","rt":900.39999997616,"correct":true,"confidence":2},{"trial_n":96,"min":73,"max":182,"target":"absent","response":"absent","rt":885.10000002384,"correct":true,"confidence":4},{"trial_n":97,"min":73,"max":182,"target":"present","response":"present","rt":690.29999995232,"correct":true,"confidence":4},{"trial_n":98,"min":77,"max":178,"target":"present","response":"present","rt":435.30000007153,"correct":true,"confidence":3},{"trial_n":99,"min":77,"max":178,"target":"present","response":"present","rt":109.29999995232,"correct":true,"confidence":3},{"trial_n":100,"min":81,"max":174,"target":"present","response":"present","rt":2384.1000000238,"correct":true,"confidence":2},{"trial_n":101,"min":81,"max":174,"target":"absent","response":"present","rt":39.900000095367,"correct":false,"confidence":2},{"trial_n":102,"min":79,"max":176,"target":"absent","response":"absent","rt":566.89999997616,"correct":true,"confidence":4},{"trial_n":103,"min":79,"max":176,"target":"absent","response":"absent","rt":376.10000002384,"correct":true,"confidence":5},{"trial_n":104,"min":81,"max":174,"target":"absent","response":"absent","rt":637.20000004768,"correct":true,"confidence":4},{"trial_n":105,"min":81,"max":174,"target":"present","response":"absent","rt":1873,"correct":false,"confidence":4},{"trial_n":106,"min":79,"max":176,"target":"absent","response":"absent","rt":717.80000007153,"correct":true,"confidence":4},{"trial_n":107,"min":79,"max":176,"target":"absent","response":"present","rt":619.59999990463,"correct":false,"confidence":3},{"trial_n":108,"min":77,"max":178,"target":"present","response":"present","rt":80,"correct":true,"confidence":3},{"trial_n":109,"min":77,"max":178,"target":"present","response":"present","rt":81.600000023842,"correct":true,"confidence":3},{"trial_n":110,"min":79,"max":176,"target":"present","response":"present","rt":120.39999997616,"correct":true,"confidence":2},{"trial_n":111,"min":79,"max":176,"target":"present","response":"present","rt":1151.2000000477,"correct":true,"confidence":4},{"trial_n":112,"min":80,"max":175,"target":"present","response":"present","rt":35.300000071526,"correct":true,"confidence":4},{"trial_n":113,"min":80,"max":175,"target":"absent","response":"present","rt":208.69999992847,"correct":false,"confidence":3},{"trial_n":114,"min":79,"max":176,"target":"present","response":"present","rt":276.20000004768,"correct":true,"confidence":3},{"trial_n":115,"min":79,"max":176,"target":"absent","response":"absent","rt":319.10000002384,"correct":true,"confidence":4},{"trial_n":116,"min":80,"max":175,"target":"present","response":"present","rt":68.199999928474,"correct":true,"confidence":2},{"trial_n":117,"min":80,"max":175,"target":"absent","response":"absent","rt":232.29999995232,"correct":true,"confidence":5},{"trial_n":118,"min":81,"max":174,"target":"absent","response":"absent","rt":1176.3999999762,"correct":true,"confidence":3},{"trial_n":119,"min":81,"max":174,"target":"absent","response":"absent","rt":848.19999992847,"correct":true,"confidence":1},{"trial_n":120,"min":82,"max":173,"target":"absent","response":"present","rt":678.89999997616,"correct":false,"confidence":1},{"trial_n":121,"min":81,"max":174,"target":"present","response":"present","rt":257.5,"correct":true,"confidence":3},{"trial_n":122,"min":81,"max":174,"target":"absent","response":"present","rt":727.60000002384,"correct":false,"confidence":2},{"trial_n":123,"min":80,"max":175,"target":"present","response":"present","rt":648.79999995232,"correct":true,"confidence":1},{"trial_n":124,"min":80,"max":175,"target":"present","response":"present","rt":189.10000002384,"correct":true,"confidence":2},{"trial_n":125,"min":81,"max":174,"target":"absent","response":"absent","rt":332.79999995232,"correct":true,"confidence":4},{"trial_n":126,"min":81,"max":174,"target":"present","response":"present","rt":242.39999997616,"correct":true,"confidence":3},{"trial_n":127,"min":82,"max":173,"target":"absent","response":"present","rt":607.80000007153,"correct":false,"confidence":2},{"trial_n":128,"min":81,"max":174,"target":"absent","response":"present","rt":147.10000002384,"correct":false,"confidence":4},{"trial_n":129,"min":80,"max":175,"target":"present","response":"present","rt":15.300000071526,"correct":true,"confidence":3},{"trial_n":130,"min":80,"max":175,"target":"absent","response":"absent","rt":556,"correct":true,"confidence":4},{"trial_n":131,"min":81,"max":174,"target":"present","response":"absent","rt":1531,"correct":false,"confidence":1},{"trial_n":132,"min":80,"max":175,"target":"absent","response":"absent","rt":254.70000004768,"correct":true,"confidence":3},{"trial_n":133,"min":80,"max":175,"target":"present","response":"absent","rt":515.09999990463,"correct":false,"confidence":2},{"trial_n":134,"min":79,"max":176,"target":"present","response":"present","rt":255.79999995232,"correct":true,"confidence":3},{"trial_n":135,"min":79,"max":176,"target":"absent","response":"present","rt":154.20000004768,"correct":false,"confidence":3},{"trial_n":136,"min":78,"max":177,"target":"present","response":"present","rt":163.69999992847,"correct":true,"confidence":3},{"trial_n":137,"min":78,"max":177,"target":"present","response":"present","rt":16.300000071526,"correct":true,"confidence":3},{"trial_n":138,"min":79,"max":176,"target":"present","response":"present","rt":18.699999928474,"correct":true,"confidence":2},{"trial_n":139,"min":79,"max":176,"target":"present","response":"absent","rt":290,"correct":false,"confidence":5},{"trial_n":140,"min":78,"max":177,"target":"present","response":"present","rt":2148.6000000238,"correct":true,"confidence":4}]