[{"trial_n":1,"min":25,"max":230,"target":"present","response":"present","rt":6651.400000006,"correct":true,"confidence":-1},{"trial_n":2,"min":25,"max":230,"target":"present","response":"present","rt":1314.900000006,"correct":true,"confidence":-1},{"trial_n":3,"min":41,"max":214,"target":"absent","response":"present","rt":831.20000000298,"correct":false,"confidence":-1},{"trial_n":4,"min":25,"max":230,"target":"absent","response":"absent","rt":1225,"correct":true,"confidence":-1},{"trial_n":5,"min":25,"max":230,"target":"present","response":"present","rt":1123.799999997,"correct":true,"confidence":-1},{"trial_n":6,"min":41,"max":214,"target":"absent","response":"present","rt":2378.3999999911,"correct":false,"confidence":-1},{"trial_n":7,"min":25,"max":230,"target":"absent","response":"present","rt":4464.200000003,"correct":false,"confidence":-1},{"trial_n":8,"min":9,"max":246,"target":"present","response":"present","rt":662.90000000596,"correct":true,"confidence":-1},{"trial_n":9,"min":9,"max":246,"target":"absent","response":"absent","rt":260.79999999702,"correct":true,"confidence":-1},{"trial_n":10,"min":25,"max":230,"target":"absent","response":"absent","rt":207.69999998808,"correct":true,"confidence":-1},{"trial_n":11,"min":25,"max":230,"target":"absent","response":"absent","rt":221.90000000596,"correct":true,"confidence":-1},{"trial_n":12,"min":33,"max":222,"target":"present","response":"present","rt":235.70000000298,"correct":true,"confidence":-1},{"trial_n":13,"min":33,"max":222,"target":"absent","response":"absent","rt":492.90000000596,"correct":true,"confidence":-1},{"trial_n":14,"min":41,"max":214,"target":"present","response":"present","rt":291.10000000894,"correct":true,"confidence":-1},{"trial_n":15,"min":41,"max":214,"target":"present","response":"present","rt":243.5,"correct":true,"confidence":-1},{"trial_n":16,"min":49,"max":206,"target":"present","response":"present","rt":266.19999998808,"correct":true,"confidence":-1},{"trial_n":17,"min":49,"max":206,"target":"absent","response":"absent","rt":279.39999999106,"correct":true,"confidence":-1},{"trial_n":18,"min":57,"max":198,"target":"present","response":"present","rt":838.20000000298,"correct":true,"confidence":-1},{"trial_n":19,"min":57,"max":198,"target":"absent","response":"absent","rt":212.59999999404,"correct":true,"confidence":-1},{"trial_n":20,"min":65,"max":190,"target":"present","response":"present","rt":204.20000000298,"correct":true,"confidence":-1},{"trial_n":21,"min":65,"max":190,"target":"absent","response":"absent","rt":511.70000000298,"correct":true,"confidence":3},{"trial_n":22,"min":69,"max":186,"target":"absent","response":"absent","rt":1064.6999999881,"correct":true,"confidence":3},{"trial_n":23,"min":69,"max":186,"target":"present","response":"present","rt":965.29999999702,"correct":true,"confidence":4},{"trial_n":24,"min":73,"max":182,"target":"absent","response":"absent","rt":1004.6999999881,"correct":true,"confidence":3},{"trial_n":25,"min":73,"max":182,"target":"present","response":"absent","rt":1234.700000003,"correct":false,"confidence":3},{"trial_n":26,"min":69,"max":186,"target":"present","response":"present","rt":940.5,"correct":true,"confidence":3},{"trial_n":27,"min":69,"max":186,"target":"absent","response":"absent","rt":1129.400000006,"correct":true,"confidence":3},{"trial_n":28,"min":73,"max":182,"target":"absent","response":"absent","rt":1081.299999997,"correct":true,"confidence":3},{"trial_n":29,"min":73,"max":182,"target":"present","response":"present","rt":905.79999999702,"correct":true,"confidence":3},{"trial_n":30,"min":77,"max":178,"target":"present","response":"absent","rt":2353.400000006,"correct":false,"confidence":3},{"trial_n":31,"min":75,"max":180,"target":"absent","response":"absent","rt":1601.1999999881,"correct":true,"confidence":3},{"trial_n":32,"min":75,"max":180,"target":"present","response":"absent","rt":2796.6999999881,"correct":false,"confidence":4},{"trial_n":33,"min":73,"max":182,"target":"present","response":"absent","rt":876.5,"correct":false,"confidence":4},{"trial_n":34,"min":71,"max":184,"target":"absent","response":"absent","rt":941.70000000298,"correct":true,"confidence":4},{"trial_n":35,"min":71,"max":184,"target":"present","response":"absent","rt":1031.299999997,"correct":false,"confidence":3},{"trial_n":36,"min":69,"max":186,"target":"present","response":"absent","rt":1163.6999999881,"correct":false,"confidence":3},{"trial_n":37,"min":67,"max":188,"target":"absent","response":"absent","rt":1454.3999999911,"correct":true,"confidence":3},{"trial_n":38,"min":67,"max":188,"target":"present","response":"present","rt":1072.799999997,"correct":true,"confidence":3},{"trial_n":39,"min":69,"max":186,"target":"absent","response":"absent","rt":1023.3999999911,"correct":true,"confidence":3},{"trial_n":40,"min":69,"max":186,"target":"present","response":"present","rt":855.10000000894,"correct":true,"confidence":3},{"trial_n":41,"min":70,"max":185,"target":"absent","response":"absent","rt":1060.6999999881,"correct":true,"confidence":3},{"trial_n":42,"min":70,"max":185,"target":"absent","response":"absent","rt":994.40000000596,"correct":true,"confidence":3},{"trial_n":43,"min":71,"max":184,"target":"absent","response":"present","rt":1091.5,"correct":false,"confidence":3},{"trial_n":44,"min":70,"max":185,"target":"absent","response":"absent","rt":1561.900000006,"correct":true,"confidence":3},{"trial_n":45,"min":70,"max":185,"target":"absent","response":"present","rt":1122,"correct":false,"confidence":3},{"trial_n":46,"min":69,"max":186,"target":"present","response":"present","rt":972.09999999404,"correct":true,"confidence":3},{"trial_n":47,"min":69,"max":186,"target":"present","response":"present","rt":1103.900000006,"correct":true,"confidence":3},{"trial_n":48,"min":70,"max":185,"target":"present","response":"present","rt":1009.5,"correct":true,"confidence":3},{"trial_n":49,"min":70,"max":185,"target":"absent","response":"absent","rt":1402.299999997,"correct":true,"confidence":3},{"trial_n":50,"min":71,"max":184,"target":"present","response":"present","rt":1703.8999999911,"correct":true,"confidence":3},{"trial_n":51,"min":71,"max":184,"target":"present","response":"present","rt":998.70000000298,"correct":true,"confidence":3},{"trial_n":52,"min":72,"max":183,"target":"present","response":"absent","rt":1260.700000003,"correct":false,"confidence":3},{"trial_n":53,"min":71,"max":184,"target":"absent","response":"absent","rt":1254.5,"correct":true,"confidence":3},{"trial_n":54,"min":71,"max":184,"target":"present","response":"present","rt":1010.599999994,"correct":true,"confidence":3},{"trial_n":55,"min":72,"max":183,"target":"present","response":"present","rt":1041.700000003,"correct":true,"confidence":3},{"trial_n":56,"min":72,"max":183,"target":"present","response":"present","rt":994,"correct":true,"confidence":3},{"trial_n":57,"min":73,"max":182,"target":"absent","response":"absent","rt":1039.5,"correct":true,"confidence":3},{"trial_n":58,"min":73,"max":182,"target":"absent","response":"absent","rt":1414.1000000089,"correct":true,"confidence":3},{"trial_n":59,"min":74,"max":181,"target":"absent","response":"absent","rt":1897.799999997,"correct":true,"confidence":3},{"trial_n":60,"min":74,"max":181,"target":"absent","response":"absent","rt":1423,"correct":true,"confidence":3},{"trial_n":61,"min":75,"max":180,"target":"absent","response":"absent","rt":927.10000000894,"correct":true,"confidence":3},{"trial_n":62,"min":75,"max":180,"target":"absent","response":"absent","rt":964.69999998808,"correct":true,"confidence":3},{"trial_n":63,"min":76,"max":179,"target":"absent","response":"absent","rt":953.20000000298,"correct":true,"confidence":3},{"trial_n":64,"min":76,"max":179,"target":"present","response":"present","rt":1289.900000006,"correct":true,"confidence":3},{"trial_n":65,"min":77,"max":178,"target":"present","response":"present","rt":1045.400000006,"correct":true,"confidence":3},{"trial_n":66,"min":77,"max":178,"target":"present","response":"present","rt":1289.299999997,"correct":true,"confidence":3},{"trial_n":67,"min":78,"max":177,"target":"present","response":"present","rt":1009.8000000119,"correct":true,"confidence":3},{"trial_n":68,"min":78,"max":177,"target":"absent","response":"absent","rt":973.39999999106,"correct":true,"confidence":3},{"trial_n":69,"min":79,"max":176,"target":"present","response":"absent","rt":1701,"correct":false,"confidence":3},{"trial_n":70,"min":78,"max":177,"target":"present","response":"present","rt":1036.5,"correct":true,"confidence":3},{"trial_n":71,"min":41,"max":214,"target":"present","response":"present","rt":2732.599999994,"correct":true,"confidence":-1},{"trial_n":72,"min":41,"max":214,"target":"present","response":"present","rt":554,"correct":true,"confidence":-1},{"trial_n":73,"min":57,"max":198,"target":"absent","response":"absent","rt":988.20000000298,"correct":true,"confidence":-1},{"trial_n":74,"min":57,"max":198,"target":"absent","response":"absent","rt":1159.900000006,"correct":true,"confidence":-1},{"trial_n":75,"min":73,"max":182,"target":"present","response":"present","rt":857.90000000596,"correct":true,"confidence":-1},{"trial_n":76,"min":73,"max":182,"target":"present","response":"present","rt":636.20000000298,"correct":true,"confidence":-1},{"trial_n":77,"min":89,"max":166,"target":"present","response":"absent","rt":1383.5,"correct":false,"confidence":-1},{"trial_n":78,"min":73,"max":182,"target":"present","response":"present","rt":1340.799999997,"correct":true,"confidence":-1},{"trial_n":79,"min":73,"max":182,"target":"present","response":"present","rt":710.20000000298,"correct":true,"confidence":-1},{"trial_n":80,"min":89,"max":166,"target":"present","response":"present","rt":1804.099999994,"correct":true,"confidence":-1},{"trial_n":81,"min":89,"max":166,"target":"absent","response":"present","rt":2001.400000006,"correct":false,"confidence":-1},{"trial_n":82,"min":81,"max":174,"target":"present","response":"present","rt":708.30000001192,"correct":true,"confidence":-1},{"trial_n":83,"min":81,"max":174,"target":"present","response":"present","rt":788.90000000596,"correct":true,"confidence":-1},{"trial_n":84,"min":89,"max":166,"target":"present","response":"present","rt":522.79999999702,"correct":true,"confidence":-1},{"trial_n":85,"min":89,"max":166,"target":"present","response":"present","rt":1624.1000000089,"correct":true,"confidence":-1},{"trial_n":86,"min":97,"max":158,"target":"absent","response":"present","rt":1470.6999999881,"correct":false,"confidence":-1},{"trial_n":87,"min":89,"max":166,"target":"absent","response":"absent","rt":1084.5,"correct":true,"confidence":-1},{"trial_n":88,"min":89,"max":166,"target":"absent","response":"absent","rt":1724.400000006,"correct":true,"confidence":-1},{"trial_n":89,"min":97,"max":158,"target":"present","response":"present","rt":936.70000000298,"correct":true,"confidence":-1},{"trial_n":90,"min":97,"max":158,"target":"absent","response":"present","rt":853.59999999404,"correct":false,"confidence":-1},{"trial_n":91,"min":93,"max":162,"target":"present","response":"present","rt":807.70000000298,"correct":true,"confidence":3},{"trial_n":92,"min":93,"max":162,"target":"absent","response":"present","rt":1013.799999997,"correct":false,"confidence":3},{"trial_n":93,"min":89,"max":166,"target":"present","response":"present","rt":1920.900000006,"correct":true,"confidence":3},{"trial_n":94,"min":89,"max":166,"target":"absent","response":"present","rt":1119.099999994,"correct":false,"confidence":3},{"trial_n":95,"min":85,"max":170,"target":"absent","response":"present","rt":934.89999999106,"correct":false,"confidence":3},{"trial_n":96,"min":81,"max":174,"target":"present","response":"present","rt":969.79999999702,"correct":true,"confidence":3},{"trial_n":97,"min":81,"max":174,"target":"present","response":"present","rt":1133.299999997,"correct":true,"confidence":3},{"trial_n":98,"min":85,"max":170,"target":"absent","response":"absent","rt":1523.6000000089,"correct":true,"confidence":3},{"trial_n":99,"min":85,"max":170,"target":"present","response":"present","rt":1421,"correct":true,"confidence":3},{"trial_n":100,"min":89,"max":166,"target":"absent","response":"present","rt":1190,"correct":false,"confidence":3},{"trial_n":101,"min":87,"max":168,"target":"absent","response":"present","rt":1398.6000000089,"correct":false,"confidence":3},{"trial_n":102,"min":85,"max":170,"target":"absent","response":"present","rt":1030.599999994,"correct":false,"confidence":3},{"trial_n":103,"min":83,"max":172,"target":"present","response":"present","rt":1204.799999997,"correct":true,"confidence":3},{"trial_n":104,"min":83,"max":172,"target":"present","response":"present","rt":1408.3999999911,"correct":true,"confidence":3},{"trial_n":105,"min":85,"max":170,"target":"present","response":"present","rt":3161.700000003,"correct":true,"confidence":3},{"trial_n":106,"min":85,"max":170,"target":"present","response":"present","rt":1331.3999999911,"correct":true,"confidence":3},{"trial_n":107,"min":87,"max":168,"target":"absent","response":"present","rt":1243.799999997,"correct":false,"confidence":3},{"trial_n":108,"min":85,"max":170,"target":"present","response":"present","rt":1063.599999994,"correct":true,"confidence":3},{"trial_n":109,"min":85,"max":170,"target":"absent","response":"present","rt":1375.8000000119,"correct":false,"confidence":3},{"trial_n":110,"min":83,"max":172,"target":"present","response":"present","rt":1848,"correct":true,"confidence":3},{"trial_n":111,"min":83,"max":172,"target":"absent","response":"present","rt":1695.299999997,"correct":false,"confidence":3},{"trial_n":112,"min":82,"max":173,"target":"absent","response":"present","rt":1267.200000003,"correct":false,"confidence":3},{"trial_n":113,"min":81,"max":174,"target":"present","response":"present","rt":970.09999999404,"correct":true,"confidence":4},{"trial_n":114,"min":81,"max":174,"target":"present","response":"present","rt":1089.1999999881,"correct":true,"confidence":3},{"trial_n":115,"min":82,"max":173,"target":"present","response":"present","rt":1028.8999999911,"correct":true,"confidence":3},{"trial_n":116,"min":82,"max":173,"target":"present","response":"present","rt":1052.700000003,"correct":true,"confidence":3},{"trial_n":117,"min":83,"max":172,"target":"absent","response":"present","rt":1487.400000006,"correct":false,"confidence":3},{"trial_n":118,"min":82,"max":173,"target":"absent","response":"present","rt":1061,"correct":false,"confidence":3},{"trial_n":119,"min":81,"max":174,"target":"present","response":"present","rt":1019.299999997,"correct":true,"confidence":3},{"trial_n":120,"min":81,"max":174,"target":"present","response":"present","rt":1224.900000006,"correct":true,"confidence":3},{"trial_n":121,"min":82,"max":173,"target":"present","response":"present","rt":987.40000000596,"correct":true,"confidence":3},{"trial_n":122,"min":82,"max":173,"target":"absent","response":"present","rt":1683.900000006,"correct":false,"confidence":3},{"trial_n":123,"min":81,"max":174,"target":"absent","response":"present","rt":1103.099999994,"correct":false,"confidence":3},{"trial_n":124,"min":80,"max":175,"target":"absent","response":"absent","rt":1671,"correct":true,"confidence":3},{"trial_n":125,"min":80,"max":175,"target":"absent","response":"present","rt":4643.8000000119,"correct":false,"confidence":1},{"trial_n":126,"min":79,"max":176,"target":"absent","response":"absent","rt":1875.6000000089,"correct":true,"confidence":2},{"trial_n":127,"min":79,"max":176,"target":"absent","response":"present","rt":982,"correct":false,"confidence":3},{"trial_n":128,"min":78,"max":177,"target":"present","response":"present","rt":1680,"correct":true,"confidence":1},{"trial_n":129,"min":78,"max":177,"target":"present","response":"present","rt":1344.700000003,"correct":true,"confidence":4},{"trial_n":130,"min":79,"max":176,"target":"absent","response":"present","rt":904.39999999106,"correct":false,"confidence":3},{"trial_n":131,"min":78,"max":177,"target":"absent","response":"absent","rt":1454,"correct":true,"confidence":3},{"trial_n":132,"min":78,"max":177,"target":"absent","response":"absent","rt":1274.900000006,"correct":true,"confidence":3},{"trial_n":133,"min":79,"max":176,"target":"absent","response":"absent","rt":1536.6000000089,"correct":true,"confidence":3},{"trial_n":134,"min":79,"max":176,"target":"absent","response":"present","rt":1162.5,"correct":false,"confidence":3},{"trial_n":135,"min":78,"max":177,"target":"present","response":"present","rt":991.29999999702,"correct":true,"confidence":3},{"trial_n":136,"min":78,"max":177,"target":"absent","response":"present","rt":1133.5,"correct":false,"confidence":3},{"trial_n":137,"min":77,"max":178,"target":"present","response":"present","rt":1072.5,"correct":true,"confidence":3},{"trial_n":138,"min":77,"max":178,"target":"absent","response":"present","rt":1139.5,"correct":false,"confidence":3},{"trial_n":139,"min":76,"max":179,"target":"present","response":"present","rt":937,"correct":true,"confidence":3},{"trial_n":140,"min":76,"max":179,"target":"absent","response":"present","rt":921.89999999106,"correct":false,"confidence":3}]