[{"trial_n":1,"span":8,"encoder":"87217695","distractor":"87217693","target":"present","response":"present","rt":"7489.299999997","correct":true,"confidence":-1},{"trial_n":2,"span":8,"encoder":"56099074","distractor":"54099074","target":"present","response":"present","rt":"4384","correct":true,"confidence":-1},{"trial_n":3,"span":10,"encoder":"3392538568","distractor":"3392578568","target":"absent","response":"present","rt":"3379.3999999911","correct":false,"confidence":-1},{"trial_n":4,"span":8,"encoder":"92462322","distractor":"92465322","target":"absent","response":"absent","rt":"2259.799999997","correct":true,"confidence":-1},{"trial_n":5,"span":8,"encoder":"78857623","distractor":"78657623","target":"present","response":"present","rt":"3726","correct":true,"confidence":-1},{"trial_n":6,"span":10,"encoder":"0964179822","distractor":"0964179802","target":"present","response":"present","rt":"4573.700000003","correct":true,"confidence":-1},{"trial_n":7,"span":10,"encoder":"4112897867","distractor":"4112896867","target":"absent","response":"present","rt":"2380.8999999911","correct":false,"confidence":-1},{"trial_n":8,"span":8,"encoder":"55898477","distractor":"55898177","target":"present","response":"present","rt":"1777.900000006","correct":true,"confidence":-1},{"trial_n":9,"span":8,"encoder":"12236894","distractor":"72236894","target":"present","response":"present","rt":"1991.3000000119","correct":true,"confidence":-1},{"trial_n":10,"span":10,"encoder":"4061586130","distractor":"4061386130","target":"absent","response":"present","rt":"3305.1999999881","correct":false,"confidence":-1},{"trial_n":11,"span":8,"encoder":"38002506","distractor":"68002506","target":"absent","response":"present","rt":"2205.200000003","correct":false,"confidence":-1},{"trial_n":12,"span":7,"encoder":"4419107","distractor":"4719107","target":"present","response":"present","rt":"1885.299999997","correct":true,"confidence":-1},{"trial_n":13,"span":7,"encoder":"4625685","distractor":"5625685","target":"present","response":"present","rt":"1757.400000006","correct":true,"confidence":-1},{"trial_n":14,"span":8,"encoder":"90068451","distractor":"90068851","target":"absent","response":"absent","rt":"1625.200000003","correct":true,"confidence":-1},{"trial_n":15,"span":8,"encoder":"23925216","distractor":"73925216","target":"present","response":"absent","rt":"2028.400000006","correct":false,"confidence":-1},{"trial_n":16,"span":7,"encoder":"4887432","distractor":"4885432","target":"present","response":"present","rt":"2262.3000000119","correct":true,"confidence":-1},{"trial_n":17,"span":7,"encoder":"7209849","distractor":"7229849","target":"present","response":"present","rt":"1401.5","correct":true,"confidence":-1},{"trial_n":18,"span":8,"encoder":"98319259","distractor":"98419259","target":"present","response":"present","rt":"3605.8999999911","correct":true,"confidence":-1},{"trial_n":19,"span":8,"encoder":"48120919","distractor":"48120917","target":"absent","response":"absent","rt":"1618.5","correct":true,"confidence":-1},{"trial_n":20,"span":9,"encoder":"607091362","distractor":"107091362","target":"present","response":"present","rt":"1895.200000003","correct":true,"confidence":-1},{"trial_n":21,"span":9,"encoder":"374521115","distractor":"374921115","target":"absent","response":"present","rt":"3162.700000003","correct":false,"confidence":2},{"trial_n":22,"span":8,"encoder":"82331639","distractor":"72331639","target":"present","response":"present","rt":"4437.3999999911","correct":true,"confidence":4},{"trial_n":23,"span":8,"encoder":"10539233","distractor":"10539263","target":"present","response":"present","rt":"3192.400000006","correct":true,"confidence":3},{"trial_n":24,"span":9,"encoder":"940861367","distractor":"940861377","target":"present","response":"present","rt":"2179.3999999911","correct":true,"confidence":3},{"trial_n":25,"span":9,"encoder":"068627789","distractor":"067627789","target":"present","response":"absent","rt":"2843.5","correct":false,"confidence":1},{"trial_n":26,"span":8,"encoder":"10258870","distractor":"10257870","target":"absent","response":"absent","rt":"6664.8000000119","correct":true,"confidence":1},{"trial_n":27,"span":8,"encoder":"68150584","distractor":"68154584","target":"absent","response":"absent","rt":"5789","correct":true,"confidence":1},{"trial_n":28,"span":9,"encoder":"949550323","distractor":"989550323","target":"absent","response":"present","rt":"1810.5","correct":false,"confidence":3},{"trial_n":29,"span":8,"encoder":"00021685","distractor":"00021785","target":"absent","response":"absent","rt":"3493.599999994","correct":true,"confidence":3},{"trial_n":30,"span":8,"encoder":"14618357","distractor":"14618157","target":"present","response":"present","rt":"2810.299999997","correct":true,"confidence":3},{"trial_n":31,"span":9,"encoder":"394542529","distractor":"194542529","target":"present","response":"present","rt":"1898.299999997","correct":true,"confidence":3},{"trial_n":32,"span":9,"encoder":"784998361","distractor":"784098361","target":"absent","response":"present","rt":"28445.299999997","correct":false,"confidence":2},{"trial_n":33,"span":8,"encoder":"05882298","distractor":"05882798","target":"absent","response":"absent","rt":"3690.700000003","correct":true,"confidence":2},{"trial_n":34,"span":8,"encoder":"46225898","distractor":"46225808","target":"absent","response":"present","rt":"3894","correct":false,"confidence":3},{"trial_n":35,"span":7,"encoder":"0304529","distractor":"4304529","target":"present","response":"present","rt":"2917.1000000089","correct":true,"confidence":2},{"trial_n":36,"span":7,"encoder":"0650508","distractor":"0650505","target":"present","response":"present","rt":"1890.1000000089","correct":true,"confidence":3},{"trial_n":37,"span":8,"encoder":"34311760","distractor":"24311760","target":"present","response":"absent","rt":"4807.1999999881","correct":false,"confidence":1},{"trial_n":38,"span":7,"encoder":"0949789","distractor":"0949782","target":"absent","response":"present","rt":"2135","correct":false,"confidence":3},{"trial_n":39,"span":6,"encoder":"899724","distractor":"299724","target":"absent","response":"present","rt":"2172.1999999881","correct":false,"confidence":3},{"trial_n":40,"span":5,"encoder":"28841","distractor":"28871","target":"absent","response":"absent","rt":"2243.3000000119","correct":true,"confidence":3},{"trial_n":41,"span":5,"encoder":"66865","distractor":"65865","target":"absent","response":"absent","rt":"2871","correct":true,"confidence":1},{"trial_n":42,"span":6,"encoder":"310577","distractor":"810577","target":"present","response":"present","rt":"1521.5","correct":true,"confidence":3},{"trial_n":43,"span":6,"encoder":"161730","distractor":"169730","target":"absent","response":"absent","rt":"2327.700000003","correct":true,"confidence":3},{"trial_n":44,"span":7,"encoder":"5510697","distractor":"5510687","target":"present","response":"present","rt":"2220.6999999881","correct":true,"confidence":2},{"trial_n":45,"span":7,"encoder":"9012479","distractor":"9012474","target":"present","response":"present","rt":"1659.400000006","correct":true,"confidence":3},{"trial_n":46,"span":8,"encoder":"70918548","distractor":"70918248","target":"absent","response":"present","rt":"2657.900000006","correct":false,"confidence":3},{"trial_n":47,"span":7,"encoder":"7494392","distractor":"7494312","target":"present","response":"present","rt":"1344.6999999881","correct":true,"confidence":3},{"trial_n":48,"span":7,"encoder":"9383036","distractor":"9383336","target":"absent","response":"absent","rt":"2020.1000000089","correct":true,"confidence":3},{"trial_n":49,"span":8,"encoder":"99086901","distractor":"99087901","target":"absent","response":"present","rt":"1391.799999997","correct":false,"confidence":2},{"trial_n":50,"span":7,"encoder":"0227334","distractor":"0627334","target":"present","response":"present","rt":"1678.1000000089","correct":true,"confidence":3},{"trial_n":51,"span":7,"encoder":"3536200","distractor":"3536201","target":"absent","response":"present","rt":"2025.8000000119","correct":false,"confidence":2},{"trial_n":52,"span":6,"encoder":"368122","distractor":"368125","target":"present","response":"present","rt":"3045.3999999911","correct":true,"confidence":3},{"trial_n":53,"span":6,"encoder":"216948","distractor":"218948","target":"present","response":"present","rt":"2303.900000006","correct":true,"confidence":2},{"trial_n":54,"span":7,"encoder":"5158911","distractor":"5058911","target":"present","response":"present","rt":"1945.700000003","correct":true,"confidence":2},{"trial_n":55,"span":7,"encoder":"6444257","distractor":"6944257","target":"absent","response":"present","rt":"2787.799999997","correct":false,"confidence":3},{"trial_n":56,"span":6,"encoder":"617024","distractor":"612024","target":"present","response":"present","rt":"6654.5","correct":true,"confidence":3},{"trial_n":57,"span":6,"encoder":"410237","distractor":"310237","target":"present","response":"present","rt":"6124.3999999911","correct":true,"confidence":2},{"trial_n":58,"span":7,"encoder":"6444922","distractor":"6434922","target":"absent","response":"present","rt":"2927.900000006","correct":false,"confidence":3},{"trial_n":59,"span":6,"encoder":"104179","distractor":"108179","target":"present","response":"present","rt":"2227.700000003","correct":true,"confidence":3},{"trial_n":60,"span":6,"encoder":"629759","distractor":"622759","target":"present","response":"present","rt":"1560.8999999911","correct":true,"confidence":3},{"trial_n":61,"span":7,"encoder":"0344292","distractor":"0344262","target":"absent","response":"absent","rt":"2479.299999997","correct":true,"confidence":1},{"trial_n":62,"span":7,"encoder":"1168326","distractor":"1168328","target":"absent","response":"absent","rt":"1942.6999999881","correct":true,"confidence":1},{"trial_n":63,"span":8,"encoder":"28761185","distractor":"28761155","target":"absent","response":"absent","rt":"4467.900000006","correct":true,"confidence":1},{"trial_n":64,"span":8,"encoder":"74697077","distractor":"74997077","target":"absent","response":"present","rt":"4416.400000006","correct":false,"confidence":2},{"trial_n":65,"span":7,"encoder":"9337250","distractor":"9337850","target":"absent","response":"present","rt":"2693.6999999881","correct":false,"confidence":3},{"trial_n":66,"span":6,"encoder":"830204","distractor":"830804","target":"absent","response":"present","rt":"2416.1000000089","correct":false,"confidence":3},{"trial_n":67,"span":5,"encoder":"96888","distractor":"96188","target":"present","response":"present","rt":"2319.299999997","correct":true,"confidence":3},{"trial_n":68,"span":5,"encoder":"29638","distractor":"29632","target":"absent","response":"absent","rt":"4324.400000006","correct":true,"confidence":1},{"trial_n":69,"span":6,"encoder":"501768","distractor":"501788","target":"absent","response":"present","rt":"2790.599999994","correct":false,"confidence":1},{"trial_n":70,"span":5,"encoder":"79620","distractor":"79220","target":"present","response":"present","rt":"1909.200000003","correct":true,"confidence":3},{"trial_n":71,"span":8,"encoder":"09374576","distractor":"09370576","target":"present","response":"present","rt":"3951.400000006","correct":true,"confidence":-1},{"trial_n":72,"span":8,"encoder":"57820495","distractor":"57820496","target":"present","response":"present","rt":"1907.299999997","correct":true,"confidence":-1},{"trial_n":73,"span":9,"encoder":"247150236","distractor":"247154236","target":"absent","response":"present","rt":"5386.400000006","correct":false,"confidence":-1},{"trial_n":74,"span":8,"encoder":"20749766","distractor":"23749766","target":"absent","response":"absent","rt":"1376.900000006","correct":true,"confidence":-1},{"trial_n":75,"span":8,"encoder":"11082692","distractor":"51082692","target":"present","response":"present","rt":"3877","correct":true,"confidence":-1},{"trial_n":76,"span":9,"encoder":"230382110","distractor":"030382110","target":"absent","response":"absent","rt":"5287.799999997","correct":true,"confidence":-1},{"trial_n":77,"span":9,"encoder":"793407612","distractor":"793402612","target":"present","response":"absent","rt":"3499.700000003","correct":false,"confidence":-1},{"trial_n":78,"span":8,"encoder":"90806588","distractor":"90606588","target":"present","response":"present","rt":"4771.200000003","correct":true,"confidence":-1},{"trial_n":79,"span":8,"encoder":"04211720","distractor":"04210720","target":"present","response":"present","rt":"3996.5","correct":true,"confidence":-1},{"trial_n":80,"span":9,"encoder":"875387139","distractor":"975387139","target":"absent","response":"absent","rt":"2368.299999997","correct":true,"confidence":-1},{"trial_n":81,"span":9,"encoder":"073287575","distractor":"073387575","target":"present","response":"absent","rt":"2825.200000003","correct":false,"confidence":-1},{"trial_n":82,"span":8,"encoder":"20377900","distractor":"20377904","target":"absent","response":"absent","rt":"1912.200000003","correct":true,"confidence":-1},{"trial_n":83,"span":8,"encoder":"08141616","distractor":"08141216","target":"absent","response":"absent","rt":"2258.5","correct":true,"confidence":-1},{"trial_n":84,"span":9,"encoder":"996890209","distractor":"996890202","target":"present","response":"present","rt":"2927.700000003","correct":true,"confidence":-1},{"trial_n":85,"span":9,"encoder":"385269740","distractor":"385259740","target":"present","response":"absent","rt":"3649.1000000089","correct":false,"confidence":-1},{"trial_n":86,"span":8,"encoder":"18773699","distractor":"18713699","target":"present","response":"present","rt":"1551.299999997","correct":true,"confidence":-1},{"trial_n":87,"span":8,"encoder":"39667132","distractor":"59667132","target":"present","response":"present","rt":"1460.5","correct":true,"confidence":-1},{"trial_n":88,"span":9,"encoder":"016641381","distractor":"016646381","target":"present","response":"present","rt":"4955.5","correct":true,"confidence":-1},{"trial_n":89,"span":9,"encoder":"321392140","distractor":"321390140","target":"absent","response":"absent","rt":"1564.8999999911","correct":true,"confidence":-1},{"trial_n":90,"span":10,"encoder":"6205675436","distractor":"6203675436","target":"present","response":"absent","rt":"1559","correct":false,"confidence":-1},{"trial_n":91,"span":9,"encoder":"391009795","distractor":"391009796","target":"present","response":"present","rt":"2563.8999999911","correct":true,"confidence":3},{"trial_n":92,"span":9,"encoder":"000283031","distractor":"000287031","target":"absent","response":"absent","rt":"2218.799999997","correct":true,"confidence":3},{"trial_n":93,"span":10,"encoder":"3891863035","distractor":"3897863035","target":"present","response":"present","rt":"2648.200000003","correct":true,"confidence":1},{"trial_n":94,"span":10,"encoder":"1017627348","distractor":"1014627348","target":"absent","response":"absent","rt":"4436.400000006","correct":true,"confidence":1},{"trial_n":95,"span":11,"encoder":"73411293113","distractor":"73411293513","target":"present","response":"present","rt":"1770.700000003","correct":true,"confidence":1},{"trial_n":96,"span":11,"encoder":"45174242267","distractor":"45174342267","target":"absent","response":"present","rt":"1908.799999997","correct":false,"confidence":2},{"trial_n":97,"span":10,"encoder":"2827684916","distractor":"2837684916","target":"present","response":"present","rt":"3401.599999994","correct":true,"confidence":3},{"trial_n":98,"span":10,"encoder":"8861459498","distractor":"8811459498","target":"absent","response":"absent","rt":"1706.1000000089","correct":true,"confidence":1},{"trial_n":99,"span":11,"encoder":"61485772243","distractor":"61485772043","target":"present","response":"absent","rt":"1052.3000000119","correct":false,"confidence":3},{"trial_n":100,"span":10,"encoder":"4402431692","distractor":"7402431692","target":"present","response":"present","rt":"1620","correct":true,"confidence":1},{"trial_n":101,"span":10,"encoder":"6324995327","distractor":"6321995327","target":"absent","response":"present","rt":"1212.5","correct":false,"confidence":1},{"trial_n":102,"span":9,"encoder":"357885606","distractor":"347885606","target":"absent","response":"absent","rt":"5572","correct":true,"confidence":1},{"trial_n":103,"span":9,"encoder":"557762554","distractor":"557742554","target":"absent","response":"present","rt":"1097.8000000119","correct":false,"confidence":1},{"trial_n":104,"span":8,"encoder":"07427225","distractor":"77427225","target":"present","response":"present","rt":"1205","correct":true,"confidence":1},{"trial_n":105,"span":8,"encoder":"73574829","distractor":"73572829","target":"present","response":"present","rt":"1447.1000000089","correct":true,"confidence":1},{"trial_n":106,"span":9,"encoder":"189388193","distractor":"189378193","target":"absent","response":"present","rt":"1934.299999997","correct":false,"confidence":1},{"trial_n":107,"span":8,"encoder":"81967086","distractor":"81967088","target":"present","response":"present","rt":"1606.700000003","correct":true,"confidence":1},{"trial_n":108,"span":8,"encoder":"97261089","distractor":"67261089","target":"present","response":"absent","rt":"1425.599999994","correct":false,"confidence":1},{"trial_n":109,"span":7,"encoder":"6887532","distractor":"4887532","target":"absent","response":"absent","rt":"4500.599999994","correct":true,"confidence":1},{"trial_n":110,"span":7,"encoder":"7456965","distractor":"2456965","target":"absent","response":"absent","rt":"6359.700000003","correct":true,"confidence":1},{"trial_n":111,"span":8,"encoder":"18064416","distractor":"18064412","target":"present","response":"absent","rt":"3089.599999994","correct":false,"confidence":1},{"trial_n":112,"span":7,"encoder":"4774494","distractor":"4775494","target":"present","response":"absent","rt":"4376.900000006","correct":false,"confidence":1},{"trial_n":113,"span":6,"encoder":"381588","distractor":"381548","target":"absent","response":"absent","rt":"1940.700000003","correct":true,"confidence":1},{"trial_n":114,"span":6,"encoder":"945940","distractor":"975940","target":"absent","response":"present","rt":"4128","correct":false,"confidence":1},{"trial_n":115,"span":5,"encoder":"33527","distractor":"83527","target":"absent","response":"absent","rt":"2053.599999994","correct":true,"confidence":1},{"trial_n":116,"span":5,"encoder":"19651","distractor":"49651","target":"present","response":"absent","rt":"4986.6000000089","correct":false,"confidence":1},{"trial_n":117,"span":4,"encoder":"5275","distractor":"8275","target":"absent","response":"absent","rt":"3710.299999997","correct":true,"confidence":3},{"trial_n":118,"span":4,"encoder":"8727","distractor":"8227","target":"absent","response":"absent","rt":"2089.5","correct":true,"confidence":1},{"trial_n":119,"span":5,"encoder":"18867","distractor":"18667","target":"absent","response":"absent","rt":"2851.200000003","correct":true,"confidence":3},{"trial_n":120,"span":5,"encoder":"80671","distractor":"80677","target":"absent","response":"absent","rt":"5052.099999994","correct":true,"confidence":1},{"trial_n":121,"span":6,"encoder":"821130","distractor":"841130","target":"present","response":"present","rt":"1532.8999999911","correct":true,"confidence":3},{"trial_n":122,"span":6,"encoder":"959174","distractor":"959173","target":"absent","response":"absent","rt":"1637.700000003","correct":true,"confidence":3},{"trial_n":123,"span":7,"encoder":"6818147","distractor":"6828147","target":"absent","response":"absent","rt":"2001.799999997","correct":true,"confidence":3},{"trial_n":124,"span":7,"encoder":"0353967","distractor":"0358967","target":"absent","response":"present","rt":"2704.6999999881","correct":false,"confidence":3},{"trial_n":125,"span":6,"encoder":"066485","distractor":"066486","target":"absent","response":"absent","rt":"1650.8999999911","correct":true,"confidence":3},{"trial_n":126,"span":6,"encoder":"896512","distractor":"596512","target":"absent","response":"present","rt":"3658.1000000089","correct":false,"confidence":1},{"trial_n":127,"span":5,"encoder":"18161","distractor":"18361","target":"present","response":"present","rt":"2268.6000000089","correct":true,"confidence":3},{"trial_n":128,"span":5,"encoder":"51261","distractor":"50261","target":"absent","response":"absent","rt":"2970.099999994","correct":true,"confidence":3},{"trial_n":129,"span":6,"encoder":"981966","distractor":"986966","target":"present","response":"present","rt":"2226.700000003","correct":true,"confidence":3},{"trial_n":130,"span":6,"encoder":"288938","distractor":"288918","target":"present","response":"present","rt":"2563.700000003","correct":true,"confidence":3},{"trial_n":131,"span":7,"encoder":"0849114","distractor":"6849114","target":"present","response":"present","rt":"2320.299999997","correct":true,"confidence":3},{"trial_n":132,"span":7,"encoder":"3890135","distractor":"3890155","target":"present","response":"present","rt":"1930.1999999881","correct":true,"confidence":3},{"trial_n":133,"span":8,"encoder":"09628691","distractor":"07628691","target":"present","response":"present","rt":"2323.900000006","correct":true,"confidence":3},{"trial_n":134,"span":8,"encoder":"84012645","distractor":"54012645","target":"absent","response":"present","rt":"2093.5","correct":false,"confidence":3},{"trial_n":135,"span":7,"encoder":"3044831","distractor":"3014831","target":"present","response":"present","rt":"4039.5","correct":true,"confidence":3},{"trial_n":136,"span":7,"encoder":"0067577","distractor":"0067570","target":"present","response":"present","rt":"4277.299999997","correct":true,"confidence":3},{"trial_n":137,"span":8,"encoder":"75472143","distractor":"75476143","target":"present","response":"absent","rt":"7470.299999997","correct":false,"confidence":1},{"trial_n":138,"span":7,"encoder":"5770256","distractor":"5770258","target":"absent","response":"present","rt":"1794.400000006","correct":false,"confidence":1},{"trial_n":139,"span":6,"encoder":"585277","distractor":"589277","target":"absent","response":"absent","rt":"3571.900000006","correct":true,"confidence":3},{"trial_n":140,"span":6,"encoder":"507227","distractor":"505227","target":"absent","response":"present","rt":"3478.099999994","correct":false,"confidence":2}]