[{"trial_n":1,"n_dots":4.25,"target":"left","response":"left","rt":1122.5,"correct":true,"confidence":-1},{"trial_n":2,"n_dots":4.25,"target":"right","response":"right","rt":506,"correct":true,"confidence":-1},{"trial_n":3,"n_dots":3.85,"target":"left","response":"right","rt":75.399999991059,"correct":false,"confidence":-1},{"trial_n":4,"n_dots":4.25,"target":"right","response":"right","rt":600.80000001192,"correct":true,"confidence":-1},{"trial_n":5,"n_dots":4.25,"target":"left","response":"left","rt":377.5,"correct":true,"confidence":-1},{"trial_n":6,"n_dots":3.85,"target":"left","response":"left","rt":571.90000000596,"correct":true,"confidence":-1},{"trial_n":7,"n_dots":3.85,"target":"left","response":"left","rt":481.5,"correct":true,"confidence":-1},{"trial_n":8,"n_dots":3.65,"target":"left","response":"left","rt":630.10000000894,"correct":true,"confidence":-1},{"trial_n":9,"n_dots":3.65,"target":"left","response":"left","rt":368.70000000298,"correct":true,"confidence":-1},{"trial_n":10,"n_dots":3.45,"target":"left","response":"left","rt":1190,"correct":true,"confidence":-1},{"trial_n":11,"n_dots":3.45,"target":"right","response":"right","rt":641.90000000596,"correct":true,"confidence":-1},{"trial_n":12,"n_dots":3.25,"target":"left","response":"left","rt":676.29999999702,"correct":true,"confidence":-1},{"trial_n":13,"n_dots":3.25,"target":"left","response":"left","rt":668.30000001192,"correct":true,"confidence":-1},{"trial_n":14,"n_dots":3.15,"target":"right","response":"left","rt":608.5,"correct":false,"confidence":-1},{"trial_n":15,"n_dots":3.25,"target":"right","response":"right","rt":1015.700000003,"correct":true,"confidence":-1},{"trial_n":16,"n_dots":3.25,"target":"left","response":"left","rt":755.69999998808,"correct":true,"confidence":-1},{"trial_n":17,"n_dots":3.15,"target":"right","response":"right","rt":1031.799999997,"correct":true,"confidence":-1},{"trial_n":18,"n_dots":3.15,"target":"right","response":"left","rt":1004.1000000089,"correct":false,"confidence":-1},{"trial_n":19,"n_dots":3.25,"target":"right","response":"right","rt":402.70000000298,"correct":true,"confidence":-1},{"trial_n":20,"n_dots":3.25,"target":"right","response":"right","rt":126.40000000596,"correct":true,"confidence":-1},{"trial_n":21,"n_dots":3.15,"target":"left","response":"left","rt":674.5,"correct":true,"confidence":3},{"trial_n":22,"n_dots":3.15,"target":"left","response":"left","rt":711.20000000298,"correct":true,"confidence":3},{"trial_n":23,"n_dots":3.05,"target":"right","response":"left","rt":458.40000000596,"correct":false,"confidence":4},{"trial_n":24,"n_dots":3.15,"target":"left","response":"left","rt":244.79999999702,"correct":true,"confidence":3},{"trial_n":25,"n_dots":3.15,"target":"right","response":"left","rt":307.90000000596,"correct":false,"confidence":3},{"trial_n":26,"n_dots":3.25,"target":"right","response":"right","rt":1272,"correct":true,"confidence":3},{"trial_n":27,"n_dots":3.25,"target":"left","response":"left","rt":968.10000000894,"correct":true,"confidence":3},{"trial_n":28,"n_dots":3.15,"target":"left","response":"left","rt":705,"correct":true,"confidence":4},{"trial_n":29,"n_dots":3.15,"target":"right","response":"right","rt":1163.099999994,"correct":true,"confidence":4},{"trial_n":30,"n_dots":3.05,"target":"left","response":"left","rt":1103.1999999881,"correct":true,"confidence":2},{"trial_n":31,"n_dots":3.05,"target":"left","response":"left","rt":1051.299999997,"correct":true,"confidence":4},{"trial_n":32,"n_dots":2.95,"target":"left","response":"left","rt":1088.599999994,"correct":true,"confidence":3},{"trial_n":33,"n_dots":2.95,"target":"right","response":"left","rt":1480.6999999881,"correct":false,"confidence":2},{"trial_n":34,"n_dots":3.05,"target":"right","response":"left","rt":756.60000000894,"correct":false,"confidence":2},{"trial_n":35,"n_dots":3.15,"target":"left","response":"left","rt":698.79999999702,"correct":true,"confidence":3},{"trial_n":36,"n_dots":3.15,"target":"right","response":"right","rt":1106.8999999911,"correct":true,"confidence":2},{"trial_n":37,"n_dots":3.05,"target":"left","response":"left","rt":607.79999999702,"correct":true,"confidence":3},{"trial_n":38,"n_dots":3.05,"target":"left","response":"left","rt":538.20000000298,"correct":true,"confidence":3},{"trial_n":39,"n_dots":2.95,"target":"left","response":"left","rt":546.70000000298,"correct":true,"confidence":3},{"trial_n":40,"n_dots":2.95,"target":"left","response":"left","rt":377.20000000298,"correct":true,"confidence":4},{"trial_n":41,"n_dots":2.85,"target":"left","response":"left","rt":674.90000000596,"correct":true,"confidence":4},{"trial_n":42,"n_dots":2.85,"target":"left","response":"left","rt":487.29999999702,"correct":true,"confidence":2},{"trial_n":43,"n_dots":2.75,"target":"right","response":"right","rt":526.10000000894,"correct":true,"confidence":2},{"trial_n":44,"n_dots":2.75,"target":"right","response":"right","rt":1349.8000000119,"correct":true,"confidence":2},{"trial_n":45,"n_dots":2.65,"target":"right","response":"right","rt":489.09999999404,"correct":true,"confidence":2},{"trial_n":46,"n_dots":2.65,"target":"right","response":"right","rt":507.60000000894,"correct":true,"confidence":2},{"trial_n":47,"n_dots":2.55,"target":"right","response":"right","rt":695.60000000894,"correct":true,"confidence":2},{"trial_n":48,"n_dots":2.55,"target":"left","response":"right","rt":434,"correct":false,"confidence":3},{"trial_n":49,"n_dots":2.65,"target":"right","response":"left","rt":817.60000000894,"correct":false,"confidence":3},{"trial_n":50,"n_dots":2.75,"target":"right","response":"right","rt":1007.099999994,"correct":true,"confidence":3},{"trial_n":51,"n_dots":2.75,"target":"left","response":"right","rt":1161.3999999911,"correct":false,"confidence":3},{"trial_n":52,"n_dots":2.85,"target":"right","response":"right","rt":958.80000001192,"correct":true,"confidence":3},{"trial_n":53,"n_dots":2.85,"target":"right","response":"right","rt":547,"correct":true,"confidence":3},{"trial_n":54,"n_dots":2.75,"target":"right","response":"right","rt":1050,"correct":true,"confidence":2},{"trial_n":55,"n_dots":2.75,"target":"right","response":"right","rt":895.10000000894,"correct":true,"confidence":3},{"trial_n":56,"n_dots":2.65,"target":"left","response":"left","rt":987.30000001192,"correct":true,"confidence":2},{"trial_n":57,"n_dots":2.65,"target":"right","response":"right","rt":904.29999999702,"correct":true,"confidence":3},{"trial_n":58,"n_dots":2.55,"target":"left","response":"left","rt":619.20000000298,"correct":true,"confidence":3},{"trial_n":59,"n_dots":2.55,"target":"right","response":"left","rt":966.79999999702,"correct":false,"confidence":3},{"trial_n":60,"n_dots":2.65,"target":"left","response":"left","rt":435.29999999702,"correct":true,"confidence":3},{"trial_n":61,"n_dots":2.65,"target":"right","response":"right","rt":838.69999998808,"correct":true,"confidence":3},{"trial_n":62,"n_dots":2.55,"target":"right","response":"left","rt":423.09999999404,"correct":false,"confidence":3},{"trial_n":63,"n_dots":2.65,"target":"right","response":"left","rt":604.79999999702,"correct":false,"confidence":4},{"trial_n":64,"n_dots":2.75,"target":"right","response":"left","rt":345.90000000596,"correct":false,"confidence":2},{"trial_n":65,"n_dots":2.85,"target":"right","response":"right","rt":944.19999998808,"correct":true,"confidence":3},{"trial_n":66,"n_dots":2.85,"target":"right","response":"right","rt":1201.6000000089,"correct":true,"confidence":3},{"trial_n":67,"n_dots":2.75,"target":"right","response":"right","rt":945,"correct":true,"confidence":3},{"trial_n":68,"n_dots":2.75,"target":"left","response":"left","rt":1686.3000000119,"correct":true,"confidence":2},{"trial_n":69,"n_dots":2.65,"target":"right","response":"left","rt":719.59999999404,"correct":false,"confidence":3},{"trial_n":70,"n_dots":2.75,"target":"left","response":"left","rt":690.70000000298,"correct":true,"confidence":3},{"trial_n":71,"n_dots":2.75,"target":"right","response":"left","rt":539.40000000596,"correct":false,"confidence":3},{"trial_n":72,"n_dots":2.85,"target":"left","response":"left","rt":571.39999999106,"correct":true,"confidence":3},{"trial_n":73,"n_dots":2.85,"target":"right","response":"right","rt":1249.8999999911,"correct":true,"confidence":3},{"trial_n":74,"n_dots":2.75,"target":"left","response":"left","rt":725.59999999404,"correct":true,"confidence":3},{"trial_n":75,"n_dots":2.75,"target":"left","response":"left","rt":3037.6000000089,"correct":true,"confidence":3},{"trial_n":76,"n_dots":2.65,"target":"right","response":"left","rt":647.70000000298,"correct":false,"confidence":3},{"trial_n":77,"n_dots":2.75,"target":"left","response":"left","rt":159.90000000596,"correct":true,"confidence":3},{"trial_n":78,"n_dots":2.75,"target":"right","response":"left","rt":851.5,"correct":false,"confidence":3},{"trial_n":79,"n_dots":2.85,"target":"left","response":"left","rt":517.30000001192,"correct":true,"confidence":3},{"trial_n":80,"n_dots":2.85,"target":"left","response":"left","rt":786,"correct":true,"confidence":3},{"trial_n":81,"n_dots":2.75,"target":"left","response":"left","rt":442.59999999404,"correct":true,"confidence":2},{"trial_n":82,"n_dots":2.75,"target":"right","response":"right","rt":898.90000000596,"correct":true,"confidence":2},{"trial_n":83,"n_dots":2.65,"target":"left","response":"left","rt":797.20000000298,"correct":true,"confidence":2},{"trial_n":84,"n_dots":2.65,"target":"left","response":"left","rt":851.5,"correct":true,"confidence":3},{"trial_n":85,"n_dots":2.55,"target":"right","response":"right","rt":801.30000001192,"correct":true,"confidence":3},{"trial_n":86,"n_dots":2.55,"target":"right","response":"left","rt":4509.400000006,"correct":false,"confidence":1},{"trial_n":87,"n_dots":2.65,"target":"right","response":"left","rt":502,"correct":false,"confidence":4},{"trial_n":88,"n_dots":2.75,"target":"right","response":"right","rt":941.20000000298,"correct":true,"confidence":3},{"trial_n":89,"n_dots":2.75,"target":"left","response":"right","rt":1060.599999994,"correct":false,"confidence":3},{"trial_n":90,"n_dots":2.85,"target":"right","response":"right","rt":616.59999999404,"correct":true,"confidence":3},{"trial_n":91,"n_dots":2.85,"target":"left","response":"right","rt":907.20000000298,"correct":false,"confidence":2},{"trial_n":92,"n_dots":2.95,"target":"left","response":"left","rt":372.20000000298,"correct":true,"confidence":3},{"trial_n":93,"n_dots":2.95,"target":"left","response":"left","rt":264.29999999702,"correct":true,"confidence":3},{"trial_n":94,"n_dots":2.85,"target":"left","response":"left","rt":478.39999999106,"correct":true,"confidence":3},{"trial_n":95,"n_dots":2.85,"target":"left","response":"left","rt":213.59999999404,"correct":true,"confidence":3},{"trial_n":96,"n_dots":2.75,"target":"left","response":"left","rt":476.70000000298,"correct":true,"confidence":3},{"trial_n":97,"n_dots":2.75,"target":"right","response":"right","rt":1184.8000000119,"correct":true,"confidence":3},{"trial_n":98,"n_dots":2.65,"target":"left","response":"left","rt":246.09999999404,"correct":true,"confidence":3},{"trial_n":99,"n_dots":2.65,"target":"right","response":"left","rt":1804.900000006,"correct":false,"confidence":3},{"trial_n":100,"n_dots":2.75,"target":"left","response":"left","rt":1121.799999997,"correct":true,"confidence":2},{"trial_n":101,"n_dots":2.75,"target":"left","response":"left","rt":250.70000000298,"correct":true,"confidence":3},{"trial_n":102,"n_dots":2.65,"target":"right","response":"left","rt":710.10000000894,"correct":false,"confidence":3},{"trial_n":103,"n_dots":2.75,"target":"right","response":"left","rt":615.20000000298,"correct":false,"confidence":3},{"trial_n":104,"n_dots":2.85,"target":"right","response":"right","rt":956.5,"correct":true,"confidence":3},{"trial_n":105,"n_dots":2.85,"target":"right","response":"left","rt":878.5,"correct":false,"confidence":3},{"trial_n":106,"n_dots":2.95,"target":"left","response":"left","rt":1033.200000003,"correct":true,"confidence":3},{"trial_n":107,"n_dots":2.95,"target":"right","response":"right","rt":1006.200000003,"correct":true,"confidence":3},{"trial_n":108,"n_dots":2.85,"target":"left","response":"left","rt":406.79999999702,"correct":true,"confidence":3},{"trial_n":109,"n_dots":2.85,"target":"right","response":"right","rt":515.60000000894,"correct":true,"confidence":3},{"trial_n":110,"n_dots":2.75,"target":"right","response":"left","rt":403.09999999404,"correct":false,"confidence":3},{"trial_n":111,"n_dots":2.85,"target":"left","response":"left","rt":811.09999999404,"correct":true,"confidence":3},{"trial_n":112,"n_dots":2.85,"target":"right","response":"right","rt":699.79999999702,"correct":true,"confidence":3},{"trial_n":113,"n_dots":2.75,"target":"left","response":"left","rt":706.29999999702,"correct":true,"confidence":3},{"trial_n":114,"n_dots":2.75,"target":"left","response":"right","rt":1315.8999999911,"correct":false,"confidence":3},{"trial_n":115,"n_dots":2.85,"target":"right","response":"left","rt":754.70000000298,"correct":false,"confidence":3},{"trial_n":116,"n_dots":2.95,"target":"left","response":"left","rt":552.29999999702,"correct":true,"confidence":3},{"trial_n":117,"n_dots":2.95,"target":"right","response":"right","rt":1075.299999997,"correct":true,"confidence":3},{"trial_n":118,"n_dots":2.85,"target":"right","response":"left","rt":779.79999999702,"correct":false,"confidence":3},{"trial_n":119,"n_dots":2.95,"target":"left","response":"right","rt":330.39999999106,"correct":false,"confidence":3},{"trial_n":120,"n_dots":3.05,"target":"left","response":"left","rt":322.30000001192,"correct":true,"confidence":3}]