[{"trial_n":1,"n_dots":4.25,"target":"left","response":"left","rt":2552.3000001907,"correct":true,"confidence":-1},{"trial_n":2,"n_dots":4.25,"target":"right","response":"right","rt":510.29999995232,"correct":true,"confidence":-1},{"trial_n":3,"n_dots":3.85,"target":"right","response":"right","rt":297.09999990463,"correct":true,"confidence":-1},{"trial_n":4,"n_dots":3.85,"target":"left","response":"left","rt":356.40000009537,"correct":true,"confidence":-1},{"trial_n":5,"n_dots":3.45,"target":"left","response":"left","rt":367.29999995232,"correct":true,"confidence":-1},{"trial_n":6,"n_dots":3.45,"target":"left","response":"left","rt":663.29999995232,"correct":true,"confidence":-1},{"trial_n":7,"n_dots":3.05,"target":"left","response":"left","rt":409.59999990463,"correct":true,"confidence":-1},{"trial_n":8,"n_dots":3.05,"target":"right","response":"right","rt":99.400000095367,"correct":true,"confidence":-1},{"trial_n":9,"n_dots":2.85,"target":"left","response":"right","rt":525.39999985695,"correct":false,"confidence":-1},{"trial_n":10,"n_dots":3.05,"target":"left","response":"left","rt":428.5,"correct":true,"confidence":-1},{"trial_n":11,"n_dots":3.05,"target":"right","response":"right","rt":323.09999990463,"correct":true,"confidence":-1},{"trial_n":12,"n_dots":2.85,"target":"right","response":"left","rt":605.29999995232,"correct":false,"confidence":-1},{"trial_n":13,"n_dots":2.95,"target":"right","response":"right","rt":234.29999995232,"correct":true,"confidence":-1},{"trial_n":14,"n_dots":2.95,"target":"right","response":"right","rt":526.79999995232,"correct":true,"confidence":-1},{"trial_n":15,"n_dots":2.85,"target":"right","response":"left","rt":352.90000009537,"correct":false,"confidence":-1},{"trial_n":16,"n_dots":2.95,"target":"left","response":"left","rt":301.5,"correct":true,"confidence":-1},{"trial_n":17,"n_dots":2.95,"target":"left","response":"left","rt":452.39999985695,"correct":true,"confidence":-1},{"trial_n":18,"n_dots":2.85,"target":"left","response":"left","rt":317.5,"correct":true,"confidence":-1},{"trial_n":19,"n_dots":2.85,"target":"left","response":"left","rt":512.20000004768,"correct":true,"confidence":-1},{"trial_n":20,"n_dots":2.75,"target":"right","response":"right","rt":371.40000009537,"correct":true,"confidence":-1},{"trial_n":21,"n_dots":2.75,"target":"left","response":"left","rt":311.40000009537,"correct":true,"confidence":2},{"trial_n":22,"n_dots":2.65,"target":"left","response":"left","rt":1291.5,"correct":true,"confidence":1},{"trial_n":23,"n_dots":2.65,"target":"left","response":"right","rt":704.29999995232,"correct":false,"confidence":3},{"trial_n":24,"n_dots":2.75,"target":"right","response":"right","rt":526.40000009537,"correct":true,"confidence":2},{"trial_n":25,"n_dots":2.75,"target":"left","response":"left","rt":417.90000009537,"correct":true,"confidence":3},{"trial_n":26,"n_dots":2.65,"target":"right","response":"left","rt":808.89999985695,"correct":false,"confidence":3},{"trial_n":27,"n_dots":2.75,"target":"left","response":"left","rt":451.59999990463,"correct":true,"confidence":3},{"trial_n":28,"n_dots":2.75,"target":"right","response":"right","rt":421.59999990463,"correct":true,"confidence":3},{"trial_n":29,"n_dots":2.65,"target":"right","response":"right","rt":769.29999995232,"correct":true,"confidence":2},{"trial_n":30,"n_dots":2.65,"target":"left","response":"left","rt":498.5,"correct":true,"confidence":1},{"trial_n":31,"n_dots":2.55,"target":"left","response":"right","rt":386.09999990463,"correct":false,"confidence":3},{"trial_n":32,"n_dots":2.65,"target":"left","response":"left","rt":1030.2999999523,"correct":true,"confidence":4},{"trial_n":33,"n_dots":2.65,"target":"left","response":"left","rt":607.5,"correct":true,"confidence":2},{"trial_n":34,"n_dots":2.55,"target":"right","response":"left","rt":394.5,"correct":false,"confidence":2},{"trial_n":35,"n_dots":2.65,"target":"right","response":"right","rt":1411.6000001431,"correct":true,"confidence":1},{"trial_n":36,"n_dots":2.65,"target":"right","response":"left","rt":995.30000019073,"correct":false,"confidence":2},{"trial_n":37,"n_dots":2.75,"target":"left","response":"left","rt":754.70000004768,"correct":true,"confidence":3},{"trial_n":38,"n_dots":2.75,"target":"left","response":"left","rt":1061.6999998093,"correct":true,"confidence":2},{"trial_n":39,"n_dots":2.65,"target":"left","response":"left","rt":339.89999985695,"correct":true,"confidence":3},{"trial_n":40,"n_dots":2.65,"target":"right","response":"right","rt":570.20000004768,"correct":true,"confidence":1},{"trial_n":41,"n_dots":2.55,"target":"right","response":"right","rt":595.39999985695,"correct":true,"confidence":2},{"trial_n":42,"n_dots":2.55,"target":"right","response":"left","rt":520.5,"correct":false,"confidence":2},{"trial_n":43,"n_dots":2.65,"target":"right","response":"left","rt":59.899999856949,"correct":false,"confidence":1},{"trial_n":44,"n_dots":2.75,"target":"left","response":"left","rt":725,"correct":true,"confidence":3},{"trial_n":45,"n_dots":2.75,"target":"right","response":"left","rt":530.89999985695,"correct":false,"confidence":2},{"trial_n":46,"n_dots":2.85,"target":"right","response":"right","rt":451.79999995232,"correct":true,"confidence":1},{"trial_n":47,"n_dots":2.85,"target":"left","response":"right","rt":372.59999990463,"correct":false,"confidence":1},{"trial_n":48,"n_dots":2.95,"target":"right","response":"left","rt":634.89999985695,"correct":false,"confidence":2},{"trial_n":49,"n_dots":3.05,"target":"right","response":"left","rt":404,"correct":false,"confidence":1},{"trial_n":50,"n_dots":3.15,"target":"right","response":"right","rt":740.90000009537,"correct":true,"confidence":3},{"trial_n":51,"n_dots":3.15,"target":"left","response":"left","rt":631.60000014305,"correct":true,"confidence":1},{"trial_n":52,"n_dots":3.05,"target":"left","response":"left","rt":410.29999995232,"correct":true,"confidence":3},{"trial_n":53,"n_dots":3.05,"target":"right","response":"right","rt":717.90000009537,"correct":true,"confidence":3},{"trial_n":54,"n_dots":2.95,"target":"left","response":"left","rt":466.39999985695,"correct":true,"confidence":4},{"trial_n":55,"n_dots":2.95,"target":"left","response":"left","rt":399.89999985695,"correct":true,"confidence":1},{"trial_n":56,"n_dots":2.85,"target":"right","response":"right","rt":588.10000014305,"correct":true,"confidence":2},{"trial_n":57,"n_dots":2.85,"target":"left","response":"right","rt":535.20000004768,"correct":false,"confidence":3},{"trial_n":58,"n_dots":2.95,"target":"left","response":"left","rt":574.30000019073,"correct":true,"confidence":4},{"trial_n":59,"n_dots":2.95,"target":"left","response":"left","rt":1910.3999998569,"correct":true,"confidence":2},{"trial_n":60,"n_dots":2.85,"target":"right","response":"left","rt":436.60000014305,"correct":false,"confidence":2},{"trial_n":61,"n_dots":2.95,"target":"right","response":"right","rt":673.40000009537,"correct":true,"confidence":1},{"trial_n":62,"n_dots":2.95,"target":"right","response":"left","rt":238.30000019073,"correct":false,"confidence":2},{"trial_n":63,"n_dots":3.05,"target":"left","response":"left","rt":348.09999990463,"correct":true,"confidence":4},{"trial_n":64,"n_dots":3.05,"target":"left","response":"left","rt":95.399999856949,"correct":true,"confidence":2},{"trial_n":65,"n_dots":2.95,"target":"left","response":"left","rt":118.29999995232,"correct":true,"confidence":2},{"trial_n":66,"n_dots":2.95,"target":"left","response":"left","rt":324.20000004768,"correct":true,"confidence":3},{"trial_n":67,"n_dots":2.85,"target":"right","response":"right","rt":451.5,"correct":true,"confidence":1},{"trial_n":68,"n_dots":2.85,"target":"right","response":"left","rt":1021.4000000954,"correct":false,"confidence":2},{"trial_n":69,"n_dots":2.95,"target":"right","response":"left","rt":392.39999985695,"correct":false,"confidence":2},{"trial_n":70,"n_dots":3.05,"target":"right","response":"left","rt":410.59999990463,"correct":false,"confidence":1},{"trial_n":71,"n_dots":3.15,"target":"left","response":"right","rt":409,"correct":false,"confidence":1},{"trial_n":72,"n_dots":3.25,"target":"right","response":"left","rt":303.5,"correct":false,"confidence":3},{"trial_n":73,"n_dots":3.35,"target":"left","response":"left","rt":320.59999990463,"correct":true,"confidence":3},{"trial_n":74,"n_dots":3.35,"target":"left","response":"left","rt":28.699999809265,"correct":true,"confidence":4},{"trial_n":75,"n_dots":3.25,"target":"left","response":"left","rt":669.79999995232,"correct":true,"confidence":1},{"trial_n":76,"n_dots":3.25,"target":"right","response":"left","rt":1166.7000000477,"correct":false,"confidence":3},{"trial_n":77,"n_dots":3.35,"target":"right","response":"left","rt":447.30000019073,"correct":false,"confidence":1},{"trial_n":78,"n_dots":3.45,"target":"right","response":"left","rt":337.09999990463,"correct":false,"confidence":3},{"trial_n":79,"n_dots":3.55,"target":"left","response":"left","rt":46.5,"correct":true,"confidence":5},{"trial_n":80,"n_dots":3.55,"target":"left","response":"left","rt":265.29999995232,"correct":true,"confidence":2},{"trial_n":81,"n_dots":3.45,"target":"right","response":"right","rt":663.5,"correct":true,"confidence":1},{"trial_n":82,"n_dots":3.45,"target":"left","response":"left","rt":738.30000019073,"correct":true,"confidence":2},{"trial_n":83,"n_dots":3.35,"target":"left","response":"left","rt":98.700000047684,"correct":true,"confidence":5},{"trial_n":84,"n_dots":3.35,"target":"right","response":"right","rt":1132.2999999523,"correct":true,"confidence":1},{"trial_n":85,"n_dots":3.25,"target":"left","response":"left","rt":663.70000004768,"correct":true,"confidence":1},{"trial_n":86,"n_dots":3.25,"target":"right","response":"right","rt":753.90000009537,"correct":true,"confidence":2},{"trial_n":87,"n_dots":3.15,"target":"left","response":"left","rt":565.79999995232,"correct":true,"confidence":3},{"trial_n":88,"n_dots":3.15,"target":"right","response":"left","rt":687,"correct":false,"confidence":1},{"trial_n":89,"n_dots":3.25,"target":"left","response":"left","rt":1521.7999999523,"correct":true,"confidence":2},{"trial_n":90,"n_dots":3.25,"target":"left","response":"left","rt":585,"correct":true,"confidence":1},{"trial_n":91,"n_dots":3.15,"target":"right","response":"left","rt":63,"correct":false,"confidence":4},{"trial_n":92,"n_dots":3.25,"target":"right","response":"left","rt":538.79999995232,"correct":false,"confidence":2},{"trial_n":93,"n_dots":3.35,"target":"right","response":"left","rt":1840.1000001431,"correct":false,"confidence":4},{"trial_n":94,"n_dots":3.45,"target":"right","response":"left","rt":504,"correct":false,"confidence":3},{"trial_n":95,"n_dots":3.55,"target":"right","response":"left","rt":555.70000004768,"correct":false,"confidence":2},{"trial_n":96,"n_dots":3.65,"target":"left","response":"left","rt":859.60000014305,"correct":true,"confidence":4},{"trial_n":97,"n_dots":3.65,"target":"right","response":"left","rt":46.300000190735,"correct":false,"confidence":2},{"trial_n":98,"n_dots":3.75,"target":"left","response":"left","rt":841.10000014305,"correct":true,"confidence":4},{"trial_n":99,"n_dots":3.75,"target":"right","response":"left","rt":551.40000009537,"correct":false,"confidence":3},{"trial_n":100,"n_dots":3.85,"target":"right","response":"left","rt":74.099999904633,"correct":false,"confidence":2},{"trial_n":101,"n_dots":3.95,"target":"left","response":"left","rt":788.79999995232,"correct":true,"confidence":4},{"trial_n":102,"n_dots":3.95,"target":"right","response":"right","rt":467.09999990463,"correct":true,"confidence":2},{"trial_n":103,"n_dots":3.85,"target":"left","response":"left","rt":798.70000004768,"correct":true,"confidence":5},{"trial_n":104,"n_dots":3.85,"target":"left","response":"left","rt":554.10000014305,"correct":true,"confidence":5},{"trial_n":105,"n_dots":3.75,"target":"left","response":"left","rt":469.20000004768,"correct":true,"confidence":4},{"trial_n":106,"n_dots":3.75,"target":"right","response":"right","rt":464.70000004768,"correct":true,"confidence":2},{"trial_n":107,"n_dots":3.65,"target":"right","response":"left","rt":553.20000004768,"correct":false,"confidence":4},{"trial_n":108,"n_dots":3.75,"target":"left","response":"left","rt":441.59999990463,"correct":true,"confidence":3},{"trial_n":109,"n_dots":3.75,"target":"right","response":"right","rt":325.09999990463,"correct":true,"confidence":4},{"trial_n":110,"n_dots":3.65,"target":"right","response":"right","rt":517,"correct":true,"confidence":3},{"trial_n":111,"n_dots":3.65,"target":"right","response":"right","rt":254.60000014305,"correct":true,"confidence":3},{"trial_n":112,"n_dots":3.55,"target":"left","response":"left","rt":766.5,"correct":true,"confidence":5},{"trial_n":113,"n_dots":3.55,"target":"right","response":"right","rt":5.5999999046326,"correct":true,"confidence":2},{"trial_n":114,"n_dots":3.45,"target":"right","response":"left","rt":295.5,"correct":false,"confidence":3},{"trial_n":115,"n_dots":3.55,"target":"left","response":"left","rt":522.40000009537,"correct":true,"confidence":3},{"trial_n":116,"n_dots":3.55,"target":"right","response":"right","rt":784.69999980927,"correct":true,"confidence":4},{"trial_n":117,"n_dots":3.45,"target":"left","response":"left","rt":872.90000009537,"correct":true,"confidence":1},{"trial_n":118,"n_dots":3.45,"target":"right","response":"right","rt":292.89999985695,"correct":true,"confidence":2},{"trial_n":119,"n_dots":3.35,"target":"left","response":"left","rt":492.09999990463,"correct":true,"confidence":1},{"trial_n":120,"n_dots":3.35,"target":"left","response":"left","rt":134,"correct":true,"confidence":3}]