[{"trial_n":1,"span":8,"encoder":"61457837","distractor":"61257837","target":"present","response":"present","rt":"9361.8999996185","correct":true,"confidence":-1},{"trial_n":2,"span":8,"encoder":"87212143","distractor":"87212140","target":"present","response":"present","rt":"3036.0999994278","correct":true,"confidence":-1},{"trial_n":3,"span":10,"encoder":"0827168385","distractor":"0827168382","target":"absent","response":"present","rt":"2169.7999992371","correct":false,"confidence":-1},{"trial_n":4,"span":8,"encoder":"40637905","distractor":"40637909","target":"absent","response":"absent","rt":"2758.3000001907","correct":true,"confidence":-1},{"trial_n":5,"span":8,"encoder":"26626574","distractor":"20626574","target":"present","response":"present","rt":"1341.2000007629","correct":true,"confidence":-1},{"trial_n":6,"span":10,"encoder":"0892293412","distractor":"0892293312","target":"absent","response":"absent","rt":"2959.9000005722","correct":true,"confidence":-1},{"trial_n":7,"span":10,"encoder":"2293701069","distractor":"2293901069","target":"absent","response":"absent","rt":"2074","correct":true,"confidence":-1},{"trial_n":8,"span":12,"encoder":"431378194444","distractor":"431478194444","target":"absent","response":"present","rt":"2387.5","correct":false,"confidence":-1},{"trial_n":9,"span":10,"encoder":"1754282820","distractor":"1754288820","target":"absent","response":"present","rt":"1385.3000001907","correct":false,"confidence":-1},{"trial_n":10,"span":8,"encoder":"46392305","distractor":"46392306","target":"present","response":"present","rt":"2996.8000001907","correct":true,"confidence":-1},{"trial_n":11,"span":8,"encoder":"82549901","distractor":"82545901","target":"present","response":"present","rt":"1340","correct":true,"confidence":-1},{"trial_n":12,"span":9,"encoder":"487422075","distractor":"487492075","target":"present","response":"present","rt":"2765.5","correct":true,"confidence":-1},{"trial_n":13,"span":9,"encoder":"858399167","distractor":"858379167","target":"absent","response":"absent","rt":"2170.8000001907","correct":true,"confidence":-1},{"trial_n":14,"span":10,"encoder":"0980523780","distractor":"0980503780","target":"absent","response":"present","rt":"1043.8000001907","correct":false,"confidence":-1},{"trial_n":15,"span":9,"encoder":"457480316","distractor":"497480316","target":"present","response":"present","rt":"1366.5","correct":true,"confidence":-1},{"trial_n":16,"span":9,"encoder":"302882905","distractor":"302885905","target":"present","response":"present","rt":"2131.5","correct":true,"confidence":-1},{"trial_n":17,"span":10,"encoder":"8303239054","distractor":"3303239054","target":"absent","response":"absent","rt":"1732.6000003815","correct":true,"confidence":-1},{"trial_n":18,"span":10,"encoder":"2646517209","distractor":"2646517309","target":"present","response":"present","rt":"3418.4000005722","correct":true,"confidence":-1},{"trial_n":19,"span":11,"encoder":"71117968330","distractor":"71117268330","target":"present","response":"present","rt":"1026.6999998093","correct":true,"confidence":-1},{"trial_n":20,"span":11,"encoder":"19753819020","distractor":"19653819020","target":"present","response":"absent","rt":"4886.1999998093","correct":false,"confidence":-1},{"trial_n":21,"span":10,"encoder":"6351066111","distractor":"6351066113","target":"absent","response":"absent","rt":"1671.3999996185","correct":true,"confidence":4},{"trial_n":22,"span":10,"encoder":"5803280185","distractor":"5803280183","target":"present","response":"present","rt":"9304.7000007629","correct":true,"confidence":3},{"trial_n":23,"span":11,"encoder":"52019413107","distractor":"52019013107","target":"present","response":"present","rt":"4116.1000003815","correct":true,"confidence":3},{"trial_n":24,"span":11,"encoder":"23244605227","distractor":"23244905227","target":"present","response":"present","rt":"5502.5","correct":true,"confidence":3},{"trial_n":25,"span":12,"encoder":"123612619353","distractor":"123632619353","target":"present","response":"present","rt":"3820.1000003815","correct":true,"confidence":5},{"trial_n":26,"span":12,"encoder":"878216506135","distractor":"578216506135","target":"present","response":"absent","rt":"8830.3999996185","correct":false,"confidence":3},{"trial_n":27,"span":11,"encoder":"27375607703","distractor":"27375627703","target":"absent","response":"present","rt":"6876.1000003815","correct":false,"confidence":3},{"trial_n":28,"span":10,"encoder":"3954026333","distractor":"3964026333","target":"absent","response":"absent","rt":"2554.8999996185","correct":true,"confidence":4},{"trial_n":29,"span":10,"encoder":"5428123734","distractor":"5428023734","target":"present","response":"present","rt":"3883.9000005722","correct":true,"confidence":5},{"trial_n":30,"span":11,"encoder":"82218811348","distractor":"82218911348","target":"absent","response":"absent","rt":"9184.7000007629","correct":true,"confidence":2},{"trial_n":31,"span":11,"encoder":"00596924273","distractor":"00596924278","target":"absent","response":"absent","rt":"11759.399999619","correct":true,"confidence":3},{"trial_n":32,"span":12,"encoder":"523892680293","distractor":"523892680297","target":"absent","response":"absent","rt":"3393.6000003815","correct":true,"confidence":4},{"trial_n":33,"span":12,"encoder":"634382210301","distractor":"634382210303","target":"present","response":"present","rt":"5317.5","correct":true,"confidence":3},{"trial_n":34,"span":13,"encoder":"5465324566639","distractor":"5465322566639","target":"present","response":"present","rt":"6790.1999998093","correct":true,"confidence":2},{"trial_n":35,"span":13,"encoder":"2990248711446","distractor":"2690248711446","target":"present","response":"present","rt":"2781.5","correct":true,"confidence":4},{"trial_n":36,"span":14,"encoder":"12221112476549","distractor":"12221112476546","target":"present","response":"present","rt":"9172","correct":true,"confidence":3},{"trial_n":37,"span":14,"encoder":"37210556219052","distractor":"37240556219052","target":"absent","response":"absent","rt":"7134.8000001907","correct":true,"confidence":2},{"trial_n":38,"span":15,"encoder":"539471601052449","distractor":"539471601052749","target":"absent","response":"absent","rt":"8219.1999998093","correct":true,"confidence":3},{"trial_n":39,"span":15,"encoder":"049446929154921","distractor":"049446909154921","target":"present","response":"present","rt":"8136.6999998093","correct":true,"confidence":2},{"trial_n":40,"span":16,"encoder":"5937948811639862","distractor":"5837948811639862","target":"absent","response":"absent","rt":"3025","correct":true,"confidence":4},{"trial_n":41,"span":16,"encoder":"0667339422422483","distractor":"0067339422422483","target":"absent","response":"present","rt":"5438.3999996185","correct":false,"confidence":3},{"trial_n":42,"span":15,"encoder":"687373034634760","distractor":"687373034639760","target":"absent","response":"absent","rt":"6087.6000003815","correct":true,"confidence":3},{"trial_n":43,"span":15,"encoder":"200432234870383","distractor":"290432234870383","target":"absent","response":"absent","rt":"9324.6999998093","correct":true,"confidence":3},{"trial_n":44,"span":16,"encoder":"5863941880779219","distractor":"5863945880779219","target":"absent","response":"present","rt":"11256.599999428","correct":false,"confidence":2},{"trial_n":45,"span":15,"encoder":"156840258078001","distractor":"156850258078001","target":"present","response":"absent","rt":"7930.8000001907","correct":false,"confidence":4},{"trial_n":46,"span":14,"encoder":"89622145354577","distractor":"89622145324577","target":"absent","response":"present","rt":"8402.5","correct":false,"confidence":3},{"trial_n":47,"span":13,"encoder":"5556520489085","distractor":"5556520489089","target":"present","response":"present","rt":"6261.6999998093","correct":true,"confidence":3},{"trial_n":48,"span":13,"encoder":"9262766703235","distractor":"9262766733235","target":"absent","response":"present","rt":"5765","correct":false,"confidence":2},{"trial_n":49,"span":12,"encoder":"827078352357","distractor":"827078452357","target":"present","response":"present","rt":"6413.2000007629","correct":true,"confidence":4},{"trial_n":50,"span":12,"encoder":"499346370752","distractor":"499346970752","target":"present","response":"present","rt":"2481.6000003815","correct":true,"confidence":3},{"trial_n":51,"span":13,"encoder":"7292129151846","distractor":"7292129451846","target":"absent","response":"present","rt":"7356.5999994278","correct":false,"confidence":3},{"trial_n":52,"span":12,"encoder":"529030435565","distractor":"529030435525","target":"present","response":"present","rt":"8102.4000005722","correct":true,"confidence":4},{"trial_n":53,"span":12,"encoder":"895328679903","distractor":"895328679902","target":"present","response":"present","rt":"11716.699999809","correct":true,"confidence":3},{"trial_n":54,"span":13,"encoder":"7890268301662","distractor":"7890262301662","target":"present","response":"present","rt":"10194.700000763","correct":true,"confidence":3},{"trial_n":55,"span":13,"encoder":"2491102934413","distractor":"2481102934413","target":"present","response":"absent","rt":"10065","correct":false,"confidence":1},{"trial_n":56,"span":12,"encoder":"907166181725","distractor":"207166181725","target":"present","response":"present","rt":"3973.8999996185","correct":true,"confidence":2},{"trial_n":57,"span":12,"encoder":"439350584253","distractor":"439350586253","target":"present","response":"present","rt":"8778.8000001907","correct":true,"confidence":3},{"trial_n":58,"span":13,"encoder":"3296159547878","distractor":"3296159567878","target":"absent","response":"absent","rt":"2490","correct":true,"confidence":4},{"trial_n":59,"span":13,"encoder":"5169376358824","distractor":"5109376358824","target":"absent","response":"present","rt":"9464.9000005722","correct":false,"confidence":2},{"trial_n":60,"span":12,"encoder":"607797441740","distractor":"607797411740","target":"present","response":"present","rt":"5125.8000001907","correct":true,"confidence":5},{"trial_n":61,"span":12,"encoder":"538656785940","distractor":"538756785940","target":"present","response":"present","rt":"5071.3999996185","correct":true,"confidence":4},{"trial_n":62,"span":13,"encoder":"0445137382636","distractor":"6445137382636","target":"present","response":"absent","rt":"9378.5999994278","correct":false,"confidence":3},{"trial_n":63,"span":12,"encoder":"814638105748","distractor":"614638105748","target":"absent","response":"absent","rt":"7795.2000007629","correct":true,"confidence":4},{"trial_n":64,"span":12,"encoder":"915170832175","distractor":"915170832195","target":"absent","response":"present","rt":"7685.3999996185","correct":false,"confidence":3},{"trial_n":65,"span":11,"encoder":"93846338869","distractor":"93826338869","target":"absent","response":"absent","rt":"14713.399999619","correct":true,"confidence":2},{"trial_n":66,"span":11,"encoder":"18383644754","distractor":"18383640754","target":"present","response":"present","rt":"5659.5","correct":true,"confidence":4},{"trial_n":67,"span":12,"encoder":"396244611709","distractor":"396244611719","target":"absent","response":"present","rt":"11617.5","correct":false,"confidence":1},{"trial_n":68,"span":11,"encoder":"97863687182","distractor":"97863627182","target":"absent","response":"absent","rt":"4857.4000005722","correct":true,"confidence":4},{"trial_n":69,"span":11,"encoder":"34740722456","distractor":"34740822456","target":"absent","response":"present","rt":"7788.5","correct":false,"confidence":3},{"trial_n":70,"span":10,"encoder":"0465076108","distractor":"0065076108","target":"absent","response":"absent","rt":"6903.0999994278","correct":true,"confidence":4},{"trial_n":71,"span":8,"encoder":"78625495","distractor":"78645495","target":"present","response":"present","rt":"8945.7999992371","correct":true,"confidence":-1},{"trial_n":72,"span":8,"encoder":"58451123","distractor":"50451123","target":"present","response":"absent","rt":"6475","correct":false,"confidence":-1},{"trial_n":73,"span":7,"encoder":"7160329","distractor":"7165329","target":"absent","response":"absent","rt":"6904.8999996185","correct":true,"confidence":-1},{"trial_n":74,"span":7,"encoder":"0092589","distractor":"0092569","target":"absent","response":"absent","rt":"4287.0999994278","correct":true,"confidence":-1},{"trial_n":75,"span":8,"encoder":"66111750","distractor":"66711750","target":"present","response":"present","rt":"4829.4000005722","correct":true,"confidence":-1},{"trial_n":76,"span":8,"encoder":"92254424","distractor":"92254024","target":"absent","response":"absent","rt":"2716.3999996185","correct":true,"confidence":-1},{"trial_n":77,"span":9,"encoder":"922145353","distractor":"922945353","target":"absent","response":"absent","rt":"7625.5","correct":true,"confidence":-1},{"trial_n":78,"span":9,"encoder":"404900780","distractor":"904900780","target":"present","response":"present","rt":"5506","correct":true,"confidence":-1},{"trial_n":79,"span":10,"encoder":"7454681849","distractor":"7404681849","target":"absent","response":"absent","rt":"6433.5","correct":true,"confidence":-1},{"trial_n":80,"span":10,"encoder":"6125701858","distractor":"6165701858","target":"present","response":"present","rt":"11023","correct":true,"confidence":-1},{"trial_n":81,"span":11,"encoder":"57495501618","distractor":"57493501618","target":"absent","response":"absent","rt":"5010","correct":true,"confidence":-1},{"trial_n":82,"span":11,"encoder":"94312267770","distractor":"94312237770","target":"absent","response":"present","rt":"3275.8999996185","correct":false,"confidence":-1},{"trial_n":83,"span":10,"encoder":"1479026221","distractor":"1479026321","target":"absent","response":"absent","rt":"2945.6000003815","correct":true,"confidence":-1},{"trial_n":84,"span":10,"encoder":"8544328627","distractor":"8544328625","target":"present","response":"present","rt":"4774.6000003815","correct":true,"confidence":-1},{"trial_n":85,"span":11,"encoder":"06476637375","distractor":"06496637375","target":"present","response":"present","rt":"8069.3000001907","correct":true,"confidence":-1},{"trial_n":86,"span":11,"encoder":"28277350776","distractor":"28277350774","target":"absent","response":"absent","rt":"4259","correct":true,"confidence":-1},{"trial_n":87,"span":12,"encoder":"220038445617","distractor":"920038445617","target":"present","response":"present","rt":"13918.700000763","correct":true,"confidence":-1},{"trial_n":88,"span":12,"encoder":"565235186706","distractor":"505235186706","target":"absent","response":"present","rt":"11616.300000191","correct":false,"confidence":-1},{"trial_n":89,"span":11,"encoder":"94927732589","distractor":"94927732489","target":"present","response":"present","rt":"5874.6999998093","correct":true,"confidence":-1},{"trial_n":90,"span":11,"encoder":"53427168594","distractor":"53427168597","target":"present","response":"present","rt":"4037.6999998093","correct":true,"confidence":-1},{"trial_n":91,"span":12,"encoder":"408343375928","distractor":"408343375925","target":"absent","response":"absent","rt":"5778.2999992371","correct":true,"confidence":5},{"trial_n":92,"span":12,"encoder":"720025012896","distractor":"720024012896","target":"absent","response":"absent","rt":"5415.1999998093","correct":true,"confidence":5},{"trial_n":93,"span":13,"encoder":"7455932098592","distractor":"7455932098593","target":"absent","response":"absent","rt":"6588.5999994278","correct":true,"confidence":4},{"trial_n":94,"span":13,"encoder":"9091547928663","distractor":"8091547928663","target":"present","response":"present","rt":"10311.100000381","correct":true,"confidence":3},{"trial_n":95,"span":14,"encoder":"30896651672795","distractor":"10896651672795","target":"present","response":"present","rt":"32573.100000381","correct":true,"confidence":2},{"trial_n":96,"span":14,"encoder":"40937565372218","distractor":"40937465372218","target":"present","response":"absent","rt":"16353.599999428","correct":false,"confidence":2},{"trial_n":97,"span":13,"encoder":"7200192545876","distractor":"7200192545878","target":"present","response":"present","rt":"2909.6999998093","correct":true,"confidence":5},{"trial_n":98,"span":13,"encoder":"0668592297392","distractor":"0668592207392","target":"absent","response":"present","rt":"11913.700000763","correct":false,"confidence":4},{"trial_n":99,"span":12,"encoder":"431313640018","distractor":"031313640018","target":"present","response":"present","rt":"11448","correct":true,"confidence":5},{"trial_n":100,"span":12,"encoder":"523431892517","distractor":"523437892517","target":"present","response":"present","rt":"7881.1000003815","correct":true,"confidence":3},{"trial_n":101,"span":13,"encoder":"8362294747295","distractor":"8302294747295","target":"present","response":"present","rt":"8483.6000003815","correct":true,"confidence":2},{"trial_n":102,"span":13,"encoder":"1210704716166","distractor":"1240704716166","target":"present","response":"present","rt":"25025.300000191","correct":true,"confidence":3},{"trial_n":103,"span":14,"encoder":"08930635329118","distractor":"08930635029118","target":"absent","response":"absent","rt":"13079","correct":true,"confidence":4},{"trial_n":104,"span":14,"encoder":"36494125663358","distractor":"36494125663388","target":"absent","response":"absent","rt":"8827.8999996185","correct":true,"confidence":4},{"trial_n":105,"span":15,"encoder":"861900151641337","distractor":"867900151641337","target":"absent","response":"present","rt":"17727.299999237","correct":false,"confidence":3},{"trial_n":106,"span":14,"encoder":"50949528170772","distractor":"50949128170772","target":"present","response":"present","rt":"12575.800000191","correct":true,"confidence":2},{"trial_n":107,"span":14,"encoder":"24307218846671","distractor":"24307219846671","target":"absent","response":"absent","rt":"5376.0999994278","correct":true,"confidence":5},{"trial_n":108,"span":15,"encoder":"663154735040896","distractor":"463154735040896","target":"present","response":"absent","rt":"6812","correct":false,"confidence":3},{"trial_n":109,"span":14,"encoder":"00108696631945","distractor":"01108696631945","target":"present","response":"present","rt":"11934.100000381","correct":true,"confidence":3},{"trial_n":110,"span":14,"encoder":"21591331534073","distractor":"21091331534073","target":"absent","response":"present","rt":"3537.6000003815","correct":false,"confidence":5},{"trial_n":111,"span":13,"encoder":"4520293902097","distractor":"4520293932097","target":"present","response":"present","rt":"3555.1999998093","correct":true,"confidence":5},{"trial_n":112,"span":13,"encoder":"8602813014230","distractor":"8602813014210","target":"absent","response":"absent","rt":"5483.8000001907","correct":true,"confidence":5},{"trial_n":113,"span":14,"encoder":"02339322459734","distractor":"02339342459734","target":"absent","response":"absent","rt":"8325.9000005722","correct":true,"confidence":3},{"trial_n":114,"span":14,"encoder":"67402250329782","distractor":"67402250829782","target":"present","response":"present","rt":"6455.0999994278","correct":true,"confidence":5},{"trial_n":115,"span":15,"encoder":"390321734795789","distractor":"390321234795789","target":"present","response":"present","rt":"7470.2999992371","correct":true,"confidence":5},{"trial_n":116,"span":15,"encoder":"600747599743237","distractor":"600847599743237","target":"absent","response":"absent","rt":"8720.3000001907","correct":true,"confidence":5},{"trial_n":117,"span":16,"encoder":"9940945986369191","distractor":"9940941986369191","target":"absent","response":"present","rt":"16047.100000381","correct":false,"confidence":3},{"trial_n":118,"span":15,"encoder":"078709136969424","distractor":"078709136169424","target":"present","response":"present","rt":"5139.8999996185","correct":true,"confidence":4},{"trial_n":119,"span":15,"encoder":"708229520688446","distractor":"708229520688441","target":"present","response":"present","rt":"2072.5","correct":true,"confidence":5},{"trial_n":120,"span":16,"encoder":"2226434335435317","distractor":"2226434135435317","target":"absent","response":"absent","rt":"16704.599999428","correct":true,"confidence":2},{"trial_n":121,"span":16,"encoder":"9004577053660095","distractor":"9004577053660695","target":"absent","response":"absent","rt":"4506.8999996185","correct":true,"confidence":4},{"trial_n":122,"span":17,"encoder":"68666046291346084","distractor":"68656046291346084","target":"absent","response":"present","rt":"9146.9000005722","correct":false,"confidence":3},{"trial_n":123,"span":16,"encoder":"1505004442371336","distractor":"1505004432371336","target":"absent","response":"absent","rt":"6294","correct":true,"confidence":4},{"trial_n":124,"span":16,"encoder":"2497304852638437","distractor":"2498304852638437","target":"present","response":"absent","rt":"7223.2999992371","correct":false,"confidence":2},{"trial_n":125,"span":15,"encoder":"366531220397230","distractor":"266531220397230","target":"absent","response":"present","rt":"3858.4000005722","correct":false,"confidence":3},{"trial_n":126,"span":14,"encoder":"47490098919720","distractor":"47490398919720","target":"absent","response":"absent","rt":"9470.3999996185","correct":true,"confidence":2},{"trial_n":127,"span":14,"encoder":"47477651329169","distractor":"47477651929169","target":"present","response":"absent","rt":"9691.0999994278","correct":false,"confidence":3},{"trial_n":128,"span":13,"encoder":"1050360986437","distractor":"1050360986637","target":"present","response":"absent","rt":"10684.400000572","correct":false,"confidence":3},{"trial_n":129,"span":12,"encoder":"529717347235","distractor":"629717347235","target":"present","response":"present","rt":"7070.8000001907","correct":true,"confidence":2},{"trial_n":130,"span":12,"encoder":"676186819169","distractor":"076186819169","target":"present","response":"present","rt":"5252.8999996185","correct":true,"confidence":3},{"trial_n":131,"span":13,"encoder":"3199241817623","distractor":"3199241817723","target":"present","response":"present","rt":"2484.3000001907","correct":true,"confidence":5},{"trial_n":132,"span":13,"encoder":"5762673317608","distractor":"5762073317608","target":"absent","response":"present","rt":"8698.6000003815","correct":false,"confidence":3},{"trial_n":133,"span":12,"encoder":"700879105711","distractor":"700679105711","target":"absent","response":"absent","rt":"4901.6000003815","correct":true,"confidence":5},{"trial_n":134,"span":12,"encoder":"020585750779","distractor":"020580750779","target":"present","response":"present","rt":"6031.5999994278","correct":true,"confidence":4},{"trial_n":135,"span":13,"encoder":"1293038732600","distractor":"1293038752600","target":"present","response":"present","rt":"7498.3999996185","correct":true,"confidence":3},{"trial_n":136,"span":13,"encoder":"3880479167888","distractor":"3880479167388","target":"absent","response":"absent","rt":"5174.4000005722","correct":true,"confidence":4},{"trial_n":137,"span":14,"encoder":"89349746154720","distractor":"89349746154722","target":"present","response":"present","rt":"9618.8000001907","correct":true,"confidence":3},{"trial_n":138,"span":14,"encoder":"66314943925742","distractor":"66314943965742","target":"absent","response":"present","rt":"9401.4000005722","correct":false,"confidence":2},{"trial_n":139,"span":13,"encoder":"1618586702019","distractor":"1618586752019","target":"absent","response":"absent","rt":"4677.5","correct":true,"confidence":4},{"trial_n":140,"span":13,"encoder":"4554447103965","distractor":"4594447103965","target":"present","response":"present","rt":"3313.3000001907","correct":true,"confidence":5}]