[{"trial_n":1,"min":25,"max":230,"target":"present","response":"present","rt":5890.1000001431,"correct":true,"confidence":-1},{"trial_n":2,"min":25,"max":230,"target":"present","response":"present","rt":535.90000009537,"correct":true,"confidence":-1},{"trial_n":3,"min":41,"max":214,"target":"absent","response":"absent","rt":611.5,"correct":true,"confidence":-1},{"trial_n":4,"min":41,"max":214,"target":"absent","response":"absent","rt":429.90000009537,"correct":true,"confidence":-1},{"trial_n":5,"min":57,"max":198,"target":"present","response":"present","rt":156,"correct":true,"confidence":-1},{"trial_n":6,"min":57,"max":198,"target":"present","response":"present","rt":225.40000009537,"correct":true,"confidence":-1},{"trial_n":7,"min":73,"max":182,"target":"absent","response":"absent","rt":323.79999995232,"correct":true,"confidence":-1},{"trial_n":8,"min":73,"max":182,"target":"absent","response":"absent","rt":272.59999990463,"correct":true,"confidence":-1},{"trial_n":9,"min":89,"max":166,"target":"absent","response":"absent","rt":234,"correct":true,"confidence":-1},{"trial_n":10,"min":89,"max":166,"target":"present","response":"absent","rt":169.40000009537,"correct":false,"confidence":-1},{"trial_n":11,"min":81,"max":174,"target":"present","response":"present","rt":223.5,"correct":true,"confidence":-1},{"trial_n":12,"min":81,"max":174,"target":"present","response":"present","rt":247.09999990463,"correct":true,"confidence":-1},{"trial_n":13,"min":89,"max":166,"target":"present","response":"absent","rt":206.29999995232,"correct":false,"confidence":-1},{"trial_n":14,"min":81,"max":174,"target":"absent","response":"absent","rt":347.59999990463,"correct":true,"confidence":-1},{"trial_n":15,"min":81,"max":174,"target":"absent","response":"absent","rt":256.70000004768,"correct":true,"confidence":-1},{"trial_n":16,"min":89,"max":166,"target":"absent","response":"absent","rt":256.39999985695,"correct":true,"confidence":-1},{"trial_n":17,"min":89,"max":166,"target":"present","response":"absent","rt":282.59999990463,"correct":false,"confidence":-1},{"trial_n":18,"min":81,"max":174,"target":"present","response":"present","rt":399.79999995232,"correct":true,"confidence":-1},{"trial_n":19,"min":81,"max":174,"target":"present","response":"present","rt":398.79999995232,"correct":true,"confidence":-1},{"trial_n":20,"min":89,"max":166,"target":"present","response":"present","rt":646.90000009537,"correct":true,"confidence":-1},{"trial_n":21,"min":89,"max":166,"target":"present","response":"absent","rt":529.29999995232,"correct":false,"confidence":1},{"trial_n":22,"min":85,"max":170,"target":"absent","response":"absent","rt":1304.2000000477,"correct":true,"confidence":1},{"trial_n":23,"min":85,"max":170,"target":"present","response":"absent","rt":405.89999985695,"correct":false,"confidence":1},{"trial_n":24,"min":81,"max":174,"target":"absent","response":"absent","rt":637.80000019073,"correct":true,"confidence":1},{"trial_n":25,"min":81,"max":174,"target":"present","response":"present","rt":733,"correct":true,"confidence":3},{"trial_n":26,"min":85,"max":170,"target":"absent","response":"absent","rt":517.29999995232,"correct":true,"confidence":2},{"trial_n":27,"min":85,"max":170,"target":"absent","response":"present","rt":1001.7000000477,"correct":false,"confidence":3},{"trial_n":28,"min":81,"max":174,"target":"absent","response":"absent","rt":954.20000004768,"correct":true,"confidence":2},{"trial_n":29,"min":81,"max":174,"target":"absent","response":"absent","rt":1374.3999998569,"correct":true,"confidence":4},{"trial_n":30,"min":85,"max":170,"target":"present","response":"absent","rt":1639.2000000477,"correct":false,"confidence":3},{"trial_n":31,"min":83,"max":172,"target":"absent","response":"absent","rt":713,"correct":true,"confidence":3},{"trial_n":32,"min":83,"max":172,"target":"absent","response":"absent","rt":1195.4000000954,"correct":true,"confidence":1},{"trial_n":33,"min":85,"max":170,"target":"absent","response":"absent","rt":916.29999995232,"correct":true,"confidence":1},{"trial_n":34,"min":85,"max":170,"target":"absent","response":"absent","rt":440.59999990463,"correct":true,"confidence":1},{"trial_n":35,"min":87,"max":168,"target":"present","response":"present","rt":515.5,"correct":true,"confidence":3},{"trial_n":36,"min":87,"max":168,"target":"absent","response":"absent","rt":760.10000014305,"correct":true,"confidence":3},{"trial_n":37,"min":89,"max":166,"target":"present","response":"absent","rt":666.60000014305,"correct":false,"confidence":4},{"trial_n":38,"min":87,"max":168,"target":"present","response":"present","rt":975.59999990463,"correct":true,"confidence":4},{"trial_n":39,"min":87,"max":168,"target":"absent","response":"absent","rt":528.79999995232,"correct":true,"confidence":3},{"trial_n":40,"min":89,"max":166,"target":"present","response":"present","rt":1004.3999998569,"correct":true,"confidence":4},{"trial_n":41,"min":89,"max":166,"target":"absent","response":"present","rt":751.59999990463,"correct":false,"confidence":3},{"trial_n":42,"min":88,"max":167,"target":"present","response":"present","rt":890.60000014305,"correct":true,"confidence":2},{"trial_n":43,"min":88,"max":167,"target":"present","response":"absent","rt":722.29999995232,"correct":false,"confidence":1},{"trial_n":44,"min":87,"max":168,"target":"absent","response":"absent","rt":994.20000004768,"correct":true,"confidence":1},{"trial_n":45,"min":87,"max":168,"target":"present","response":"absent","rt":3314.2000000477,"correct":false,"confidence":1},{"trial_n":46,"min":86,"max":169,"target":"absent","response":"absent","rt":1224.2999999523,"correct":true,"confidence":1},{"trial_n":47,"min":86,"max":169,"target":"absent","response":"present","rt":1179.9000000954,"correct":false,"confidence":1},{"trial_n":48,"min":85,"max":170,"target":"absent","response":"absent","rt":753,"correct":true,"confidence":3},{"trial_n":49,"min":85,"max":170,"target":"present","response":"present","rt":713.90000009537,"correct":true,"confidence":4},{"trial_n":50,"min":86,"max":169,"target":"present","response":"present","rt":1384.2999999523,"correct":true,"confidence":5},{"trial_n":51,"min":86,"max":169,"target":"present","response":"present","rt":1699.7000000477,"correct":true,"confidence":3},{"trial_n":52,"min":87,"max":168,"target":"absent","response":"absent","rt":1779.7000000477,"correct":true,"confidence":3},{"trial_n":53,"min":87,"max":168,"target":"absent","response":"absent","rt":2042.8999998569,"correct":true,"confidence":1},{"trial_n":54,"min":88,"max":167,"target":"present","response":"present","rt":1193,"correct":true,"confidence":3},{"trial_n":55,"min":88,"max":167,"target":"absent","response":"absent","rt":1040.3000001907,"correct":true,"confidence":2},{"trial_n":56,"min":89,"max":166,"target":"absent","response":"present","rt":698.5,"correct":false,"confidence":3},{"trial_n":57,"min":88,"max":167,"target":"present","response":"present","rt":665.40000009537,"correct":true,"confidence":2},{"trial_n":58,"min":88,"max":167,"target":"present","response":"present","rt":529.59999990463,"correct":true,"confidence":4},{"trial_n":59,"min":89,"max":166,"target":"absent","response":"present","rt":517.39999985695,"correct":false,"confidence":2},{"trial_n":60,"min":88,"max":167,"target":"absent","response":"absent","rt":544,"correct":true,"confidence":2},{"trial_n":61,"min":88,"max":167,"target":"present","response":"absent","rt":1585.6999998093,"correct":false,"confidence":2},{"trial_n":62,"min":87,"max":168,"target":"present","response":"present","rt":1059.5,"correct":true,"confidence":4},{"trial_n":63,"min":87,"max":168,"target":"present","response":"absent","rt":923.90000009537,"correct":false,"confidence":3},{"trial_n":64,"min":86,"max":169,"target":"present","response":"present","rt":641.09999990463,"correct":true,"confidence":5},{"trial_n":65,"min":86,"max":169,"target":"absent","response":"absent","rt":1933.1999998093,"correct":true,"confidence":3},{"trial_n":66,"min":87,"max":168,"target":"present","response":"absent","rt":1191.4000000954,"correct":false,"confidence":2},{"trial_n":67,"min":86,"max":169,"target":"present","response":"absent","rt":1765.5,"correct":false,"confidence":4},{"trial_n":68,"min":85,"max":170,"target":"absent","response":"absent","rt":1108.2000000477,"correct":true,"confidence":4},{"trial_n":69,"min":85,"max":170,"target":"present","response":"absent","rt":1015.6000001431,"correct":false,"confidence":3},{"trial_n":70,"min":84,"max":171,"target":"absent","response":"absent","rt":1355.1000001431,"correct":true,"confidence":2},{"trial_n":71,"min":41,"max":214,"target":"present","response":"present","rt":2541,"correct":true,"confidence":-1},{"trial_n":72,"min":41,"max":214,"target":"present","response":"present","rt":224.59999990463,"correct":true,"confidence":-1},{"trial_n":73,"min":57,"max":198,"target":"absent","response":"absent","rt":54.399999856949,"correct":true,"confidence":-1},{"trial_n":74,"min":57,"max":198,"target":"absent","response":"absent","rt":217.89999985695,"correct":true,"confidence":-1},{"trial_n":75,"min":73,"max":182,"target":"present","response":"present","rt":244.10000014305,"correct":true,"confidence":-1},{"trial_n":76,"min":73,"max":182,"target":"present","response":"absent","rt":-1.2999999523163,"correct":false,"confidence":-1},{"trial_n":77,"min":57,"max":198,"target":"present","response":"present","rt":1113.1000001431,"correct":true,"confidence":-1},{"trial_n":78,"min":57,"max":198,"target":"absent","response":"absent","rt":328.40000009537,"correct":true,"confidence":-1},{"trial_n":79,"min":73,"max":182,"target":"absent","response":"present","rt":734.40000009537,"correct":false,"confidence":-1},{"trial_n":80,"min":57,"max":198,"target":"absent","response":"present","rt":448.79999995232,"correct":false,"confidence":-1},{"trial_n":81,"min":49,"max":206,"target":"absent","response":"absent","rt":391.20000004768,"correct":true,"confidence":-1},{"trial_n":82,"min":49,"max":206,"target":"absent","response":"absent","rt":381.60000014305,"correct":true,"confidence":-1},{"trial_n":83,"min":57,"max":198,"target":"present","response":"present","rt":122.59999990463,"correct":true,"confidence":-1},{"trial_n":84,"min":57,"max":198,"target":"present","response":"present","rt":350,"correct":true,"confidence":-1},{"trial_n":85,"min":65,"max":190,"target":"present","response":"present","rt":1072.3999998569,"correct":true,"confidence":-1},{"trial_n":86,"min":65,"max":190,"target":"present","response":"present","rt":258.79999995232,"correct":true,"confidence":-1},{"trial_n":87,"min":73,"max":182,"target":"absent","response":"absent","rt":277.5,"correct":true,"confidence":-1},{"trial_n":88,"min":73,"max":182,"target":"present","response":"present","rt":235.5,"correct":true,"confidence":-1},{"trial_n":89,"min":81,"max":174,"target":"present","response":"present","rt":551.20000004768,"correct":true,"confidence":-1},{"trial_n":90,"min":81,"max":174,"target":"absent","response":"absent","rt":353.89999985695,"correct":true,"confidence":-1},{"trial_n":91,"min":85,"max":170,"target":"absent","response":"present","rt":578.79999995232,"correct":false,"confidence":2},{"trial_n":92,"min":81,"max":174,"target":"absent","response":"absent","rt":765.80000019073,"correct":true,"confidence":4},{"trial_n":93,"min":81,"max":174,"target":"absent","response":"absent","rt":827.59999990463,"correct":true,"confidence":3},{"trial_n":94,"min":85,"max":170,"target":"present","response":"present","rt":454.09999990463,"correct":true,"confidence":2},{"trial_n":95,"min":85,"max":170,"target":"absent","response":"absent","rt":949.59999990463,"correct":true,"confidence":2},{"trial_n":96,"min":89,"max":166,"target":"present","response":"absent","rt":1546.5,"correct":false,"confidence":1},{"trial_n":97,"min":85,"max":170,"target":"absent","response":"absent","rt":447.90000009537,"correct":true,"confidence":3},{"trial_n":98,"min":85,"max":170,"target":"present","response":"absent","rt":701.40000009537,"correct":false,"confidence":2},{"trial_n":99,"min":81,"max":174,"target":"absent","response":"present","rt":619.69999980927,"correct":false,"confidence":2},{"trial_n":100,"min":77,"max":178,"target":"present","response":"present","rt":125,"correct":true,"confidence":4},{"trial_n":101,"min":77,"max":178,"target":"present","response":"absent","rt":3922.2000000477,"correct":false,"confidence":1},{"trial_n":102,"min":75,"max":180,"target":"absent","response":"absent","rt":930.70000004768,"correct":true,"confidence":3},{"trial_n":103,"min":75,"max":180,"target":"absent","response":"present","rt":1247.4000000954,"correct":false,"confidence":2},{"trial_n":104,"min":73,"max":182,"target":"present","response":"present","rt":479.59999990463,"correct":true,"confidence":3},{"trial_n":105,"min":73,"max":182,"target":"absent","response":"absent","rt":599.89999985695,"correct":true,"confidence":3},{"trial_n":106,"min":75,"max":180,"target":"present","response":"present","rt":404,"correct":true,"confidence":5},{"trial_n":107,"min":75,"max":180,"target":"present","response":"present","rt":350.89999985695,"correct":true,"confidence":5},{"trial_n":108,"min":77,"max":178,"target":"present","response":"absent","rt":1309.1000001431,"correct":false,"confidence":2},{"trial_n":109,"min":75,"max":180,"target":"absent","response":"absent","rt":618,"correct":true,"confidence":4},{"trial_n":110,"min":75,"max":180,"target":"present","response":"present","rt":382.5,"correct":true,"confidence":5},{"trial_n":111,"min":76,"max":179,"target":"present","response":"present","rt":541.10000014305,"correct":true,"confidence":5},{"trial_n":112,"min":76,"max":179,"target":"absent","response":"absent","rt":648.29999995232,"correct":true,"confidence":5},{"trial_n":113,"min":77,"max":178,"target":"absent","response":"absent","rt":857.70000004768,"correct":true,"confidence":5},{"trial_n":114,"min":77,"max":178,"target":"absent","response":"absent","rt":481.70000004768,"correct":true,"confidence":5},{"trial_n":115,"min":78,"max":177,"target":"present","response":"present","rt":367.5,"correct":true,"confidence":5},{"trial_n":116,"min":78,"max":177,"target":"absent","response":"absent","rt":1099.0999999046,"correct":true,"confidence":5},{"trial_n":117,"min":79,"max":176,"target":"present","response":"present","rt":350.29999995232,"correct":true,"confidence":5},{"trial_n":118,"min":79,"max":176,"target":"absent","response":"absent","rt":523,"correct":true,"confidence":5},{"trial_n":119,"min":80,"max":175,"target":"absent","response":"absent","rt":900.09999990463,"correct":true,"confidence":4},{"trial_n":120,"min":80,"max":175,"target":"present","response":"present","rt":385.5,"correct":true,"confidence":5},{"trial_n":121,"min":81,"max":174,"target":"absent","response":"absent","rt":729.79999995232,"correct":true,"confidence":1},{"trial_n":122,"min":81,"max":174,"target":"present","response":"present","rt":297.20000004768,"correct":true,"confidence":3},{"trial_n":123,"min":82,"max":173,"target":"present","response":"present","rt":377.5,"correct":true,"confidence":4},{"trial_n":124,"min":82,"max":173,"target":"present","response":"present","rt":2399.0999999046,"correct":true,"confidence":4},{"trial_n":125,"min":83,"max":172,"target":"absent","response":"absent","rt":783,"correct":true,"confidence":4},{"trial_n":126,"min":83,"max":172,"target":"present","response":"present","rt":311.5,"correct":true,"confidence":5},{"trial_n":127,"min":84,"max":171,"target":"absent","response":"absent","rt":635.09999990463,"correct":true,"confidence":5},{"trial_n":128,"min":84,"max":171,"target":"present","response":"present","rt":1031.5999999046,"correct":true,"confidence":5},{"trial_n":129,"min":85,"max":170,"target":"present","response":"present","rt":1002.1000001431,"correct":true,"confidence":4},{"trial_n":130,"min":85,"max":170,"target":"absent","response":"absent","rt":583.79999995232,"correct":true,"confidence":4},{"trial_n":131,"min":86,"max":169,"target":"present","response":"present","rt":494.20000004768,"correct":true,"confidence":4},{"trial_n":132,"min":86,"max":169,"target":"absent","response":"absent","rt":646.5,"correct":true,"confidence":4},{"trial_n":133,"min":87,"max":168,"target":"present","response":"absent","rt":634.89999985695,"correct":false,"confidence":4},{"trial_n":134,"min":86,"max":169,"target":"present","response":"present","rt":403.5,"correct":true,"confidence":4},{"trial_n":135,"min":86,"max":169,"target":"absent","response":"present","rt":1358.5999999046,"correct":false,"confidence":1},{"trial_n":136,"min":85,"max":170,"target":"present","response":"present","rt":429.80000019073,"correct":true,"confidence":5},{"trial_n":137,"min":85,"max":170,"target":"absent","response":"absent","rt":571.20000004768,"correct":true,"confidence":5},{"trial_n":138,"min":86,"max":169,"target":"absent","response":"absent","rt":490.70000004768,"correct":true,"confidence":5},{"trial_n":139,"min":86,"max":169,"target":"absent","response":"absent","rt":690.89999985695,"correct":true,"confidence":4},{"trial_n":140,"min":87,"max":168,"target":"present","response":"present","rt":353.90000009537,"correct":true,"confidence":5}]