[{"trial_n":1,"span":8,"encoder":"79736081","distractor":"71736081","target":"present","response":"present","rt":"6458","correct":true,"confidence":-1},{"trial_n":2,"span":8,"encoder":"88439338","distractor":"88439333","target":"present","response":"present","rt":"2270","correct":true,"confidence":-1},{"trial_n":3,"span":10,"encoder":"8570353238","distractor":"8570353738","target":"absent","response":"present","rt":"5357","correct":false,"confidence":-1},{"trial_n":4,"span":8,"encoder":"22343786","distractor":"22303786","target":"absent","response":"absent","rt":"4125","correct":true,"confidence":-1},{"trial_n":5,"span":8,"encoder":"13644611","distractor":"13944611","target":"present","response":"present","rt":"3986","correct":true,"confidence":-1},{"trial_n":6,"span":10,"encoder":"6596938758","distractor":"6596938788","target":"absent","response":"absent","rt":"2848","correct":true,"confidence":-1},{"trial_n":7,"span":10,"encoder":"5253494231","distractor":"5253499231","target":"present","response":"present","rt":"5834","correct":true,"confidence":-1},{"trial_n":8,"span":12,"encoder":"369628170613","distractor":"469628170613","target":"absent","response":"absent","rt":"4425","correct":true,"confidence":-1},{"trial_n":9,"span":12,"encoder":"777598371902","distractor":"777568371902","target":"present","response":"present","rt":"5165","correct":true,"confidence":-1},{"trial_n":10,"span":14,"encoder":"49437210175580","distractor":"49437240175580","target":"absent","response":"present","rt":"6760","correct":false,"confidence":-1},{"trial_n":11,"span":12,"encoder":"398084041115","distractor":"398084061115","target":"present","response":"absent","rt":"2904","correct":false,"confidence":-1},{"trial_n":12,"span":11,"encoder":"03697119409","distractor":"63697119409","target":"present","response":"present","rt":"3172","correct":true,"confidence":-1},{"trial_n":13,"span":11,"encoder":"90328745232","distractor":"91328745232","target":"present","response":"present","rt":"5687","correct":true,"confidence":-1},{"trial_n":14,"span":12,"encoder":"894098276020","distractor":"894038276020","target":"absent","response":"absent","rt":"5824","correct":true,"confidence":-1},{"trial_n":15,"span":12,"encoder":"738026180009","distractor":"738026189009","target":"present","response":"absent","rt":"3807","correct":false,"confidence":-1},{"trial_n":16,"span":11,"encoder":"69592284254","distractor":"69552284254","target":"absent","response":"present","rt":"7586","correct":false,"confidence":-1},{"trial_n":17,"span":10,"encoder":"3377288968","distractor":"3377218968","target":"present","response":"present","rt":"3885","correct":true,"confidence":-1},{"trial_n":18,"span":10,"encoder":"7645128780","distractor":"7645121780","target":"absent","response":"present","rt":"4609","correct":false,"confidence":-1},{"trial_n":19,"span":9,"encoder":"953390237","distractor":"953390277","target":"absent","response":"absent","rt":"4464","correct":true,"confidence":-1},{"trial_n":20,"span":9,"encoder":"388168337","distractor":"382168337","target":"present","response":"present","rt":"4715","correct":true,"confidence":-1},{"trial_n":21,"span":10,"encoder":"3203211695","distractor":"3203211685","target":"present","response":"present","rt":"5265","correct":true,"confidence":3},{"trial_n":22,"span":10,"encoder":"4940417589","distractor":"6940417589","target":"absent","response":"absent","rt":"9907","correct":true,"confidence":2},{"trial_n":23,"span":11,"encoder":"11901770471","distractor":"11991770471","target":"absent","response":"present","rt":"5808","correct":false,"confidence":2},{"trial_n":24,"span":10,"encoder":"4815320196","distractor":"4895320196","target":"absent","response":"present","rt":"4178","correct":false,"confidence":4},{"trial_n":25,"span":9,"encoder":"272285062","distractor":"272245062","target":"present","response":"present","rt":"5664","correct":true,"confidence":3},{"trial_n":26,"span":9,"encoder":"835113237","distractor":"835813237","target":"absent","response":"present","rt":"4288","correct":false,"confidence":2},{"trial_n":27,"span":8,"encoder":"71500719","distractor":"70500719","target":"present","response":"present","rt":"3259","correct":true,"confidence":5},{"trial_n":28,"span":8,"encoder":"47186846","distractor":"57186846","target":"present","response":"present","rt":"3739","correct":true,"confidence":4},{"trial_n":29,"span":9,"encoder":"651602792","distractor":"751602792","target":"absent","response":"absent","rt":"6024","correct":true,"confidence":2},{"trial_n":30,"span":9,"encoder":"656383872","distractor":"696383872","target":"present","response":"present","rt":"4993","correct":true,"confidence":3},{"trial_n":31,"span":10,"encoder":"0638472608","distractor":"0538472608","target":"present","response":"present","rt":"13933","correct":true,"confidence":3},{"trial_n":32,"span":10,"encoder":"8582704917","distractor":"8584704917","target":"absent","response":"present","rt":"4839","correct":false,"confidence":3},{"trial_n":33,"span":9,"encoder":"699106007","distractor":"699106507","target":"absent","response":"present","rt":"4807","correct":false,"confidence":3},{"trial_n":34,"span":8,"encoder":"35195190","distractor":"15195190","target":"absent","response":"absent","rt":"3606","correct":true,"confidence":3},{"trial_n":35,"span":8,"encoder":"89192089","distractor":"79192089","target":"present","response":"present","rt":"3944","correct":true,"confidence":3},{"trial_n":36,"span":9,"encoder":"391458143","distractor":"395458143","target":"present","response":"present","rt":"4518","correct":true,"confidence":3},{"trial_n":37,"span":9,"encoder":"953878745","distractor":"953878785","target":"present","response":"present","rt":"4855","correct":true,"confidence":3},{"trial_n":38,"span":10,"encoder":"4001579671","distractor":"8001579671","target":"present","response":"absent","rt":"5172","correct":false,"confidence":2},{"trial_n":39,"span":9,"encoder":"653615084","distractor":"653618084","target":"absent","response":"absent","rt":"8015","correct":true,"confidence":3},{"trial_n":40,"span":9,"encoder":"047265257","distractor":"047265252","target":"absent","response":"absent","rt":"3646","correct":true,"confidence":5},{"trial_n":41,"span":10,"encoder":"4286871241","distractor":"4286271241","target":"present","response":"absent","rt":"8955","correct":false,"confidence":3},{"trial_n":42,"span":9,"encoder":"901243510","distractor":"901240510","target":"absent","response":"absent","rt":"7378","correct":true,"confidence":3},{"trial_n":43,"span":9,"encoder":"972342564","distractor":"977342564","target":"present","response":"absent","rt":"6268","correct":false,"confidence":4},{"trial_n":44,"span":8,"encoder":"64258362","distractor":"64458362","target":"present","response":"present","rt":"5089","correct":true,"confidence":4},{"trial_n":45,"span":8,"encoder":"19654072","distractor":"19604072","target":"absent","response":"absent","rt":"4865","correct":true,"confidence":3},{"trial_n":46,"span":9,"encoder":"324731943","distractor":"324731949","target":"absent","response":"absent","rt":"5208","correct":true,"confidence":3},{"trial_n":47,"span":9,"encoder":"026671368","distractor":"226671368","target":"absent","response":"absent","rt":"10418","correct":true,"confidence":1},{"trial_n":48,"span":10,"encoder":"9476972546","distractor":"9476972541","target":"absent","response":"absent","rt":"5567","correct":true,"confidence":4},{"trial_n":49,"span":10,"encoder":"2185232118","distractor":"2185272118","target":"absent","response":"present","rt":"7184","correct":false,"confidence":2},{"trial_n":50,"span":9,"encoder":"039935172","distractor":"039935122","target":"absent","response":"absent","rt":"4974","correct":true,"confidence":3},{"trial_n":51,"span":9,"encoder":"979523764","distractor":"979523794","target":"present","response":"present","rt":"3896","correct":true,"confidence":3},{"trial_n":52,"span":10,"encoder":"5539421373","distractor":"5539401373","target":"absent","response":"absent","rt":"4170","correct":true,"confidence":4},{"trial_n":53,"span":10,"encoder":"4083125158","distractor":"4083185158","target":"absent","response":"absent","rt":"4361","correct":true,"confidence":4},{"trial_n":54,"span":11,"encoder":"47063509726","distractor":"47063709726","target":"absent","response":"present","rt":"7408","correct":false,"confidence":3},{"trial_n":55,"span":10,"encoder":"6402494306","distractor":"6462494306","target":"present","response":"absent","rt":"5284","correct":false,"confidence":2},{"trial_n":56,"span":9,"encoder":"867206669","distractor":"865206669","target":"present","response":"absent","rt":"5734","correct":false,"confidence":3},{"trial_n":57,"span":8,"encoder":"82703007","distractor":"81703007","target":"present","response":"present","rt":"4612","correct":true,"confidence":4},{"trial_n":58,"span":8,"encoder":"62434164","distractor":"62434169","target":"absent","response":"absent","rt":"1952","correct":true,"confidence":5},{"trial_n":59,"span":9,"encoder":"492858588","distractor":"492858586","target":"present","response":"present","rt":"4530","correct":true,"confidence":3},{"trial_n":60,"span":9,"encoder":"382347186","distractor":"382344186","target":"absent","response":"absent","rt":"4236","correct":true,"confidence":4},{"trial_n":61,"span":10,"encoder":"8056196107","distractor":"8056198107","target":"absent","response":"absent","rt":"7217","correct":true,"confidence":3},{"trial_n":62,"span":10,"encoder":"5490333244","distractor":"5490333224","target":"present","response":"present","rt":"4216","correct":true,"confidence":1},{"trial_n":63,"span":11,"encoder":"49044519333","distractor":"49044559333","target":"present","response":"present","rt":"4985","correct":true,"confidence":2},{"trial_n":64,"span":11,"encoder":"39449219002","distractor":"39446219002","target":"present","response":"absent","rt":"3325","correct":false,"confidence":4},{"trial_n":65,"span":10,"encoder":"1641473947","distractor":"1641479947","target":"absent","response":"absent","rt":"3531","correct":true,"confidence":4},{"trial_n":66,"span":10,"encoder":"1402858435","distractor":"1402854435","target":"present","response":"present","rt":"3742","correct":true,"confidence":2},{"trial_n":67,"span":11,"encoder":"92170243464","distractor":"92170243664","target":"absent","response":"present","rt":"8515","correct":false,"confidence":3},{"trial_n":68,"span":10,"encoder":"4895493236","distractor":"4895493636","target":"present","response":"present","rt":"5103","correct":true,"confidence":3},{"trial_n":69,"span":10,"encoder":"1415292646","distractor":"1415292606","target":"present","response":"present","rt":"4679","correct":true,"confidence":2},{"trial_n":70,"span":11,"encoder":"58864142463","distractor":"58164142463","target":"present","response":"present","rt":"5845","correct":true,"confidence":4},{"trial_n":71,"span":8,"encoder":"54069712","distractor":"54029712","target":"present","response":"present","rt":"9598","correct":true,"confidence":-1},{"trial_n":72,"span":8,"encoder":"76242455","distractor":"76282455","target":"present","response":"present","rt":"3484","correct":true,"confidence":-1},{"trial_n":73,"span":9,"encoder":"906750324","distractor":"908750324","target":"absent","response":"absent","rt":"2985","correct":true,"confidence":-1},{"trial_n":74,"span":9,"encoder":"031940964","distractor":"031940984","target":"absent","response":"absent","rt":"6366","correct":true,"confidence":-1},{"trial_n":75,"span":10,"encoder":"3679812075","distractor":"3649812075","target":"present","response":"absent","rt":"9394","correct":false,"confidence":-1},{"trial_n":76,"span":9,"encoder":"770866609","distractor":"770866649","target":"absent","response":"absent","rt":"2405","correct":true,"confidence":-1},{"trial_n":77,"span":9,"encoder":"649821779","distractor":"609821779","target":"present","response":"absent","rt":"2896","correct":false,"confidence":-1},{"trial_n":78,"span":8,"encoder":"54490527","distractor":"54490524","target":"absent","response":"absent","rt":"2071","correct":true,"confidence":-1},{"trial_n":79,"span":8,"encoder":"98666854","distractor":"90666854","target":"present","response":"absent","rt":"591","correct":false,"confidence":-1},{"trial_n":80,"span":7,"encoder":"3405839","distractor":"3405889","target":"absent","response":"present","rt":"445","correct":false,"confidence":-1},{"trial_n":81,"span":6,"encoder":"200603","distractor":"220603","target":"absent","response":"present","rt":"301","correct":false,"confidence":-1},{"trial_n":82,"span":5,"encoder":"57300","distractor":"50300","target":"absent","response":"present","rt":"275","correct":false,"confidence":-1},{"trial_n":83,"span":4,"encoder":"9253","distractor":"2253","target":"present","response":"present","rt":"334","correct":true,"confidence":-1},{"trial_n":84,"span":4,"encoder":"4707","distractor":"4767","target":"present","response":"present","rt":"302","correct":true,"confidence":-1},{"trial_n":85,"span":5,"encoder":"57398","distractor":"57098","target":"absent","response":"absent","rt":"336","correct":true,"confidence":-1},{"trial_n":86,"span":5,"encoder":"86812","distractor":"16812","target":"absent","response":"present","rt":"356","correct":false,"confidence":-1},{"trial_n":87,"span":4,"encoder":"7507","distractor":"0507","target":"absent","response":"present","rt":"312","correct":false,"confidence":-1},{"trial_n":88,"span":3,"encoder":"436","distractor":"036","target":"absent","response":"present","rt":"446","correct":false,"confidence":-1},{"trial_n":89,"span":2,"encoder":"21","distractor":"71","target":"absent","response":"present","rt":"286","correct":false,"confidence":-1},{"trial_n":90,"span":2,"encoder":"80","distractor":"00","target":"present","response":"present","rt":"255","correct":true,"confidence":-1},{"trial_n":91,"span":2,"encoder":"31","distractor":"41","target":"absent","response":"absent","rt":"2919","correct":true,"confidence":5},{"trial_n":92,"span":3,"encoder":"778","distractor":"978","target":"present","response":"absent","rt":"3677","correct":false,"confidence":2},{"trial_n":93,"span":2,"encoder":"49","distractor":"47","target":"absent","response":"absent","rt":"1554","correct":true,"confidence":5},{"trial_n":94,"span":2,"encoder":"35","distractor":"75","target":"present","response":"present","rt":"1221","correct":true,"confidence":5},{"trial_n":95,"span":3,"encoder":"761","distractor":"767","target":"absent","response":"absent","rt":"2856","correct":true,"confidence":5},{"trial_n":96,"span":3,"encoder":"408","distractor":"498","target":"absent","response":"absent","rt":"2331","correct":true,"confidence":5},{"trial_n":97,"span":4,"encoder":"9818","distractor":"9218","target":"absent","response":"absent","rt":"2576","correct":true,"confidence":5},{"trial_n":98,"span":4,"encoder":"9495","distractor":"9595","target":"absent","response":"absent","rt":"2850","correct":true,"confidence":5},{"trial_n":99,"span":5,"encoder":"82568","distractor":"72568","target":"present","response":"present","rt":"3340","correct":true,"confidence":5},{"trial_n":100,"span":5,"encoder":"95530","distractor":"95536","target":"present","response":"present","rt":"2768","correct":true,"confidence":5},{"trial_n":101,"span":6,"encoder":"806326","distractor":"806526","target":"absent","response":"absent","rt":"2534","correct":true,"confidence":5},{"trial_n":102,"span":6,"encoder":"813935","distractor":"819935","target":"present","response":"present","rt":"2220","correct":true,"confidence":3},{"trial_n":103,"span":7,"encoder":"1680286","distractor":"1680285","target":"absent","response":"absent","rt":"4132","correct":true,"confidence":5},{"trial_n":104,"span":7,"encoder":"3925458","distractor":"3925558","target":"present","response":"present","rt":"4909","correct":true,"confidence":5},{"trial_n":105,"span":8,"encoder":"71804642","distractor":"71804602","target":"present","response":"present","rt":"1650","correct":true,"confidence":5},{"trial_n":106,"span":8,"encoder":"30805188","distractor":"36805188","target":"present","response":"absent","rt":"9320","correct":false,"confidence":4},{"trial_n":107,"span":7,"encoder":"6168652","distractor":"6169652","target":"absent","response":"absent","rt":"3787","correct":true,"confidence":2},{"trial_n":108,"span":7,"encoder":"4562705","distractor":"4562715","target":"present","response":"present","rt":"7241","correct":true,"confidence":5},{"trial_n":109,"span":8,"encoder":"30926418","distractor":"30906418","target":"present","response":"present","rt":"3705","correct":true,"confidence":4},{"trial_n":110,"span":8,"encoder":"09210693","distractor":"09210493","target":"absent","response":"absent","rt":"2905","correct":true,"confidence":5},{"trial_n":111,"span":9,"encoder":"207007164","distractor":"205007164","target":"present","response":"present","rt":"3766","correct":true,"confidence":5},{"trial_n":112,"span":9,"encoder":"933025305","distractor":"133025305","target":"present","response":"present","rt":"4653","correct":true,"confidence":3},{"trial_n":113,"span":10,"encoder":"7481154806","distractor":"7481154846","target":"present","response":"present","rt":"1724","correct":true,"confidence":5},{"trial_n":114,"span":10,"encoder":"0769674296","distractor":"0789674296","target":"absent","response":"absent","rt":"5766","correct":true,"confidence":3},{"trial_n":115,"span":11,"encoder":"74619475629","distractor":"74619475619","target":"present","response":"absent","rt":"21022","correct":false,"confidence":3},{"trial_n":116,"span":10,"encoder":"3635469380","distractor":"3635479380","target":"absent","response":"absent","rt":"8583","correct":true,"confidence":4},{"trial_n":117,"span":10,"encoder":"4191478264","distractor":"4191438264","target":"present","response":"present","rt":"6487","correct":true,"confidence":5},{"trial_n":118,"span":11,"encoder":"28706577433","distractor":"28706577438","target":"absent","response":"absent","rt":"1470","correct":true,"confidence":5},{"trial_n":119,"span":11,"encoder":"26203093171","distractor":"27203093171","target":"absent","response":"absent","rt":"13139","correct":true,"confidence":4},{"trial_n":120,"span":12,"encoder":"013783081818","distractor":"013783081808","target":"absent","response":"present","rt":"15099","correct":false,"confidence":3},{"trial_n":121,"span":11,"encoder":"94441205079","distractor":"94441203079","target":"present","response":"present","rt":"5943","correct":true,"confidence":4},{"trial_n":122,"span":11,"encoder":"01393514638","distractor":"01393114638","target":"present","response":"absent","rt":"9086","correct":false,"confidence":4},{"trial_n":123,"span":10,"encoder":"8404897290","distractor":"6404897290","target":"absent","response":"absent","rt":"11591","correct":true,"confidence":3},{"trial_n":124,"span":10,"encoder":"7621127164","distractor":"7611127164","target":"present","response":"present","rt":"4648","correct":true,"confidence":3},{"trial_n":125,"span":11,"encoder":"84372168913","distractor":"84672168913","target":"present","response":"absent","rt":"5840","correct":false,"confidence":2},{"trial_n":126,"span":10,"encoder":"8222837069","distractor":"3222837069","target":"present","response":"present","rt":"10178","correct":true,"confidence":4},{"trial_n":127,"span":10,"encoder":"9149856668","distractor":"9149856648","target":"absent","response":"present","rt":"3899","correct":false,"confidence":3},{"trial_n":128,"span":9,"encoder":"691543987","distractor":"891543987","target":"absent","response":"absent","rt":"3364","correct":true,"confidence":4},{"trial_n":129,"span":9,"encoder":"053943227","distractor":"053943127","target":"absent","response":"present","rt":"6064","correct":false,"confidence":4},{"trial_n":130,"span":8,"encoder":"78473426","distractor":"78473425","target":"present","response":"present","rt":"2000","correct":true,"confidence":5},{"trial_n":131,"span":8,"encoder":"78605880","distractor":"78605889","target":"present","response":"present","rt":"1591","correct":true,"confidence":5},{"trial_n":132,"span":9,"encoder":"454681209","distractor":"454681259","target":"present","response":"present","rt":"1368","correct":true,"confidence":5},{"trial_n":133,"span":9,"encoder":"647833431","distractor":"647833421","target":"present","response":"present","rt":"6410","correct":true,"confidence":5},{"trial_n":134,"span":10,"encoder":"8382618600","distractor":"8382618680","target":"present","response":"present","rt":"1496","correct":true,"confidence":5},{"trial_n":135,"span":10,"encoder":"3307012098","distractor":"3307012094","target":"present","response":"present","rt":"1310","correct":true,"confidence":5},{"trial_n":136,"span":11,"encoder":"69488621442","distractor":"59488621442","target":"absent","response":"absent","rt":"3448","correct":true,"confidence":5},{"trial_n":137,"span":11,"encoder":"65790142071","distractor":"45790142071","target":"present","response":"present","rt":"6255","correct":true,"confidence":5},{"trial_n":138,"span":12,"encoder":"007049206292","distractor":"707049206292","target":"present","response":"present","rt":"2819","correct":true,"confidence":5},{"trial_n":139,"span":12,"encoder":"347710403628","distractor":"317710403628","target":"absent","response":"absent","rt":"4779","correct":true,"confidence":4},{"trial_n":140,"span":13,"encoder":"3645291100781","distractor":"3640291100781","target":"absent","response":"absent","rt":"9709","correct":true,"confidence":5}]