[{"trial_n":1,"min":25,"max":230,"target":"present","response":"absent","rt":6780.3000001907,"correct":false,"confidence":-1},{"trial_n":2,"min":25,"max":230,"target":"present","response":"present","rt":3496.1000003815,"correct":true,"confidence":-1},{"trial_n":3,"min":25,"max":230,"target":"absent","response":"absent","rt":682.5999994278,"correct":true,"confidence":-1},{"trial_n":4,"min":41,"max":214,"target":"absent","response":"absent","rt":415.0999994278,"correct":true,"confidence":-1},{"trial_n":5,"min":41,"max":214,"target":"present","response":"present","rt":866.30000019073,"correct":true,"confidence":-1},{"trial_n":6,"min":57,"max":198,"target":"present","response":"present","rt":296.60000038147,"correct":true,"confidence":-1},{"trial_n":7,"min":57,"max":198,"target":"absent","response":"absent","rt":401.79999923706,"correct":true,"confidence":-1},{"trial_n":8,"min":73,"max":182,"target":"absent","response":"absent","rt":323.39999961853,"correct":true,"confidence":-1},{"trial_n":9,"min":73,"max":182,"target":"absent","response":"absent","rt":279.5,"correct":true,"confidence":-1},{"trial_n":10,"min":89,"max":166,"target":"absent","response":"absent","rt":235,"correct":true,"confidence":-1},{"trial_n":11,"min":89,"max":166,"target":"present","response":"absent","rt":293,"correct":false,"confidence":-1},{"trial_n":12,"min":81,"max":174,"target":"present","response":"absent","rt":330,"correct":false,"confidence":-1},{"trial_n":13,"min":73,"max":182,"target":"absent","response":"absent","rt":806.89999961853,"correct":true,"confidence":-1},{"trial_n":14,"min":73,"max":182,"target":"absent","response":"absent","rt":474.80000019073,"correct":true,"confidence":-1},{"trial_n":15,"min":81,"max":174,"target":"present","response":"absent","rt":404.69999980927,"correct":false,"confidence":-1},{"trial_n":16,"min":73,"max":182,"target":"absent","response":"absent","rt":870.39999961853,"correct":true,"confidence":-1},{"trial_n":17,"min":73,"max":182,"target":"present","response":"present","rt":454.30000019073,"correct":true,"confidence":-1},{"trial_n":18,"min":81,"max":174,"target":"present","response":"absent","rt":819.69999980927,"correct":false,"confidence":-1},{"trial_n":19,"min":73,"max":182,"target":"absent","response":"absent","rt":632.10000038147,"correct":true,"confidence":-1},{"trial_n":20,"min":73,"max":182,"target":"absent","response":"absent","rt":470.19999980927,"correct":true,"confidence":-1},{"trial_n":21,"min":77,"max":178,"target":"present","response":"absent","rt":796,"correct":false,"confidence":3},{"trial_n":22,"min":73,"max":182,"target":"present","response":"absent","rt":2049.2999992371,"correct":false,"confidence":2},{"trial_n":23,"min":69,"max":186,"target":"absent","response":"absent","rt":4502.9000005722,"correct":true,"confidence":2},{"trial_n":24,"min":69,"max":186,"target":"present","response":"present","rt":1313.6999998093,"correct":true,"confidence":5},{"trial_n":25,"min":73,"max":182,"target":"present","response":"present","rt":1701.6000003815,"correct":true,"confidence":4},{"trial_n":26,"min":73,"max":182,"target":"present","response":"present","rt":1624.0999994278,"correct":true,"confidence":5},{"trial_n":27,"min":77,"max":178,"target":"absent","response":"absent","rt":1600,"correct":true,"confidence":3},{"trial_n":28,"min":77,"max":178,"target":"present","response":"present","rt":1387.3000001907,"correct":true,"confidence":3},{"trial_n":29,"min":81,"max":174,"target":"present","response":"absent","rt":1231,"correct":false,"confidence":3},{"trial_n":30,"min":77,"max":178,"target":"absent","response":"absent","rt":1128,"correct":true,"confidence":4},{"trial_n":31,"min":77,"max":178,"target":"absent","response":"absent","rt":1172.3000001907,"correct":true,"confidence":3},{"trial_n":32,"min":79,"max":176,"target":"present","response":"present","rt":1190.6000003815,"correct":true,"confidence":4},{"trial_n":33,"min":79,"max":176,"target":"present","response":"present","rt":2229.4000005722,"correct":true,"confidence":4},{"trial_n":34,"min":81,"max":174,"target":"present","response":"present","rt":1166.5,"correct":true,"confidence":5},{"trial_n":35,"min":81,"max":174,"target":"absent","response":"absent","rt":1143.5999994278,"correct":true,"confidence":2},{"trial_n":36,"min":83,"max":172,"target":"absent","response":"absent","rt":1008.6999998093,"correct":true,"confidence":4},{"trial_n":37,"min":83,"max":172,"target":"absent","response":"absent","rt":1084.6000003815,"correct":true,"confidence":4},{"trial_n":38,"min":85,"max":170,"target":"absent","response":"absent","rt":1038.6000003815,"correct":true,"confidence":3},{"trial_n":39,"min":85,"max":170,"target":"present","response":"present","rt":1684.8999996185,"correct":true,"confidence":3},{"trial_n":40,"min":87,"max":168,"target":"present","response":"absent","rt":832.0999994278,"correct":false,"confidence":4},{"trial_n":41,"min":86,"max":169,"target":"absent","response":"absent","rt":620.9000005722,"correct":true,"confidence":3},{"trial_n":42,"min":86,"max":169,"target":"absent","response":"absent","rt":932.69999980927,"correct":true,"confidence":3},{"trial_n":43,"min":87,"max":168,"target":"absent","response":"absent","rt":746.5,"correct":true,"confidence":3},{"trial_n":44,"min":87,"max":168,"target":"present","response":"absent","rt":1007.0999994278,"correct":false,"confidence":3},{"trial_n":45,"min":86,"max":169,"target":"present","response":"absent","rt":528.80000019073,"correct":false,"confidence":3},{"trial_n":46,"min":85,"max":170,"target":"present","response":"absent","rt":807.80000019073,"correct":false,"confidence":2},{"trial_n":47,"min":84,"max":171,"target":"present","response":"absent","rt":630.29999923706,"correct":false,"confidence":2},{"trial_n":48,"min":83,"max":172,"target":"absent","response":"absent","rt":790.9000005722,"correct":true,"confidence":2},{"trial_n":49,"min":83,"max":172,"target":"absent","response":"absent","rt":606.69999980927,"correct":true,"confidence":2},{"trial_n":50,"min":84,"max":171,"target":"absent","response":"absent","rt":580.80000019073,"correct":true,"confidence":2},{"trial_n":51,"min":84,"max":171,"target":"absent","response":"absent","rt":970.4000005722,"correct":true,"confidence":3},{"trial_n":52,"min":85,"max":170,"target":"absent","response":"absent","rt":733.89999961853,"correct":true,"confidence":3},{"trial_n":53,"min":85,"max":170,"target":"absent","response":"absent","rt":969,"correct":true,"confidence":3},{"trial_n":54,"min":86,"max":169,"target":"present","response":"present","rt":2040.5,"correct":true,"confidence":4},{"trial_n":55,"min":86,"max":169,"target":"present","response":"present","rt":1541.5,"correct":true,"confidence":3},{"trial_n":56,"min":87,"max":168,"target":"present","response":"absent","rt":1060.6000003815,"correct":false,"confidence":1},{"trial_n":57,"min":86,"max":169,"target":"absent","response":"absent","rt":2700.9000005722,"correct":true,"confidence":3},{"trial_n":58,"min":86,"max":169,"target":"present","response":"present","rt":790.89999961853,"correct":true,"confidence":3},{"trial_n":59,"min":87,"max":168,"target":"present","response":"absent","rt":719.19999980927,"correct":false,"confidence":3},{"trial_n":60,"min":86,"max":169,"target":"present","response":"absent","rt":2810.3999996185,"correct":false,"confidence":2},{"trial_n":61,"min":85,"max":170,"target":"present","response":"present","rt":1525.8000001907,"correct":true,"confidence":5},{"trial_n":62,"min":85,"max":170,"target":"absent","response":"absent","rt":658.69999980927,"correct":true,"confidence":3},{"trial_n":63,"min":86,"max":169,"target":"absent","response":"absent","rt":1545.9000005722,"correct":true,"confidence":4},{"trial_n":64,"min":86,"max":169,"target":"present","response":"absent","rt":1501.5999994278,"correct":false,"confidence":2},{"trial_n":65,"min":85,"max":170,"target":"absent","response":"present","rt":1982.3000001907,"correct":false,"confidence":2},{"trial_n":66,"min":84,"max":171,"target":"absent","response":"absent","rt":460.5,"correct":true,"confidence":3},{"trial_n":67,"min":84,"max":171,"target":"present","response":"present","rt":2138.2999992371,"correct":true,"confidence":2},{"trial_n":68,"min":85,"max":170,"target":"present","response":"present","rt":4718.8000001907,"correct":true,"confidence":2},{"trial_n":69,"min":85,"max":170,"target":"present","response":"present","rt":852.39999961853,"correct":true,"confidence":4},{"trial_n":70,"min":86,"max":169,"target":"absent","response":"absent","rt":771,"correct":true,"confidence":3},{"trial_n":71,"min":41,"max":214,"target":"present","response":"present","rt":4732.5,"correct":true,"confidence":-1},{"trial_n":72,"min":41,"max":214,"target":"present","response":"present","rt":796.0999994278,"correct":true,"confidence":-1},{"trial_n":73,"min":57,"max":198,"target":"absent","response":"absent","rt":850.89999961853,"correct":true,"confidence":-1},{"trial_n":74,"min":57,"max":198,"target":"absent","response":"absent","rt":524.70000076294,"correct":true,"confidence":-1},{"trial_n":75,"min":73,"max":182,"target":"present","response":"present","rt":1715.3000001907,"correct":true,"confidence":-1},{"trial_n":76,"min":73,"max":182,"target":"absent","response":"absent","rt":605.89999961853,"correct":true,"confidence":-1},{"trial_n":77,"min":89,"max":166,"target":"present","response":"present","rt":1380.6000003815,"correct":true,"confidence":-1},{"trial_n":78,"min":89,"max":166,"target":"absent","response":"absent","rt":594.5999994278,"correct":true,"confidence":-1},{"trial_n":79,"min":105,"max":150,"target":"present","response":"present","rt":1223,"correct":true,"confidence":-1},{"trial_n":80,"min":105,"max":150,"target":"absent","response":"present","rt":1160.6999998093,"correct":false,"confidence":-1},{"trial_n":81,"min":97,"max":158,"target":"absent","response":"absent","rt":638,"correct":true,"confidence":-1},{"trial_n":82,"min":97,"max":158,"target":"present","response":"absent","rt":551,"correct":false,"confidence":-1},{"trial_n":83,"min":89,"max":166,"target":"absent","response":"absent","rt":875.60000038147,"correct":true,"confidence":-1},{"trial_n":84,"min":89,"max":166,"target":"absent","response":"absent","rt":579.30000019073,"correct":true,"confidence":-1},{"trial_n":85,"min":97,"max":158,"target":"present","response":"absent","rt":713.60000038147,"correct":false,"confidence":-1},{"trial_n":86,"min":89,"max":166,"target":"present","response":"present","rt":616.5999994278,"correct":true,"confidence":-1},{"trial_n":87,"min":89,"max":166,"target":"present","response":"present","rt":794.60000038147,"correct":true,"confidence":-1},{"trial_n":88,"min":97,"max":158,"target":"present","response":"absent","rt":862.60000038147,"correct":false,"confidence":-1},{"trial_n":89,"min":89,"max":166,"target":"present","response":"present","rt":469.5,"correct":true,"confidence":-1},{"trial_n":90,"min":89,"max":166,"target":"absent","response":"absent","rt":451.39999961853,"correct":true,"confidence":-1},{"trial_n":91,"min":93,"max":162,"target":"present","response":"absent","rt":1148.3000001907,"correct":false,"confidence":2},{"trial_n":92,"min":89,"max":166,"target":"absent","response":"absent","rt":903.80000019073,"correct":true,"confidence":2},{"trial_n":93,"min":89,"max":166,"target":"absent","response":"absent","rt":1464.3000001907,"correct":true,"confidence":2},{"trial_n":94,"min":93,"max":162,"target":"present","response":"absent","rt":818,"correct":false,"confidence":2},{"trial_n":95,"min":89,"max":166,"target":"absent","response":"present","rt":942.79999923706,"correct":false,"confidence":2},{"trial_n":96,"min":85,"max":170,"target":"present","response":"absent","rt":635.19999980927,"correct":false,"confidence":1},{"trial_n":97,"min":81,"max":174,"target":"absent","response":"absent","rt":1863.8000001907,"correct":true,"confidence":2},{"trial_n":98,"min":81,"max":174,"target":"absent","response":"absent","rt":1079.8000001907,"correct":true,"confidence":3},{"trial_n":99,"min":85,"max":170,"target":"present","response":"present","rt":878.80000019073,"correct":true,"confidence":4},{"trial_n":100,"min":85,"max":170,"target":"absent","response":"absent","rt":874.5999994278,"correct":true,"confidence":4},{"trial_n":101,"min":87,"max":168,"target":"present","response":"absent","rt":1633.6999998093,"correct":false,"confidence":3},{"trial_n":102,"min":85,"max":170,"target":"present","response":"present","rt":790.30000019073,"correct":true,"confidence":3},{"trial_n":103,"min":85,"max":170,"target":"absent","response":"absent","rt":1906.9000005722,"correct":true,"confidence":2},{"trial_n":104,"min":87,"max":168,"target":"present","response":"absent","rt":1795.4000005722,"correct":false,"confidence":1},{"trial_n":105,"min":85,"max":170,"target":"absent","response":"absent","rt":895.30000019073,"correct":true,"confidence":2},{"trial_n":106,"min":85,"max":170,"target":"absent","response":"absent","rt":1367,"correct":true,"confidence":3},{"trial_n":107,"min":87,"max":168,"target":"absent","response":"present","rt":1407.0999994278,"correct":false,"confidence":2},{"trial_n":108,"min":85,"max":170,"target":"present","response":"present","rt":945.5999994278,"correct":true,"confidence":2},{"trial_n":109,"min":85,"max":170,"target":"absent","response":"absent","rt":1461.1000003815,"correct":true,"confidence":2},{"trial_n":110,"min":87,"max":168,"target":"absent","response":"absent","rt":1855,"correct":true,"confidence":2},{"trial_n":111,"min":87,"max":168,"target":"absent","response":"absent","rt":968.69999980927,"correct":true,"confidence":3},{"trial_n":112,"min":88,"max":167,"target":"absent","response":"absent","rt":977.19999980927,"correct":true,"confidence":3},{"trial_n":113,"min":88,"max":167,"target":"present","response":"present","rt":905.5,"correct":true,"confidence":3},{"trial_n":114,"min":89,"max":166,"target":"present","response":"absent","rt":2331.9000005722,"correct":false,"confidence":2},{"trial_n":115,"min":88,"max":167,"target":"present","response":"present","rt":551.69999980927,"correct":true,"confidence":4},{"trial_n":116,"min":88,"max":167,"target":"present","response":"present","rt":1407.1999998093,"correct":true,"confidence":1},{"trial_n":117,"min":89,"max":166,"target":"absent","response":"present","rt":2233.6999998093,"correct":false,"confidence":1},{"trial_n":118,"min":88,"max":167,"target":"absent","response":"present","rt":610.9000005722,"correct":false,"confidence":1},{"trial_n":119,"min":87,"max":168,"target":"present","response":"present","rt":1064.6000003815,"correct":true,"confidence":1},{"trial_n":120,"min":87,"max":168,"target":"absent","response":"absent","rt":1347.2999992371,"correct":true,"confidence":2},{"trial_n":121,"min":88,"max":167,"target":"present","response":"absent","rt":1232.5,"correct":false,"confidence":2},{"trial_n":122,"min":87,"max":168,"target":"absent","response":"present","rt":2101.8000001907,"correct":false,"confidence":2},{"trial_n":123,"min":86,"max":169,"target":"present","response":"absent","rt":729.39999961853,"correct":false,"confidence":2},{"trial_n":124,"min":85,"max":170,"target":"present","response":"present","rt":1934.3000001907,"correct":true,"confidence":1},{"trial_n":125,"min":85,"max":170,"target":"absent","response":"absent","rt":992.39999961853,"correct":true,"confidence":2},{"trial_n":126,"min":86,"max":169,"target":"absent","response":"absent","rt":1456.6999998093,"correct":true,"confidence":2},{"trial_n":127,"min":86,"max":169,"target":"absent","response":"absent","rt":1024.6000003815,"correct":true,"confidence":2},{"trial_n":128,"min":87,"max":168,"target":"present","response":"present","rt":622.30000019073,"correct":true,"confidence":2},{"trial_n":129,"min":87,"max":168,"target":"present","response":"absent","rt":1362.6999998093,"correct":false,"confidence":1},{"trial_n":130,"min":86,"max":169,"target":"absent","response":"absent","rt":770.4000005722,"correct":true,"confidence":1},{"trial_n":131,"min":86,"max":169,"target":"present","response":"absent","rt":583.60000038147,"correct":false,"confidence":1},{"trial_n":132,"min":85,"max":170,"target":"present","response":"present","rt":1789.8000001907,"correct":true,"confidence":2},{"trial_n":133,"min":85,"max":170,"target":"present","response":"present","rt":859.10000038147,"correct":true,"confidence":3},{"trial_n":134,"min":86,"max":169,"target":"absent","response":"absent","rt":1624,"correct":true,"confidence":3},{"trial_n":135,"min":86,"max":169,"target":"present","response":"present","rt":1066.3999996185,"correct":true,"confidence":2},{"trial_n":136,"min":87,"max":168,"target":"present","response":"absent","rt":1112.1999998093,"correct":false,"confidence":1},{"trial_n":137,"min":86,"max":169,"target":"present","response":"present","rt":1058.6999998093,"correct":true,"confidence":1},{"trial_n":138,"min":86,"max":169,"target":"absent","response":"present","rt":769.19999980927,"correct":false,"confidence":1},{"trial_n":139,"min":85,"max":170,"target":"present","response":"present","rt":858.30000019073,"correct":true,"confidence":1},{"trial_n":140,"min":85,"max":170,"target":"absent","response":"absent","rt":473.19999980927,"correct":true,"confidence":1}]