[{"trial_n":1,"min":25,"max":230,"target":"present","response":"present","rt":10130.6,"correct":true,"confidence":-1},{"trial_n":2,"min":25,"max":230,"target":"present","response":"absent","rt":1075.4000000004,"correct":false,"confidence":-1},{"trial_n":3,"min":9,"max":246,"target":"absent","response":"present","rt":3893.8000000007,"correct":false,"confidence":-1},{"trial_n":4,"min":0,"max":255,"target":"absent","response":"absent","rt":666.90000000037,"correct":true,"confidence":-1},{"trial_n":5,"min":0,"max":255,"target":"present","response":"present","rt":543,"correct":true,"confidence":-1},{"trial_n":6,"min":16,"max":239,"target":"absent","response":"absent","rt":420.59999999963,"correct":true,"confidence":-1},{"trial_n":7,"min":16,"max":239,"target":"present","response":"absent","rt":237.40000000037,"correct":false,"confidence":-1},{"trial_n":8,"min":0,"max":255,"target":"absent","response":"absent","rt":595.30000000075,"correct":true,"confidence":-1},{"trial_n":9,"min":0,"max":255,"target":"absent","response":"absent","rt":227.30000000075,"correct":true,"confidence":-1},{"trial_n":10,"min":16,"max":239,"target":"absent","response":"absent","rt":242.69999999925,"correct":true,"confidence":-1},{"trial_n":11,"min":16,"max":239,"target":"present","response":"present","rt":236.70000000112,"correct":true,"confidence":-1},{"trial_n":12,"min":24,"max":231,"target":"present","response":"present","rt":239.30000000075,"correct":true,"confidence":-1},{"trial_n":13,"min":24,"max":231,"target":"present","response":"present","rt":416.59999999963,"correct":true,"confidence":-1},{"trial_n":14,"min":32,"max":223,"target":"present","response":"present","rt":276,"correct":true,"confidence":-1},{"trial_n":15,"min":32,"max":223,"target":"absent","response":"absent","rt":223.09999999963,"correct":true,"confidence":-1},{"trial_n":16,"min":40,"max":215,"target":"absent","response":"absent","rt":236.60000000149,"correct":true,"confidence":-1},{"trial_n":17,"min":40,"max":215,"target":"present","response":"present","rt":372.30000000075,"correct":true,"confidence":-1},{"trial_n":18,"min":48,"max":207,"target":"present","response":"present","rt":239.79999999888,"correct":true,"confidence":-1},{"trial_n":19,"min":48,"max":207,"target":"absent","response":"absent","rt":266.69999999925,"correct":true,"confidence":-1},{"trial_n":20,"min":56,"max":199,"target":"absent","response":"absent","rt":193.30000000075,"correct":true,"confidence":-1},{"trial_n":21,"min":56,"max":199,"target":"absent","response":"absent","rt":242.90000000037,"correct":true,"confidence":5},{"trial_n":22,"min":60,"max":195,"target":"absent","response":"absent","rt":244.80000000075,"correct":true,"confidence":5},{"trial_n":23,"min":60,"max":195,"target":"absent","response":"absent","rt":623.59999999963,"correct":true,"confidence":5},{"trial_n":24,"min":64,"max":191,"target":"absent","response":"absent","rt":223.19999999925,"correct":true,"confidence":5},{"trial_n":25,"min":64,"max":191,"target":"present","response":"present","rt":428.59999999963,"correct":true,"confidence":5},{"trial_n":26,"min":68,"max":187,"target":"present","response":"present","rt":567.80000000075,"correct":true,"confidence":3},{"trial_n":27,"min":68,"max":187,"target":"absent","response":"absent","rt":499.20000000112,"correct":true,"confidence":5},{"trial_n":28,"min":72,"max":183,"target":"present","response":"present","rt":810.19999999925,"correct":true,"confidence":5},{"trial_n":29,"min":72,"max":183,"target":"present","response":"present","rt":2861.7999999989,"correct":true,"confidence":4},{"trial_n":30,"min":76,"max":179,"target":"present","response":"absent","rt":659.40000000037,"correct":false,"confidence":3},{"trial_n":31,"min":74,"max":181,"target":"absent","response":"absent","rt":663.90000000037,"correct":true,"confidence":4},{"trial_n":32,"min":74,"max":181,"target":"absent","response":"absent","rt":574.09999999963,"correct":true,"confidence":4},{"trial_n":33,"min":76,"max":179,"target":"absent","response":"absent","rt":549.89999999851,"correct":true,"confidence":4},{"trial_n":34,"min":76,"max":179,"target":"present","response":"present","rt":372.90000000037,"correct":true,"confidence":4},{"trial_n":35,"min":78,"max":177,"target":"present","response":"present","rt":660.40000000037,"correct":true,"confidence":4},{"trial_n":36,"min":78,"max":177,"target":"present","response":"present","rt":372.90000000037,"correct":true,"confidence":4},{"trial_n":37,"min":80,"max":175,"target":"absent","response":"absent","rt":286.19999999925,"correct":true,"confidence":5},{"trial_n":38,"min":80,"max":175,"target":"absent","response":"present","rt":1318.9000000004,"correct":false,"confidence":3},{"trial_n":39,"min":78,"max":177,"target":"present","response":"present","rt":539.5,"correct":true,"confidence":4},{"trial_n":40,"min":78,"max":177,"target":"present","response":"present","rt":1428.1000000015,"correct":true,"confidence":3},{"trial_n":41,"min":79,"max":176,"target":"absent","response":"absent","rt":431.59999999963,"correct":true,"confidence":5},{"trial_n":42,"min":79,"max":176,"target":"absent","response":"absent","rt":474.90000000037,"correct":true,"confidence":5},{"trial_n":43,"min":80,"max":175,"target":"present","response":"present","rt":551.59999999963,"correct":true,"confidence":4},{"trial_n":44,"min":80,"max":175,"target":"present","response":"absent","rt":454.59999999963,"correct":false,"confidence":5},{"trial_n":45,"min":79,"max":176,"target":"present","response":"present","rt":474,"correct":true,"confidence":4},{"trial_n":46,"min":79,"max":176,"target":"absent","response":"absent","rt":692.09999999963,"correct":true,"confidence":3},{"trial_n":47,"min":80,"max":175,"target":"absent","response":"absent","rt":554.59999999963,"correct":true,"confidence":3},{"trial_n":48,"min":80,"max":175,"target":"present","response":"present","rt":457.89999999851,"correct":true,"confidence":5},{"trial_n":49,"min":81,"max":174,"target":"present","response":"present","rt":362.69999999925,"correct":true,"confidence":5},{"trial_n":50,"min":81,"max":174,"target":"absent","response":"absent","rt":719.09999999963,"correct":true,"confidence":4},{"trial_n":51,"min":82,"max":173,"target":"absent","response":"absent","rt":867.69999999925,"correct":true,"confidence":3},{"trial_n":52,"min":82,"max":173,"target":"absent","response":"absent","rt":1156.6999999993,"correct":true,"confidence":5},{"trial_n":53,"min":83,"max":172,"target":"present","response":"present","rt":535.5,"correct":true,"confidence":4},{"trial_n":54,"min":83,"max":172,"target":"absent","response":"absent","rt":823.70000000112,"correct":true,"confidence":5},{"trial_n":55,"min":84,"max":171,"target":"absent","response":"present","rt":1443.7999999989,"correct":false,"confidence":3},{"trial_n":56,"min":83,"max":172,"target":"present","response":"absent","rt":585.80000000075,"correct":false,"confidence":5},{"trial_n":57,"min":82,"max":173,"target":"present","response":"absent","rt":363.59999999963,"correct":false,"confidence":5},{"trial_n":58,"min":81,"max":174,"target":"present","response":"present","rt":613.5,"correct":true,"confidence":4},{"trial_n":59,"min":81,"max":174,"target":"absent","response":"absent","rt":463.69999999925,"correct":true,"confidence":5},{"trial_n":60,"min":82,"max":173,"target":"present","response":"absent","rt":504.79999999888,"correct":false,"confidence":4},{"trial_n":61,"min":81,"max":174,"target":"absent","response":"absent","rt":511,"correct":true,"confidence":5},{"trial_n":62,"min":81,"max":174,"target":"present","response":"absent","rt":451.39999999851,"correct":false,"confidence":5},{"trial_n":63,"min":80,"max":175,"target":"absent","response":"absent","rt":682.20000000112,"correct":true,"confidence":4},{"trial_n":64,"min":80,"max":175,"target":"present","response":"present","rt":506.5,"correct":true,"confidence":4},{"trial_n":65,"min":81,"max":174,"target":"absent","response":"absent","rt":483.19999999925,"correct":true,"confidence":4},{"trial_n":66,"min":81,"max":174,"target":"present","response":"present","rt":392.5,"correct":true,"confidence":4},{"trial_n":67,"min":82,"max":173,"target":"present","response":"present","rt":349.59999999963,"correct":true,"confidence":4},{"trial_n":68,"min":82,"max":173,"target":"absent","response":"absent","rt":380.30000000075,"correct":true,"confidence":5},{"trial_n":69,"min":83,"max":172,"target":"present","response":"present","rt":477.19999999925,"correct":true,"confidence":4},{"trial_n":70,"min":83,"max":172,"target":"present","response":"absent","rt":557.70000000112,"correct":false,"confidence":5},{"trial_n":71,"min":41,"max":214,"target":"present","response":"present","rt":6861.9000000004,"correct":true,"confidence":-1},{"trial_n":72,"min":41,"max":214,"target":"present","response":"present","rt":820.20000000112,"correct":true,"confidence":-1},{"trial_n":73,"min":57,"max":198,"target":"absent","response":"absent","rt":342.69999999925,"correct":true,"confidence":-1},{"trial_n":74,"min":57,"max":198,"target":"absent","response":"absent","rt":216.19999999925,"correct":true,"confidence":-1},{"trial_n":75,"min":73,"max":182,"target":"present","response":"present","rt":184,"correct":true,"confidence":-1},{"trial_n":76,"min":73,"max":182,"target":"absent","response":"absent","rt":913.59999999963,"correct":true,"confidence":-1},{"trial_n":77,"min":89,"max":166,"target":"present","response":"present","rt":332.5,"correct":true,"confidence":-1},{"trial_n":78,"min":89,"max":166,"target":"present","response":"present","rt":332.69999999925,"correct":true,"confidence":-1},{"trial_n":79,"min":105,"max":150,"target":"present","response":"absent","rt":1278.9000000004,"correct":false,"confidence":-1},{"trial_n":80,"min":89,"max":166,"target":"present","response":"present","rt":573.5,"correct":true,"confidence":-1},{"trial_n":81,"min":89,"max":166,"target":"absent","response":"present","rt":470.69999999925,"correct":false,"confidence":-1},{"trial_n":82,"min":81,"max":174,"target":"present","response":"present","rt":1225.2000000011,"correct":true,"confidence":-1},{"trial_n":83,"min":81,"max":174,"target":"absent","response":"absent","rt":956.79999999888,"correct":true,"confidence":-1},{"trial_n":84,"min":89,"max":166,"target":"present","response":"present","rt":449.40000000037,"correct":true,"confidence":-1},{"trial_n":85,"min":89,"max":166,"target":"present","response":"absent","rt":819.30000000075,"correct":false,"confidence":-1},{"trial_n":86,"min":81,"max":174,"target":"absent","response":"absent","rt":430.59999999963,"correct":true,"confidence":-1},{"trial_n":87,"min":81,"max":174,"target":"absent","response":"present","rt":433.30000000075,"correct":false,"confidence":-1},{"trial_n":88,"min":73,"max":182,"target":"present","response":"present","rt":303.09999999963,"correct":true,"confidence":-1},{"trial_n":89,"min":73,"max":182,"target":"present","response":"present","rt":306.09999999963,"correct":true,"confidence":-1},{"trial_n":90,"min":81,"max":174,"target":"present","response":"absent","rt":231.30000000075,"correct":false,"confidence":-1},{"trial_n":91,"min":77,"max":178,"target":"present","response":"present","rt":1148.4000000004,"correct":true,"confidence":3},{"trial_n":92,"min":77,"max":178,"target":"absent","response":"absent","rt":386.5,"correct":true,"confidence":5},{"trial_n":93,"min":81,"max":174,"target":"absent","response":"present","rt":755.40000000037,"correct":false,"confidence":4},{"trial_n":94,"min":77,"max":178,"target":"absent","response":"absent","rt":626.70000000112,"correct":true,"confidence":3},{"trial_n":95,"min":77,"max":178,"target":"present","response":"present","rt":278.59999999963,"correct":true,"confidence":5},{"trial_n":96,"min":81,"max":174,"target":"absent","response":"absent","rt":754.5,"correct":true,"confidence":4},{"trial_n":97,"min":81,"max":174,"target":"present","response":"absent","rt":557.09999999963,"correct":false,"confidence":5},{"trial_n":98,"min":77,"max":178,"target":"present","response":"present","rt":195.40000000037,"correct":true,"confidence":5},{"trial_n":99,"min":77,"max":178,"target":"absent","response":"absent","rt":725.60000000149,"correct":true,"confidence":4},{"trial_n":100,"min":81,"max":174,"target":"present","response":"absent","rt":295.69999999925,"correct":false,"confidence":5},{"trial_n":101,"min":79,"max":176,"target":"absent","response":"absent","rt":1753.9000000004,"correct":true,"confidence":3},{"trial_n":102,"min":79,"max":176,"target":"absent","response":"present","rt":733.59999999963,"correct":false,"confidence":3},{"trial_n":103,"min":77,"max":178,"target":"present","response":"present","rt":212.89999999851,"correct":true,"confidence":5},{"trial_n":104,"min":77,"max":178,"target":"absent","response":"absent","rt":694.09999999963,"correct":true,"confidence":5},{"trial_n":105,"min":79,"max":176,"target":"absent","response":"absent","rt":542.30000000075,"correct":true,"confidence":5},{"trial_n":106,"min":79,"max":176,"target":"present","response":"present","rt":337.89999999851,"correct":true,"confidence":5},{"trial_n":107,"min":81,"max":174,"target":"absent","response":"absent","rt":487.59999999963,"correct":true,"confidence":5},{"trial_n":108,"min":81,"max":174,"target":"present","response":"absent","rt":262.80000000075,"correct":false,"confidence":5},{"trial_n":109,"min":79,"max":176,"target":"present","response":"present","rt":190.90000000037,"correct":true,"confidence":5},{"trial_n":110,"min":79,"max":176,"target":"present","response":"present","rt":155,"correct":true,"confidence":1},{"trial_n":111,"min":80,"max":175,"target":"absent","response":"absent","rt":2028.5,"correct":true,"confidence":3},{"trial_n":112,"min":80,"max":175,"target":"present","response":"absent","rt":223.29999999888,"correct":false,"confidence":2},{"trial_n":113,"min":79,"max":176,"target":"present","response":"present","rt":209.79999999888,"correct":true,"confidence":4},{"trial_n":114,"min":79,"max":176,"target":"absent","response":"absent","rt":799.59999999963,"correct":true,"confidence":4},{"trial_n":115,"min":80,"max":175,"target":"absent","response":"absent","rt":2512.7999999989,"correct":true,"confidence":4},{"trial_n":116,"min":80,"max":175,"target":"present","response":"present","rt":148.39999999851,"correct":true,"confidence":5},{"trial_n":117,"min":81,"max":174,"target":"absent","response":"absent","rt":747.19999999925,"correct":true,"confidence":3},{"trial_n":118,"min":81,"max":174,"target":"absent","response":"absent","rt":1177.1000000015,"correct":true,"confidence":2},{"trial_n":119,"min":82,"max":173,"target":"present","response":"absent","rt":340.09999999963,"correct":false,"confidence":5},{"trial_n":120,"min":81,"max":174,"target":"absent","response":"absent","rt":866.40000000037,"correct":true,"confidence":2},{"trial_n":121,"min":81,"max":174,"target":"present","response":"absent","rt":231.70000000112,"correct":false,"confidence":1},{"trial_n":122,"min":80,"max":175,"target":"present","response":"present","rt":1502.0999999996,"correct":true,"confidence":1},{"trial_n":123,"min":80,"max":175,"target":"absent","response":"present","rt":592.29999999888,"correct":false,"confidence":1},{"trial_n":124,"min":79,"max":176,"target":"absent","response":"absent","rt":449.39999999851,"correct":true,"confidence":1},{"trial_n":125,"min":79,"max":176,"target":"absent","response":"absent","rt":1500.8000000007,"correct":true,"confidence":1},{"trial_n":126,"min":80,"max":175,"target":"absent","response":"absent","rt":2404.7000000011,"correct":true,"confidence":1},{"trial_n":127,"min":80,"max":175,"target":"present","response":"absent","rt":719.09999999963,"correct":false,"confidence":2},{"trial_n":128,"min":79,"max":176,"target":"present","response":"present","rt":582.20000000112,"correct":true,"confidence":3},{"trial_n":129,"min":79,"max":176,"target":"absent","response":"absent","rt":1304.5,"correct":true,"confidence":2},{"trial_n":130,"min":80,"max":175,"target":"absent","response":"absent","rt":619,"correct":true,"confidence":2},{"trial_n":131,"min":80,"max":175,"target":"absent","response":"absent","rt":745.29999999888,"correct":true,"confidence":4},{"trial_n":132,"min":81,"max":174,"target":"present","response":"absent","rt":1192.5999999996,"correct":false,"confidence":1},{"trial_n":133,"min":80,"max":175,"target":"absent","response":"absent","rt":553.30000000075,"correct":true,"confidence":3},{"trial_n":134,"min":80,"max":175,"target":"present","response":"absent","rt":403.90000000037,"correct":false,"confidence":2},{"trial_n":135,"min":79,"max":176,"target":"absent","response":"present","rt":599.90000000037,"correct":false,"confidence":3},{"trial_n":136,"min":78,"max":177,"target":"present","response":"present","rt":381.80000000075,"correct":true,"confidence":4},{"trial_n":137,"min":78,"max":177,"target":"absent","response":"absent","rt":815.29999999888,"correct":true,"confidence":5},{"trial_n":138,"min":79,"max":176,"target":"present","response":"present","rt":292.5,"correct":true,"confidence":5},{"trial_n":139,"min":79,"max":176,"target":"absent","response":"present","rt":879.80000000075,"correct":false,"confidence":1},{"trial_n":140,"min":78,"max":177,"target":"present","response":"present","rt":984.09999999963,"correct":true,"confidence":5}]