[{"trial_n":1,"n_dots":4.25,"target":"right","response":"left","rt":1738.5,"correct":false,"confidence":-1},{"trial_n":2,"n_dots":4.25,"target":"right","response":"right","rt":845.80000000075,"correct":true,"confidence":-1},{"trial_n":3,"n_dots":4.25,"target":"right","response":"left","rt":452.90000000037,"correct":false,"confidence":-1},{"trial_n":4,"n_dots":4.65,"target":"right","response":"left","rt":676.59999999963,"correct":false,"confidence":-1},{"trial_n":5,"n_dots":5.05,"target":"left","response":"left","rt":545.30000000075,"correct":true,"confidence":-1},{"trial_n":6,"n_dots":5.05,"target":"right","response":"right","rt":387,"correct":true,"confidence":-1},{"trial_n":7,"n_dots":4.65,"target":"left","response":"left","rt":424.89999999851,"correct":true,"confidence":-1},{"trial_n":8,"n_dots":4.65,"target":"left","response":"left","rt":329.60000000149,"correct":true,"confidence":-1},{"trial_n":9,"n_dots":4.45,"target":"right","response":"left","rt":394.69999999925,"correct":false,"confidence":-1},{"trial_n":10,"n_dots":4.65,"target":"left","response":"left","rt":451,"correct":true,"confidence":-1},{"trial_n":11,"n_dots":4.65,"target":"right","response":"right","rt":254.19999999925,"correct":true,"confidence":-1},{"trial_n":12,"n_dots":4.45,"target":"left","response":"left","rt":258.69999999925,"correct":true,"confidence":-1},{"trial_n":13,"n_dots":4.45,"target":"left","response":"left","rt":150.69999999925,"correct":true,"confidence":-1},{"trial_n":14,"n_dots":4.35,"target":"left","response":"left","rt":780.40000000037,"correct":true,"confidence":-1},{"trial_n":15,"n_dots":4.35,"target":"right","response":"right","rt":266.20000000112,"correct":true,"confidence":-1},{"trial_n":16,"n_dots":4.25,"target":"left","response":"left","rt":44.099999999627,"correct":true,"confidence":-1},{"trial_n":17,"n_dots":4.25,"target":"right","response":"left","rt":238.90000000037,"correct":false,"confidence":-1},{"trial_n":18,"n_dots":4.35,"target":"left","response":"left","rt":308,"correct":true,"confidence":-1},{"trial_n":19,"n_dots":4.35,"target":"right","response":"right","rt":202.79999999888,"correct":true,"confidence":-1},{"trial_n":20,"n_dots":4.25,"target":"right","response":"right","rt":62.800000000745,"correct":true,"confidence":-1},{"trial_n":21,"n_dots":4.25,"target":"left","response":"left","rt":345,"correct":true,"confidence":4},{"trial_n":22,"n_dots":4.15,"target":"left","response":"left","rt":1407.6999999993,"correct":true,"confidence":3},{"trial_n":23,"n_dots":4.15,"target":"right","response":"right","rt":1811.1999999993,"correct":true,"confidence":5},{"trial_n":24,"n_dots":4.05,"target":"left","response":"left","rt":773.29999999888,"correct":true,"confidence":4},{"trial_n":25,"n_dots":4.05,"target":"left","response":"left","rt":1420.7999999989,"correct":true,"confidence":4},{"trial_n":26,"n_dots":3.95,"target":"right","response":"right","rt":986.09999999963,"correct":true,"confidence":4},{"trial_n":27,"n_dots":3.95,"target":"left","response":"left","rt":1546.2000000011,"correct":true,"confidence":5},{"trial_n":28,"n_dots":3.85,"target":"right","response":"left","rt":956.69999999925,"correct":false,"confidence":5},{"trial_n":29,"n_dots":3.95,"target":"left","response":"left","rt":1546.2000000011,"correct":true,"confidence":5},{"trial_n":30,"n_dots":3.95,"target":"left","response":"left","rt":1251.8000000007,"correct":true,"confidence":2},{"trial_n":31,"n_dots":3.85,"target":"left","response":"left","rt":798.5,"correct":true,"confidence":4},{"trial_n":32,"n_dots":3.85,"target":"right","response":"right","rt":1273.5,"correct":true,"confidence":4},{"trial_n":33,"n_dots":3.75,"target":"right","response":"left","rt":1129.2000000011,"correct":false,"confidence":4},{"trial_n":34,"n_dots":3.85,"target":"left","response":"left","rt":695.29999999888,"correct":true,"confidence":4},{"trial_n":35,"n_dots":3.85,"target":"right","response":"right","rt":1258.6999999993,"correct":true,"confidence":2},{"trial_n":36,"n_dots":3.75,"target":"right","response":"right","rt":1287.3000000007,"correct":true,"confidence":3},{"trial_n":37,"n_dots":3.75,"target":"left","response":"left","rt":872.29999999888,"correct":true,"confidence":4},{"trial_n":38,"n_dots":3.65,"target":"left","response":"left","rt":799.89999999851,"correct":true,"confidence":4},{"trial_n":39,"n_dots":3.65,"target":"left","response":"left","rt":809.30000000075,"correct":true,"confidence":4},{"trial_n":40,"n_dots":3.55,"target":"left","response":"left","rt":807.09999999963,"correct":true,"confidence":4},{"trial_n":41,"n_dots":3.55,"target":"right","response":"right","rt":1167.9000000004,"correct":true,"confidence":3},{"trial_n":42,"n_dots":3.45,"target":"right","response":"right","rt":1143.2999999989,"correct":true,"confidence":2},{"trial_n":43,"n_dots":3.45,"target":"right","response":"right","rt":982.5,"correct":true,"confidence":4},{"trial_n":44,"n_dots":3.35,"target":"right","response":"right","rt":1249.9000000004,"correct":true,"confidence":3},{"trial_n":45,"n_dots":3.35,"target":"left","response":"left","rt":784.40000000037,"correct":true,"confidence":3},{"trial_n":46,"n_dots":3.25,"target":"left","response":"left","rt":1466.5,"correct":true,"confidence":2},{"trial_n":47,"n_dots":3.25,"target":"left","response":"left","rt":1105.7000000011,"correct":true,"confidence":2},{"trial_n":48,"n_dots":3.15,"target":"right","response":"right","rt":965.30000000075,"correct":true,"confidence":3},{"trial_n":49,"n_dots":3.15,"target":"right","response":"right","rt":1092.0999999996,"correct":true,"confidence":3},{"trial_n":50,"n_dots":3.05,"target":"left","response":"right","rt":990.90000000037,"correct":false,"confidence":3},{"trial_n":51,"n_dots":3.15,"target":"right","response":"right","rt":767.20000000112,"correct":true,"confidence":3},{"trial_n":52,"n_dots":3.15,"target":"left","response":"left","rt":895.19999999925,"correct":true,"confidence":3},{"trial_n":53,"n_dots":3.05,"target":"left","response":"left","rt":772.5,"correct":true,"confidence":2},{"trial_n":54,"n_dots":3.05,"target":"right","response":"right","rt":780.5,"correct":true,"confidence":3},{"trial_n":55,"n_dots":2.95,"target":"right","response":"right","rt":684.19999999925,"correct":true,"confidence":2},{"trial_n":56,"n_dots":2.95,"target":"left","response":"right","rt":759.80000000075,"correct":false,"confidence":2},{"trial_n":57,"n_dots":3.05,"target":"left","response":"left","rt":1343.3999999985,"correct":true,"confidence":2},{"trial_n":58,"n_dots":3.05,"target":"right","response":"right","rt":888.5,"correct":true,"confidence":3},{"trial_n":59,"n_dots":2.95,"target":"right","response":"right","rt":1115,"correct":true,"confidence":3},{"trial_n":60,"n_dots":2.95,"target":"right","response":"left","rt":871.30000000075,"correct":false,"confidence":3},{"trial_n":61,"n_dots":3.05,"target":"right","response":"left","rt":2147.5999999996,"correct":false,"confidence":3},{"trial_n":62,"n_dots":3.15,"target":"right","response":"right","rt":850.79999999888,"correct":true,"confidence":3},{"trial_n":63,"n_dots":3.15,"target":"right","response":"left","rt":1476.9000000004,"correct":false,"confidence":3},{"trial_n":64,"n_dots":3.25,"target":"left","response":"left","rt":463,"correct":true,"confidence":3},{"trial_n":65,"n_dots":3.25,"target":"left","response":"left","rt":529,"correct":true,"confidence":3},{"trial_n":66,"n_dots":3.15,"target":"right","response":"left","rt":1121.5999999996,"correct":false,"confidence":1},{"trial_n":67,"n_dots":3.25,"target":"right","response":"right","rt":937.20000000112,"correct":true,"confidence":3},{"trial_n":68,"n_dots":3.25,"target":"right","response":"right","rt":956.40000000037,"correct":true,"confidence":2},{"trial_n":69,"n_dots":3.15,"target":"right","response":"left","rt":1477.4000000004,"correct":false,"confidence":3},{"trial_n":70,"n_dots":3.25,"target":"left","response":"right","rt":574.20000000112,"correct":false,"confidence":2},{"trial_n":71,"n_dots":3.35,"target":"right","response":"left","rt":468.5,"correct":false,"confidence":2},{"trial_n":72,"n_dots":3.45,"target":"right","response":"right","rt":509.20000000112,"correct":true,"confidence":2},{"trial_n":73,"n_dots":3.45,"target":"left","response":"left","rt":489.90000000037,"correct":true,"confidence":2},{"trial_n":74,"n_dots":3.35,"target":"left","response":"left","rt":471.5,"correct":true,"confidence":4},{"trial_n":75,"n_dots":3.35,"target":"left","response":"left","rt":722.70000000112,"correct":true,"confidence":2},{"trial_n":76,"n_dots":3.25,"target":"left","response":"left","rt":486.40000000037,"correct":true,"confidence":3},{"trial_n":77,"n_dots":3.25,"target":"right","response":"left","rt":461.30000000075,"correct":false,"confidence":3},{"trial_n":78,"n_dots":3.35,"target":"right","response":"left","rt":366.30000000075,"correct":false,"confidence":3},{"trial_n":79,"n_dots":3.45,"target":"right","response":"left","rt":382.40000000037,"correct":false,"confidence":3},{"trial_n":80,"n_dots":3.55,"target":"right","response":"right","rt":485.20000000112,"correct":true,"confidence":3},{"trial_n":81,"n_dots":3.55,"target":"left","response":"left","rt":477.79999999888,"correct":true,"confidence":3},{"trial_n":82,"n_dots":3.45,"target":"right","response":"right","rt":450.5,"correct":true,"confidence":3},{"trial_n":83,"n_dots":3.45,"target":"right","response":"right","rt":466.40000000037,"correct":true,"confidence":3},{"trial_n":84,"n_dots":3.35,"target":"right","response":"right","rt":1244.5,"correct":true,"confidence":1},{"trial_n":85,"n_dots":3.35,"target":"right","response":"right","rt":467.10000000149,"correct":true,"confidence":2},{"trial_n":86,"n_dots":3.25,"target":"left","response":"right","rt":1169.2999999989,"correct":false,"confidence":2},{"trial_n":87,"n_dots":3.35,"target":"right","response":"left","rt":805.90000000037,"correct":false,"confidence":2},{"trial_n":88,"n_dots":3.45,"target":"left","response":"left","rt":280.90000000037,"correct":true,"confidence":2},{"trial_n":89,"n_dots":3.45,"target":"right","response":"right","rt":398.80000000075,"correct":true,"confidence":2},{"trial_n":90,"n_dots":3.35,"target":"left","response":"left","rt":326.40000000037,"correct":true,"confidence":2},{"trial_n":91,"n_dots":3.35,"target":"right","response":"right","rt":397.5,"correct":true,"confidence":2},{"trial_n":92,"n_dots":3.25,"target":"right","response":"right","rt":424.80000000075,"correct":true,"confidence":1},{"trial_n":93,"n_dots":3.25,"target":"right","response":"right","rt":512.19999999925,"correct":true,"confidence":3},{"trial_n":94,"n_dots":3.15,"target":"right","response":"right","rt":455.5,"correct":true,"confidence":3},{"trial_n":95,"n_dots":3.15,"target":"left","response":"right","rt":948.90000000037,"correct":false,"confidence":1},{"trial_n":96,"n_dots":3.25,"target":"left","response":"right","rt":436,"correct":false,"confidence":1},{"trial_n":97,"n_dots":3.35,"target":"left","response":"left","rt":501.69999999925,"correct":true,"confidence":2},{"trial_n":98,"n_dots":3.35,"target":"left","response":"left","rt":455,"correct":true,"confidence":2},{"trial_n":99,"n_dots":3.25,"target":"left","response":"left","rt":550.30000000075,"correct":true,"confidence":2},{"trial_n":100,"n_dots":3.25,"target":"left","response":"left","rt":458.29999999888,"correct":true,"confidence":2},{"trial_n":101,"n_dots":3.15,"target":"left","response":"left","rt":883.30000000075,"correct":true,"confidence":2},{"trial_n":102,"n_dots":3.15,"target":"right","response":"left","rt":561,"correct":false,"confidence":3},{"trial_n":103,"n_dots":3.25,"target":"left","response":"left","rt":481.30000000075,"correct":true,"confidence":3},{"trial_n":104,"n_dots":3.25,"target":"left","response":"left","rt":497.60000000149,"correct":true,"confidence":3},{"trial_n":105,"n_dots":3.15,"target":"right","response":"left","rt":622.80000000075,"correct":false,"confidence":1},{"trial_n":106,"n_dots":3.25,"target":"right","response":"left","rt":557.5,"correct":false,"confidence":1},{"trial_n":107,"n_dots":3.35,"target":"left","response":"left","rt":471.10000000149,"correct":true,"confidence":3},{"trial_n":108,"n_dots":3.35,"target":"left","response":"left","rt":627.90000000037,"correct":true,"confidence":1},{"trial_n":109,"n_dots":3.25,"target":"left","response":"left","rt":470.40000000037,"correct":true,"confidence":3},{"trial_n":110,"n_dots":3.25,"target":"left","response":"left","rt":576.70000000112,"correct":true,"confidence":1},{"trial_n":111,"n_dots":3.15,"target":"left","response":"left","rt":1270.8000000007,"correct":true,"confidence":1},{"trial_n":112,"n_dots":3.15,"target":"right","response":"left","rt":520.09999999963,"correct":false,"confidence":1},{"trial_n":113,"n_dots":3.25,"target":"right","response":"right","rt":915.30000000075,"correct":true,"confidence":2},{"trial_n":114,"n_dots":3.25,"target":"left","response":"right","rt":1658.5,"correct":false,"confidence":1},{"trial_n":115,"n_dots":3.35,"target":"right","response":"right","rt":268.79999999888,"correct":true,"confidence":2},{"trial_n":116,"n_dots":3.35,"target":"left","response":"left","rt":574.20000000112,"correct":true,"confidence":2},{"trial_n":117,"n_dots":3.25,"target":"left","response":"left","rt":473.5,"correct":true,"confidence":2},{"trial_n":118,"n_dots":3.25,"target":"left","response":"left","rt":572.10000000149,"correct":true,"confidence":2},{"trial_n":119,"n_dots":3.15,"target":"left","response":"right","rt":1131,"correct":false,"confidence":2},{"trial_n":120,"n_dots":3.25,"target":"right","response":"right","rt":2075.9000000004,"correct":true,"confidence":1}]