[{"trial_n":1,"span":8,"encoder":"31710268","distractor":"21710268","target":"present","response":"absent","rt":"5639.0999999996","correct":false,"confidence":-1},{"trial_n":2,"span":6,"encoder":"960012","distractor":"960312","target":"present","response":"present","rt":"1469.5","correct":true,"confidence":-1},{"trial_n":3,"span":6,"encoder":"599184","distractor":"599180","target":"absent","response":"absent","rt":"2506.8000000007","correct":true,"confidence":-1},{"trial_n":4,"span":8,"encoder":"45468883","distractor":"45468483","target":"absent","response":"absent","rt":"4205","correct":true,"confidence":-1},{"trial_n":5,"span":8,"encoder":"04329949","distractor":"04329946","target":"present","response":"present","rt":"2043.6999999993","correct":true,"confidence":-1},{"trial_n":6,"span":10,"encoder":"5516612542","distractor":"5516612549","target":"absent","response":"absent","rt":"4056.9000000004","correct":true,"confidence":-1},{"trial_n":7,"span":10,"encoder":"2244046713","distractor":"2244046913","target":"absent","response":"absent","rt":"3461.4000000004","correct":true,"confidence":-1},{"trial_n":8,"span":12,"encoder":"053112465989","distractor":"053112425989","target":"absent","response":"present","rt":"5695.3000000007","correct":false,"confidence":-1},{"trial_n":9,"span":10,"encoder":"4016529253","distractor":"4716529253","target":"present","response":"absent","rt":"1433.5","correct":false,"confidence":-1},{"trial_n":10,"span":8,"encoder":"15399358","distractor":"15399658","target":"present","response":"present","rt":"3185.0999999996","correct":true,"confidence":-1},{"trial_n":11,"span":8,"encoder":"01667236","distractor":"01967236","target":"present","response":"present","rt":"3268.2999999989","correct":true,"confidence":-1},{"trial_n":12,"span":9,"encoder":"461630317","distractor":"467630317","target":"absent","response":"present","rt":"7008.6999999993","correct":false,"confidence":-1},{"trial_n":13,"span":8,"encoder":"87057120","distractor":"27057120","target":"present","response":"absent","rt":"1467.6999999993","correct":false,"confidence":-1},{"trial_n":14,"span":7,"encoder":"0340455","distractor":"0343455","target":"absent","response":"present","rt":"1056.7999999989","correct":false,"confidence":-1},{"trial_n":15,"span":6,"encoder":"593506","distractor":"893506","target":"absent","response":"absent","rt":"1535","correct":true,"confidence":-1},{"trial_n":16,"span":6,"encoder":"383657","distractor":"583657","target":"present","response":"absent","rt":"3079.1999999993","correct":false,"confidence":-1},{"trial_n":17,"span":5,"encoder":"15762","distractor":"16762","target":"present","response":"present","rt":"911.90000000037","correct":true,"confidence":-1},{"trial_n":18,"span":5,"encoder":"85401","distractor":"85421","target":"present","response":"present","rt":"1025.4000000004","correct":true,"confidence":-1},{"trial_n":19,"span":6,"encoder":"631682","distractor":"631681","target":"absent","response":"present","rt":"2839.9000000004","correct":false,"confidence":-1},{"trial_n":20,"span":5,"encoder":"68402","distractor":"68412","target":"absent","response":"absent","rt":"2737.3000000007","correct":true,"confidence":-1},{"trial_n":21,"span":5,"encoder":"40099","distractor":"40029","target":"absent","response":"absent","rt":"1926.8999999985","correct":true,"confidence":5},{"trial_n":22,"span":6,"encoder":"216969","distractor":"216965","target":"present","response":"present","rt":"3161.1000000015","correct":true,"confidence":4},{"trial_n":23,"span":6,"encoder":"483850","distractor":"483150","target":"present","response":"present","rt":"2074.5999999996","correct":true,"confidence":5},{"trial_n":24,"span":7,"encoder":"6528346","distractor":"6728346","target":"absent","response":"absent","rt":"1468.0999999996","correct":true,"confidence":5},{"trial_n":25,"span":7,"encoder":"8016754","distractor":"8046754","target":"present","response":"present","rt":"2464.5999999996","correct":true,"confidence":5},{"trial_n":26,"span":8,"encoder":"90256243","distractor":"90256247","target":"present","response":"present","rt":"3509.4000000004","correct":true,"confidence":4},{"trial_n":27,"span":8,"encoder":"92154929","distractor":"92654929","target":"present","response":"present","rt":"3039.5999999996","correct":true,"confidence":5},{"trial_n":28,"span":9,"encoder":"827773796","distractor":"827073796","target":"absent","response":"absent","rt":"3550.3000000007","correct":true,"confidence":5},{"trial_n":29,"span":9,"encoder":"349231023","distractor":"349231423","target":"absent","response":"absent","rt":"3573.5999999996","correct":true,"confidence":5},{"trial_n":30,"span":10,"encoder":"5115911850","distractor":"5115911880","target":"absent","response":"present","rt":"6550","correct":false,"confidence":3},{"trial_n":31,"span":9,"encoder":"627726043","distractor":"697726043","target":"present","response":"present","rt":"4117.2000000011","correct":true,"confidence":3},{"trial_n":32,"span":9,"encoder":"972988040","distractor":"972988010","target":"present","response":"present","rt":"4085.9000000004","correct":true,"confidence":3},{"trial_n":33,"span":10,"encoder":"4735950193","distractor":"4735950093","target":"present","response":"present","rt":"2102.6999999993","correct":true,"confidence":4},{"trial_n":34,"span":10,"encoder":"4162489327","distractor":"8162489327","target":"present","response":"absent","rt":"3072.3000000007","correct":false,"confidence":4},{"trial_n":35,"span":9,"encoder":"702827211","distractor":"701827211","target":"absent","response":"absent","rt":"4513.9000000004","correct":true,"confidence":4},{"trial_n":36,"span":9,"encoder":"254402876","distractor":"254402776","target":"present","response":"present","rt":"3589.5","correct":true,"confidence":4},{"trial_n":37,"span":10,"encoder":"4894526556","distractor":"6894526556","target":"absent","response":"absent","rt":"1784.3000000007","correct":true,"confidence":4},{"trial_n":38,"span":10,"encoder":"7958321691","distractor":"7978321691","target":"absent","response":"present","rt":"5331","correct":false,"confidence":3},{"trial_n":39,"span":9,"encoder":"932886393","distractor":"932886293","target":"present","response":"present","rt":"3430.5999999996","correct":true,"confidence":5},{"trial_n":40,"span":9,"encoder":"386521235","distractor":"386221235","target":"present","response":"present","rt":"3802.5","correct":true,"confidence":4},{"trial_n":41,"span":10,"encoder":"9929067878","distractor":"9929067678","target":"present","response":"present","rt":"6958","correct":true,"confidence":3},{"trial_n":42,"span":10,"encoder":"7568751377","distractor":"7568951377","target":"present","response":"present","rt":"3442.9000000004","correct":true,"confidence":5},{"trial_n":43,"span":11,"encoder":"06106915399","distractor":"06106915397","target":"present","response":"present","rt":"3612.3000000007","correct":true,"confidence":4},{"trial_n":44,"span":11,"encoder":"78957405133","distractor":"78954405133","target":"present","response":"present","rt":"5479.2999999989","correct":true,"confidence":4},{"trial_n":45,"span":12,"encoder":"366301428485","distractor":"766301428485","target":"absent","response":"absent","rt":"2514.3000000007","correct":true,"confidence":2},{"trial_n":46,"span":12,"encoder":"274556415505","distractor":"279556415505","target":"absent","response":"present","rt":"4738.8000000007","correct":false,"confidence":4},{"trial_n":47,"span":11,"encoder":"57788821928","distractor":"57788824928","target":"absent","response":"absent","rt":"8652.5","correct":true,"confidence":3},{"trial_n":48,"span":11,"encoder":"40998791455","distractor":"40998791452","target":"absent","response":"absent","rt":"2305","correct":true,"confidence":4},{"trial_n":49,"span":12,"encoder":"221116854349","distractor":"221116854347","target":"absent","response":"absent","rt":"4198.9000000004","correct":true,"confidence":4},{"trial_n":50,"span":12,"encoder":"802889069749","distractor":"802889069789","target":"absent","response":"present","rt":"2768","correct":false,"confidence":3},{"trial_n":51,"span":11,"encoder":"26590826964","distractor":"26590826968","target":"present","response":"present","rt":"6409.0999999996","correct":true,"confidence":4},{"trial_n":52,"span":11,"encoder":"29644785731","distractor":"29644785781","target":"present","response":"present","rt":"2050.9000000004","correct":true,"confidence":2},{"trial_n":53,"span":12,"encoder":"032566032486","distractor":"032566032686","target":"absent","response":"absent","rt":"4582.2999999989","correct":true,"confidence":3},{"trial_n":54,"span":12,"encoder":"885504622857","distractor":"885509622857","target":"absent","response":"present","rt":"3349.9000000004","correct":false,"confidence":3},{"trial_n":55,"span":11,"encoder":"76173272124","distractor":"76173273124","target":"present","response":"present","rt":"3900.1999999993","correct":true,"confidence":5},{"trial_n":56,"span":11,"encoder":"32535198402","distractor":"32533198402","target":"absent","response":"present","rt":"3791.3000000007","correct":false,"confidence":4},{"trial_n":57,"span":10,"encoder":"2800867584","distractor":"2800867581","target":"absent","response":"absent","rt":"1780.0999999996","correct":true,"confidence":5},{"trial_n":58,"span":10,"encoder":"6191811316","distractor":"6190811316","target":"absent","response":"present","rt":"7357.2000000011","correct":false,"confidence":3},{"trial_n":59,"span":9,"encoder":"482987211","distractor":"488987211","target":"present","response":"present","rt":"3141.4000000004","correct":true,"confidence":5},{"trial_n":60,"span":9,"encoder":"456481699","distractor":"456081699","target":"absent","response":"present","rt":"2844.2999999989","correct":false,"confidence":5},{"trial_n":61,"span":8,"encoder":"93764600","distractor":"93764601","target":"present","response":"present","rt":"2300.4000000004","correct":true,"confidence":5},{"trial_n":62,"span":8,"encoder":"83038702","distractor":"83038732","target":"present","response":"present","rt":"2342.8000000007","correct":true,"confidence":5},{"trial_n":63,"span":9,"encoder":"407287787","distractor":"407207787","target":"present","response":"present","rt":"3238.3000000007","correct":true,"confidence":5},{"trial_n":64,"span":9,"encoder":"166654604","distractor":"166654634","target":"present","response":"present","rt":"3176.1000000015","correct":true,"confidence":5},{"trial_n":65,"span":10,"encoder":"4168044071","distractor":"1168044071","target":"present","response":"present","rt":"6224.5999999996","correct":true,"confidence":4},{"trial_n":66,"span":10,"encoder":"9137968459","distractor":"9137963459","target":"present","response":"present","rt":"3044.2000000011","correct":true,"confidence":4},{"trial_n":67,"span":11,"encoder":"40076297576","distractor":"40076297276","target":"absent","response":"absent","rt":"1803.7000000011","correct":true,"confidence":2},{"trial_n":68,"span":11,"encoder":"38192687030","distractor":"38592687030","target":"absent","response":"absent","rt":"4828.1000000015","correct":true,"confidence":3},{"trial_n":69,"span":12,"encoder":"164491953787","distractor":"464491953787","target":"absent","response":"absent","rt":"2122.0999999996","correct":true,"confidence":3},{"trial_n":70,"span":12,"encoder":"112017382674","distractor":"119017382674","target":"absent","response":"absent","rt":"5189","correct":true,"confidence":3},{"trial_n":71,"span":8,"encoder":"56464469","distractor":"56664469","target":"present","response":"present","rt":"5732","correct":true,"confidence":-1},{"trial_n":72,"span":8,"encoder":"85641139","distractor":"85647139","target":"present","response":"present","rt":"2590","correct":true,"confidence":-1},{"trial_n":73,"span":9,"encoder":"523509032","distractor":"523509072","target":"absent","response":"absent","rt":"2204.9000000004","correct":true,"confidence":-1},{"trial_n":74,"span":9,"encoder":"017780601","distractor":"017780606","target":"absent","response":"absent","rt":"6716.8000000007","correct":true,"confidence":-1},{"trial_n":75,"span":10,"encoder":"5403767602","distractor":"5403767502","target":"present","response":"present","rt":"828.79999999888","correct":true,"confidence":-1},{"trial_n":76,"span":10,"encoder":"9359322941","distractor":"9359322943","target":"absent","response":"absent","rt":"2187.4000000004","correct":true,"confidence":-1},{"trial_n":77,"span":11,"encoder":"71083941742","distractor":"71183941742","target":"absent","response":"present","rt":"6579.1999999993","correct":false,"confidence":-1},{"trial_n":78,"span":10,"encoder":"0925579790","distractor":"0923579790","target":"present","response":"absent","rt":"3954","correct":false,"confidence":-1},{"trial_n":79,"span":9,"encoder":"116766575","distractor":"116786575","target":"present","response":"present","rt":"3735.2000000011","correct":true,"confidence":-1},{"trial_n":80,"span":9,"encoder":"015877939","distractor":"035877939","target":"absent","response":"present","rt":"976.19999999925","correct":false,"confidence":-1},{"trial_n":81,"span":8,"encoder":"80905898","distractor":"80925898","target":"present","response":"absent","rt":"561.19999999925","correct":false,"confidence":-1},{"trial_n":82,"span":7,"encoder":"2381352","distractor":"2391352","target":"absent","response":"present","rt":"756.69999999925","correct":false,"confidence":-1},{"trial_n":83,"span":6,"encoder":"696878","distractor":"606878","target":"absent","response":"absent","rt":"1612.2999999989","correct":true,"confidence":-1},{"trial_n":84,"span":6,"encoder":"984174","distractor":"985174","target":"present","response":"present","rt":"2117.5","correct":true,"confidence":-1},{"trial_n":85,"span":7,"encoder":"3691867","distractor":"3691861","target":"absent","response":"absent","rt":"1455.6999999993","correct":true,"confidence":-1},{"trial_n":86,"span":7,"encoder":"4307309","distractor":"4377309","target":"present","response":"present","rt":"2246.8999999985","correct":true,"confidence":-1},{"trial_n":87,"span":8,"encoder":"10246661","distractor":"70246661","target":"present","response":"present","rt":"2440.8000000007","correct":true,"confidence":-1},{"trial_n":88,"span":8,"encoder":"24929632","distractor":"24927632","target":"absent","response":"absent","rt":"4072.6999999993","correct":true,"confidence":-1},{"trial_n":89,"span":9,"encoder":"004643699","distractor":"004643099","target":"absent","response":"absent","rt":"759.40000000037","correct":true,"confidence":-1},{"trial_n":90,"span":9,"encoder":"713212812","distractor":"713212712","target":"absent","response":"absent","rt":"1989.6999999993","correct":true,"confidence":-1},{"trial_n":91,"span":10,"encoder":"8400426581","distractor":"8408426581","target":"absent","response":"present","rt":"3488.6999999993","correct":false,"confidence":3},{"trial_n":92,"span":9,"encoder":"162277049","distractor":"162277045","target":"absent","response":"absent","rt":"2085.7000000011","correct":true,"confidence":5},{"trial_n":93,"span":9,"encoder":"457386718","distractor":"467386718","target":"absent","response":"present","rt":"5067.1000000015","correct":false,"confidence":4},{"trial_n":94,"span":8,"encoder":"23513997","distractor":"63513997","target":"present","response":"present","rt":"6829.2999999989","correct":true,"confidence":5},{"trial_n":95,"span":8,"encoder":"29161544","distractor":"25161544","target":"present","response":"present","rt":"3272.5999999996","correct":true,"confidence":2},{"trial_n":96,"span":9,"encoder":"750936762","distractor":"750936862","target":"absent","response":"absent","rt":"5036.4000000004","correct":true,"confidence":4},{"trial_n":97,"span":9,"encoder":"067347477","distractor":"067747477","target":"present","response":"present","rt":"5795.1999999993","correct":true,"confidence":4},{"trial_n":98,"span":10,"encoder":"4309635832","distractor":"4909635832","target":"present","response":"present","rt":"2590.9000000004","correct":true,"confidence":3},{"trial_n":99,"span":10,"encoder":"6083865823","distractor":"6283865823","target":"absent","response":"absent","rt":"3320.4000000004","correct":true,"confidence":4},{"trial_n":100,"span":11,"encoder":"26929680998","distractor":"26909680998","target":"present","response":"absent","rt":"3972.7999999989","correct":false,"confidence":4},{"trial_n":101,"span":10,"encoder":"3902735980","distractor":"3902835980","target":"present","response":"present","rt":"4376.1000000015","correct":true,"confidence":5},{"trial_n":102,"span":10,"encoder":"1677883066","distractor":"1627883066","target":"absent","response":"absent","rt":"3211.7000000011","correct":true,"confidence":4},{"trial_n":103,"span":11,"encoder":"82977156843","distractor":"82077156843","target":"absent","response":"absent","rt":"2821.0999999996","correct":true,"confidence":5},{"trial_n":104,"span":11,"encoder":"74992166478","distractor":"74992166078","target":"present","response":"present","rt":"7410.6999999993","correct":true,"confidence":5},{"trial_n":105,"span":12,"encoder":"443540134423","distractor":"443540134723","target":"present","response":"present","rt":"5087.0999999996","correct":true,"confidence":5},{"trial_n":106,"span":12,"encoder":"636504219900","distractor":"636504219990","target":"present","response":"absent","rt":"2908.6999999993","correct":false,"confidence":5},{"trial_n":107,"span":11,"encoder":"38161642798","distractor":"30161642798","target":"absent","response":"absent","rt":"2296.5","correct":true,"confidence":3},{"trial_n":108,"span":11,"encoder":"77023123033","distractor":"76023123033","target":"present","response":"absent","rt":"5994.1000000015","correct":false,"confidence":4},{"trial_n":109,"span":10,"encoder":"1298633631","distractor":"1298633931","target":"absent","response":"present","rt":"5964.6000000015","correct":false,"confidence":4},{"trial_n":110,"span":9,"encoder":"897414045","distractor":"697414045","target":"absent","response":"absent","rt":"5418.2999999989","correct":true,"confidence":3},{"trial_n":111,"span":9,"encoder":"479512775","distractor":"476512775","target":"present","response":"present","rt":"3431.1999999993","correct":true,"confidence":4},{"trial_n":112,"span":10,"encoder":"7409842982","distractor":"7409852982","target":"present","response":"present","rt":"5720.2999999989","correct":true,"confidence":4},{"trial_n":113,"span":10,"encoder":"7490283863","distractor":"7494283863","target":"absent","response":"absent","rt":"3412.0999999996","correct":true,"confidence":5},{"trial_n":114,"span":11,"encoder":"69753644554","distractor":"69753645554","target":"present","response":"present","rt":"10961.6","correct":true,"confidence":5},{"trial_n":115,"span":11,"encoder":"14352960308","distractor":"14452960308","target":"present","response":"present","rt":"4522.5","correct":true,"confidence":5},{"trial_n":116,"span":12,"encoder":"601408939523","distractor":"601401939523","target":"present","response":"absent","rt":"9615.7999999989","correct":false,"confidence":2},{"trial_n":117,"span":11,"encoder":"23217470457","distractor":"43217470457","target":"present","response":"present","rt":"4790.0999999996","correct":true,"confidence":3},{"trial_n":118,"span":11,"encoder":"68230260027","distractor":"68230260627","target":"present","response":"present","rt":"2885.9000000004","correct":true,"confidence":5},{"trial_n":119,"span":12,"encoder":"448891016482","distractor":"248891016482","target":"absent","response":"present","rt":"4296.2000000011","correct":false,"confidence":2},{"trial_n":120,"span":11,"encoder":"94814211852","distractor":"94814211872","target":"present","response":"present","rt":"8708.1999999993","correct":true,"confidence":3},{"trial_n":121,"span":11,"encoder":"28590532662","distractor":"28598532662","target":"absent","response":"absent","rt":"5126.4000000004","correct":true,"confidence":2},{"trial_n":122,"span":12,"encoder":"575239104408","distractor":"575239107408","target":"present","response":"present","rt":"2827.5","correct":true,"confidence":5},{"trial_n":123,"span":12,"encoder":"591788598682","distractor":"591788548682","target":"present","response":"present","rt":"3137.5","correct":true,"confidence":5},{"trial_n":124,"span":13,"encoder":"1850615864005","distractor":"1750615864005","target":"absent","response":"present","rt":"11140.199999999","correct":false,"confidence":3},{"trial_n":125,"span":12,"encoder":"429037029974","distractor":"429037029674","target":"absent","response":"present","rt":"10663.799999999","correct":false,"confidence":1},{"trial_n":126,"span":11,"encoder":"68260054345","distractor":"68290054345","target":"present","response":"present","rt":"4701.8000000007","correct":true,"confidence":3},{"trial_n":127,"span":11,"encoder":"63675293188","distractor":"63575293188","target":"absent","response":"present","rt":"4505.4000000004","correct":false,"confidence":2},{"trial_n":128,"span":10,"encoder":"5033929680","distractor":"5033929380","target":"absent","response":"present","rt":"7587.6999999993","correct":false,"confidence":3},{"trial_n":129,"span":9,"encoder":"230889356","distractor":"230882356","target":"absent","response":"absent","rt":"3861.7000000011","correct":true,"confidence":5},{"trial_n":130,"span":9,"encoder":"250635400","distractor":"450635400","target":"absent","response":"absent","rt":"7872.5999999996","correct":true,"confidence":3},{"trial_n":131,"span":10,"encoder":"7401709425","distractor":"7401739425","target":"present","response":"present","rt":"7676","correct":true,"confidence":3},{"trial_n":132,"span":10,"encoder":"5669456112","distractor":"5669459112","target":"absent","response":"absent","rt":"20497.1","correct":true,"confidence":2},{"trial_n":133,"span":11,"encoder":"77530275792","distractor":"77530275782","target":"absent","response":"present","rt":"6998.8999999985","correct":false,"confidence":3},{"trial_n":134,"span":10,"encoder":"2151764423","distractor":"2651764423","target":"present","response":"present","rt":"4183.1999999993","correct":true,"confidence":2},{"trial_n":135,"span":10,"encoder":"1545577793","distractor":"1545577493","target":"absent","response":"absent","rt":"4409.8000000007","correct":true,"confidence":4},{"trial_n":136,"span":11,"encoder":"50293109852","distractor":"50793109852","target":"present","response":"absent","rt":"2127.9000000004","correct":false,"confidence":2},{"trial_n":137,"span":10,"encoder":"7454755156","distractor":"7458755156","target":"present","response":"present","rt":"5056.0999999996","correct":true,"confidence":2},{"trial_n":138,"span":10,"encoder":"0411697752","distractor":"0411647752","target":"present","response":"present","rt":"5232.5999999996","correct":true,"confidence":3},{"trial_n":139,"span":11,"encoder":"53033153501","distractor":"53933153501","target":"present","response":"present","rt":"3737.5","correct":true,"confidence":3},{"trial_n":140,"span":11,"encoder":"87889133567","distractor":"87889133560","target":"absent","response":"absent","rt":"7783.6999999993","correct":true,"confidence":3}]