[{"trial_n":1,"min":25,"max":230,"target":"present","response":"absent","rt":4146,"correct":false,"confidence":-1},{"trial_n":2,"min":25,"max":230,"target":"present","response":"present","rt":1327,"correct":true,"confidence":-1},{"trial_n":3,"min":25,"max":230,"target":"absent","response":"present","rt":888,"correct":false,"confidence":-1},{"trial_n":4,"min":9,"max":246,"target":"absent","response":"absent","rt":1652,"correct":true,"confidence":-1},{"trial_n":5,"min":9,"max":246,"target":"present","response":"present","rt":861,"correct":true,"confidence":-1},{"trial_n":6,"min":25,"max":230,"target":"absent","response":"present","rt":1117,"correct":false,"confidence":-1},{"trial_n":7,"min":9,"max":246,"target":"present","response":"present","rt":1474,"correct":true,"confidence":-1},{"trial_n":8,"min":9,"max":246,"target":"present","response":"present","rt":755,"correct":true,"confidence":-1},{"trial_n":9,"min":25,"max":230,"target":"absent","response":"absent","rt":889,"correct":true,"confidence":-1},{"trial_n":10,"min":25,"max":230,"target":"absent","response":"absent","rt":682,"correct":true,"confidence":-1},{"trial_n":11,"min":33,"max":222,"target":"present","response":"present","rt":836,"correct":true,"confidence":-1},{"trial_n":12,"min":33,"max":222,"target":"present","response":"present","rt":808,"correct":true,"confidence":-1},{"trial_n":13,"min":41,"max":214,"target":"absent","response":"absent","rt":948,"correct":true,"confidence":-1},{"trial_n":14,"min":41,"max":214,"target":"absent","response":"absent","rt":613,"correct":true,"confidence":-1},{"trial_n":15,"min":49,"max":206,"target":"absent","response":"absent","rt":492,"correct":true,"confidence":-1},{"trial_n":16,"min":49,"max":206,"target":"present","response":"present","rt":919,"correct":true,"confidence":-1},{"trial_n":17,"min":57,"max":198,"target":"absent","response":"absent","rt":741,"correct":true,"confidence":-1},{"trial_n":18,"min":57,"max":198,"target":"absent","response":"absent","rt":578,"correct":true,"confidence":-1},{"trial_n":19,"min":65,"max":190,"target":"present","response":"present","rt":1331,"correct":true,"confidence":-1},{"trial_n":20,"min":65,"max":190,"target":"present","response":"absent","rt":734,"correct":false,"confidence":-1},{"trial_n":21,"min":61,"max":194,"target":"present","response":"present","rt":1357,"correct":true,"confidence":4},{"trial_n":22,"min":61,"max":194,"target":"absent","response":"absent","rt":2796,"correct":true,"confidence":2},{"trial_n":23,"min":65,"max":190,"target":"absent","response":"absent","rt":2909,"correct":true,"confidence":3},{"trial_n":24,"min":65,"max":190,"target":"present","response":"present","rt":811,"correct":true,"confidence":5},{"trial_n":25,"min":69,"max":186,"target":"present","response":"present","rt":810,"correct":true,"confidence":5},{"trial_n":26,"min":69,"max":186,"target":"absent","response":"absent","rt":2046,"correct":true,"confidence":3},{"trial_n":27,"min":73,"max":182,"target":"present","response":"present","rt":761,"correct":true,"confidence":5},{"trial_n":28,"min":73,"max":182,"target":"absent","response":"present","rt":1586,"correct":false,"confidence":2},{"trial_n":29,"min":69,"max":186,"target":"absent","response":"absent","rt":1479,"correct":true,"confidence":2},{"trial_n":30,"min":69,"max":186,"target":"absent","response":"absent","rt":1017,"correct":true,"confidence":2},{"trial_n":31,"min":71,"max":184,"target":"absent","response":"absent","rt":3325,"correct":true,"confidence":2},{"trial_n":32,"min":71,"max":184,"target":"present","response":"present","rt":775,"correct":true,"confidence":3},{"trial_n":33,"min":73,"max":182,"target":"present","response":"absent","rt":1019,"correct":false,"confidence":2},{"trial_n":34,"min":71,"max":184,"target":"present","response":"present","rt":832,"correct":true,"confidence":5},{"trial_n":35,"min":71,"max":184,"target":"present","response":"present","rt":944,"correct":true,"confidence":5},{"trial_n":36,"min":73,"max":182,"target":"present","response":"present","rt":1139,"correct":true,"confidence":5},{"trial_n":37,"min":73,"max":182,"target":"present","response":"present","rt":1214,"correct":true,"confidence":5},{"trial_n":38,"min":75,"max":180,"target":"present","response":"present","rt":956,"correct":true,"confidence":3},{"trial_n":39,"min":75,"max":180,"target":"absent","response":"absent","rt":826,"correct":true,"confidence":4},{"trial_n":40,"min":77,"max":178,"target":"present","response":"present","rt":774,"correct":true,"confidence":5},{"trial_n":41,"min":77,"max":178,"target":"absent","response":"absent","rt":982,"correct":true,"confidence":4},{"trial_n":42,"min":78,"max":177,"target":"absent","response":"absent","rt":1009,"correct":true,"confidence":4},{"trial_n":43,"min":78,"max":177,"target":"absent","response":"absent","rt":836,"correct":true,"confidence":4},{"trial_n":44,"min":79,"max":176,"target":"absent","response":"absent","rt":1066,"correct":true,"confidence":4},{"trial_n":45,"min":79,"max":176,"target":"present","response":"absent","rt":974,"correct":false,"confidence":4},{"trial_n":46,"min":78,"max":177,"target":"present","response":"present","rt":1223,"correct":true,"confidence":2},{"trial_n":47,"min":78,"max":177,"target":"absent","response":"absent","rt":1601,"correct":true,"confidence":2},{"trial_n":48,"min":79,"max":176,"target":"present","response":"present","rt":839,"correct":true,"confidence":4},{"trial_n":49,"min":79,"max":176,"target":"absent","response":"present","rt":839,"correct":false,"confidence":3},{"trial_n":50,"min":78,"max":177,"target":"absent","response":"absent","rt":1006,"correct":true,"confidence":3},{"trial_n":51,"min":78,"max":177,"target":"present","response":"absent","rt":1939,"correct":false,"confidence":2},{"trial_n":52,"min":77,"max":178,"target":"absent","response":"absent","rt":1092,"correct":true,"confidence":2},{"trial_n":53,"min":77,"max":178,"target":"absent","response":"absent","rt":1286,"correct":true,"confidence":1},{"trial_n":54,"min":78,"max":177,"target":"absent","response":"absent","rt":852,"correct":true,"confidence":1},{"trial_n":55,"min":78,"max":177,"target":"present","response":"present","rt":979,"correct":true,"confidence":4},{"trial_n":56,"min":79,"max":176,"target":"present","response":"present","rt":1380,"correct":true,"confidence":1},{"trial_n":57,"min":79,"max":176,"target":"absent","response":"absent","rt":910,"correct":true,"confidence":1},{"trial_n":58,"min":80,"max":175,"target":"present","response":"present","rt":1226,"correct":true,"confidence":2},{"trial_n":59,"min":80,"max":175,"target":"absent","response":"absent","rt":849,"correct":true,"confidence":1},{"trial_n":60,"min":81,"max":174,"target":"present","response":"present","rt":882,"correct":true,"confidence":4},{"trial_n":61,"min":81,"max":174,"target":"absent","response":"absent","rt":1078,"correct":true,"confidence":2},{"trial_n":62,"min":82,"max":173,"target":"present","response":"present","rt":1025,"correct":true,"confidence":3},{"trial_n":63,"min":82,"max":173,"target":"absent","response":"absent","rt":4207,"correct":true,"confidence":2},{"trial_n":64,"min":83,"max":172,"target":"absent","response":"absent","rt":1136,"correct":true,"confidence":1},{"trial_n":65,"min":83,"max":172,"target":"present","response":"present","rt":806,"correct":true,"confidence":4},{"trial_n":66,"min":84,"max":171,"target":"present","response":"absent","rt":1518,"correct":false,"confidence":1},{"trial_n":67,"min":83,"max":172,"target":"present","response":"absent","rt":1599,"correct":false,"confidence":1},{"trial_n":68,"min":82,"max":173,"target":"present","response":"absent","rt":1610,"correct":false,"confidence":1},{"trial_n":69,"min":81,"max":174,"target":"present","response":"present","rt":898,"correct":true,"confidence":2},{"trial_n":70,"min":81,"max":174,"target":"absent","response":"present","rt":1007,"correct":false,"confidence":1},{"trial_n":71,"min":41,"max":214,"target":"present","response":"present","rt":1529,"correct":true,"confidence":-1},{"trial_n":72,"min":41,"max":214,"target":"present","response":"present","rt":700,"correct":true,"confidence":-1},{"trial_n":73,"min":57,"max":198,"target":"absent","response":"absent","rt":2047,"correct":true,"confidence":-1},{"trial_n":74,"min":57,"max":198,"target":"absent","response":"absent","rt":961,"correct":true,"confidence":-1},{"trial_n":75,"min":73,"max":182,"target":"present","response":"present","rt":772,"correct":true,"confidence":-1},{"trial_n":76,"min":73,"max":182,"target":"absent","response":"absent","rt":1348,"correct":true,"confidence":-1},{"trial_n":77,"min":89,"max":166,"target":"absent","response":"absent","rt":876,"correct":true,"confidence":-1},{"trial_n":78,"min":89,"max":166,"target":"present","response":"absent","rt":1029,"correct":false,"confidence":-1},{"trial_n":79,"min":73,"max":182,"target":"present","response":"present","rt":1090,"correct":true,"confidence":-1},{"trial_n":80,"min":73,"max":182,"target":"present","response":"present","rt":779,"correct":true,"confidence":-1},{"trial_n":81,"min":81,"max":174,"target":"absent","response":"present","rt":1117,"correct":false,"confidence":-1},{"trial_n":82,"min":73,"max":182,"target":"present","response":"absent","rt":904,"correct":false,"confidence":-1},{"trial_n":83,"min":65,"max":190,"target":"absent","response":"present","rt":2352,"correct":false,"confidence":-1},{"trial_n":84,"min":57,"max":198,"target":"present","response":"present","rt":925,"correct":true,"confidence":-1},{"trial_n":85,"min":57,"max":198,"target":"present","response":"present","rt":637,"correct":true,"confidence":-1},{"trial_n":86,"min":65,"max":190,"target":"absent","response":"absent","rt":1174,"correct":true,"confidence":-1},{"trial_n":87,"min":65,"max":190,"target":"present","response":"present","rt":1467,"correct":true,"confidence":-1},{"trial_n":88,"min":73,"max":182,"target":"present","response":"present","rt":906,"correct":true,"confidence":-1},{"trial_n":89,"min":73,"max":182,"target":"absent","response":"absent","rt":1344,"correct":true,"confidence":-1},{"trial_n":90,"min":81,"max":174,"target":"present","response":"present","rt":1194,"correct":true,"confidence":-1},{"trial_n":91,"min":81,"max":174,"target":"absent","response":"present","rt":1215,"correct":false,"confidence":2},{"trial_n":92,"min":77,"max":178,"target":"absent","response":"absent","rt":1122,"correct":true,"confidence":5},{"trial_n":93,"min":77,"max":178,"target":"present","response":"present","rt":788,"correct":true,"confidence":5},{"trial_n":94,"min":81,"max":174,"target":"absent","response":"absent","rt":1007,"correct":true,"confidence":4},{"trial_n":95,"min":81,"max":174,"target":"absent","response":"present","rt":4824,"correct":false,"confidence":1},{"trial_n":96,"min":77,"max":178,"target":"absent","response":"absent","rt":1190,"correct":true,"confidence":3},{"trial_n":97,"min":77,"max":178,"target":"absent","response":"present","rt":1013,"correct":false,"confidence":4},{"trial_n":98,"min":73,"max":182,"target":"present","response":"present","rt":803,"correct":true,"confidence":4},{"trial_n":99,"min":73,"max":182,"target":"absent","response":"absent","rt":1257,"correct":true,"confidence":4},{"trial_n":100,"min":77,"max":178,"target":"absent","response":"absent","rt":1110,"correct":true,"confidence":3},{"trial_n":101,"min":77,"max":178,"target":"present","response":"present","rt":1481,"correct":true,"confidence":5},{"trial_n":102,"min":79,"max":176,"target":"absent","response":"absent","rt":1051,"correct":true,"confidence":5},{"trial_n":103,"min":79,"max":176,"target":"present","response":"present","rt":1385,"correct":true,"confidence":1},{"trial_n":104,"min":81,"max":174,"target":"present","response":"present","rt":1755,"correct":true,"confidence":1},{"trial_n":105,"min":81,"max":174,"target":"absent","response":"absent","rt":1047,"correct":true,"confidence":2},{"trial_n":106,"min":83,"max":172,"target":"present","response":"present","rt":829,"correct":true,"confidence":3},{"trial_n":107,"min":83,"max":172,"target":"present","response":"present","rt":3073,"correct":true,"confidence":1},{"trial_n":108,"min":85,"max":170,"target":"present","response":"present","rt":1016,"correct":true,"confidence":2},{"trial_n":109,"min":85,"max":170,"target":"present","response":"present","rt":1030,"correct":true,"confidence":1},{"trial_n":110,"min":87,"max":168,"target":"present","response":"present","rt":1100,"correct":true,"confidence":1},{"trial_n":111,"min":87,"max":168,"target":"absent","response":"present","rt":1027,"correct":false,"confidence":1},{"trial_n":112,"min":86,"max":169,"target":"absent","response":"present","rt":894,"correct":false,"confidence":1},{"trial_n":113,"min":85,"max":170,"target":"present","response":"present","rt":982,"correct":true,"confidence":1},{"trial_n":114,"min":85,"max":170,"target":"absent","response":"present","rt":1143,"correct":false,"confidence":1},{"trial_n":115,"min":84,"max":171,"target":"present","response":"present","rt":2217,"correct":true,"confidence":3},{"trial_n":116,"min":84,"max":171,"target":"present","response":"present","rt":1008,"correct":true,"confidence":3},{"trial_n":117,"min":85,"max":170,"target":"present","response":"present","rt":1200,"correct":true,"confidence":1},{"trial_n":118,"min":85,"max":170,"target":"present","response":"absent","rt":1206,"correct":false,"confidence":1},{"trial_n":119,"min":84,"max":171,"target":"present","response":"present","rt":1903,"correct":true,"confidence":3},{"trial_n":120,"min":84,"max":171,"target":"absent","response":"absent","rt":1409,"correct":true,"confidence":3},{"trial_n":121,"min":85,"max":170,"target":"present","response":"present","rt":952,"correct":true,"confidence":3},{"trial_n":122,"min":85,"max":170,"target":"absent","response":"absent","rt":1323,"correct":true,"confidence":1},{"trial_n":123,"min":86,"max":169,"target":"present","response":"absent","rt":949,"correct":false,"confidence":1},{"trial_n":124,"min":85,"max":170,"target":"present","response":"absent","rt":1182,"correct":false,"confidence":1},{"trial_n":125,"min":84,"max":171,"target":"absent","response":"absent","rt":993,"correct":true,"confidence":1},{"trial_n":126,"min":84,"max":171,"target":"absent","response":"absent","rt":1403,"correct":true,"confidence":3},{"trial_n":127,"min":85,"max":170,"target":"present","response":"absent","rt":4038,"correct":false,"confidence":1},{"trial_n":128,"min":84,"max":171,"target":"absent","response":"absent","rt":1332,"correct":true,"confidence":1},{"trial_n":129,"min":84,"max":171,"target":"absent","response":"absent","rt":1546,"correct":true,"confidence":3},{"trial_n":130,"min":85,"max":170,"target":"absent","response":"absent","rt":1211,"correct":true,"confidence":1},{"trial_n":131,"min":85,"max":170,"target":"present","response":"present","rt":1359,"correct":true,"confidence":1},{"trial_n":132,"min":86,"max":169,"target":"absent","response":"present","rt":1002,"correct":false,"confidence":1},{"trial_n":133,"min":85,"max":170,"target":"absent","response":"present","rt":1120,"correct":false,"confidence":1},{"trial_n":134,"min":84,"max":171,"target":"absent","response":"present","rt":1366,"correct":false,"confidence":1},{"trial_n":135,"min":83,"max":172,"target":"present","response":"present","rt":1197,"correct":true,"confidence":1},{"trial_n":136,"min":83,"max":172,"target":"present","response":"present","rt":1508,"correct":true,"confidence":1},{"trial_n":137,"min":84,"max":171,"target":"absent","response":"present","rt":1126,"correct":false,"confidence":1},{"trial_n":138,"min":83,"max":172,"target":"absent","response":"absent","rt":1308,"correct":true,"confidence":2},{"trial_n":139,"min":83,"max":172,"target":"absent","response":"present","rt":1156,"correct":false,"confidence":1},{"trial_n":140,"min":82,"max":173,"target":"present","response":"present","rt":992,"correct":true,"confidence":3}]