[{"trial_n":1,"span":8,"encoder":"10340355","distractor":"10640355","target":"present","response":"present","rt":"2018.1999998093","correct":true,"confidence":-1},{"trial_n":2,"span":8,"encoder":"05177951","distractor":"05117951","target":"present","response":"present","rt":"1867.3999998569","correct":true,"confidence":-1},{"trial_n":3,"span":10,"encoder":"2920502787","distractor":"2920502780","target":"absent","response":"absent","rt":"1257.9000000954","correct":true,"confidence":-1},{"trial_n":4,"span":10,"encoder":"5227572503","distractor":"5227872503","target":"absent","response":"present","rt":"2216.8999998569","correct":false,"confidence":-1},{"trial_n":5,"span":8,"encoder":"17688638","distractor":"17688608","target":"present","response":"present","rt":"1139.6000001431","correct":true,"confidence":-1},{"trial_n":6,"span":8,"encoder":"21806214","distractor":"21806211","target":"absent","response":"absent","rt":"664.29999995232","correct":true,"confidence":-1},{"trial_n":7,"span":10,"encoder":"6129275670","distractor":"4129275670","target":"absent","response":"present","rt":"399.89999985695","correct":false,"confidence":-1},{"trial_n":8,"span":8,"encoder":"71064669","distractor":"71066669","target":"absent","response":"absent","rt":"1123.6999998093","correct":true,"confidence":-1},{"trial_n":9,"span":8,"encoder":"45949279","distractor":"85949279","target":"absent","response":"present","rt":"280.59999990463","correct":false,"confidence":-1},{"trial_n":10,"span":6,"encoder":"763610","distractor":"763630","target":"absent","response":"absent","rt":"482.89999985695","correct":true,"confidence":-1},{"trial_n":11,"span":6,"encoder":"127634","distractor":"127534","target":"present","response":"present","rt":"427.69999980927","correct":true,"confidence":-1},{"trial_n":12,"span":7,"encoder":"5731654","distractor":"5735654","target":"present","response":"present","rt":"319.70000004768","correct":true,"confidence":-1},{"trial_n":13,"span":7,"encoder":"1910369","distractor":"1910569","target":"present","response":"absent","rt":"286.59999990463","correct":false,"confidence":-1},{"trial_n":14,"span":6,"encoder":"067107","distractor":"367107","target":"absent","response":"absent","rt":"420.70000004768","correct":true,"confidence":-1},{"trial_n":15,"span":6,"encoder":"826637","distractor":"826237","target":"absent","response":"present","rt":"258.59999990463","correct":false,"confidence":-1},{"trial_n":16,"span":5,"encoder":"73515","distractor":"73518","target":"absent","response":"absent","rt":"361.29999995232","correct":true,"confidence":-1},{"trial_n":17,"span":5,"encoder":"73116","distractor":"73146","target":"present","response":"present","rt":"1060.7000000477","correct":true,"confidence":-1},{"trial_n":18,"span":6,"encoder":"405128","distractor":"400128","target":"present","response":"present","rt":"1444.7000000477","correct":true,"confidence":-1},{"trial_n":19,"span":6,"encoder":"894620","distractor":"894820","target":"present","response":"present","rt":"1191.5999999046","correct":true,"confidence":-1},{"trial_n":20,"span":7,"encoder":"1705955","distractor":"1705959","target":"absent","response":"absent","rt":"1946.6000001431","correct":true,"confidence":-1},{"trial_n":21,"span":7,"encoder":"6327300","distractor":"6320300","target":"present","response":"present","rt":"1372","correct":true,"confidence":4},{"trial_n":22,"span":8,"encoder":"40493113","distractor":"40593113","target":"present","response":"absent","rt":"576.79999995232","correct":false,"confidence":1},{"trial_n":23,"span":7,"encoder":"5036354","distractor":"5036353","target":"present","response":"present","rt":"2246.6000001431","correct":true,"confidence":5},{"trial_n":24,"span":7,"encoder":"7278300","distractor":"7276300","target":"absent","response":"absent","rt":"1649.6000001431","correct":true,"confidence":5},{"trial_n":25,"span":8,"encoder":"77691560","distractor":"77691960","target":"present","response":"present","rt":"2231.7000000477","correct":true,"confidence":5},{"trial_n":26,"span":8,"encoder":"43527120","distractor":"43227120","target":"absent","response":"absent","rt":"1980.7999999523","correct":true,"confidence":4},{"trial_n":27,"span":9,"encoder":"717700704","distractor":"717100704","target":"present","response":"present","rt":"3349.8000001907","correct":true,"confidence":4},{"trial_n":28,"span":9,"encoder":"750820112","distractor":"750820312","target":"present","response":"absent","rt":"562.70000004768","correct":false,"confidence":1},{"trial_n":29,"span":8,"encoder":"87152750","distractor":"77152750","target":"present","response":"absent","rt":"3203.7000000477","correct":false,"confidence":3},{"trial_n":30,"span":7,"encoder":"9907934","distractor":"9937934","target":"absent","response":"absent","rt":"2588","correct":true,"confidence":5},{"trial_n":31,"span":7,"encoder":"5261784","distractor":"5561784","target":"absent","response":"absent","rt":"2585.2999999523","correct":true,"confidence":4},{"trial_n":32,"span":8,"encoder":"99348871","distractor":"99448871","target":"absent","response":"absent","rt":"1816.6999998093","correct":true,"confidence":5},{"trial_n":33,"span":8,"encoder":"31705201","distractor":"31705202","target":"present","response":"present","rt":"2491.7999999523","correct":true,"confidence":5},{"trial_n":34,"span":9,"encoder":"962013597","distractor":"952013597","target":"absent","response":"absent","rt":"1623.9000000954","correct":true,"confidence":4},{"trial_n":35,"span":9,"encoder":"965317657","distractor":"965817657","target":"absent","response":"absent","rt":"2421.2000000477","correct":true,"confidence":1},{"trial_n":36,"span":10,"encoder":"4902922683","distractor":"4902322683","target":"present","response":"absent","rt":"2014.9000000954","correct":false,"confidence":1},{"trial_n":37,"span":9,"encoder":"899989258","distractor":"899989268","target":"present","response":"present","rt":"2129","correct":true,"confidence":4},{"trial_n":38,"span":9,"encoder":"472521934","distractor":"472521904","target":"absent","response":"absent","rt":"3827.2000000477","correct":true,"confidence":2},{"trial_n":39,"span":10,"encoder":"8238473896","distractor":"8238453896","target":"present","response":"absent","rt":"14058.5","correct":false,"confidence":4},{"trial_n":40,"span":9,"encoder":"795069658","distractor":"795069655","target":"present","response":"absent","rt":"13056.099999905","correct":false,"confidence":1},{"trial_n":41,"span":8,"encoder":"45609921","distractor":"40609921","target":"present","response":"present","rt":"2694.7999999523","correct":true,"confidence":2},{"trial_n":42,"span":8,"encoder":"20935801","distractor":"20835801","target":"present","response":"absent","rt":"3508","correct":false,"confidence":1},{"trial_n":43,"span":7,"encoder":"9776740","distractor":"4776740","target":"present","response":"present","rt":"1618.3000001907","correct":true,"confidence":5},{"trial_n":44,"span":7,"encoder":"4721751","distractor":"4721753","target":"present","response":"present","rt":"4899.3999998569","correct":true,"confidence":2},{"trial_n":45,"span":8,"encoder":"20795627","distractor":"20793627","target":"absent","response":"present","rt":"8206.2000000477","correct":false,"confidence":2},{"trial_n":46,"span":7,"encoder":"2187799","distractor":"2387799","target":"absent","response":"absent","rt":"2798.8000001907","correct":true,"confidence":5},{"trial_n":47,"span":7,"encoder":"8547897","distractor":"8147897","target":"present","response":"absent","rt":"4509.7999999523","correct":false,"confidence":1},{"trial_n":48,"span":6,"encoder":"730304","distractor":"730305","target":"absent","response":"absent","rt":"3050.5999999046","correct":true,"confidence":5},{"trial_n":49,"span":6,"encoder":"022238","distractor":"022438","target":"present","response":"present","rt":"1596.7000000477","correct":true,"confidence":5},{"trial_n":50,"span":7,"encoder":"3136713","distractor":"5136713","target":"present","response":"present","rt":"2615.4000000954","correct":true,"confidence":5},{"trial_n":51,"span":7,"encoder":"8458312","distractor":"8458812","target":"present","response":"present","rt":"2234.7000000477","correct":true,"confidence":5},{"trial_n":52,"span":8,"encoder":"06858573","distractor":"96858573","target":"absent","response":"absent","rt":"1536.6000001431","correct":true,"confidence":5},{"trial_n":53,"span":8,"encoder":"55343453","distractor":"55343433","target":"present","response":"present","rt":"2410.7999999523","correct":true,"confidence":5},{"trial_n":54,"span":9,"encoder":"167564022","distractor":"167504022","target":"absent","response":"present","rt":"3148.2999999523","correct":false,"confidence":3},{"trial_n":55,"span":8,"encoder":"78943173","distractor":"78943873","target":"absent","response":"absent","rt":"668.80000019073","correct":true,"confidence":1},{"trial_n":56,"span":8,"encoder":"36830333","distractor":"36835333","target":"present","response":"present","rt":"4601.5999999046","correct":true,"confidence":2},{"trial_n":57,"span":9,"encoder":"189775301","distractor":"181775301","target":"present","response":"absent","rt":"3411.8999998569","correct":false,"confidence":4},{"trial_n":58,"span":8,"encoder":"54788480","distractor":"54788680","target":"present","response":"present","rt":"1653","correct":true,"confidence":2},{"trial_n":59,"span":8,"encoder":"55321275","distractor":"57321275","target":"present","response":"present","rt":"2108.0999999046","correct":true,"confidence":5},{"trial_n":60,"span":9,"encoder":"226604288","distractor":"226604285","target":"absent","response":"absent","rt":"2937.6000001431","correct":true,"confidence":5},{"trial_n":61,"span":9,"encoder":"270969183","distractor":"270969187","target":"absent","response":"absent","rt":"3057.5","correct":true,"confidence":5},{"trial_n":62,"span":10,"encoder":"2039788570","distractor":"2039788770","target":"absent","response":"absent","rt":"1781.0999999046","correct":true,"confidence":1},{"trial_n":63,"span":10,"encoder":"1497769757","distractor":"1497369757","target":"absent","response":"present","rt":"740.79999995232","correct":false,"confidence":1},{"trial_n":64,"span":9,"encoder":"846925513","distractor":"856925513","target":"absent","response":"absent","rt":"2938.0999999046","correct":true,"confidence":1},{"trial_n":65,"span":9,"encoder":"905008904","distractor":"205008904","target":"present","response":"present","rt":"3619.0999999046","correct":true,"confidence":3},{"trial_n":66,"span":10,"encoder":"9959877455","distractor":"9958877455","target":"absent","response":"present","rt":"2362.7999999523","correct":false,"confidence":4},{"trial_n":67,"span":9,"encoder":"863701899","distractor":"863709899","target":"present","response":"present","rt":"4458","correct":true,"confidence":2},{"trial_n":68,"span":9,"encoder":"983333483","distractor":"983333883","target":"absent","response":"absent","rt":"3030","correct":true,"confidence":5},{"trial_n":69,"span":10,"encoder":"9244829912","distractor":"9244899912","target":"absent","response":"absent","rt":"2565.4000000954","correct":true,"confidence":3},{"trial_n":70,"span":10,"encoder":"4706177990","distractor":"4706177997","target":"absent","response":"absent","rt":"1610.4000000954","correct":true,"confidence":5},{"trial_n":71,"span":8,"encoder":"81573032","distractor":"81973032","target":"present","response":"present","rt":"3396.7999999523","correct":true,"confidence":-1},{"trial_n":72,"span":8,"encoder":"93935046","distractor":"93935346","target":"present","response":"present","rt":"430.89999985695","correct":true,"confidence":-1},{"trial_n":73,"span":9,"encoder":"078974857","distractor":"078974852","target":"absent","response":"absent","rt":"569","correct":true,"confidence":-1},{"trial_n":74,"span":9,"encoder":"558576529","distractor":"458576529","target":"absent","response":"present","rt":"42971.599999905","correct":false,"confidence":-1},{"trial_n":75,"span":8,"encoder":"14130434","distractor":"14130433","target":"present","response":"present","rt":"2564.9000000954","correct":true,"confidence":-1},{"trial_n":76,"span":8,"encoder":"28414824","distractor":"28412824","target":"present","response":"absent","rt":"6019.0999999046","correct":false,"confidence":-1},{"trial_n":77,"span":7,"encoder":"2028814","distractor":"2021814","target":"absent","response":"present","rt":"3046.7000000477","correct":false,"confidence":-1},{"trial_n":78,"span":6,"encoder":"046735","distractor":"846735","target":"absent","response":"absent","rt":"2879.1999998093","correct":true,"confidence":-1},{"trial_n":79,"span":6,"encoder":"986091","distractor":"986391","target":"present","response":"present","rt":"2639.4000000954","correct":true,"confidence":-1},{"trial_n":80,"span":7,"encoder":"3509364","distractor":"3509864","target":"absent","response":"absent","rt":"3317","correct":true,"confidence":-1},{"trial_n":81,"span":7,"encoder":"6231276","distractor":"6231776","target":"present","response":"present","rt":"2408.4000000954","correct":true,"confidence":-1},{"trial_n":82,"span":8,"encoder":"43059294","distractor":"43059094","target":"absent","response":"absent","rt":"2118.4000000954","correct":true,"confidence":-1},{"trial_n":83,"span":8,"encoder":"30629987","distractor":"30629980","target":"absent","response":"absent","rt":"1817.1999998093","correct":true,"confidence":-1},{"trial_n":84,"span":9,"encoder":"604056413","distractor":"604056913","target":"present","response":"present","rt":"4697.2000000477","correct":true,"confidence":-1},{"trial_n":85,"span":9,"encoder":"095284703","distractor":"095384703","target":"present","response":"present","rt":"4616.0999999046","correct":true,"confidence":-1},{"trial_n":86,"span":10,"encoder":"2028223902","distractor":"2028223802","target":"present","response":"present","rt":"124.39999985695","correct":true,"confidence":-1},{"trial_n":87,"span":10,"encoder":"7247958382","distractor":"7247958322","target":"absent","response":"present","rt":"102.5","correct":false,"confidence":-1},{"trial_n":88,"span":9,"encoder":"031090931","distractor":"031990931","target":"present","response":"absent","rt":"72.599999904633","correct":false,"confidence":-1},{"trial_n":89,"span":8,"encoder":"13152485","distractor":"13152405","target":"absent","response":"absent","rt":"163.39999985695","correct":true,"confidence":-1},{"trial_n":90,"span":8,"encoder":"34666851","distractor":"34666841","target":"present","response":"present","rt":"197.89999985695","correct":true,"confidence":-1},{"trial_n":91,"span":9,"encoder":"281181917","distractor":"181181917","target":"present","response":"present","rt":"2231.2999999523","correct":true,"confidence":5},{"trial_n":92,"span":9,"encoder":"389148904","distractor":"389148903","target":"present","response":"absent","rt":"5162.9000000954","correct":false,"confidence":1},{"trial_n":93,"span":8,"encoder":"29370235","distractor":"29670235","target":"present","response":"present","rt":"3546.5999999046","correct":true,"confidence":5},{"trial_n":94,"span":8,"encoder":"45393964","distractor":"42393964","target":"present","response":"present","rt":"4984.5999999046","correct":true,"confidence":5},{"trial_n":95,"span":9,"encoder":"564242408","distractor":"564442408","target":"present","response":"present","rt":"3316.2000000477","correct":true,"confidence":5},{"trial_n":96,"span":9,"encoder":"799891700","distractor":"799891702","target":"absent","response":"absent","rt":"4865.5999999046","correct":true,"confidence":3},{"trial_n":97,"span":10,"encoder":"8442153394","distractor":"8442151394","target":"present","response":"present","rt":"6285.9000000954","correct":true,"confidence":5},{"trial_n":98,"span":10,"encoder":"1345997640","distractor":"1349997640","target":"absent","response":"present","rt":"3413.8999998569","correct":false,"confidence":1},{"trial_n":99,"span":9,"encoder":"991343961","distractor":"961343961","target":"absent","response":"absent","rt":"5567.5","correct":true,"confidence":1},{"trial_n":100,"span":9,"encoder":"439163261","distractor":"339163261","target":"absent","response":"absent","rt":"2695.2000000477","correct":true,"confidence":5},{"trial_n":101,"span":10,"encoder":"0353534220","distractor":"0363534220","target":"absent","response":"absent","rt":"2494.5","correct":true,"confidence":1},{"trial_n":102,"span":10,"encoder":"6009394244","distractor":"6009344244","target":"absent","response":"present","rt":"6764.1999998093","correct":false,"confidence":1},{"trial_n":103,"span":9,"encoder":"307316565","distractor":"307316365","target":"absent","response":"present","rt":"3960.5","correct":false,"confidence":2},{"trial_n":104,"span":8,"encoder":"58793249","distractor":"58796249","target":"absent","response":"absent","rt":"3043.9000000954","correct":true,"confidence":5},{"trial_n":105,"span":8,"encoder":"11655226","distractor":"11655526","target":"absent","response":"absent","rt":"3527.2000000477","correct":true,"confidence":5},{"trial_n":106,"span":9,"encoder":"100224130","distractor":"100824130","target":"absent","response":"absent","rt":"10082.599999905","correct":true,"confidence":1},{"trial_n":107,"span":9,"encoder":"209915114","distractor":"209715114","target":"absent","response":"absent","rt":"2989","correct":true,"confidence":5},{"trial_n":108,"span":10,"encoder":"6746091384","distractor":"6746091380","target":"present","response":"present","rt":"2225","correct":true,"confidence":5},{"trial_n":109,"span":10,"encoder":"5094761596","distractor":"5094791596","target":"present","response":"present","rt":"4459.5","correct":true,"confidence":5},{"trial_n":110,"span":11,"encoder":"86460970632","distractor":"86460974632","target":"absent","response":"present","rt":"9024.6000001431","correct":false,"confidence":5},{"trial_n":111,"span":10,"encoder":"4619444681","distractor":"4619424681","target":"absent","response":"absent","rt":"2186.1000001431","correct":true,"confidence":5},{"trial_n":112,"span":10,"encoder":"5899168948","distractor":"5809168948","target":"present","response":"absent","rt":"2953","correct":false,"confidence":2},{"trial_n":113,"span":9,"encoder":"729649891","distractor":"729649991","target":"absent","response":"present","rt":"25423.900000095","correct":false,"confidence":2},{"trial_n":114,"span":8,"encoder":"95269607","distractor":"95269667","target":"present","response":"present","rt":"1752","correct":true,"confidence":2},{"trial_n":115,"span":8,"encoder":"19564156","distractor":"19164156","target":"present","response":"present","rt":"2966.2000000477","correct":true,"confidence":2},{"trial_n":116,"span":9,"encoder":"304253279","distractor":"304233279","target":"present","response":"present","rt":"52671.799999952","correct":true,"confidence":1},{"trial_n":117,"span":9,"encoder":"113582152","distractor":"113592152","target":"present","response":"present","rt":"4228","correct":true,"confidence":1},{"trial_n":118,"span":10,"encoder":"6614024877","distractor":"6618024877","target":"present","response":"absent","rt":"142801","correct":false,"confidence":1},{"trial_n":119,"span":9,"encoder":"251940427","distractor":"751940427","target":"absent","response":"present","rt":"3257.5","correct":false,"confidence":1},{"trial_n":120,"span":8,"encoder":"58189681","distractor":"58189621","target":"present","response":"absent","rt":"7021","correct":false,"confidence":1},{"trial_n":121,"span":7,"encoder":"5160222","distractor":"5160422","target":"present","response":"absent","rt":"17344","correct":false,"confidence":1},{"trial_n":122,"span":6,"encoder":"298596","distractor":"288596","target":"present","response":"present","rt":"2679","correct":true,"confidence":3},{"trial_n":123,"span":6,"encoder":"470635","distractor":"470637","target":"present","response":"present","rt":"3030.6000001431","correct":true,"confidence":5},{"trial_n":124,"span":7,"encoder":"2798601","distractor":"2791601","target":"absent","response":"absent","rt":"3234","correct":true,"confidence":5},{"trial_n":125,"span":7,"encoder":"7528661","distractor":"3528661","target":"present","response":"present","rt":"2946.5999999046","correct":true,"confidence":5},{"trial_n":126,"span":8,"encoder":"06882933","distractor":"86882933","target":"present","response":"present","rt":"5624.8999998569","correct":true,"confidence":2},{"trial_n":127,"span":8,"encoder":"76941682","distractor":"76941681","target":"present","response":"present","rt":"1825","correct":true,"confidence":5},{"trial_n":128,"span":9,"encoder":"226491049","distractor":"226491029","target":"present","response":"absent","rt":"6737.2999999523","correct":false,"confidence":2},{"trial_n":129,"span":8,"encoder":"91474072","distractor":"91454072","target":"absent","response":"absent","rt":"4759.7000000477","correct":true,"confidence":5},{"trial_n":130,"span":8,"encoder":"87990981","distractor":"87890981","target":"absent","response":"absent","rt":"2456.3999998569","correct":true,"confidence":5},{"trial_n":131,"span":9,"encoder":"549647553","distractor":"549647552","target":"present","response":"present","rt":"4421.7000000477","correct":true,"confidence":2},{"trial_n":132,"span":9,"encoder":"920999423","distractor":"920993423","target":"present","response":"absent","rt":"827.20000004768","correct":false,"confidence":2},{"trial_n":133,"span":8,"encoder":"23652624","distractor":"43652624","target":"present","response":"present","rt":"4499.8000001907","correct":true,"confidence":1},{"trial_n":134,"span":8,"encoder":"93199866","distractor":"93199863","target":"absent","response":"absent","rt":"58903.099999905","correct":true,"confidence":1},{"trial_n":135,"span":9,"encoder":"594433036","distractor":"514433036","target":"absent","response":"absent","rt":"2607.1000001431","correct":true,"confidence":5},{"trial_n":136,"span":9,"encoder":"978237194","distractor":"978237894","target":"absent","response":"present","rt":"2426.5","correct":false,"confidence":1},{"trial_n":137,"span":8,"encoder":"50290330","distractor":"50299330","target":"absent","response":"absent","rt":"1617.5999999046","correct":true,"confidence":1},{"trial_n":138,"span":8,"encoder":"75902879","distractor":"75922879","target":"absent","response":"absent","rt":"2616.8999998569","correct":true,"confidence":5},{"trial_n":139,"span":9,"encoder":"498172957","distractor":"498172357","target":"absent","response":"absent","rt":"9843.5","correct":true,"confidence":3},{"trial_n":140,"span":9,"encoder":"161769836","distractor":"161729836","target":"absent","response":"present","rt":"1123.7000000477","correct":false,"confidence":1}]