[{"trial_n":1,"n_dots":4.25,"target":"left","response":"left","rt":2645,"correct":true,"confidence":-1},{"trial_n":2,"n_dots":4.25,"target":"left","response":"left","rt":400,"correct":true,"confidence":-1},{"trial_n":3,"n_dots":3.85,"target":"right","response":"right","rt":1262,"correct":true,"confidence":-1},{"trial_n":4,"n_dots":3.85,"target":"left","response":"left","rt":368,"correct":true,"confidence":-1},{"trial_n":5,"n_dots":3.45,"target":"right","response":"left","rt":552,"correct":false,"confidence":-1},{"trial_n":6,"n_dots":3.85,"target":"left","response":"left","rt":29,"correct":true,"confidence":-1},{"trial_n":7,"n_dots":3.85,"target":"left","response":"left","rt":156,"correct":true,"confidence":-1},{"trial_n":8,"n_dots":3.65,"target":"right","response":"right","rt":356,"correct":true,"confidence":-1},{"trial_n":9,"n_dots":3.65,"target":"right","response":"right","rt":430,"correct":true,"confidence":-1},{"trial_n":10,"n_dots":3.45,"target":"left","response":"left","rt":134,"correct":true,"confidence":-1},{"trial_n":11,"n_dots":3.45,"target":"left","response":"left","rt":344,"correct":true,"confidence":-1},{"trial_n":12,"n_dots":3.25,"target":"right","response":"right","rt":191,"correct":true,"confidence":-1},{"trial_n":13,"n_dots":3.25,"target":"right","response":"right","rt":568,"correct":true,"confidence":-1},{"trial_n":14,"n_dots":3.15,"target":"left","response":"left","rt":1420,"correct":true,"confidence":-1},{"trial_n":15,"n_dots":3.15,"target":"right","response":"left","rt":393,"correct":false,"confidence":-1},{"trial_n":16,"n_dots":3.25,"target":"left","response":"left","rt":118,"correct":true,"confidence":-1},{"trial_n":17,"n_dots":3.25,"target":"left","response":"right","rt":531,"correct":false,"confidence":-1},{"trial_n":18,"n_dots":3.35,"target":"right","response":"left","rt":737,"correct":false,"confidence":-1},{"trial_n":19,"n_dots":3.45,"target":"left","response":"left","rt":245,"correct":true,"confidence":-1},{"trial_n":20,"n_dots":3.45,"target":"left","response":"right","rt":719,"correct":false,"confidence":-1},{"trial_n":21,"n_dots":3.55,"target":"left","response":"left","rt":7,"correct":true,"confidence":3},{"trial_n":22,"n_dots":3.55,"target":"right","response":"right","rt":306,"correct":true,"confidence":4},{"trial_n":23,"n_dots":3.45,"target":"left","response":"right","rt":597,"correct":false,"confidence":4},{"trial_n":24,"n_dots":3.55,"target":"right","response":"left","rt":146,"correct":false,"confidence":3},{"trial_n":25,"n_dots":3.65,"target":"right","response":"right","rt":614,"correct":true,"confidence":3},{"trial_n":26,"n_dots":3.65,"target":"right","response":"right","rt":736,"correct":true,"confidence":3},{"trial_n":27,"n_dots":3.55,"target":"right","response":"left","rt":326,"correct":false,"confidence":2},{"trial_n":28,"n_dots":3.65,"target":"right","response":"right","rt":459,"correct":true,"confidence":2},{"trial_n":29,"n_dots":3.65,"target":"left","response":"left","rt":327,"correct":true,"confidence":3},{"trial_n":30,"n_dots":3.55,"target":"left","response":"left","rt":255,"correct":true,"confidence":4},{"trial_n":31,"n_dots":3.55,"target":"right","response":"right","rt":800,"correct":true,"confidence":3},{"trial_n":32,"n_dots":3.45,"target":"right","response":"right","rt":552,"correct":true,"confidence":1},{"trial_n":33,"n_dots":3.45,"target":"right","response":"left","rt":754,"correct":false,"confidence":2},{"trial_n":34,"n_dots":3.55,"target":"right","response":"right","rt":505,"correct":true,"confidence":3},{"trial_n":35,"n_dots":3.55,"target":"left","response":"left","rt":455,"correct":true,"confidence":3},{"trial_n":36,"n_dots":3.45,"target":"right","response":"right","rt":421,"correct":true,"confidence":3},{"trial_n":37,"n_dots":3.45,"target":"right","response":"right","rt":535,"correct":true,"confidence":3},{"trial_n":38,"n_dots":3.35,"target":"right","response":"left","rt":316,"correct":false,"confidence":1},{"trial_n":39,"n_dots":3.45,"target":"left","response":"left","rt":299,"correct":true,"confidence":4},{"trial_n":40,"n_dots":3.45,"target":"right","response":"right","rt":669,"correct":true,"confidence":3},{"trial_n":41,"n_dots":3.35,"target":"left","response":"left","rt":420,"correct":true,"confidence":4},{"trial_n":42,"n_dots":3.35,"target":"right","response":"right","rt":574,"correct":true,"confidence":3},{"trial_n":43,"n_dots":3.25,"target":"right","response":"left","rt":714,"correct":false,"confidence":2},{"trial_n":44,"n_dots":3.35,"target":"right","response":"right","rt":1013,"correct":true,"confidence":2},{"trial_n":45,"n_dots":3.35,"target":"left","response":"left","rt":341,"correct":true,"confidence":3},{"trial_n":46,"n_dots":3.25,"target":"left","response":"left","rt":280,"correct":true,"confidence":3},{"trial_n":47,"n_dots":3.25,"target":"left","response":"left","rt":640,"correct":true,"confidence":3},{"trial_n":48,"n_dots":3.15,"target":"left","response":"left","rt":339,"correct":true,"confidence":2},{"trial_n":49,"n_dots":3.15,"target":"right","response":"left","rt":487,"correct":false,"confidence":3},{"trial_n":50,"n_dots":3.25,"target":"right","response":"left","rt":712,"correct":false,"confidence":2},{"trial_n":51,"n_dots":3.35,"target":"left","response":"left","rt":622,"correct":true,"confidence":3},{"trial_n":52,"n_dots":3.35,"target":"right","response":"right","rt":733,"correct":true,"confidence":2},{"trial_n":53,"n_dots":3.25,"target":"left","response":"left","rt":617,"correct":true,"confidence":3},{"trial_n":54,"n_dots":3.25,"target":"right","response":"right","rt":1164,"correct":true,"confidence":3},{"trial_n":55,"n_dots":3.15,"target":"right","response":"right","rt":523,"correct":true,"confidence":2},{"trial_n":56,"n_dots":3.15,"target":"right","response":"right","rt":504,"correct":true,"confidence":3},{"trial_n":57,"n_dots":3.05,"target":"left","response":"left","rt":409,"correct":true,"confidence":2},{"trial_n":58,"n_dots":3.05,"target":"right","response":"right","rt":562,"correct":true,"confidence":3},{"trial_n":59,"n_dots":2.95,"target":"left","response":"left","rt":428,"correct":true,"confidence":2},{"trial_n":60,"n_dots":2.95,"target":"left","response":"left","rt":472,"correct":true,"confidence":3},{"trial_n":61,"n_dots":2.85,"target":"left","response":"left","rt":2130,"correct":true,"confidence":2},{"trial_n":62,"n_dots":2.85,"target":"left","response":"left","rt":218,"correct":true,"confidence":3},{"trial_n":63,"n_dots":2.75,"target":"left","response":"left","rt":191,"correct":true,"confidence":3},{"trial_n":64,"n_dots":2.75,"target":"left","response":"left","rt":234,"correct":true,"confidence":3},{"trial_n":65,"n_dots":2.65,"target":"left","response":"left","rt":262,"correct":true,"confidence":3},{"trial_n":66,"n_dots":2.65,"target":"left","response":"left","rt":765,"correct":true,"confidence":3},{"trial_n":67,"n_dots":2.55,"target":"left","response":"left","rt":276,"correct":true,"confidence":3},{"trial_n":68,"n_dots":2.55,"target":"right","response":"left","rt":292,"correct":false,"confidence":3},{"trial_n":69,"n_dots":2.65,"target":"right","response":"right","rt":646,"correct":true,"confidence":3},{"trial_n":70,"n_dots":2.65,"target":"left","response":"left","rt":113,"correct":true,"confidence":2},{"trial_n":71,"n_dots":2.55,"target":"left","response":"left","rt":2056,"correct":true,"confidence":2},{"trial_n":72,"n_dots":2.55,"target":"left","response":"left","rt":330,"correct":true,"confidence":4},{"trial_n":73,"n_dots":2.45,"target":"left","response":"left","rt":225,"correct":true,"confidence":3},{"trial_n":74,"n_dots":2.45,"target":"right","response":"right","rt":516,"correct":true,"confidence":2},{"trial_n":75,"n_dots":2.35,"target":"right","response":"left","rt":590,"correct":false,"confidence":2},{"trial_n":76,"n_dots":2.45,"target":"right","response":"left","rt":879,"correct":false,"confidence":1},{"trial_n":77,"n_dots":2.55,"target":"left","response":"left","rt":1171,"correct":true,"confidence":1},{"trial_n":78,"n_dots":2.55,"target":"left","response":"left","rt":643,"correct":true,"confidence":2},{"trial_n":79,"n_dots":2.45,"target":"right","response":"right","rt":759,"correct":true,"confidence":1},{"trial_n":80,"n_dots":2.45,"target":"left","response":"left","rt":308,"correct":true,"confidence":3},{"trial_n":81,"n_dots":2.35,"target":"right","response":"left","rt":727,"correct":false,"confidence":3},{"trial_n":82,"n_dots":2.45,"target":"left","response":"left","rt":363,"correct":true,"confidence":2},{"trial_n":83,"n_dots":2.45,"target":"right","response":"left","rt":203,"correct":false,"confidence":3},{"trial_n":84,"n_dots":2.55,"target":"left","response":"left","rt":992,"correct":true,"confidence":1},{"trial_n":85,"n_dots":2.55,"target":"right","response":"right","rt":354,"correct":true,"confidence":2},{"trial_n":86,"n_dots":2.45,"target":"left","response":"left","rt":73,"correct":true,"confidence":4},{"trial_n":87,"n_dots":2.45,"target":"right","response":"left","rt":154,"correct":false,"confidence":3},{"trial_n":88,"n_dots":2.55,"target":"left","response":"left","rt":214,"correct":true,"confidence":1},{"trial_n":89,"n_dots":2.55,"target":"left","response":"left","rt":16,"correct":true,"confidence":1},{"trial_n":90,"n_dots":2.45,"target":"right","response":"left","rt":389,"correct":false,"confidence":1},{"trial_n":91,"n_dots":2.55,"target":"left","response":"left","rt":74,"correct":true,"confidence":1},{"trial_n":92,"n_dots":2.55,"target":"left","response":"left","rt":170,"correct":true,"confidence":1},{"trial_n":93,"n_dots":2.45,"target":"right","response":"left","rt":238,"correct":false,"confidence":1},{"trial_n":94,"n_dots":2.55,"target":"right","response":"right","rt":217,"correct":true,"confidence":1},{"trial_n":95,"n_dots":2.55,"target":"right","response":"left","rt":420,"correct":false,"confidence":2},{"trial_n":96,"n_dots":2.65,"target":"left","response":"left","rt":328,"correct":true,"confidence":3},{"trial_n":97,"n_dots":2.65,"target":"left","response":"left","rt":355,"correct":true,"confidence":3},{"trial_n":98,"n_dots":2.55,"target":"right","response":"left","rt":322,"correct":false,"confidence":2},{"trial_n":99,"n_dots":2.65,"target":"left","response":"left","rt":400,"correct":true,"confidence":2},{"trial_n":100,"n_dots":2.65,"target":"right","response":"left","rt":283,"correct":false,"confidence":2},{"trial_n":101,"n_dots":2.75,"target":"right","response":"left","rt":563,"correct":false,"confidence":1},{"trial_n":102,"n_dots":2.85,"target":"right","response":"left","rt":103,"correct":false,"confidence":1},{"trial_n":103,"n_dots":2.95,"target":"left","response":"left","rt":220,"correct":true,"confidence":1},{"trial_n":104,"n_dots":2.95,"target":"left","response":"left","rt":149,"correct":true,"confidence":3},{"trial_n":105,"n_dots":2.85,"target":"right","response":"left","rt":193,"correct":false,"confidence":3},{"trial_n":106,"n_dots":2.95,"target":"right","response":"left","rt":186,"correct":false,"confidence":3},{"trial_n":107,"n_dots":3.05,"target":"right","response":"left","rt":167,"correct":false,"confidence":3},{"trial_n":108,"n_dots":3.15,"target":"right","response":"left","rt":647,"correct":false,"confidence":3},{"trial_n":109,"n_dots":3.25,"target":"right","response":"right","rt":353,"correct":true,"confidence":3},{"trial_n":110,"n_dots":3.25,"target":"right","response":"right","rt":224,"correct":true,"confidence":3},{"trial_n":111,"n_dots":3.15,"target":"right","response":"right","rt":317,"correct":true,"confidence":3},{"trial_n":112,"n_dots":3.15,"target":"right","response":"left","rt":647,"correct":false,"confidence":2},{"trial_n":113,"n_dots":3.25,"target":"left","response":"left","rt":219,"correct":true,"confidence":2},{"trial_n":114,"n_dots":3.25,"target":"right","response":"right","rt":400,"correct":true,"confidence":3},{"trial_n":115,"n_dots":3.15,"target":"left","response":"left","rt":498,"correct":true,"confidence":3},{"trial_n":116,"n_dots":3.15,"target":"left","response":"left","rt":124,"correct":true,"confidence":2},{"trial_n":117,"n_dots":3.05,"target":"left","response":"left","rt":416,"correct":true,"confidence":3},{"trial_n":118,"n_dots":3.05,"target":"right","response":"right","rt":414,"correct":true,"confidence":3},{"trial_n":119,"n_dots":2.95,"target":"left","response":"right","rt":828,"correct":false,"confidence":1},{"trial_n":120,"n_dots":3.05,"target":"left","response":"right","rt":578,"correct":false,"confidence":1}]