[{"trial_n":1,"n_dots":4.25,"target":"left","response":"left","rt":5813.5,"correct":true,"confidence":-1},{"trial_n":2,"n_dots":4.25,"target":"right","response":"left","rt":2313.1000003815,"correct":false,"confidence":-1},{"trial_n":3,"n_dots":4.65,"target":"left","response":"right","rt":1125,"correct":false,"confidence":-1},{"trial_n":4,"n_dots":5.05,"target":"left","response":"left","rt":835.79999923706,"correct":true,"confidence":-1},{"trial_n":5,"n_dots":5.05,"target":"left","response":"left","rt":467.5999994278,"correct":true,"confidence":-1},{"trial_n":6,"n_dots":4.65,"target":"right","response":"right","rt":607.80000019073,"correct":true,"confidence":-1},{"trial_n":7,"n_dots":4.65,"target":"right","response":"right","rt":494.9000005722,"correct":true,"confidence":-1},{"trial_n":8,"n_dots":4.45,"target":"right","response":"right","rt":248.69999980927,"correct":true,"confidence":-1},{"trial_n":9,"n_dots":4.45,"target":"right","response":"right","rt":380.80000019073,"correct":true,"confidence":-1},{"trial_n":10,"n_dots":4.25,"target":"left","response":"right","rt":645.69999980927,"correct":false,"confidence":-1},{"trial_n":11,"n_dots":4.45,"target":"left","response":"left","rt":728.30000019073,"correct":true,"confidence":-1},{"trial_n":12,"n_dots":4.45,"target":"left","response":"left","rt":860.9000005722,"correct":true,"confidence":-1},{"trial_n":13,"n_dots":4.35,"target":"left","response":"left","rt":652.19999980927,"correct":true,"confidence":-1},{"trial_n":14,"n_dots":4.35,"target":"right","response":"right","rt":557.60000038147,"correct":true,"confidence":-1},{"trial_n":15,"n_dots":4.25,"target":"left","response":"left","rt":551.19999980927,"correct":true,"confidence":-1},{"trial_n":16,"n_dots":4.25,"target":"left","response":"right","rt":686.69999980927,"correct":false,"confidence":-1},{"trial_n":17,"n_dots":4.35,"target":"left","response":"left","rt":765.10000038147,"correct":true,"confidence":-1},{"trial_n":18,"n_dots":4.35,"target":"right","response":"right","rt":649,"correct":true,"confidence":-1},{"trial_n":19,"n_dots":4.25,"target":"right","response":"right","rt":706.10000038147,"correct":true,"confidence":-1},{"trial_n":20,"n_dots":4.25,"target":"left","response":"left","rt":577,"correct":true,"confidence":-1},{"trial_n":21,"n_dots":4.15,"target":"left","response":"right","rt":994,"correct":false,"confidence":3},{"trial_n":22,"n_dots":4.25,"target":"left","response":"left","rt":1097.1000003815,"correct":true,"confidence":3},{"trial_n":23,"n_dots":4.25,"target":"right","response":"right","rt":2162.1000003815,"correct":true,"confidence":4},{"trial_n":24,"n_dots":4.15,"target":"right","response":"right","rt":7523.6999998093,"correct":true,"confidence":4},{"trial_n":25,"n_dots":4.15,"target":"left","response":"right","rt":1822.1999998093,"correct":false,"confidence":4},{"trial_n":26,"n_dots":4.25,"target":"right","response":"right","rt":326.80000019073,"correct":true,"confidence":3},{"trial_n":27,"n_dots":4.25,"target":"right","response":"right","rt":1571.0999994278,"correct":true,"confidence":5},{"trial_n":28,"n_dots":4.15,"target":"left","response":"left","rt":2350.7999992371,"correct":true,"confidence":4},{"trial_n":29,"n_dots":4.15,"target":"right","response":"right","rt":250,"correct":true,"confidence":4},{"trial_n":30,"n_dots":4.05,"target":"right","response":"right","rt":809,"correct":true,"confidence":4},{"trial_n":31,"n_dots":4.05,"target":"right","response":"right","rt":696.89999961853,"correct":true,"confidence":4},{"trial_n":32,"n_dots":3.95,"target":"left","response":"left","rt":1357.6999998093,"correct":true,"confidence":4},{"trial_n":33,"n_dots":3.95,"target":"right","response":"right","rt":2259.8000001907,"correct":true,"confidence":4},{"trial_n":34,"n_dots":3.85,"target":"left","response":"left","rt":4425.1999998093,"correct":true,"confidence":3},{"trial_n":35,"n_dots":3.85,"target":"right","response":"right","rt":867.39999961853,"correct":true,"confidence":4},{"trial_n":36,"n_dots":3.75,"target":"right","response":"right","rt":684,"correct":true,"confidence":4},{"trial_n":37,"n_dots":3.75,"target":"right","response":"right","rt":863.39999961853,"correct":true,"confidence":3},{"trial_n":38,"n_dots":3.65,"target":"left","response":"left","rt":1916.6999998093,"correct":true,"confidence":3},{"trial_n":39,"n_dots":3.65,"target":"left","response":"left","rt":1440.3000001907,"correct":true,"confidence":4},{"trial_n":40,"n_dots":3.55,"target":"left","response":"left","rt":1205.1000003815,"correct":true,"confidence":3},{"trial_n":41,"n_dots":3.55,"target":"right","response":"right","rt":816.80000019073,"correct":true,"confidence":3},{"trial_n":42,"n_dots":3.45,"target":"right","response":"left","rt":1093.5999994278,"correct":false,"confidence":2},{"trial_n":43,"n_dots":3.55,"target":"left","response":"left","rt":1845.3000001907,"correct":true,"confidence":3},{"trial_n":44,"n_dots":3.55,"target":"left","response":"right","rt":2135.1000003815,"correct":false,"confidence":3},{"trial_n":45,"n_dots":3.65,"target":"left","response":"left","rt":2961.1000003815,"correct":true,"confidence":2},{"trial_n":46,"n_dots":3.65,"target":"right","response":"right","rt":848.39999961853,"correct":true,"confidence":3},{"trial_n":47,"n_dots":3.55,"target":"left","response":"right","rt":1912.3999996185,"correct":false,"confidence":3},{"trial_n":48,"n_dots":3.65,"target":"right","response":"right","rt":708.89999961853,"correct":true,"confidence":4},{"trial_n":49,"n_dots":3.65,"target":"right","response":"right","rt":730.80000019073,"correct":true,"confidence":3},{"trial_n":50,"n_dots":3.55,"target":"right","response":"right","rt":499,"correct":true,"confidence":4},{"trial_n":51,"n_dots":3.55,"target":"right","response":"right","rt":320,"correct":true,"confidence":4},{"trial_n":52,"n_dots":3.45,"target":"left","response":"left","rt":2097.5,"correct":true,"confidence":4},{"trial_n":53,"n_dots":3.45,"target":"right","response":"right","rt":295.89999961853,"correct":true,"confidence":4},{"trial_n":54,"n_dots":3.35,"target":"right","response":"right","rt":1830.7000007629,"correct":true,"confidence":4},{"trial_n":55,"n_dots":3.35,"target":"left","response":"right","rt":601.19999980927,"correct":false,"confidence":3},{"trial_n":56,"n_dots":3.45,"target":"right","response":"right","rt":652.89999961853,"correct":true,"confidence":3},{"trial_n":57,"n_dots":3.45,"target":"right","response":"left","rt":2935.6000003815,"correct":false,"confidence":2},{"trial_n":58,"n_dots":3.55,"target":"right","response":"right","rt":283.39999961853,"correct":true,"confidence":4},{"trial_n":59,"n_dots":3.55,"target":"left","response":"left","rt":1069.8999996185,"correct":true,"confidence":3},{"trial_n":60,"n_dots":3.45,"target":"left","response":"right","rt":796,"correct":false,"confidence":3},{"trial_n":61,"n_dots":3.55,"target":"left","response":"left","rt":292.80000019073,"correct":true,"confidence":4},{"trial_n":62,"n_dots":3.55,"target":"left","response":"left","rt":301,"correct":true,"confidence":4},{"trial_n":63,"n_dots":3.45,"target":"right","response":"right","rt":259.89999961853,"correct":true,"confidence":4},{"trial_n":64,"n_dots":3.45,"target":"right","response":"right","rt":322.69999980927,"correct":true,"confidence":3},{"trial_n":65,"n_dots":3.35,"target":"right","response":"right","rt":289.69999980927,"correct":true,"confidence":4},{"trial_n":66,"n_dots":3.35,"target":"right","response":"right","rt":309.9000005722,"correct":true,"confidence":3},{"trial_n":67,"n_dots":3.25,"target":"right","response":"right","rt":332.4000005722,"correct":true,"confidence":3},{"trial_n":68,"n_dots":3.25,"target":"left","response":"left","rt":1485.5999994278,"correct":true,"confidence":4},{"trial_n":69,"n_dots":3.15,"target":"right","response":"right","rt":590.5999994278,"correct":true,"confidence":3},{"trial_n":70,"n_dots":3.15,"target":"left","response":"right","rt":282.9000005722,"correct":false,"confidence":1},{"trial_n":71,"n_dots":3.25,"target":"right","response":"right","rt":294.89999961853,"correct":true,"confidence":3},{"trial_n":72,"n_dots":3.25,"target":"right","response":"right","rt":307.89999961853,"correct":true,"confidence":3},{"trial_n":73,"n_dots":3.15,"target":"left","response":"right","rt":902.69999980927,"correct":false,"confidence":2},{"trial_n":74,"n_dots":3.25,"target":"right","response":"right","rt":285.60000038147,"correct":true,"confidence":3},{"trial_n":75,"n_dots":3.25,"target":"left","response":"left","rt":836.20000076294,"correct":true,"confidence":4},{"trial_n":76,"n_dots":3.15,"target":"left","response":"left","rt":820.0999994278,"correct":true,"confidence":2},{"trial_n":77,"n_dots":3.15,"target":"left","response":"right","rt":716.5999994278,"correct":false,"confidence":3},{"trial_n":78,"n_dots":3.25,"target":"left","response":"left","rt":467.80000019073,"correct":true,"confidence":4},{"trial_n":79,"n_dots":3.25,"target":"right","response":"right","rt":542.79999923706,"correct":true,"confidence":3},{"trial_n":80,"n_dots":3.15,"target":"right","response":"right","rt":166.19999980927,"correct":true,"confidence":4},{"trial_n":81,"n_dots":3.15,"target":"right","response":"right","rt":469,"correct":true,"confidence":2},{"trial_n":82,"n_dots":3.05,"target":"right","response":"right","rt":275.10000038147,"correct":true,"confidence":3},{"trial_n":83,"n_dots":3.05,"target":"left","response":"left","rt":1431.1999998093,"correct":true,"confidence":4},{"trial_n":84,"n_dots":2.95,"target":"left","response":"left","rt":347,"correct":true,"confidence":4},{"trial_n":85,"n_dots":2.95,"target":"left","response":"left","rt":466.5,"correct":true,"confidence":4},{"trial_n":86,"n_dots":2.85,"target":"left","response":"left","rt":1405,"correct":true,"confidence":3},{"trial_n":87,"n_dots":2.85,"target":"left","response":"right","rt":419.60000038147,"correct":false,"confidence":3},{"trial_n":88,"n_dots":2.95,"target":"left","response":"left","rt":1043,"correct":true,"confidence":4},{"trial_n":89,"n_dots":2.95,"target":"left","response":"left","rt":343.80000019073,"correct":true,"confidence":4},{"trial_n":90,"n_dots":2.85,"target":"right","response":"right","rt":390.5,"correct":true,"confidence":3},{"trial_n":91,"n_dots":2.85,"target":"right","response":"right","rt":557.0999994278,"correct":true,"confidence":4},{"trial_n":92,"n_dots":2.75,"target":"left","response":"left","rt":720.80000019073,"correct":true,"confidence":3},{"trial_n":93,"n_dots":2.75,"target":"right","response":"right","rt":19406.799999237,"correct":true,"confidence":2},{"trial_n":94,"n_dots":2.65,"target":"left","response":"left","rt":7906.3999996185,"correct":true,"confidence":3},{"trial_n":95,"n_dots":2.65,"target":"right","response":"left","rt":471.89999961853,"correct":false,"confidence":3},{"trial_n":96,"n_dots":2.75,"target":"right","response":"right","rt":262.9000005722,"correct":true,"confidence":3},{"trial_n":97,"n_dots":2.75,"target":"right","response":"right","rt":222.10000038147,"correct":true,"confidence":4},{"trial_n":98,"n_dots":2.65,"target":"left","response":"right","rt":762.30000019073,"correct":false,"confidence":3},{"trial_n":99,"n_dots":2.75,"target":"left","response":"right","rt":1287.8000001907,"correct":false,"confidence":2},{"trial_n":100,"n_dots":2.85,"target":"left","response":"left","rt":1959.6000003815,"correct":true,"confidence":3},{"trial_n":101,"n_dots":2.85,"target":"right","response":"right","rt":242.10000038147,"correct":true,"confidence":2},{"trial_n":102,"n_dots":2.75,"target":"left","response":"left","rt":3459.0999994278,"correct":true,"confidence":3},{"trial_n":103,"n_dots":2.75,"target":"right","response":"right","rt":483.5,"correct":true,"confidence":3},{"trial_n":104,"n_dots":2.65,"target":"left","response":"right","rt":700.79999923706,"correct":false,"confidence":2},{"trial_n":105,"n_dots":2.75,"target":"right","response":"right","rt":296.39999961853,"correct":true,"confidence":2},{"trial_n":106,"n_dots":2.75,"target":"left","response":"right","rt":601.60000038147,"correct":false,"confidence":2},{"trial_n":107,"n_dots":2.85,"target":"left","response":"left","rt":2908.6000003815,"correct":true,"confidence":3},{"trial_n":108,"n_dots":2.85,"target":"right","response":"right","rt":991.30000019073,"correct":true,"confidence":3},{"trial_n":109,"n_dots":2.75,"target":"right","response":"right","rt":1343.2999992371,"correct":true,"confidence":2},{"trial_n":110,"n_dots":2.75,"target":"right","response":"right","rt":773.9000005722,"correct":true,"confidence":2},{"trial_n":111,"n_dots":2.65,"target":"right","response":"right","rt":974.20000076294,"correct":true,"confidence":2},{"trial_n":112,"n_dots":2.65,"target":"left","response":"left","rt":1837.4000005722,"correct":true,"confidence":3},{"trial_n":113,"n_dots":2.55,"target":"left","response":"right","rt":478.30000019073,"correct":false,"confidence":2},{"trial_n":114,"n_dots":2.65,"target":"left","response":"left","rt":1690.6999998093,"correct":true,"confidence":2},{"trial_n":115,"n_dots":2.65,"target":"right","response":"right","rt":401.79999923706,"correct":true,"confidence":4},{"trial_n":116,"n_dots":2.55,"target":"right","response":"right","rt":393.60000038147,"correct":true,"confidence":4},{"trial_n":117,"n_dots":2.55,"target":"right","response":"left","rt":2170.1000003815,"correct":false,"confidence":4},{"trial_n":118,"n_dots":2.65,"target":"left","response":"left","rt":1510.8000001907,"correct":true,"confidence":4},{"trial_n":119,"n_dots":2.65,"target":"left","response":"right","rt":1101.5999994278,"correct":false,"confidence":4},{"trial_n":120,"n_dots":2.75,"target":"left","response":"left","rt":1458.6000003815,"correct":true,"confidence":3}]