[{"trial_n":1,"min":25,"max":230,"target":"present","response":"present","rt":18773.399999976,"correct":true,"confidence":-1},{"trial_n":2,"min":25,"max":230,"target":"present","response":"present","rt":3967.3999999762,"correct":true,"confidence":-1},{"trial_n":3,"min":41,"max":214,"target":"absent","response":"present","rt":1146.8999999762,"correct":false,"confidence":-1},{"trial_n":4,"min":25,"max":230,"target":"absent","response":"absent","rt":1680.5,"correct":true,"confidence":-1},{"trial_n":5,"min":25,"max":230,"target":"present","response":"present","rt":472,"correct":true,"confidence":-1},{"trial_n":6,"min":41,"max":214,"target":"absent","response":"absent","rt":410.10000002384,"correct":true,"confidence":-1},{"trial_n":7,"min":41,"max":214,"target":"absent","response":"absent","rt":341.29999995232,"correct":true,"confidence":-1},{"trial_n":8,"min":57,"max":198,"target":"absent","response":"absent","rt":265.80000007153,"correct":true,"confidence":-1},{"trial_n":9,"min":57,"max":198,"target":"present","response":"present","rt":379.39999997616,"correct":true,"confidence":-1},{"trial_n":10,"min":73,"max":182,"target":"absent","response":"absent","rt":319.90000009537,"correct":true,"confidence":-1},{"trial_n":11,"min":73,"max":182,"target":"present","response":"absent","rt":365.29999995232,"correct":false,"confidence":-1},{"trial_n":12,"min":65,"max":190,"target":"present","response":"present","rt":438.80000007153,"correct":true,"confidence":-1},{"trial_n":13,"min":65,"max":190,"target":"absent","response":"absent","rt":237.20000004768,"correct":true,"confidence":-1},{"trial_n":14,"min":73,"max":182,"target":"present","response":"absent","rt":282.80000007153,"correct":false,"confidence":-1},{"trial_n":15,"min":65,"max":190,"target":"present","response":"absent","rt":713,"correct":false,"confidence":-1},{"trial_n":16,"min":57,"max":198,"target":"absent","response":"absent","rt":524.79999995232,"correct":true,"confidence":-1},{"trial_n":17,"min":57,"max":198,"target":"present","response":"present","rt":209.39999997616,"correct":true,"confidence":-1},{"trial_n":18,"min":65,"max":190,"target":"present","response":"present","rt":252.20000004768,"correct":true,"confidence":-1},{"trial_n":19,"min":65,"max":190,"target":"present","response":"present","rt":391,"correct":true,"confidence":-1},{"trial_n":20,"min":73,"max":182,"target":"present","response":"present","rt":327,"correct":true,"confidence":-1},{"trial_n":21,"min":73,"max":182,"target":"absent","response":"absent","rt":732,"correct":true,"confidence":1},{"trial_n":22,"min":77,"max":178,"target":"absent","response":"present","rt":547.89999997616,"correct":false,"confidence":2},{"trial_n":23,"min":73,"max":182,"target":"present","response":"present","rt":417.60000002384,"correct":true,"confidence":4},{"trial_n":24,"min":73,"max":182,"target":"absent","response":"present","rt":483.60000002384,"correct":false,"confidence":3},{"trial_n":25,"min":69,"max":186,"target":"absent","response":"absent","rt":492.70000004768,"correct":true,"confidence":1},{"trial_n":26,"min":69,"max":186,"target":"absent","response":"absent","rt":713.20000004768,"correct":true,"confidence":2},{"trial_n":27,"min":73,"max":182,"target":"present","response":"present","rt":319.5,"correct":true,"confidence":3},{"trial_n":28,"min":73,"max":182,"target":"absent","response":"absent","rt":342.60000002384,"correct":true,"confidence":4},{"trial_n":29,"min":77,"max":178,"target":"present","response":"present","rt":353.5,"correct":true,"confidence":3},{"trial_n":30,"min":77,"max":178,"target":"absent","response":"absent","rt":647.39999997616,"correct":true,"confidence":3},{"trial_n":31,"min":79,"max":176,"target":"absent","response":"absent","rt":507.60000002384,"correct":true,"confidence":2},{"trial_n":32,"min":79,"max":176,"target":"present","response":"present","rt":665.39999997616,"correct":true,"confidence":3},{"trial_n":33,"min":81,"max":174,"target":"present","response":"absent","rt":662.80000007153,"correct":false,"confidence":2},{"trial_n":34,"min":79,"max":176,"target":"present","response":"present","rt":549.20000004768,"correct":true,"confidence":4},{"trial_n":35,"min":79,"max":176,"target":"present","response":"absent","rt":642.80000007153,"correct":false,"confidence":3},{"trial_n":36,"min":77,"max":178,"target":"absent","response":"absent","rt":984.69999992847,"correct":true,"confidence":2},{"trial_n":37,"min":77,"max":178,"target":"present","response":"present","rt":339.59999990463,"correct":true,"confidence":4},{"trial_n":38,"min":79,"max":176,"target":"present","response":"present","rt":1401.8999999762,"correct":true,"confidence":3},{"trial_n":39,"min":79,"max":176,"target":"absent","response":"absent","rt":651.89999997616,"correct":true,"confidence":4},{"trial_n":40,"min":81,"max":174,"target":"absent","response":"absent","rt":907.5,"correct":true,"confidence":4},{"trial_n":41,"min":81,"max":174,"target":"absent","response":"absent","rt":720.40000009537,"correct":true,"confidence":3},{"trial_n":42,"min":82,"max":173,"target":"present","response":"present","rt":405,"correct":true,"confidence":3},{"trial_n":43,"min":82,"max":173,"target":"absent","response":"absent","rt":607.39999997616,"correct":true,"confidence":3},{"trial_n":44,"min":83,"max":172,"target":"absent","response":"absent","rt":836.5,"correct":true,"confidence":3},{"trial_n":45,"min":83,"max":172,"target":"absent","response":"absent","rt":937.20000004768,"correct":true,"confidence":4},{"trial_n":46,"min":84,"max":171,"target":"absent","response":"absent","rt":862.39999997616,"correct":true,"confidence":4},{"trial_n":47,"min":84,"max":171,"target":"present","response":"absent","rt":743.09999990463,"correct":false,"confidence":3},{"trial_n":48,"min":83,"max":172,"target":"present","response":"absent","rt":530.89999997616,"correct":false,"confidence":4},{"trial_n":49,"min":82,"max":173,"target":"present","response":"absent","rt":794.20000004768,"correct":false,"confidence":4},{"trial_n":50,"min":81,"max":174,"target":"absent","response":"absent","rt":979.39999997616,"correct":true,"confidence":4},{"trial_n":51,"min":81,"max":174,"target":"present","response":"present","rt":813.70000004768,"correct":true,"confidence":3},{"trial_n":52,"min":82,"max":173,"target":"absent","response":"absent","rt":988.20000004768,"correct":true,"confidence":3},{"trial_n":53,"min":82,"max":173,"target":"present","response":"present","rt":421.39999997616,"correct":true,"confidence":4},{"trial_n":54,"min":83,"max":172,"target":"absent","response":"absent","rt":898.89999997616,"correct":true,"confidence":3},{"trial_n":55,"min":83,"max":172,"target":"absent","response":"absent","rt":1026.7999999523,"correct":true,"confidence":2},{"trial_n":56,"min":84,"max":171,"target":"present","response":"absent","rt":993.70000004768,"correct":false,"confidence":2},{"trial_n":57,"min":83,"max":172,"target":"present","response":"present","rt":433.60000002384,"correct":true,"confidence":3},{"trial_n":58,"min":83,"max":172,"target":"absent","response":"absent","rt":954.39999997616,"correct":true,"confidence":2},{"trial_n":59,"min":84,"max":171,"target":"absent","response":"absent","rt":592.39999997616,"correct":true,"confidence":2},{"trial_n":60,"min":84,"max":171,"target":"absent","response":"absent","rt":823.20000004768,"correct":true,"confidence":2},{"trial_n":61,"min":85,"max":170,"target":"present","response":"present","rt":428.69999992847,"correct":true,"confidence":3},{"trial_n":62,"min":85,"max":170,"target":"present","response":"absent","rt":844.10000002384,"correct":false,"confidence":2},{"trial_n":63,"min":84,"max":171,"target":"present","response":"absent","rt":661.79999995232,"correct":false,"confidence":2},{"trial_n":64,"min":83,"max":172,"target":"present","response":"absent","rt":640.80000007153,"correct":false,"confidence":2},{"trial_n":65,"min":82,"max":173,"target":"absent","response":"absent","rt":586.20000004768,"correct":true,"confidence":3},{"trial_n":66,"min":82,"max":173,"target":"absent","response":"absent","rt":581,"correct":true,"confidence":3},{"trial_n":67,"min":83,"max":172,"target":"present","response":"present","rt":474.89999997616,"correct":true,"confidence":4},{"trial_n":68,"min":83,"max":172,"target":"present","response":"present","rt":382.79999995232,"correct":true,"confidence":4},{"trial_n":69,"min":84,"max":171,"target":"absent","response":"absent","rt":1179.3999999762,"correct":true,"confidence":2},{"trial_n":70,"min":84,"max":171,"target":"present","response":"present","rt":723.69999992847,"correct":true,"confidence":3},{"trial_n":71,"min":41,"max":214,"target":"present","response":"present","rt":2978.3000000715,"correct":true,"confidence":-1},{"trial_n":72,"min":41,"max":214,"target":"present","response":"present","rt":256.10000002384,"correct":true,"confidence":-1},{"trial_n":73,"min":57,"max":198,"target":"absent","response":"absent","rt":303.39999997616,"correct":true,"confidence":-1},{"trial_n":74,"min":57,"max":198,"target":"absent","response":"absent","rt":252.70000004768,"correct":true,"confidence":-1},{"trial_n":75,"min":73,"max":182,"target":"present","response":"present","rt":695.29999995232,"correct":true,"confidence":-1},{"trial_n":76,"min":73,"max":182,"target":"absent","response":"absent","rt":194,"correct":true,"confidence":-1},{"trial_n":77,"min":89,"max":166,"target":"present","response":"absent","rt":572.89999997616,"correct":false,"confidence":-1},{"trial_n":78,"min":73,"max":182,"target":"absent","response":"absent","rt":515.39999997616,"correct":true,"confidence":-1},{"trial_n":79,"min":73,"max":182,"target":"absent","response":"present","rt":562.79999995232,"correct":false,"confidence":-1},{"trial_n":80,"min":57,"max":198,"target":"absent","response":"present","rt":411.89999997616,"correct":false,"confidence":-1},{"trial_n":81,"min":49,"max":206,"target":"absent","response":"absent","rt":348.69999992847,"correct":true,"confidence":-1},{"trial_n":82,"min":49,"max":206,"target":"present","response":"present","rt":190.5,"correct":true,"confidence":-1},{"trial_n":83,"min":57,"max":198,"target":"present","response":"present","rt":387.10000002384,"correct":true,"confidence":-1},{"trial_n":84,"min":57,"max":198,"target":"present","response":"present","rt":441.79999995232,"correct":true,"confidence":-1},{"trial_n":85,"min":65,"max":190,"target":"absent","response":"absent","rt":244.89999997616,"correct":true,"confidence":-1},{"trial_n":86,"min":65,"max":190,"target":"present","response":"present","rt":180.69999992847,"correct":true,"confidence":-1},{"trial_n":87,"min":73,"max":182,"target":"present","response":"present","rt":325.89999997616,"correct":true,"confidence":-1},{"trial_n":88,"min":73,"max":182,"target":"present","response":"present","rt":228.60000002384,"correct":true,"confidence":-1},{"trial_n":89,"min":81,"max":174,"target":"present","response":"present","rt":493.89999997616,"correct":true,"confidence":-1},{"trial_n":90,"min":81,"max":174,"target":"absent","response":"absent","rt":658.39999997616,"correct":true,"confidence":-1},{"trial_n":91,"min":85,"max":170,"target":"present","response":"present","rt":231,"correct":true,"confidence":4},{"trial_n":92,"min":85,"max":170,"target":"absent","response":"absent","rt":682.80000007153,"correct":true,"confidence":4},{"trial_n":93,"min":89,"max":166,"target":"present","response":"present","rt":752.60000002384,"correct":true,"confidence":3},{"trial_n":94,"min":89,"max":166,"target":"present","response":"present","rt":558.19999992847,"correct":true,"confidence":3},{"trial_n":95,"min":93,"max":162,"target":"absent","response":"present","rt":572.20000004768,"correct":false,"confidence":3},{"trial_n":96,"min":89,"max":166,"target":"absent","response":"present","rt":561.39999997616,"correct":false,"confidence":3},{"trial_n":97,"min":85,"max":170,"target":"present","response":"present","rt":1664.3000000715,"correct":true,"confidence":2},{"trial_n":98,"min":85,"max":170,"target":"present","response":"present","rt":559,"correct":true,"confidence":2},{"trial_n":99,"min":89,"max":166,"target":"absent","response":"absent","rt":911.60000002384,"correct":true,"confidence":3},{"trial_n":100,"min":89,"max":166,"target":"absent","response":"absent","rt":570.89999997616,"correct":true,"confidence":4},{"trial_n":101,"min":91,"max":164,"target":"present","response":"present","rt":949.29999995232,"correct":true,"confidence":2},{"trial_n":102,"min":91,"max":164,"target":"present","response":"present","rt":561.89999997616,"correct":true,"confidence":3},{"trial_n":103,"min":93,"max":162,"target":"present","response":"absent","rt":737,"correct":false,"confidence":1},{"trial_n":104,"min":91,"max":164,"target":"present","response":"present","rt":1636.6999999285,"correct":true,"confidence":1},{"trial_n":105,"min":91,"max":164,"target":"absent","response":"absent","rt":791.10000002384,"correct":true,"confidence":1},{"trial_n":106,"min":93,"max":162,"target":"present","response":"present","rt":401.60000002384,"correct":true,"confidence":4},{"trial_n":107,"min":93,"max":162,"target":"absent","response":"present","rt":786.59999990463,"correct":false,"confidence":3},{"trial_n":108,"min":91,"max":164,"target":"present","response":"present","rt":1266,"correct":true,"confidence":3},{"trial_n":109,"min":91,"max":164,"target":"present","response":"present","rt":392.89999997616,"correct":true,"confidence":3},{"trial_n":110,"min":93,"max":162,"target":"absent","response":"present","rt":803.5,"correct":false,"confidence":2},{"trial_n":111,"min":92,"max":163,"target":"absent","response":"present","rt":877.5,"correct":false,"confidence":1},{"trial_n":112,"min":91,"max":164,"target":"absent","response":"present","rt":941,"correct":false,"confidence":1},{"trial_n":113,"min":90,"max":165,"target":"absent","response":"present","rt":1129.7000000477,"correct":false,"confidence":1},{"trial_n":114,"min":89,"max":166,"target":"present","response":"present","rt":641,"correct":true,"confidence":4},{"trial_n":115,"min":89,"max":166,"target":"present","response":"present","rt":452.80000007153,"correct":true,"confidence":3},{"trial_n":116,"min":90,"max":165,"target":"absent","response":"present","rt":728.70000004768,"correct":false,"confidence":1},{"trial_n":117,"min":89,"max":166,"target":"present","response":"absent","rt":1026.8999999762,"correct":false,"confidence":1},{"trial_n":118,"min":88,"max":167,"target":"present","response":"absent","rt":536.80000007153,"correct":false,"confidence":3},{"trial_n":119,"min":87,"max":168,"target":"absent","response":"absent","rt":505.5,"correct":true,"confidence":4},{"trial_n":120,"min":87,"max":168,"target":"absent","response":"absent","rt":769.09999990463,"correct":true,"confidence":3},{"trial_n":121,"min":88,"max":167,"target":"present","response":"present","rt":1504,"correct":true,"confidence":1},{"trial_n":122,"min":88,"max":167,"target":"absent","response":"present","rt":625.39999997616,"correct":false,"confidence":3},{"trial_n":123,"min":87,"max":168,"target":"absent","response":"present","rt":1121.3999999762,"correct":false,"confidence":3},{"trial_n":124,"min":86,"max":169,"target":"present","response":"present","rt":678.19999992847,"correct":true,"confidence":1},{"trial_n":125,"min":86,"max":169,"target":"absent","response":"absent","rt":516.09999990463,"correct":true,"confidence":4},{"trial_n":126,"min":87,"max":168,"target":"present","response":"absent","rt":1004,"correct":false,"confidence":3},{"trial_n":127,"min":86,"max":169,"target":"present","response":"present","rt":698.89999997616,"correct":true,"confidence":3},{"trial_n":128,"min":86,"max":169,"target":"absent","response":"absent","rt":488.80000007153,"correct":true,"confidence":3},{"trial_n":129,"min":87,"max":168,"target":"absent","response":"absent","rt":443.79999995232,"correct":true,"confidence":3},{"trial_n":130,"min":87,"max":168,"target":"absent","response":"absent","rt":440,"correct":true,"confidence":3},{"trial_n":131,"min":88,"max":167,"target":"absent","response":"present","rt":481.10000002384,"correct":false,"confidence":1},{"trial_n":132,"min":87,"max":168,"target":"present","response":"present","rt":561.79999995232,"correct":true,"confidence":3},{"trial_n":133,"min":87,"max":168,"target":"absent","response":"absent","rt":442.30000007153,"correct":true,"confidence":3},{"trial_n":134,"min":88,"max":167,"target":"absent","response":"present","rt":430.59999990463,"correct":false,"confidence":1},{"trial_n":135,"min":87,"max":168,"target":"present","response":"absent","rt":711.29999995232,"correct":false,"confidence":3},{"trial_n":136,"min":86,"max":169,"target":"present","response":"present","rt":816.39999997616,"correct":true,"confidence":1},{"trial_n":137,"min":86,"max":169,"target":"absent","response":"present","rt":437.39999997616,"correct":false,"confidence":3},{"trial_n":138,"min":85,"max":170,"target":"absent","response":"absent","rt":367.20000004768,"correct":true,"confidence":4},{"trial_n":139,"min":85,"max":170,"target":"present","response":"present","rt":1011.3999999762,"correct":true,"confidence":4},{"trial_n":140,"min":86,"max":169,"target":"present","response":"present","rt":836.19999992847,"correct":true,"confidence":1}]