[{"trial_n":1,"span":8,"encoder":"17422540","distractor":"17422548","target":"present","response":"present","rt":"2471.6999999285","correct":true,"confidence":-1},{"trial_n":2,"span":8,"encoder":"08063234","distractor":"08063231","target":"present","response":"present","rt":"1510.2999999523","correct":true,"confidence":-1},{"trial_n":3,"span":10,"encoder":"0548522968","distractor":"0548523968","target":"absent","response":"absent","rt":"2220.3000000715","correct":true,"confidence":-1},{"trial_n":4,"span":10,"encoder":"1409614345","distractor":"9409614345","target":"absent","response":"present","rt":"1515.6000000238","correct":false,"confidence":-1},{"trial_n":5,"span":8,"encoder":"67256604","distractor":"67256664","target":"present","response":"present","rt":"1514.2000000477","correct":true,"confidence":-1},{"trial_n":6,"span":8,"encoder":"35028032","distractor":"35028030","target":"absent","response":"present","rt":"916.60000002384","correct":false,"confidence":-1},{"trial_n":7,"span":6,"encoder":"245557","distractor":"245547","target":"present","response":"present","rt":"1108.6999999285","correct":true,"confidence":-1},{"trial_n":8,"span":6,"encoder":"952494","distractor":"956494","target":"present","response":"present","rt":"825.29999995232","correct":true,"confidence":-1},{"trial_n":9,"span":8,"encoder":"19759478","distractor":"19759477","target":"absent","response":"absent","rt":"1390.5","correct":true,"confidence":-1},{"trial_n":10,"span":8,"encoder":"21774209","distractor":"21774259","target":"present","response":"present","rt":"957.40000009537","correct":true,"confidence":-1},{"trial_n":11,"span":10,"encoder":"2521520479","distractor":"7521520479","target":"present","response":"present","rt":"3145.2000000477","correct":true,"confidence":-1},{"trial_n":12,"span":10,"encoder":"9416472688","distractor":"9416471688","target":"present","response":"present","rt":"1008.5","correct":true,"confidence":-1},{"trial_n":13,"span":11,"encoder":"73813549533","distractor":"70813549533","target":"present","response":"present","rt":"1643","correct":true,"confidence":-1},{"trial_n":14,"span":11,"encoder":"77586940803","distractor":"17586940803","target":"absent","response":"absent","rt":"6744.6000000238","correct":true,"confidence":-1},{"trial_n":15,"span":12,"encoder":"629028445581","distractor":"629028445588","target":"absent","response":"present","rt":"1745.5","correct":false,"confidence":-1},{"trial_n":16,"span":11,"encoder":"10004321706","distractor":"10004323706","target":"absent","response":"absent","rt":"1361","correct":true,"confidence":-1},{"trial_n":17,"span":11,"encoder":"66503419897","distractor":"66503419847","target":"present","response":"absent","rt":"2265.6000000238","correct":false,"confidence":-1},{"trial_n":18,"span":10,"encoder":"4333370426","distractor":"4133370426","target":"absent","response":"absent","rt":"1803.6000000238","correct":true,"confidence":-1},{"trial_n":19,"span":10,"encoder":"4635387387","distractor":"4835387387","target":"present","response":"present","rt":"1059.2000000477","correct":true,"confidence":-1},{"trial_n":20,"span":11,"encoder":"63385207666","distractor":"63385207676","target":"absent","response":"absent","rt":"1130","correct":true,"confidence":-1},{"trial_n":21,"span":11,"encoder":"77909698747","distractor":"77902698747","target":"present","response":"present","rt":"1455.8999999762","correct":true,"confidence":3},{"trial_n":22,"span":12,"encoder":"458779082541","distractor":"448779082541","target":"present","response":"present","rt":"2555.3000000715","correct":true,"confidence":3},{"trial_n":23,"span":12,"encoder":"601247190741","distractor":"601247190441","target":"present","response":"present","rt":"2180.8000000715","correct":true,"confidence":3},{"trial_n":24,"span":13,"encoder":"0698764899497","distractor":"0698764899457","target":"absent","response":"present","rt":"2315.8999999762","correct":false,"confidence":4},{"trial_n":25,"span":12,"encoder":"668798380324","distractor":"660798380324","target":"present","response":"present","rt":"2392","correct":true,"confidence":3},{"trial_n":26,"span":12,"encoder":"538515690452","distractor":"537515690452","target":"present","response":"present","rt":"3193.1999999285","correct":true,"confidence":2},{"trial_n":27,"span":13,"encoder":"6756676175634","distractor":"6756676175614","target":"absent","response":"absent","rt":"1568.3999999762","correct":true,"confidence":5},{"trial_n":28,"span":13,"encoder":"8835926587585","distractor":"8837926587585","target":"absent","response":"present","rt":"2840.3999999762","correct":false,"confidence":3},{"trial_n":29,"span":12,"encoder":"639931383125","distractor":"639931383165","target":"present","response":"present","rt":"2600","correct":true,"confidence":4},{"trial_n":30,"span":12,"encoder":"201608529395","distractor":"201308529395","target":"absent","response":"present","rt":"1825.5","correct":false,"confidence":3},{"trial_n":31,"span":11,"encoder":"29712730996","distractor":"29712730990","target":"absent","response":"present","rt":"2596.2000000477","correct":false,"confidence":3},{"trial_n":32,"span":10,"encoder":"4545140918","distractor":"4545140919","target":"absent","response":"absent","rt":"2245","correct":true,"confidence":5},{"trial_n":33,"span":10,"encoder":"7610977277","distractor":"7210977277","target":"absent","response":"present","rt":"1786.8999999762","correct":false,"confidence":3},{"trial_n":34,"span":9,"encoder":"817584555","distractor":"817584525","target":"absent","response":"absent","rt":"2350.1000000238","correct":true,"confidence":5},{"trial_n":35,"span":9,"encoder":"516764267","distractor":"716764267","target":"absent","response":"present","rt":"2025.6000000238","correct":false,"confidence":2},{"trial_n":36,"span":8,"encoder":"34873215","distractor":"34833215","target":"present","response":"present","rt":"2191.7999999523","correct":true,"confidence":4},{"trial_n":37,"span":8,"encoder":"31155041","distractor":"31955041","target":"absent","response":"absent","rt":"1834.7000000477","correct":true,"confidence":5},{"trial_n":38,"span":9,"encoder":"412663680","distractor":"412663686","target":"present","response":"present","rt":"1905.5","correct":true,"confidence":3},{"trial_n":39,"span":9,"encoder":"368860681","distractor":"361860681","target":"absent","response":"absent","rt":"3271.2000000477","correct":true,"confidence":4},{"trial_n":40,"span":10,"encoder":"1328752807","distractor":"1328052807","target":"present","response":"present","rt":"2825.2000000477","correct":true,"confidence":4},{"trial_n":41,"span":10,"encoder":"5368836552","distractor":"5368856552","target":"present","response":"present","rt":"2487","correct":true,"confidence":3},{"trial_n":42,"span":11,"encoder":"28749379326","distractor":"28769379326","target":"absent","response":"present","rt":"1924.1999999285","correct":false,"confidence":2},{"trial_n":43,"span":10,"encoder":"9223836120","distractor":"9223836150","target":"present","response":"present","rt":"1572.6000000238","correct":true,"confidence":3},{"trial_n":44,"span":10,"encoder":"3863707058","distractor":"3863797058","target":"present","response":"present","rt":"1611.1999999285","correct":true,"confidence":3},{"trial_n":45,"span":11,"encoder":"63734870418","distractor":"63634870418","target":"present","response":"present","rt":"1768.6999999285","correct":true,"confidence":3},{"trial_n":46,"span":11,"encoder":"73007514822","distractor":"73707514822","target":"absent","response":"present","rt":"1882.7000000477","correct":false,"confidence":3},{"trial_n":47,"span":10,"encoder":"8552438959","distractor":"8052438959","target":"present","response":"present","rt":"1328","correct":true,"confidence":3},{"trial_n":48,"span":10,"encoder":"1273903006","distractor":"1273904006","target":"absent","response":"present","rt":"1536.2000000477","correct":false,"confidence":5},{"trial_n":49,"span":9,"encoder":"869225290","distractor":"869226290","target":"present","response":"present","rt":"1535.8999999762","correct":true,"confidence":3},{"trial_n":50,"span":9,"encoder":"877703749","distractor":"875703749","target":"present","response":"present","rt":"1650","correct":true,"confidence":4},{"trial_n":51,"span":10,"encoder":"1629858382","distractor":"1629858302","target":"absent","response":"present","rt":"1907","correct":false,"confidence":3},{"trial_n":52,"span":9,"encoder":"099472409","distractor":"099412409","target":"absent","response":"present","rt":"1803.0999999046","correct":false,"confidence":4},{"trial_n":53,"span":8,"encoder":"18865500","distractor":"18845500","target":"present","response":"present","rt":"1484.6000000238","correct":true,"confidence":4},{"trial_n":54,"span":8,"encoder":"44144084","distractor":"44144784","target":"present","response":"present","rt":"1458.6000000238","correct":true,"confidence":4},{"trial_n":55,"span":9,"encoder":"289505376","distractor":"283505376","target":"present","response":"present","rt":"1947.5","correct":true,"confidence":4},{"trial_n":56,"span":9,"encoder":"332508401","distractor":"335508401","target":"present","response":"present","rt":"1656.2999999523","correct":true,"confidence":4},{"trial_n":57,"span":10,"encoder":"5925058702","distractor":"0925058702","target":"absent","response":"present","rt":"1355","correct":false,"confidence":2},{"trial_n":58,"span":9,"encoder":"782146535","distractor":"782145535","target":"present","response":"present","rt":"2013.3000000715","correct":true,"confidence":3},{"trial_n":59,"span":9,"encoder":"378626365","distractor":"378626375","target":"absent","response":"absent","rt":"4861.3999999762","correct":true,"confidence":1},{"trial_n":60,"span":10,"encoder":"3567100228","distractor":"3567100278","target":"absent","response":"present","rt":"1395","correct":false,"confidence":3},{"trial_n":61,"span":9,"encoder":"324767020","distractor":"324767620","target":"present","response":"present","rt":"2522.5","correct":true,"confidence":4},{"trial_n":62,"span":9,"encoder":"908380380","distractor":"908382380","target":"present","response":"absent","rt":"3776.7000000477","correct":false,"confidence":2},{"trial_n":63,"span":8,"encoder":"19548313","distractor":"39548313","target":"absent","response":"absent","rt":"1698.7999999523","correct":true,"confidence":5},{"trial_n":64,"span":8,"encoder":"33191703","distractor":"33191702","target":"absent","response":"present","rt":"1875.2999999523","correct":false,"confidence":4},{"trial_n":65,"span":7,"encoder":"8587984","distractor":"8187984","target":"absent","response":"present","rt":"2222.3999999762","correct":false,"confidence":5},{"trial_n":66,"span":6,"encoder":"215083","distractor":"215043","target":"absent","response":"present","rt":"1714.1000000238","correct":false,"confidence":5},{"trial_n":67,"span":5,"encoder":"31724","distractor":"35724","target":"absent","response":"absent","rt":"3682.2999999523","correct":true,"confidence":4},{"trial_n":68,"span":5,"encoder":"63455","distractor":"66455","target":"absent","response":"present","rt":"1507.7000000477","correct":false,"confidence":5},{"trial_n":69,"span":4,"encoder":"5258","distractor":"5251","target":"present","response":"present","rt":"1178.5999999046","correct":true,"confidence":5},{"trial_n":70,"span":4,"encoder":"8743","distractor":"8744","target":"present","response":"present","rt":"1132.7999999523","correct":true,"confidence":5},{"trial_n":71,"span":8,"encoder":"23748416","distractor":"23748496","target":"present","response":"present","rt":"2390.5","correct":true,"confidence":-1},{"trial_n":72,"span":8,"encoder":"27975453","distractor":"27975458","target":"present","response":"absent","rt":"2421.2999999523","correct":false,"confidence":-1},{"trial_n":73,"span":7,"encoder":"2728008","distractor":"2718008","target":"absent","response":"present","rt":"2417","correct":false,"confidence":-1},{"trial_n":74,"span":6,"encoder":"429608","distractor":"429668","target":"absent","response":"present","rt":"1489.2000000477","correct":false,"confidence":-1},{"trial_n":75,"span":5,"encoder":"71415","distractor":"21415","target":"present","response":"absent","rt":"1280.6000000238","correct":false,"confidence":-1},{"trial_n":76,"span":4,"encoder":"9168","distractor":"9158","target":"present","response":"present","rt":"995.89999997616","correct":true,"confidence":-1},{"trial_n":77,"span":4,"encoder":"4839","distractor":"0839","target":"absent","response":"absent","rt":"1026.2000000477","correct":true,"confidence":-1},{"trial_n":78,"span":5,"encoder":"97630","distractor":"97600","target":"absent","response":"absent","rt":"1986.2999999523","correct":true,"confidence":-1},{"trial_n":79,"span":5,"encoder":"12982","distractor":"12981","target":"absent","response":"absent","rt":"1811.6999999285","correct":true,"confidence":-1},{"trial_n":80,"span":6,"encoder":"031482","distractor":"031487","target":"absent","response":"absent","rt":"2932.3999999762","correct":true,"confidence":-1},{"trial_n":81,"span":6,"encoder":"225713","distractor":"255713","target":"absent","response":"absent","rt":"1789.1999999285","correct":true,"confidence":-1},{"trial_n":82,"span":7,"encoder":"2898079","distractor":"2818079","target":"present","response":"present","rt":"2148.1000000238","correct":true,"confidence":-1},{"trial_n":83,"span":7,"encoder":"9114975","distractor":"9104975","target":"absent","response":"absent","rt":"1643.2000000477","correct":true,"confidence":-1},{"trial_n":84,"span":8,"encoder":"87321069","distractor":"57321069","target":"present","response":"present","rt":"2124.8999999762","correct":true,"confidence":-1},{"trial_n":85,"span":8,"encoder":"61156582","distractor":"64156582","target":"absent","response":"absent","rt":"1618.1000000238","correct":true,"confidence":-1},{"trial_n":86,"span":9,"encoder":"672373666","distractor":"672374666","target":"present","response":"absent","rt":"3943.8999999762","correct":false,"confidence":-1},{"trial_n":87,"span":8,"encoder":"80866546","distractor":"80806546","target":"present","response":"absent","rt":"1477.2999999523","correct":false,"confidence":-1},{"trial_n":88,"span":7,"encoder":"1884788","distractor":"2884788","target":"present","response":"present","rt":"1694.2000000477","correct":true,"confidence":-1},{"trial_n":89,"span":7,"encoder":"5998782","distractor":"5978782","target":"present","response":"present","rt":"1167.7999999523","correct":true,"confidence":-1},{"trial_n":90,"span":8,"encoder":"81411964","distractor":"81411464","target":"present","response":"present","rt":"1457.2999999523","correct":true,"confidence":-1},{"trial_n":91,"span":8,"encoder":"59457135","distractor":"99457135","target":"present","response":"present","rt":"2617.1999999285","correct":true,"confidence":1},{"trial_n":92,"span":9,"encoder":"941016437","distractor":"941016436","target":"present","response":"present","rt":"1348.3000000715","correct":true,"confidence":4},{"trial_n":93,"span":9,"encoder":"634192930","distractor":"634198930","target":"present","response":"present","rt":"4356.2000000477","correct":true,"confidence":1},{"trial_n":94,"span":10,"encoder":"6094666814","distractor":"6004666814","target":"absent","response":"absent","rt":"1704","correct":true,"confidence":5},{"trial_n":95,"span":10,"encoder":"8536056341","distractor":"8536056361","target":"present","response":"present","rt":"3867","correct":true,"confidence":1},{"trial_n":96,"span":11,"encoder":"29699201174","distractor":"29699271174","target":"absent","response":"present","rt":"4703.7999999523","correct":false,"confidence":1},{"trial_n":97,"span":10,"encoder":"0717576639","distractor":"0717976639","target":"present","response":"present","rt":"4836.2999999523","correct":true,"confidence":1},{"trial_n":98,"span":10,"encoder":"6300502952","distractor":"6300502052","target":"present","response":"present","rt":"3059.7999999523","correct":true,"confidence":1},{"trial_n":99,"span":11,"encoder":"10361090708","distractor":"10361090705","target":"absent","response":"present","rt":"2047.1999999285","correct":false,"confidence":1},{"trial_n":100,"span":10,"encoder":"6346850682","distractor":"6346850683","target":"present","response":"present","rt":"2153.7000000477","correct":true,"confidence":2},{"trial_n":101,"span":10,"encoder":"7380027234","distractor":"7380027238","target":"absent","response":"absent","rt":"2036.7999999523","correct":true,"confidence":4},{"trial_n":102,"span":11,"encoder":"79231168739","distractor":"79231568739","target":"absent","response":"absent","rt":"2762.0999999046","correct":true,"confidence":3},{"trial_n":103,"span":11,"encoder":"84724268125","distractor":"84624268125","target":"present","response":"present","rt":"2521.2999999523","correct":true,"confidence":3},{"trial_n":104,"span":12,"encoder":"769650004990","distractor":"769650004910","target":"present","response":"absent","rt":"2971.2000000477","correct":false,"confidence":1},{"trial_n":105,"span":11,"encoder":"19538835228","distractor":"16538835228","target":"absent","response":"present","rt":"1737.7999999523","correct":false,"confidence":1},{"trial_n":106,"span":10,"encoder":"9294009452","distractor":"9294089452","target":"absent","response":"present","rt":"2223.2999999523","correct":false,"confidence":1},{"trial_n":107,"span":9,"encoder":"815633810","distractor":"815633814","target":"absent","response":"absent","rt":"1867.2999999523","correct":true,"confidence":5},{"trial_n":108,"span":9,"encoder":"518337140","distractor":"514337140","target":"absent","response":"absent","rt":"2408.8000000715","correct":true,"confidence":5},{"trial_n":109,"span":10,"encoder":"3058098294","distractor":"3558098294","target":"absent","response":"absent","rt":"1876.3999999762","correct":true,"confidence":5},{"trial_n":110,"span":10,"encoder":"9819944673","distractor":"9819244673","target":"absent","response":"absent","rt":"2138.2999999523","correct":true,"confidence":5},{"trial_n":111,"span":11,"encoder":"34889969855","distractor":"94889969855","target":"present","response":"present","rt":"5194.5","correct":true,"confidence":5},{"trial_n":112,"span":11,"encoder":"64479642911","distractor":"64879642911","target":"absent","response":"absent","rt":"1960.8999999762","correct":true,"confidence":5},{"trial_n":113,"span":12,"encoder":"509083078555","distractor":"509083098555","target":"absent","response":"absent","rt":"2939.3000000715","correct":true,"confidence":1},{"trial_n":114,"span":12,"encoder":"909090570254","distractor":"209090570254","target":"present","response":"present","rt":"3413.6999999285","correct":true,"confidence":5},{"trial_n":115,"span":13,"encoder":"1529936235718","distractor":"1529931235718","target":"present","response":"present","rt":"3691.8999999762","correct":true,"confidence":1},{"trial_n":116,"span":13,"encoder":"0766115215738","distractor":"0766116215738","target":"present","response":"absent","rt":"3540.8999999762","correct":false,"confidence":1},{"trial_n":117,"span":12,"encoder":"253430507139","distractor":"253436507139","target":"present","response":"absent","rt":"6942.6000000238","correct":false,"confidence":1},{"trial_n":118,"span":11,"encoder":"37900928773","distractor":"37900928703","target":"present","response":"absent","rt":"3936.8999999762","correct":false,"confidence":1},{"trial_n":119,"span":10,"encoder":"9287760827","distractor":"9287764827","target":"present","response":"absent","rt":"3040.2999999523","correct":false,"confidence":1},{"trial_n":120,"span":9,"encoder":"613641278","distractor":"663641278","target":"present","response":"present","rt":"1705.6000000238","correct":true,"confidence":5},{"trial_n":121,"span":9,"encoder":"762141235","distractor":"764141235","target":"present","response":"present","rt":"3789.8999999762","correct":true,"confidence":5},{"trial_n":122,"span":10,"encoder":"6903509584","distractor":"6703509584","target":"absent","response":"absent","rt":"1987.3999999762","correct":true,"confidence":5},{"trial_n":123,"span":10,"encoder":"3902756986","distractor":"0902756986","target":"present","response":"present","rt":"3410.1000000238","correct":true,"confidence":5},{"trial_n":124,"span":11,"encoder":"89138785512","distractor":"89158785512","target":"absent","response":"absent","rt":"2153.7000000477","correct":true,"confidence":5},{"trial_n":125,"span":11,"encoder":"34094080520","distractor":"34094980520","target":"absent","response":"present","rt":"5495.7999999523","correct":false,"confidence":1},{"trial_n":126,"span":10,"encoder":"0891201283","distractor":"0821201283","target":"present","response":"present","rt":"2508.5","correct":true,"confidence":5},{"trial_n":127,"span":10,"encoder":"4394645414","distractor":"4394645454","target":"absent","response":"present","rt":"3243.6000000238","correct":false,"confidence":1},{"trial_n":128,"span":9,"encoder":"594433708","distractor":"584433708","target":"absent","response":"absent","rt":"1813.1000000238","correct":true,"confidence":5},{"trial_n":129,"span":9,"encoder":"654537617","distractor":"654533617","target":"present","response":"present","rt":"2901.8000000715","correct":true,"confidence":1},{"trial_n":130,"span":10,"encoder":"5951353828","distractor":"5951353858","target":"present","response":"absent","rt":"2919.1000000238","correct":false,"confidence":1},{"trial_n":131,"span":9,"encoder":"114049324","distractor":"114549324","target":"absent","response":"absent","rt":"1992.8999999762","correct":true,"confidence":5},{"trial_n":132,"span":9,"encoder":"768839670","distractor":"768839070","target":"absent","response":"present","rt":"2826.7999999523","correct":false,"confidence":1},{"trial_n":133,"span":8,"encoder":"96991058","distractor":"96991051","target":"absent","response":"absent","rt":"2225.2999999523","correct":true,"confidence":2},{"trial_n":134,"span":8,"encoder":"43281105","distractor":"43271105","target":"absent","response":"absent","rt":"2068.5","correct":true,"confidence":5},{"trial_n":135,"span":9,"encoder":"313765934","distractor":"313725934","target":"present","response":"absent","rt":"4023.2999999523","correct":false,"confidence":1},{"trial_n":136,"span":8,"encoder":"30137511","distractor":"30237511","target":"absent","response":"absent","rt":"2102","correct":true,"confidence":5},{"trial_n":137,"span":8,"encoder":"18246136","distractor":"18246176","target":"present","response":"present","rt":"4517.3000000715","correct":true,"confidence":1},{"trial_n":138,"span":9,"encoder":"127048011","distractor":"127048001","target":"absent","response":"present","rt":"3469.8000000715","correct":false,"confidence":1},{"trial_n":139,"span":8,"encoder":"22032602","distractor":"25032602","target":"present","response":"present","rt":"3406.5","correct":true,"confidence":5},{"trial_n":140,"span":8,"encoder":"85535744","distractor":"85535748","target":"absent","response":"present","rt":"4416.7999999523","correct":false,"confidence":1}]