[{"trial_n":1,"n_dots":4.25,"target":"right","response":"left","rt":2417.3000000715,"correct":false,"confidence":-1},{"trial_n":2,"n_dots":4.25,"target":"left","response":"right","rt":977.60000002384,"correct":false,"confidence":-1},{"trial_n":3,"n_dots":4.65,"target":"right","response":"right","rt":450.10000002384,"correct":true,"confidence":-1},{"trial_n":4,"n_dots":4.65,"target":"left","response":"left","rt":325,"correct":true,"confidence":-1},{"trial_n":5,"n_dots":4.25,"target":"left","response":"left","rt":305.60000002384,"correct":true,"confidence":-1},{"trial_n":6,"n_dots":4.25,"target":"right","response":"right","rt":387,"correct":true,"confidence":-1},{"trial_n":7,"n_dots":3.85,"target":"left","response":"left","rt":351.5,"correct":true,"confidence":-1},{"trial_n":8,"n_dots":3.85,"target":"right","response":"left","rt":142.79999995232,"correct":false,"confidence":-1},{"trial_n":9,"n_dots":4.05,"target":"left","response":"left","rt":328.39999997616,"correct":true,"confidence":-1},{"trial_n":10,"n_dots":4.05,"target":"right","response":"left","rt":313.39999997616,"correct":false,"confidence":-1},{"trial_n":11,"n_dots":4.25,"target":"left","response":"left","rt":299,"correct":true,"confidence":-1},{"trial_n":12,"n_dots":4.25,"target":"right","response":"right","rt":239.29999995232,"correct":true,"confidence":-1},{"trial_n":13,"n_dots":4.15,"target":"right","response":"right","rt":301.39999997616,"correct":true,"confidence":-1},{"trial_n":14,"n_dots":4.15,"target":"left","response":"left","rt":270.39999997616,"correct":true,"confidence":-1},{"trial_n":15,"n_dots":4.05,"target":"left","response":"left","rt":260.20000004768,"correct":true,"confidence":-1},{"trial_n":16,"n_dots":4.05,"target":"right","response":"right","rt":305.20000004768,"correct":true,"confidence":-1},{"trial_n":17,"n_dots":3.95,"target":"left","response":"left","rt":255.10000002384,"correct":true,"confidence":-1},{"trial_n":18,"n_dots":3.95,"target":"left","response":"left","rt":288.89999997616,"correct":true,"confidence":-1},{"trial_n":19,"n_dots":3.85,"target":"left","response":"left","rt":272,"correct":true,"confidence":-1},{"trial_n":20,"n_dots":3.85,"target":"right","response":"left","rt":283,"correct":false,"confidence":-1},{"trial_n":21,"n_dots":3.95,"target":"right","response":"left","rt":302.29999995232,"correct":false,"confidence":2},{"trial_n":22,"n_dots":4.05,"target":"right","response":"right","rt":723.89999997616,"correct":true,"confidence":2},{"trial_n":23,"n_dots":4.05,"target":"right","response":"right","rt":420.69999992847,"correct":true,"confidence":3},{"trial_n":24,"n_dots":3.95,"target":"left","response":"left","rt":311.60000002384,"correct":true,"confidence":4},{"trial_n":25,"n_dots":3.95,"target":"right","response":"left","rt":536.5,"correct":false,"confidence":2},{"trial_n":26,"n_dots":4.05,"target":"left","response":"left","rt":314.60000002384,"correct":true,"confidence":4},{"trial_n":27,"n_dots":4.05,"target":"right","response":"left","rt":360.39999997616,"correct":false,"confidence":3},{"trial_n":28,"n_dots":4.15,"target":"right","response":"right","rt":349.29999995232,"correct":true,"confidence":4},{"trial_n":29,"n_dots":4.15,"target":"left","response":"left","rt":309.20000004768,"correct":true,"confidence":4},{"trial_n":30,"n_dots":4.05,"target":"right","response":"right","rt":314.30000007153,"correct":true,"confidence":4},{"trial_n":31,"n_dots":4.05,"target":"right","response":"right","rt":309,"correct":true,"confidence":3},{"trial_n":32,"n_dots":3.95,"target":"right","response":"right","rt":235.20000004768,"correct":true,"confidence":4},{"trial_n":33,"n_dots":3.95,"target":"left","response":"left","rt":294.89999997616,"correct":true,"confidence":4},{"trial_n":34,"n_dots":3.85,"target":"left","response":"left","rt":297.10000002384,"correct":true,"confidence":4},{"trial_n":35,"n_dots":3.85,"target":"right","response":"right","rt":350.5,"correct":true,"confidence":4},{"trial_n":36,"n_dots":3.75,"target":"left","response":"left","rt":299.89999997616,"correct":true,"confidence":4},{"trial_n":37,"n_dots":3.75,"target":"left","response":"left","rt":295.79999995232,"correct":true,"confidence":4},{"trial_n":38,"n_dots":3.65,"target":"right","response":"right","rt":370.5,"correct":true,"confidence":3},{"trial_n":39,"n_dots":3.65,"target":"left","response":"left","rt":290.80000007153,"correct":true,"confidence":4},{"trial_n":40,"n_dots":3.55,"target":"right","response":"right","rt":329.10000002384,"correct":true,"confidence":3},{"trial_n":41,"n_dots":3.55,"target":"left","response":"left","rt":329.5,"correct":true,"confidence":3},{"trial_n":42,"n_dots":3.45,"target":"left","response":"left","rt":303.30000007153,"correct":true,"confidence":3},{"trial_n":43,"n_dots":3.45,"target":"left","response":"left","rt":292.39999997616,"correct":true,"confidence":3},{"trial_n":44,"n_dots":3.35,"target":"right","response":"right","rt":345.60000002384,"correct":true,"confidence":3},{"trial_n":45,"n_dots":3.35,"target":"right","response":"left","rt":460,"correct":false,"confidence":2},{"trial_n":46,"n_dots":3.45,"target":"right","response":"right","rt":379.39999997616,"correct":true,"confidence":3},{"trial_n":47,"n_dots":3.45,"target":"right","response":"right","rt":415.70000004768,"correct":true,"confidence":2},{"trial_n":48,"n_dots":3.35,"target":"left","response":"left","rt":329.70000004768,"correct":true,"confidence":4},{"trial_n":49,"n_dots":3.35,"target":"left","response":"left","rt":282.09999990463,"correct":true,"confidence":3},{"trial_n":50,"n_dots":3.25,"target":"right","response":"left","rt":364.60000002384,"correct":false,"confidence":2},{"trial_n":51,"n_dots":3.35,"target":"left","response":"left","rt":327.69999992847,"correct":true,"confidence":3},{"trial_n":52,"n_dots":3.35,"target":"left","response":"right","rt":1009.1000000238,"correct":false,"confidence":2},{"trial_n":53,"n_dots":3.45,"target":"right","response":"right","rt":500.30000007153,"correct":true,"confidence":3},{"trial_n":54,"n_dots":3.45,"target":"right","response":"left","rt":1155,"correct":false,"confidence":3},{"trial_n":55,"n_dots":3.55,"target":"left","response":"left","rt":744,"correct":true,"confidence":3},{"trial_n":56,"n_dots":3.55,"target":"right","response":"right","rt":419.39999997616,"correct":true,"confidence":3},{"trial_n":57,"n_dots":3.45,"target":"left","response":"left","rt":327.80000007153,"correct":true,"confidence":4},{"trial_n":58,"n_dots":3.45,"target":"right","response":"right","rt":656.60000002384,"correct":true,"confidence":1},{"trial_n":59,"n_dots":3.35,"target":"right","response":"left","rt":1045.3000000715,"correct":false,"confidence":1},{"trial_n":60,"n_dots":3.45,"target":"right","response":"right","rt":372.60000002384,"correct":true,"confidence":3},{"trial_n":61,"n_dots":3.45,"target":"right","response":"right","rt":440.5,"correct":true,"confidence":3},{"trial_n":62,"n_dots":3.35,"target":"left","response":"left","rt":279.39999997616,"correct":true,"confidence":3},{"trial_n":63,"n_dots":3.35,"target":"left","response":"left","rt":288.70000004768,"correct":true,"confidence":4},{"trial_n":64,"n_dots":3.25,"target":"right","response":"left","rt":943.60000002384,"correct":false,"confidence":1},{"trial_n":65,"n_dots":3.35,"target":"left","response":"left","rt":303.60000002384,"correct":true,"confidence":3},{"trial_n":66,"n_dots":3.35,"target":"right","response":"right","rt":359.39999997616,"correct":true,"confidence":3},{"trial_n":67,"n_dots":3.25,"target":"left","response":"left","rt":338.5,"correct":true,"confidence":4},{"trial_n":68,"n_dots":3.25,"target":"right","response":"left","rt":327.5,"correct":false,"confidence":3},{"trial_n":69,"n_dots":3.35,"target":"left","response":"left","rt":421.10000002384,"correct":true,"confidence":2},{"trial_n":70,"n_dots":3.35,"target":"left","response":"left","rt":291.89999997616,"correct":true,"confidence":4},{"trial_n":71,"n_dots":3.25,"target":"left","response":"left","rt":284.89999997616,"correct":true,"confidence":4},{"trial_n":72,"n_dots":3.25,"target":"left","response":"left","rt":407.89999997616,"correct":true,"confidence":4},{"trial_n":73,"n_dots":3.15,"target":"right","response":"left","rt":463.79999995232,"correct":false,"confidence":3},{"trial_n":74,"n_dots":3.25,"target":"right","response":"right","rt":302.39999997616,"correct":true,"confidence":3},{"trial_n":75,"n_dots":3.25,"target":"left","response":"left","rt":294.80000007153,"correct":true,"confidence":4},{"trial_n":76,"n_dots":3.15,"target":"left","response":"left","rt":271.60000002384,"correct":true,"confidence":3},{"trial_n":77,"n_dots":3.15,"target":"right","response":"right","rt":331.79999995232,"correct":true,"confidence":3},{"trial_n":78,"n_dots":3.05,"target":"left","response":"left","rt":280.89999997616,"correct":true,"confidence":4},{"trial_n":79,"n_dots":3.05,"target":"right","response":"right","rt":343.80000007153,"correct":true,"confidence":4},{"trial_n":80,"n_dots":2.95,"target":"left","response":"left","rt":291.79999995232,"correct":true,"confidence":4},{"trial_n":81,"n_dots":2.95,"target":"left","response":"left","rt":330.70000004768,"correct":true,"confidence":3},{"trial_n":82,"n_dots":2.85,"target":"right","response":"right","rt":6.5,"correct":true,"confidence":4},{"trial_n":83,"n_dots":2.85,"target":"left","response":"left","rt":432.09999990463,"correct":true,"confidence":4},{"trial_n":84,"n_dots":2.75,"target":"left","response":"left","rt":316.79999995232,"correct":true,"confidence":2},{"trial_n":85,"n_dots":2.75,"target":"left","response":"left","rt":321.70000004768,"correct":true,"confidence":2},{"trial_n":86,"n_dots":2.65,"target":"right","response":"right","rt":313.60000002384,"correct":true,"confidence":2},{"trial_n":87,"n_dots":2.65,"target":"left","response":"left","rt":502.10000002384,"correct":true,"confidence":2},{"trial_n":88,"n_dots":2.55,"target":"right","response":"right","rt":314.5,"correct":true,"confidence":3},{"trial_n":89,"n_dots":2.55,"target":"left","response":"left","rt":260.79999995232,"correct":true,"confidence":2},{"trial_n":90,"n_dots":2.45,"target":"left","response":"left","rt":416.10000002384,"correct":true,"confidence":2},{"trial_n":91,"n_dots":2.45,"target":"right","response":"right","rt":367.29999995232,"correct":true,"confidence":2},{"trial_n":92,"n_dots":2.35,"target":"right","response":"left","rt":253.10000002384,"correct":false,"confidence":2},{"trial_n":93,"n_dots":2.45,"target":"left","response":"left","rt":320.89999997616,"correct":true,"confidence":3},{"trial_n":94,"n_dots":2.45,"target":"right","response":"left","rt":310.79999995232,"correct":false,"confidence":2},{"trial_n":95,"n_dots":2.55,"target":"left","response":"left","rt":345.10000002384,"correct":true,"confidence":2},{"trial_n":96,"n_dots":2.55,"target":"left","response":"left","rt":295.70000004768,"correct":true,"confidence":2},{"trial_n":97,"n_dots":2.45,"target":"right","response":"right","rt":216.89999997616,"correct":true,"confidence":2},{"trial_n":98,"n_dots":2.45,"target":"right","response":"left","rt":281.10000002384,"correct":false,"confidence":3},{"trial_n":99,"n_dots":2.55,"target":"left","response":"left","rt":310,"correct":true,"confidence":2},{"trial_n":100,"n_dots":2.55,"target":"left","response":"left","rt":297.39999997616,"correct":true,"confidence":2},{"trial_n":101,"n_dots":2.45,"target":"right","response":"right","rt":340,"correct":true,"confidence":3},{"trial_n":102,"n_dots":2.45,"target":"right","response":"left","rt":315,"correct":false,"confidence":3},{"trial_n":103,"n_dots":2.55,"target":"left","response":"right","rt":317.20000004768,"correct":false,"confidence":3},{"trial_n":104,"n_dots":2.65,"target":"left","response":"right","rt":397.79999995232,"correct":false,"confidence":2},{"trial_n":105,"n_dots":2.75,"target":"right","response":"right","rt":786.10000002384,"correct":true,"confidence":3},{"trial_n":106,"n_dots":2.75,"target":"left","response":"right","rt":432.39999997616,"correct":false,"confidence":2},{"trial_n":107,"n_dots":2.85,"target":"left","response":"right","rt":405.89999997616,"correct":false,"confidence":2},{"trial_n":108,"n_dots":2.95,"target":"right","response":"left","rt":2283.7000000477,"correct":false,"confidence":1},{"trial_n":109,"n_dots":3.05,"target":"right","response":"right","rt":323.10000002384,"correct":true,"confidence":4},{"trial_n":110,"n_dots":3.05,"target":"left","response":"left","rt":291.39999997616,"correct":true,"confidence":4},{"trial_n":111,"n_dots":2.95,"target":"left","response":"left","rt":353.5,"correct":true,"confidence":4},{"trial_n":112,"n_dots":2.95,"target":"left","response":"left","rt":261.89999997616,"correct":true,"confidence":4},{"trial_n":113,"n_dots":2.85,"target":"right","response":"right","rt":295.89999997616,"correct":true,"confidence":4},{"trial_n":114,"n_dots":2.85,"target":"right","response":"right","rt":398.10000002384,"correct":true,"confidence":4},{"trial_n":115,"n_dots":2.75,"target":"right","response":"right","rt":631.89999997616,"correct":true,"confidence":2},{"trial_n":116,"n_dots":2.75,"target":"right","response":"left","rt":393,"correct":false,"confidence":3},{"trial_n":117,"n_dots":2.85,"target":"right","response":"right","rt":664.20000004768,"correct":true,"confidence":3},{"trial_n":118,"n_dots":2.85,"target":"right","response":"left","rt":549.5,"correct":false,"confidence":2},{"trial_n":119,"n_dots":2.95,"target":"right","response":"left","rt":484.70000004768,"correct":false,"confidence":2},{"trial_n":120,"n_dots":3.05,"target":"left","response":"left","rt":296.5,"correct":true,"confidence":3}]