[{"trial_n":1,"span":8,"encoder":"30786771","distractor":"30789771","target":"present","response":"present","rt":"9346.5","correct":true,"confidence":-1},{"trial_n":2,"span":8,"encoder":"39294934","distractor":"39294434","target":"present","response":"present","rt":"1910.2000000179","correct":true,"confidence":-1},{"trial_n":3,"span":10,"encoder":"0985633217","distractor":"0985683217","target":"absent","response":"absent","rt":"3492.8000000119","correct":true,"confidence":-1},{"trial_n":4,"span":10,"encoder":"5416251196","distractor":"5416251116","target":"absent","response":"present","rt":"1518.6000000238","correct":false,"confidence":-1},{"trial_n":5,"span":8,"encoder":"56819982","distractor":"50819982","target":"present","response":"present","rt":"1441.6000000238","correct":true,"confidence":-1},{"trial_n":6,"span":8,"encoder":"84988263","distractor":"84988203","target":"present","response":"present","rt":"2422","correct":true,"confidence":-1},{"trial_n":7,"span":10,"encoder":"7490607252","distractor":"7990607252","target":"present","response":"absent","rt":"1010.8000000119","correct":false,"confidence":-1},{"trial_n":8,"span":8,"encoder":"04025182","distractor":"04025382","target":"present","response":"absent","rt":"8483.599999994","correct":false,"confidence":-1},{"trial_n":9,"span":6,"encoder":"999245","distractor":"979245","target":"absent","response":"present","rt":"1180.5","correct":false,"confidence":-1},{"trial_n":10,"span":4,"encoder":"9505","distractor":"9405","target":"present","response":"present","rt":"2038.6999999881","correct":true,"confidence":-1},{"trial_n":11,"span":4,"encoder":"6193","distractor":"6133","target":"present","response":"present","rt":"1123.900000006","correct":true,"confidence":-1},{"trial_n":12,"span":5,"encoder":"62614","distractor":"62616","target":"present","response":"present","rt":"1277.8999999762","correct":true,"confidence":-1},{"trial_n":13,"span":5,"encoder":"55974","distractor":"65974","target":"absent","response":"absent","rt":"1151.6999999881","correct":true,"confidence":-1},{"trial_n":14,"span":6,"encoder":"154203","distractor":"194203","target":"present","response":"present","rt":"1651.3999999762","correct":true,"confidence":-1},{"trial_n":15,"span":6,"encoder":"849806","distractor":"849801","target":"present","response":"present","rt":"2960.099999994","correct":true,"confidence":-1},{"trial_n":16,"span":7,"encoder":"6549581","distractor":"6549587","target":"absent","response":"absent","rt":"3091.2999999821","correct":true,"confidence":-1},{"trial_n":17,"span":7,"encoder":"8017866","distractor":"8017166","target":"absent","response":"absent","rt":"2507.900000006","correct":true,"confidence":-1},{"trial_n":18,"span":8,"encoder":"10516085","distractor":"10016085","target":"present","response":"present","rt":"1147.5","correct":true,"confidence":-1},{"trial_n":19,"span":8,"encoder":"92657746","distractor":"92657747","target":"absent","response":"absent","rt":"769.29999998212","correct":true,"confidence":-1},{"trial_n":20,"span":9,"encoder":"955890641","distractor":"955890941","target":"present","response":"present","rt":"789.80000001192","correct":true,"confidence":-1},{"trial_n":21,"span":9,"encoder":"816111696","distractor":"816111686","target":"present","response":"present","rt":"1103.3000000119","correct":true,"confidence":4},{"trial_n":22,"span":10,"encoder":"3252406529","distractor":"5252406529","target":"present","response":"absent","rt":"3136.099999994","correct":false,"confidence":3},{"trial_n":23,"span":9,"encoder":"445958453","distractor":"445958458","target":"absent","response":"absent","rt":"2292","correct":true,"confidence":5},{"trial_n":24,"span":9,"encoder":"356863734","distractor":"358863734","target":"absent","response":"absent","rt":"8402.900000006","correct":true,"confidence":3},{"trial_n":25,"span":10,"encoder":"6989100096","distractor":"6989190096","target":"absent","response":"absent","rt":"3038.2999999821","correct":true,"confidence":4},{"trial_n":26,"span":10,"encoder":"0371628840","distractor":"0371608840","target":"absent","response":"present","rt":"2302.8999999762","correct":false,"confidence":4},{"trial_n":27,"span":9,"encoder":"982254415","distractor":"982254411","target":"present","response":"present","rt":"1550.099999994","correct":true,"confidence":3},{"trial_n":28,"span":9,"encoder":"604251834","distractor":"624251834","target":"present","response":"present","rt":"2840.400000006","correct":true,"confidence":3},{"trial_n":29,"span":10,"encoder":"4865594946","distractor":"4465594946","target":"absent","response":"absent","rt":"3179.6999999881","correct":true,"confidence":4},{"trial_n":30,"span":10,"encoder":"0220432765","distractor":"8220432765","target":"present","response":"present","rt":"3941.7999999821","correct":true,"confidence":4},{"trial_n":31,"span":11,"encoder":"87781508234","distractor":"87791508234","target":"absent","response":"absent","rt":"2888.400000006","correct":true,"confidence":2},{"trial_n":32,"span":11,"encoder":"28540053885","distractor":"28540052885","target":"present","response":"present","rt":"4213.6999999881","correct":true,"confidence":2},{"trial_n":33,"span":12,"encoder":"956968140170","distractor":"956968640170","target":"present","response":"present","rt":"6673.2999999821","correct":true,"confidence":4},{"trial_n":34,"span":12,"encoder":"371747334538","distractor":"371747234538","target":"absent","response":"absent","rt":"7723.8000000119","correct":true,"confidence":4},{"trial_n":35,"span":13,"encoder":"6493435085210","distractor":"6493485085210","target":"absent","response":"absent","rt":"2543.599999994","correct":true,"confidence":2},{"trial_n":36,"span":13,"encoder":"1607897681300","distractor":"1607897081300","target":"present","response":"present","rt":"5851","correct":true,"confidence":3},{"trial_n":37,"span":14,"encoder":"77306508249714","distractor":"73306508249714","target":"present","response":"absent","rt":"6300.3999999762","correct":false,"confidence":2},{"trial_n":38,"span":13,"encoder":"2775815693193","distractor":"6775815693193","target":"present","response":"absent","rt":"3420.5","correct":false,"confidence":3},{"trial_n":39,"span":12,"encoder":"599713101028","distractor":"499713101028","target":"absent","response":"absent","rt":"11815.700000018","correct":true,"confidence":2},{"trial_n":40,"span":12,"encoder":"181598017825","distractor":"181598217825","target":"present","response":"present","rt":"5517.400000006","correct":true,"confidence":3},{"trial_n":41,"span":13,"encoder":"6353099374758","distractor":"6553099374758","target":"absent","response":"absent","rt":"5048.599999994","correct":true,"confidence":4},{"trial_n":42,"span":13,"encoder":"6284844377111","distractor":"6284834377111","target":"present","response":"present","rt":"5890.7999999821","correct":true,"confidence":4},{"trial_n":43,"span":14,"encoder":"29720839656717","distractor":"29720889656717","target":"absent","response":"present","rt":"4682.2999999821","correct":false,"confidence":2},{"trial_n":44,"span":13,"encoder":"7054520894393","distractor":"2054520894393","target":"present","response":"absent","rt":"5455.900000006","correct":false,"confidence":2},{"trial_n":45,"span":12,"encoder":"306276340697","distractor":"306276320697","target":"absent","response":"absent","rt":"2779.3000000119","correct":true,"confidence":3},{"trial_n":46,"span":12,"encoder":"225396121782","distractor":"225396121722","target":"absent","response":"absent","rt":"2798.5","correct":true,"confidence":3},{"trial_n":47,"span":13,"encoder":"0815154804282","distractor":"0815154807282","target":"absent","response":"present","rt":"3560.099999994","correct":false,"confidence":4},{"trial_n":48,"span":12,"encoder":"853416927341","distractor":"853416627341","target":"present","response":"present","rt":"4132.2000000179","correct":true,"confidence":2},{"trial_n":49,"span":12,"encoder":"096727595345","distractor":"076727595345","target":"absent","response":"present","rt":"6292.099999994","correct":false,"confidence":2},{"trial_n":50,"span":11,"encoder":"92610745111","distractor":"92610545111","target":"absent","response":"present","rt":"1513.8999999762","correct":false,"confidence":4},{"trial_n":51,"span":10,"encoder":"7825676643","distractor":"7825276643","target":"absent","response":"present","rt":"2111.2000000179","correct":false,"confidence":4},{"trial_n":52,"span":9,"encoder":"952592365","distractor":"952592665","target":"present","response":"present","rt":"3316.6999999881","correct":true,"confidence":4},{"trial_n":53,"span":9,"encoder":"566193707","distractor":"566193727","target":"present","response":"present","rt":"2341.2000000179","correct":true,"confidence":4},{"trial_n":54,"span":10,"encoder":"3681918386","distractor":"3681918306","target":"absent","response":"absent","rt":"4126.900000006","correct":true,"confidence":3},{"trial_n":55,"span":10,"encoder":"1098614050","distractor":"9098614050","target":"absent","response":"absent","rt":"2129.7000000179","correct":true,"confidence":5},{"trial_n":56,"span":11,"encoder":"45862573097","distractor":"45892573097","target":"absent","response":"absent","rt":"7042.099999994","correct":true,"confidence":2},{"trial_n":57,"span":11,"encoder":"02895672647","distractor":"02898672647","target":"absent","response":"absent","rt":"6842.900000006","correct":true,"confidence":1},{"trial_n":58,"span":12,"encoder":"121033490390","distractor":"124033490390","target":"present","response":"present","rt":"2466.099999994","correct":true,"confidence":3},{"trial_n":59,"span":12,"encoder":"349225534474","distractor":"349225534472","target":"absent","response":"present","rt":"3892.2000000179","correct":false,"confidence":3},{"trial_n":60,"span":11,"encoder":"80366198924","distractor":"80356198924","target":"present","response":"absent","rt":"16608","correct":false,"confidence":2},{"trial_n":61,"span":10,"encoder":"2922887773","distractor":"2925887773","target":"absent","response":"present","rt":"3034.8000000119","correct":false,"confidence":4},{"trial_n":62,"span":9,"encoder":"372660252","distractor":"392660252","target":"absent","response":"present","rt":"1470.400000006","correct":false,"confidence":4},{"trial_n":63,"span":8,"encoder":"57239959","distractor":"57239949","target":"present","response":"present","rt":"2276.400000006","correct":true,"confidence":4},{"trial_n":64,"span":8,"encoder":"46366746","distractor":"46366796","target":"present","response":"absent","rt":"3662.7000000179","correct":false,"confidence":3},{"trial_n":65,"span":7,"encoder":"6328652","distractor":"6428652","target":"absent","response":"present","rt":"3505.599999994","correct":false,"confidence":4},{"trial_n":66,"span":6,"encoder":"237833","distractor":"231833","target":"absent","response":"absent","rt":"3918.3000000119","correct":true,"confidence":5},{"trial_n":67,"span":6,"encoder":"878836","distractor":"870836","target":"present","response":"present","rt":"1770.400000006","correct":true,"confidence":4},{"trial_n":68,"span":7,"encoder":"5189729","distractor":"5289729","target":"present","response":"present","rt":"2821.599999994","correct":true,"confidence":5},{"trial_n":69,"span":7,"encoder":"9954019","distractor":"3954019","target":"present","response":"present","rt":"4313.3999999762","correct":true,"confidence":4},{"trial_n":70,"span":8,"encoder":"60194876","distractor":"66194876","target":"absent","response":"absent","rt":"2995.5","correct":true,"confidence":4},{"trial_n":71,"span":8,"encoder":"82683529","distractor":"82083529","target":"present","response":"present","rt":"3823.3000000119","correct":true,"confidence":-1},{"trial_n":72,"span":8,"encoder":"98568975","distractor":"98168975","target":"present","response":"absent","rt":"1613.900000006","correct":false,"confidence":-1},{"trial_n":73,"span":7,"encoder":"1101492","distractor":"1101992","target":"absent","response":"absent","rt":"1516.7000000179","correct":true,"confidence":-1},{"trial_n":74,"span":7,"encoder":"6256325","distractor":"6246325","target":"absent","response":"present","rt":"4754.400000006","correct":false,"confidence":-1},{"trial_n":75,"span":6,"encoder":"423770","distractor":"823770","target":"present","response":"present","rt":"2119.6999999881","correct":true,"confidence":-1},{"trial_n":76,"span":6,"encoder":"019418","distractor":"009418","target":"present","response":"present","rt":"2588.3000000119","correct":true,"confidence":-1},{"trial_n":77,"span":7,"encoder":"6757392","distractor":"6757382","target":"absent","response":"absent","rt":"2178","correct":true,"confidence":-1},{"trial_n":78,"span":7,"encoder":"3261463","distractor":"3961463","target":"present","response":"present","rt":"6553.3999999762","correct":true,"confidence":-1},{"trial_n":79,"span":8,"encoder":"07289083","distractor":"37289083","target":"present","response":"present","rt":"2624.599999994","correct":true,"confidence":-1},{"trial_n":80,"span":8,"encoder":"95417979","distractor":"95417975","target":"absent","response":"absent","rt":"4478.1999999881","correct":true,"confidence":-1},{"trial_n":81,"span":9,"encoder":"118098930","distractor":"118998930","target":"present","response":"absent","rt":"8409.599999994","correct":false,"confidence":-1},{"trial_n":82,"span":8,"encoder":"32215272","distractor":"32215242","target":"absent","response":"absent","rt":"4250.6999999881","correct":true,"confidence":-1},{"trial_n":83,"span":8,"encoder":"94006565","distractor":"94006265","target":"present","response":"present","rt":"2603.400000006","correct":true,"confidence":-1},{"trial_n":84,"span":9,"encoder":"362091695","distractor":"362891695","target":"absent","response":"absent","rt":"3276.3000000119","correct":true,"confidence":-1},{"trial_n":85,"span":9,"encoder":"839962512","distractor":"849962512","target":"present","response":"present","rt":"2321.5","correct":true,"confidence":-1},{"trial_n":86,"span":10,"encoder":"2803487744","distractor":"2803087744","target":"present","response":"absent","rt":"4946.3999999762","correct":false,"confidence":-1},{"trial_n":87,"span":9,"encoder":"915964905","distractor":"911964905","target":"present","response":"absent","rt":"9995.900000006","correct":false,"confidence":-1},{"trial_n":88,"span":8,"encoder":"08189867","distractor":"08199867","target":"absent","response":"absent","rt":"4419.400000006","correct":true,"confidence":-1},{"trial_n":89,"span":8,"encoder":"90207372","distractor":"90201372","target":"absent","response":"absent","rt":"5252.099999994","correct":true,"confidence":-1},{"trial_n":90,"span":9,"encoder":"475100049","distractor":"675100049","target":"absent","response":"absent","rt":"2309.1999999881","correct":true,"confidence":-1},{"trial_n":91,"span":9,"encoder":"286150072","distractor":"286150071","target":"absent","response":"absent","rt":"3895.2999999821","correct":true,"confidence":5},{"trial_n":92,"span":10,"encoder":"6764347129","distractor":"6774347129","target":"absent","response":"absent","rt":"5345.1000000238","correct":true,"confidence":2},{"trial_n":93,"span":10,"encoder":"7051330821","distractor":"7051330828","target":"absent","response":"absent","rt":"2839.400000006","correct":true,"confidence":5},{"trial_n":94,"span":11,"encoder":"31186361420","distractor":"38186361420","target":"present","response":"present","rt":"5224.7000000179","correct":true,"confidence":2},{"trial_n":95,"span":11,"encoder":"30595941775","distractor":"30595341775","target":"present","response":"present","rt":"13935.299999982","correct":true,"confidence":4},{"trial_n":96,"span":12,"encoder":"018754122439","distractor":"008754122439","target":"present","response":"present","rt":"10014.199999988","correct":true,"confidence":4},{"trial_n":97,"span":12,"encoder":"321849593769","distractor":"321829593769","target":"present","response":"present","rt":"11201.600000024","correct":true,"confidence":2},{"trial_n":98,"span":13,"encoder":"0670699406542","distractor":"0674699406542","target":"present","response":"present","rt":"6450.6000000238","correct":true,"confidence":3},{"trial_n":99,"span":13,"encoder":"9693434469392","distractor":"9693432469392","target":"absent","response":"absent","rt":"7712.3000000119","correct":true,"confidence":3},{"trial_n":100,"span":14,"encoder":"09843386374460","distractor":"09843386374060","target":"present","response":"present","rt":"3732.099999994","correct":true,"confidence":5},{"trial_n":101,"span":14,"encoder":"36695049291255","distractor":"36695049291259","target":"absent","response":"absent","rt":"12996.800000012","correct":true,"confidence":1},{"trial_n":102,"span":15,"encoder":"668985122908566","distractor":"668915122908566","target":"present","response":"present","rt":"5975.900000006","correct":true,"confidence":3},{"trial_n":103,"span":15,"encoder":"460706550702362","distractor":"460706450702362","target":"absent","response":"present","rt":"4010.6000000238","correct":false,"confidence":1},{"trial_n":104,"span":14,"encoder":"16718693168384","distractor":"16716693168384","target":"absent","response":"absent","rt":"5536.1999999881","correct":true,"confidence":2},{"trial_n":105,"span":14,"encoder":"32753813233313","distractor":"32753813237313","target":"absent","response":"absent","rt":"2823","correct":true,"confidence":4},{"trial_n":106,"span":15,"encoder":"223083422476268","distractor":"223086422476268","target":"absent","response":"present","rt":"7945.3999999762","correct":false,"confidence":2},{"trial_n":107,"span":14,"encoder":"12616088607472","distractor":"12616058607472","target":"present","response":"present","rt":"6870.400000006","correct":true,"confidence":4},{"trial_n":108,"span":14,"encoder":"35588881856507","distractor":"35588881356507","target":"present","response":"absent","rt":"5798.599999994","correct":false,"confidence":2},{"trial_n":109,"span":13,"encoder":"2965939248038","distractor":"2965936248038","target":"absent","response":"absent","rt":"7334.400000006","correct":true,"confidence":2},{"trial_n":110,"span":13,"encoder":"2790052619479","distractor":"2780052619479","target":"present","response":"present","rt":"5019.900000006","correct":true,"confidence":1},{"trial_n":111,"span":14,"encoder":"56427789364200","distractor":"56427789364600","target":"absent","response":"absent","rt":"3411.099999994","correct":true,"confidence":5},{"trial_n":112,"span":14,"encoder":"17162127196365","distractor":"17162127796365","target":"absent","response":"present","rt":"7652.099999994","correct":false,"confidence":2},{"trial_n":113,"span":13,"encoder":"6689218914186","distractor":"6689218914181","target":"present","response":"present","rt":"5761","correct":true,"confidence":2},{"trial_n":114,"span":13,"encoder":"6286265371486","distractor":"6206265371486","target":"absent","response":"present","rt":"5442.900000006","correct":false,"confidence":3},{"trial_n":115,"span":12,"encoder":"164038906270","distractor":"164038906279","target":"present","response":"present","rt":"2644.8000000119","correct":true,"confidence":5},{"trial_n":116,"span":12,"encoder":"442331524294","distractor":"442231524294","target":"present","response":"present","rt":"2797.1999999881","correct":true,"confidence":5},{"trial_n":117,"span":13,"encoder":"9734402121040","distractor":"9734402161040","target":"absent","response":"absent","rt":"5494.5","correct":true,"confidence":2},{"trial_n":118,"span":13,"encoder":"6347912770518","distractor":"6347612770518","target":"absent","response":"absent","rt":"6586.8000000119","correct":true,"confidence":2},{"trial_n":119,"span":14,"encoder":"36087487565350","distractor":"36087487565050","target":"present","response":"present","rt":"2680.1999999881","correct":true,"confidence":4},{"trial_n":120,"span":14,"encoder":"04961790853219","distractor":"04961790853919","target":"present","response":"present","rt":"2868.2000000179","correct":true,"confidence":4},{"trial_n":121,"span":15,"encoder":"505084333425725","distractor":"505084333425721","target":"present","response":"present","rt":"8644","correct":true,"confidence":3},{"trial_n":122,"span":15,"encoder":"140294113605888","distractor":"140244113605888","target":"absent","response":"present","rt":"9767.5","correct":false,"confidence":4},{"trial_n":123,"span":14,"encoder":"80531543495341","distractor":"80531943495341","target":"absent","response":"present","rt":"8406.3999999762","correct":false,"confidence":3},{"trial_n":124,"span":13,"encoder":"9281167617400","distractor":"9251167617400","target":"absent","response":"absent","rt":"4213","correct":true,"confidence":3},{"trial_n":125,"span":13,"encoder":"5557599881054","distractor":"5556599881054","target":"absent","response":"present","rt":"6298.6999999881","correct":false,"confidence":3},{"trial_n":126,"span":12,"encoder":"790168948879","distractor":"760168948879","target":"absent","response":"absent","rt":"6320.3000000119","correct":true,"confidence":2},{"trial_n":127,"span":12,"encoder":"647709574467","distractor":"647709578467","target":"absent","response":"absent","rt":"4136.3000000119","correct":true,"confidence":2},{"trial_n":128,"span":13,"encoder":"3053878662144","distractor":"3003878662144","target":"absent","response":"absent","rt":"2978.3000000119","correct":true,"confidence":3},{"trial_n":129,"span":13,"encoder":"7255726136408","distractor":"7255626136408","target":"absent","response":"present","rt":"5565.900000006","correct":false,"confidence":2},{"trial_n":130,"span":12,"encoder":"969976935129","distractor":"989976935129","target":"present","response":"absent","rt":"7344.7999999821","correct":false,"confidence":3},{"trial_n":131,"span":11,"encoder":"60371914441","distractor":"60371913441","target":"present","response":"absent","rt":"5249.3000000119","correct":false,"confidence":3},{"trial_n":132,"span":10,"encoder":"7096346894","distractor":"7091346894","target":"present","response":"absent","rt":"5219.7999999821","correct":false,"confidence":3},{"trial_n":133,"span":9,"encoder":"767334623","distractor":"767334621","target":"present","response":"absent","rt":"6495.3000000119","correct":false,"confidence":3},{"trial_n":134,"span":8,"encoder":"22297414","distractor":"22299414","target":"present","response":"absent","rt":"7775.599999994","correct":false,"confidence":2},{"trial_n":135,"span":7,"encoder":"7478366","distractor":"7478666","target":"present","response":"present","rt":"4591.900000006","correct":true,"confidence":2},{"trial_n":136,"span":7,"encoder":"2978900","distractor":"2978960","target":"present","response":"present","rt":"3565.599999994","correct":true,"confidence":5},{"trial_n":137,"span":8,"encoder":"27522622","distractor":"27522322","target":"present","response":"present","rt":"2579.599999994","correct":true,"confidence":5},{"trial_n":138,"span":8,"encoder":"52874031","distractor":"52874037","target":"absent","response":"absent","rt":"2197","correct":true,"confidence":5},{"trial_n":139,"span":9,"encoder":"846700657","distractor":"646700657","target":"absent","response":"present","rt":"8501","correct":false,"confidence":3},{"trial_n":140,"span":8,"encoder":"67605272","distractor":"27605272","target":"present","response":"present","rt":"3759.099999994","correct":true,"confidence":2}]