[{"trial_n":1,"min":25,"max":230,"target":"present","response":"present","rt":4894.6000000238,"correct":true,"confidence":-1},{"trial_n":2,"min":25,"max":230,"target":"present","response":"present","rt":774,"correct":true,"confidence":-1},{"trial_n":3,"min":41,"max":214,"target":"absent","response":"absent","rt":840.80000001192,"correct":true,"confidence":-1},{"trial_n":4,"min":41,"max":214,"target":"absent","response":"absent","rt":544.39999997616,"correct":true,"confidence":-1},{"trial_n":5,"min":57,"max":198,"target":"present","response":"present","rt":707.40000000596,"correct":true,"confidence":-1},{"trial_n":6,"min":57,"max":198,"target":"present","response":"present","rt":361.79999998212,"correct":true,"confidence":-1},{"trial_n":7,"min":73,"max":182,"target":"absent","response":"absent","rt":209.59999999404,"correct":true,"confidence":-1},{"trial_n":8,"min":73,"max":182,"target":"present","response":"absent","rt":537.59999999404,"correct":false,"confidence":-1},{"trial_n":9,"min":57,"max":198,"target":"absent","response":"absent","rt":577.80000001192,"correct":true,"confidence":-1},{"trial_n":10,"min":57,"max":198,"target":"present","response":"present","rt":516.90000000596,"correct":true,"confidence":-1},{"trial_n":11,"min":65,"max":190,"target":"absent","response":"absent","rt":574.70000001788,"correct":true,"confidence":-1},{"trial_n":12,"min":65,"max":190,"target":"absent","response":"absent","rt":473.59999999404,"correct":true,"confidence":-1},{"trial_n":13,"min":73,"max":182,"target":"present","response":"present","rt":609.69999998808,"correct":true,"confidence":-1},{"trial_n":14,"min":73,"max":182,"target":"absent","response":"absent","rt":742.19999998808,"correct":true,"confidence":-1},{"trial_n":15,"min":81,"max":174,"target":"absent","response":"absent","rt":424.39999997616,"correct":true,"confidence":-1},{"trial_n":16,"min":81,"max":174,"target":"absent","response":"absent","rt":441.20000001788,"correct":true,"confidence":-1},{"trial_n":17,"min":89,"max":166,"target":"present","response":"present","rt":668.5,"correct":true,"confidence":-1},{"trial_n":18,"min":89,"max":166,"target":"present","response":"absent","rt":663.69999998808,"correct":false,"confidence":-1},{"trial_n":19,"min":81,"max":174,"target":"present","response":"present","rt":435.79999998212,"correct":true,"confidence":-1},{"trial_n":20,"min":81,"max":174,"target":"absent","response":"absent","rt":507,"correct":true,"confidence":-1},{"trial_n":21,"min":85,"max":170,"target":"present","response":"present","rt":839.5,"correct":true,"confidence":5},{"trial_n":22,"min":85,"max":170,"target":"absent","response":"absent","rt":882.69999998808,"correct":true,"confidence":3},{"trial_n":23,"min":89,"max":166,"target":"absent","response":"present","rt":1957.6999999881,"correct":false,"confidence":2},{"trial_n":24,"min":85,"max":170,"target":"present","response":"present","rt":399.5,"correct":true,"confidence":5},{"trial_n":25,"min":85,"max":170,"target":"absent","response":"present","rt":1994.5,"correct":false,"confidence":2},{"trial_n":26,"min":81,"max":174,"target":"present","response":"absent","rt":3340.2999999821,"correct":false,"confidence":2},{"trial_n":27,"min":77,"max":178,"target":"present","response":"present","rt":649.39999997616,"correct":true,"confidence":3},{"trial_n":28,"min":77,"max":178,"target":"present","response":"present","rt":410.20000001788,"correct":true,"confidence":4},{"trial_n":29,"min":81,"max":174,"target":"present","response":"absent","rt":770.80000001192,"correct":false,"confidence":4},{"trial_n":30,"min":77,"max":178,"target":"present","response":"present","rt":557.90000000596,"correct":true,"confidence":5},{"trial_n":31,"min":77,"max":178,"target":"present","response":"present","rt":436.30000001192,"correct":true,"confidence":4},{"trial_n":32,"min":79,"max":176,"target":"present","response":"absent","rt":430.20000001788,"correct":false,"confidence":4},{"trial_n":33,"min":77,"max":178,"target":"present","response":"present","rt":567.60000002384,"correct":true,"confidence":4},{"trial_n":34,"min":77,"max":178,"target":"present","response":"present","rt":731.29999998212,"correct":true,"confidence":2},{"trial_n":35,"min":79,"max":176,"target":"present","response":"absent","rt":1914.2999999821,"correct":false,"confidence":3},{"trial_n":36,"min":77,"max":178,"target":"absent","response":"absent","rt":636.5,"correct":true,"confidence":2},{"trial_n":37,"min":77,"max":178,"target":"absent","response":"absent","rt":1771.3000000119,"correct":true,"confidence":1},{"trial_n":38,"min":79,"max":176,"target":"present","response":"absent","rt":1138.599999994,"correct":false,"confidence":1},{"trial_n":39,"min":77,"max":178,"target":"absent","response":"absent","rt":513,"correct":true,"confidence":5},{"trial_n":40,"min":77,"max":178,"target":"absent","response":"absent","rt":1625.400000006,"correct":true,"confidence":4},{"trial_n":41,"min":78,"max":177,"target":"absent","response":"absent","rt":722.89999997616,"correct":true,"confidence":2},{"trial_n":42,"min":78,"max":177,"target":"absent","response":"absent","rt":805.09999999404,"correct":true,"confidence":3},{"trial_n":43,"min":79,"max":176,"target":"absent","response":"present","rt":1987.2999999821,"correct":false,"confidence":1},{"trial_n":44,"min":78,"max":177,"target":"absent","response":"absent","rt":1911.599999994,"correct":true,"confidence":1},{"trial_n":45,"min":78,"max":177,"target":"absent","response":"absent","rt":676.20000001788,"correct":true,"confidence":1},{"trial_n":46,"min":79,"max":176,"target":"absent","response":"absent","rt":1717.8999999762,"correct":true,"confidence":3},{"trial_n":47,"min":79,"max":176,"target":"present","response":"present","rt":2013.400000006,"correct":true,"confidence":1},{"trial_n":48,"min":80,"max":175,"target":"present","response":"present","rt":645.59999999404,"correct":true,"confidence":5},{"trial_n":49,"min":80,"max":175,"target":"present","response":"present","rt":1898.900000006,"correct":true,"confidence":3},{"trial_n":50,"min":81,"max":174,"target":"present","response":"present","rt":494.19999998808,"correct":true,"confidence":4},{"trial_n":51,"min":81,"max":174,"target":"absent","response":"absent","rt":808.59999999404,"correct":true,"confidence":3},{"trial_n":52,"min":82,"max":173,"target":"absent","response":"absent","rt":475.40000000596,"correct":true,"confidence":4},{"trial_n":53,"min":82,"max":173,"target":"present","response":"present","rt":452.5,"correct":true,"confidence":5},{"trial_n":54,"min":83,"max":172,"target":"absent","response":"present","rt":1064,"correct":false,"confidence":3},{"trial_n":55,"min":82,"max":173,"target":"absent","response":"absent","rt":601.19999998808,"correct":true,"confidence":5},{"trial_n":56,"min":82,"max":173,"target":"present","response":"absent","rt":1460.7999999821,"correct":false,"confidence":3},{"trial_n":57,"min":81,"max":174,"target":"present","response":"present","rt":681,"correct":true,"confidence":2},{"trial_n":58,"min":81,"max":174,"target":"absent","response":"present","rt":961.19999998808,"correct":false,"confidence":3},{"trial_n":59,"min":80,"max":175,"target":"absent","response":"absent","rt":609.20000001788,"correct":true,"confidence":4},{"trial_n":60,"min":80,"max":175,"target":"absent","response":"absent","rt":783.69999998808,"correct":true,"confidence":4},{"trial_n":61,"min":81,"max":174,"target":"absent","response":"absent","rt":622.59999999404,"correct":true,"confidence":4},{"trial_n":62,"min":81,"max":174,"target":"present","response":"absent","rt":769.09999999404,"correct":false,"confidence":4},{"trial_n":63,"min":80,"max":175,"target":"present","response":"present","rt":942.69999998808,"correct":true,"confidence":3},{"trial_n":64,"min":80,"max":175,"target":"absent","response":"absent","rt":605.59999999404,"correct":true,"confidence":5},{"trial_n":65,"min":81,"max":174,"target":"absent","response":"absent","rt":661.09999999404,"correct":true,"confidence":3},{"trial_n":66,"min":81,"max":174,"target":"present","response":"present","rt":867.79999998212,"correct":true,"confidence":3},{"trial_n":67,"min":82,"max":173,"target":"present","response":"absent","rt":630,"correct":false,"confidence":4},{"trial_n":68,"min":81,"max":174,"target":"absent","response":"absent","rt":961.5,"correct":true,"confidence":2},{"trial_n":69,"min":81,"max":174,"target":"present","response":"present","rt":1573.099999994,"correct":true,"confidence":2},{"trial_n":70,"min":82,"max":173,"target":"present","response":"present","rt":1641.7999999821,"correct":true,"confidence":4},{"trial_n":71,"min":41,"max":214,"target":"present","response":"present","rt":1521.5,"correct":true,"confidence":-1},{"trial_n":72,"min":41,"max":214,"target":"present","response":"present","rt":1014.3000000119,"correct":true,"confidence":-1},{"trial_n":73,"min":57,"max":198,"target":"absent","response":"absent","rt":538.20000001788,"correct":true,"confidence":-1},{"trial_n":74,"min":57,"max":198,"target":"absent","response":"absent","rt":430.30000001192,"correct":true,"confidence":-1},{"trial_n":75,"min":73,"max":182,"target":"present","response":"present","rt":610.10000002384,"correct":true,"confidence":-1},{"trial_n":76,"min":73,"max":182,"target":"present","response":"present","rt":285.5,"correct":true,"confidence":-1},{"trial_n":77,"min":89,"max":166,"target":"present","response":"present","rt":616.60000002384,"correct":true,"confidence":-1},{"trial_n":78,"min":89,"max":166,"target":"absent","response":"absent","rt":686.69999998808,"correct":true,"confidence":-1},{"trial_n":79,"min":105,"max":150,"target":"absent","response":"present","rt":1077.2000000179,"correct":false,"confidence":-1},{"trial_n":80,"min":89,"max":166,"target":"absent","response":"absent","rt":388.69999998808,"correct":true,"confidence":-1},{"trial_n":81,"min":89,"max":166,"target":"present","response":"present","rt":540.10000002384,"correct":true,"confidence":-1},{"trial_n":82,"min":97,"max":158,"target":"present","response":"present","rt":836.60000002384,"correct":true,"confidence":-1},{"trial_n":83,"min":97,"max":158,"target":"present","response":"absent","rt":550.29999998212,"correct":false,"confidence":-1},{"trial_n":84,"min":89,"max":166,"target":"absent","response":"present","rt":560.5,"correct":false,"confidence":-1},{"trial_n":85,"min":81,"max":174,"target":"present","response":"absent","rt":487.5,"correct":false,"confidence":-1},{"trial_n":86,"min":73,"max":182,"target":"present","response":"present","rt":327.90000000596,"correct":true,"confidence":-1},{"trial_n":87,"min":73,"max":182,"target":"absent","response":"absent","rt":1790.2000000179,"correct":true,"confidence":-1},{"trial_n":88,"min":81,"max":174,"target":"absent","response":"absent","rt":719.39999997616,"correct":true,"confidence":-1},{"trial_n":89,"min":81,"max":174,"target":"absent","response":"present","rt":602.30000001192,"correct":false,"confidence":-1},{"trial_n":90,"min":73,"max":182,"target":"absent","response":"present","rt":996.70000001788,"correct":false,"confidence":-1},{"trial_n":91,"min":69,"max":186,"target":"present","response":"present","rt":776.79999998212,"correct":true,"confidence":4},{"trial_n":92,"min":69,"max":186,"target":"present","response":"present","rt":559,"correct":true,"confidence":5},{"trial_n":93,"min":73,"max":182,"target":"present","response":"present","rt":622.5,"correct":true,"confidence":5},{"trial_n":94,"min":73,"max":182,"target":"present","response":"present","rt":270.29999998212,"correct":true,"confidence":5},{"trial_n":95,"min":77,"max":178,"target":"absent","response":"absent","rt":636.80000001192,"correct":true,"confidence":5},{"trial_n":96,"min":77,"max":178,"target":"absent","response":"absent","rt":1747,"correct":true,"confidence":3},{"trial_n":97,"min":81,"max":174,"target":"present","response":"present","rt":568.90000000596,"correct":true,"confidence":3},{"trial_n":98,"min":81,"max":174,"target":"absent","response":"absent","rt":2063.900000006,"correct":true,"confidence":4},{"trial_n":99,"min":85,"max":170,"target":"absent","response":"present","rt":1966.7999999821,"correct":false,"confidence":2},{"trial_n":100,"min":81,"max":174,"target":"present","response":"absent","rt":880.59999999404,"correct":false,"confidence":1},{"trial_n":101,"min":79,"max":176,"target":"absent","response":"absent","rt":679.80000001192,"correct":true,"confidence":5},{"trial_n":102,"min":79,"max":176,"target":"absent","response":"absent","rt":1140.8000000119,"correct":true,"confidence":4},{"trial_n":103,"min":81,"max":174,"target":"present","response":"present","rt":632,"correct":true,"confidence":4},{"trial_n":104,"min":81,"max":174,"target":"absent","response":"present","rt":1452.1999999881,"correct":false,"confidence":2},{"trial_n":105,"min":79,"max":176,"target":"present","response":"present","rt":942.30000001192,"correct":true,"confidence":3},{"trial_n":106,"min":79,"max":176,"target":"absent","response":"present","rt":1565.7999999821,"correct":false,"confidence":2},{"trial_n":107,"min":77,"max":178,"target":"present","response":"present","rt":812.69999998808,"correct":true,"confidence":5},{"trial_n":108,"min":77,"max":178,"target":"present","response":"present","rt":1158.599999994,"correct":true,"confidence":5},{"trial_n":109,"min":79,"max":176,"target":"present","response":"present","rt":753.39999997616,"correct":true,"confidence":5},{"trial_n":110,"min":79,"max":176,"target":"absent","response":"absent","rt":944.29999998212,"correct":true,"confidence":2},{"trial_n":111,"min":80,"max":175,"target":"present","response":"present","rt":511.19999998808,"correct":true,"confidence":1},{"trial_n":112,"min":80,"max":175,"target":"absent","response":"absent","rt":1143.7999999821,"correct":true,"confidence":3},{"trial_n":113,"min":81,"max":174,"target":"present","response":"present","rt":1994.6999999881,"correct":true,"confidence":4},{"trial_n":114,"min":81,"max":174,"target":"absent","response":"absent","rt":1670.8000000119,"correct":true,"confidence":2},{"trial_n":115,"min":82,"max":173,"target":"absent","response":"present","rt":1722.900000006,"correct":false,"confidence":2},{"trial_n":116,"min":81,"max":174,"target":"absent","response":"present","rt":2059.3999999762,"correct":false,"confidence":2},{"trial_n":117,"min":80,"max":175,"target":"absent","response":"absent","rt":1849,"correct":true,"confidence":1},{"trial_n":118,"min":80,"max":175,"target":"absent","response":"absent","rt":3036,"correct":true,"confidence":1},{"trial_n":119,"min":81,"max":174,"target":"absent","response":"absent","rt":1384.5,"correct":true,"confidence":1},{"trial_n":120,"min":81,"max":174,"target":"absent","response":"present","rt":1354.099999994,"correct":false,"confidence":1},{"trial_n":121,"min":80,"max":175,"target":"absent","response":"absent","rt":700.69999998808,"correct":true,"confidence":5},{"trial_n":122,"min":80,"max":175,"target":"present","response":"present","rt":2274.3999999762,"correct":true,"confidence":3},{"trial_n":123,"min":81,"max":174,"target":"present","response":"present","rt":1573.8000000119,"correct":true,"confidence":3},{"trial_n":124,"min":81,"max":174,"target":"present","response":"present","rt":781,"correct":true,"confidence":5},{"trial_n":125,"min":82,"max":173,"target":"present","response":"present","rt":2670.2999999821,"correct":true,"confidence":4},{"trial_n":126,"min":82,"max":173,"target":"present","response":"present","rt":737,"correct":true,"confidence":4},{"trial_n":127,"min":83,"max":172,"target":"absent","response":"present","rt":1812.3000000119,"correct":false,"confidence":2},{"trial_n":128,"min":82,"max":173,"target":"absent","response":"absent","rt":843.59999999404,"correct":true,"confidence":3},{"trial_n":129,"min":82,"max":173,"target":"present","response":"present","rt":806.59999999404,"correct":true,"confidence":5},{"trial_n":130,"min":83,"max":172,"target":"absent","response":"present","rt":1272.599999994,"correct":false,"confidence":3},{"trial_n":131,"min":82,"max":173,"target":"present","response":"present","rt":634.69999998808,"correct":true,"confidence":5},{"trial_n":132,"min":82,"max":173,"target":"present","response":"present","rt":852.19999998808,"correct":true,"confidence":5},{"trial_n":133,"min":83,"max":172,"target":"present","response":"present","rt":846.09999999404,"correct":true,"confidence":4},{"trial_n":134,"min":83,"max":172,"target":"present","response":"present","rt":941.90000000596,"correct":true,"confidence":4},{"trial_n":135,"min":84,"max":171,"target":"absent","response":"absent","rt":733.40000000596,"correct":true,"confidence":5},{"trial_n":136,"min":84,"max":171,"target":"present","response":"present","rt":648.59999999404,"correct":true,"confidence":5},{"trial_n":137,"min":85,"max":170,"target":"present","response":"absent","rt":2218.7000000179,"correct":false,"confidence":3},{"trial_n":138,"min":84,"max":171,"target":"present","response":"present","rt":1108.099999994,"correct":true,"confidence":5},{"trial_n":139,"min":84,"max":171,"target":"absent","response":"absent","rt":5147.3999999762,"correct":true,"confidence":2},{"trial_n":140,"min":85,"max":170,"target":"absent","response":"present","rt":1649.8000000119,"correct":false,"confidence":1}]