[{"trial_n":1,"n_dots":4.25,"target":"left","response":"right","rt":3314.5,"correct":false,"confidence":-1},{"trial_n":2,"n_dots":4.25,"target":"left","response":"left","rt":1414.3000000119,"correct":true,"confidence":-1},{"trial_n":3,"n_dots":4.25,"target":"left","response":"left","rt":509.80000001192,"correct":true,"confidence":-1},{"trial_n":4,"n_dots":3.85,"target":"right","response":"right","rt":1209.900000006,"correct":true,"confidence":-1},{"trial_n":5,"n_dots":3.85,"target":"right","response":"left","rt":1107.599999994,"correct":false,"confidence":-1},{"trial_n":6,"n_dots":4.25,"target":"right","response":"right","rt":718.80000001192,"correct":true,"confidence":-1},{"trial_n":7,"n_dots":4.25,"target":"left","response":"left","rt":804.40000000596,"correct":true,"confidence":-1},{"trial_n":8,"n_dots":4.05,"target":"right","response":"right","rt":789.5,"correct":true,"confidence":-1},{"trial_n":9,"n_dots":4.05,"target":"left","response":"left","rt":451.5,"correct":true,"confidence":-1},{"trial_n":10,"n_dots":3.85,"target":"left","response":"left","rt":631.59999999404,"correct":true,"confidence":-1},{"trial_n":11,"n_dots":3.85,"target":"right","response":"right","rt":786.80000001192,"correct":true,"confidence":-1},{"trial_n":12,"n_dots":3.65,"target":"left","response":"right","rt":1227.7000000179,"correct":false,"confidence":-1},{"trial_n":13,"n_dots":3.75,"target":"left","response":"left","rt":414.5,"correct":true,"confidence":-1},{"trial_n":14,"n_dots":3.75,"target":"right","response":"right","rt":382.80000001192,"correct":true,"confidence":-1},{"trial_n":15,"n_dots":3.65,"target":"right","response":"right","rt":437.30000001192,"correct":true,"confidence":-1},{"trial_n":16,"n_dots":3.65,"target":"right","response":"right","rt":709,"correct":true,"confidence":-1},{"trial_n":17,"n_dots":3.55,"target":"right","response":"right","rt":315.70000001788,"correct":true,"confidence":-1},{"trial_n":18,"n_dots":3.55,"target":"right","response":"right","rt":305.59999999404,"correct":true,"confidence":-1},{"trial_n":19,"n_dots":3.45,"target":"right","response":"left","rt":661.5,"correct":false,"confidence":-1},{"trial_n":20,"n_dots":3.55,"target":"right","response":"right","rt":298.09999999404,"correct":true,"confidence":-1},{"trial_n":21,"n_dots":3.55,"target":"right","response":"right","rt":271.59999999404,"correct":true,"confidence":4},{"trial_n":22,"n_dots":3.45,"target":"left","response":"left","rt":354.5,"correct":true,"confidence":5},{"trial_n":23,"n_dots":3.45,"target":"right","response":"right","rt":1943.900000006,"correct":true,"confidence":3},{"trial_n":24,"n_dots":3.35,"target":"right","response":"right","rt":460.5,"correct":true,"confidence":4},{"trial_n":25,"n_dots":3.35,"target":"left","response":"right","rt":616.20000001788,"correct":false,"confidence":4},{"trial_n":26,"n_dots":3.45,"target":"right","response":"left","rt":652.70000001788,"correct":false,"confidence":3},{"trial_n":27,"n_dots":3.55,"target":"left","response":"left","rt":467.70000001788,"correct":true,"confidence":3},{"trial_n":28,"n_dots":3.55,"target":"left","response":"left","rt":422.5,"correct":true,"confidence":4},{"trial_n":29,"n_dots":3.45,"target":"left","response":"left","rt":716.80000001192,"correct":true,"confidence":4},{"trial_n":30,"n_dots":3.45,"target":"left","response":"left","rt":283.30000001192,"correct":true,"confidence":4},{"trial_n":31,"n_dots":3.35,"target":"left","response":"left","rt":2934.6999999881,"correct":true,"confidence":3},{"trial_n":32,"n_dots":3.35,"target":"right","response":"right","rt":354.79999998212,"correct":true,"confidence":4},{"trial_n":33,"n_dots":3.25,"target":"right","response":"right","rt":458.70000001788,"correct":true,"confidence":3},{"trial_n":34,"n_dots":3.25,"target":"left","response":"left","rt":640,"correct":true,"confidence":4},{"trial_n":35,"n_dots":3.15,"target":"right","response":"right","rt":327.90000000596,"correct":true,"confidence":4},{"trial_n":36,"n_dots":3.15,"target":"right","response":"right","rt":410.20000001788,"correct":true,"confidence":4},{"trial_n":37,"n_dots":3.05,"target":"left","response":"left","rt":912.90000000596,"correct":true,"confidence":4},{"trial_n":38,"n_dots":3.05,"target":"right","response":"left","rt":541.20000001788,"correct":false,"confidence":4},{"trial_n":39,"n_dots":3.15,"target":"right","response":"right","rt":534.79999998212,"correct":true,"confidence":4},{"trial_n":40,"n_dots":3.15,"target":"right","response":"right","rt":830.90000000596,"correct":true,"confidence":4},{"trial_n":41,"n_dots":3.05,"target":"right","response":"right","rt":259.90000000596,"correct":true,"confidence":4},{"trial_n":42,"n_dots":3.05,"target":"right","response":"right","rt":1118.8000000119,"correct":true,"confidence":2},{"trial_n":43,"n_dots":2.95,"target":"left","response":"left","rt":1051.3000000119,"correct":true,"confidence":2},{"trial_n":44,"n_dots":2.95,"target":"left","response":"left","rt":842.5,"correct":true,"confidence":4},{"trial_n":45,"n_dots":2.85,"target":"right","response":"left","rt":512,"correct":false,"confidence":3},{"trial_n":46,"n_dots":2.95,"target":"left","response":"left","rt":665.80000001192,"correct":true,"confidence":5},{"trial_n":47,"n_dots":2.95,"target":"left","response":"left","rt":980.70000001788,"correct":true,"confidence":3},{"trial_n":48,"n_dots":2.85,"target":"right","response":"right","rt":826.59999999404,"correct":true,"confidence":4},{"trial_n":49,"n_dots":2.85,"target":"right","response":"right","rt":848.30000001192,"correct":true,"confidence":5},{"trial_n":50,"n_dots":2.75,"target":"left","response":"left","rt":950.19999998808,"correct":true,"confidence":2},{"trial_n":51,"n_dots":2.75,"target":"left","response":"right","rt":962.5,"correct":false,"confidence":2},{"trial_n":52,"n_dots":2.85,"target":"left","response":"left","rt":1425.7000000179,"correct":true,"confidence":2},{"trial_n":53,"n_dots":2.85,"target":"left","response":"right","rt":661.40000000596,"correct":false,"confidence":2},{"trial_n":54,"n_dots":2.95,"target":"left","response":"left","rt":334.40000000596,"correct":true,"confidence":4},{"trial_n":55,"n_dots":2.95,"target":"left","response":"left","rt":3131.1000000238,"correct":true,"confidence":1},{"trial_n":56,"n_dots":2.85,"target":"right","response":"right","rt":562.80000001192,"correct":true,"confidence":2},{"trial_n":57,"n_dots":2.85,"target":"right","response":"right","rt":386.70000001788,"correct":true,"confidence":5},{"trial_n":58,"n_dots":2.75,"target":"right","response":"right","rt":561.60000002384,"correct":true,"confidence":5},{"trial_n":59,"n_dots":2.75,"target":"left","response":"left","rt":944.59999999404,"correct":true,"confidence":4},{"trial_n":60,"n_dots":2.65,"target":"left","response":"left","rt":1159.5,"correct":true,"confidence":2},{"trial_n":61,"n_dots":2.65,"target":"right","response":"right","rt":1273,"correct":true,"confidence":2},{"trial_n":62,"n_dots":2.55,"target":"left","response":"left","rt":475.90000000596,"correct":true,"confidence":2},{"trial_n":63,"n_dots":2.55,"target":"right","response":"right","rt":333.59999999404,"correct":true,"confidence":5},{"trial_n":64,"n_dots":2.45,"target":"right","response":"right","rt":576.30000001192,"correct":true,"confidence":4},{"trial_n":65,"n_dots":2.45,"target":"left","response":"left","rt":710.20000001788,"correct":true,"confidence":1},{"trial_n":66,"n_dots":2.35,"target":"right","response":"right","rt":2207.2000000179,"correct":true,"confidence":4},{"trial_n":67,"n_dots":2.35,"target":"left","response":"left","rt":428.20000001788,"correct":true,"confidence":4},{"trial_n":68,"n_dots":2.25,"target":"left","response":"right","rt":420.90000000596,"correct":false,"confidence":3},{"trial_n":69,"n_dots":2.35,"target":"right","response":"right","rt":429.5,"correct":true,"confidence":3},{"trial_n":70,"n_dots":2.35,"target":"right","response":"right","rt":852.5,"correct":true,"confidence":3},{"trial_n":71,"n_dots":2.25,"target":"left","response":"right","rt":1200.8000000119,"correct":false,"confidence":2},{"trial_n":72,"n_dots":2.35,"target":"left","response":"left","rt":589.09999999404,"correct":true,"confidence":2},{"trial_n":73,"n_dots":2.35,"target":"right","response":"left","rt":700.30000001192,"correct":false,"confidence":1},{"trial_n":74,"n_dots":2.45,"target":"left","response":"right","rt":1884.5,"correct":false,"confidence":1},{"trial_n":75,"n_dots":2.55,"target":"right","response":"right","rt":316.09999999404,"correct":true,"confidence":4},{"trial_n":76,"n_dots":2.55,"target":"left","response":"left","rt":187.20000001788,"correct":true,"confidence":4},{"trial_n":77,"n_dots":2.45,"target":"right","response":"right","rt":112.5,"correct":true,"confidence":4},{"trial_n":78,"n_dots":2.45,"target":"right","response":"right","rt":316.69999998808,"correct":true,"confidence":4},{"trial_n":79,"n_dots":2.35,"target":"right","response":"right","rt":340.29999998212,"correct":true,"confidence":4},{"trial_n":80,"n_dots":2.35,"target":"right","response":"right","rt":169.30000001192,"correct":true,"confidence":4},{"trial_n":81,"n_dots":2.25,"target":"left","response":"left","rt":300.59999999404,"correct":true,"confidence":4},{"trial_n":82,"n_dots":2.25,"target":"right","response":"right","rt":508.40000000596,"correct":true,"confidence":2},{"trial_n":83,"n_dots":2.15,"target":"left","response":"left","rt":213.5,"correct":true,"confidence":3},{"trial_n":84,"n_dots":2.15,"target":"left","response":"left","rt":412.40000000596,"correct":true,"confidence":3},{"trial_n":85,"n_dots":2.05,"target":"right","response":"left","rt":1173.8000000119,"correct":false,"confidence":4},{"trial_n":86,"n_dots":2.15,"target":"right","response":"right","rt":1197.2999999821,"correct":true,"confidence":3},{"trial_n":87,"n_dots":2.15,"target":"right","response":"left","rt":2387.599999994,"correct":false,"confidence":3},{"trial_n":88,"n_dots":2.25,"target":"right","response":"right","rt":968.70000001788,"correct":true,"confidence":4},{"trial_n":89,"n_dots":2.25,"target":"right","response":"right","rt":956.80000001192,"correct":true,"confidence":4},{"trial_n":90,"n_dots":2.15,"target":"right","response":"left","rt":942.20000001788,"correct":false,"confidence":4},{"trial_n":91,"n_dots":2.25,"target":"left","response":"left","rt":374.70000001788,"correct":true,"confidence":2},{"trial_n":92,"n_dots":2.25,"target":"left","response":"right","rt":910.80000001192,"correct":false,"confidence":2},{"trial_n":93,"n_dots":2.35,"target":"left","response":"right","rt":2426.6999999881,"correct":false,"confidence":2},{"trial_n":94,"n_dots":2.45,"target":"left","response":"right","rt":1094.8000000119,"correct":false,"confidence":2},{"trial_n":95,"n_dots":2.55,"target":"right","response":"right","rt":797.70000001788,"correct":true,"confidence":2},{"trial_n":96,"n_dots":2.55,"target":"left","response":"left","rt":932.10000002384,"correct":true,"confidence":3},{"trial_n":97,"n_dots":2.45,"target":"left","response":"left","rt":437.30000001192,"correct":true,"confidence":3},{"trial_n":98,"n_dots":2.45,"target":"left","response":"left","rt":1901.900000006,"correct":true,"confidence":1},{"trial_n":99,"n_dots":2.35,"target":"right","response":"right","rt":1049.3000000119,"correct":true,"confidence":2},{"trial_n":100,"n_dots":2.35,"target":"left","response":"left","rt":1171.2000000179,"correct":true,"confidence":1},{"trial_n":101,"n_dots":2.25,"target":"right","response":"left","rt":3106.5,"correct":false,"confidence":2},{"trial_n":102,"n_dots":2.35,"target":"right","response":"right","rt":1753.099999994,"correct":true,"confidence":3},{"trial_n":103,"n_dots":2.35,"target":"left","response":"left","rt":1523.1999999881,"correct":true,"confidence":3},{"trial_n":104,"n_dots":2.25,"target":"left","response":"right","rt":3036.3000000119,"correct":false,"confidence":2},{"trial_n":105,"n_dots":2.35,"target":"left","response":"left","rt":1052,"correct":true,"confidence":2},{"trial_n":106,"n_dots":2.35,"target":"right","response":"right","rt":1407.099999994,"correct":true,"confidence":2},{"trial_n":107,"n_dots":2.25,"target":"right","response":"right","rt":948.80000001192,"correct":true,"confidence":3},{"trial_n":108,"n_dots":2.25,"target":"left","response":"left","rt":1210.8000000119,"correct":true,"confidence":2},{"trial_n":109,"n_dots":2.15,"target":"left","response":"right","rt":1048.6999999881,"correct":false,"confidence":3},{"trial_n":110,"n_dots":2.25,"target":"left","response":"right","rt":1002.3000000119,"correct":false,"confidence":3},{"trial_n":111,"n_dots":2.35,"target":"right","response":"right","rt":1292.3000000119,"correct":true,"confidence":3},{"trial_n":112,"n_dots":2.35,"target":"left","response":"left","rt":1154.3000000119,"correct":true,"confidence":3},{"trial_n":113,"n_dots":2.25,"target":"left","response":"right","rt":952.5,"correct":false,"confidence":4},{"trial_n":114,"n_dots":2.35,"target":"left","response":"right","rt":932.30000001192,"correct":false,"confidence":3},{"trial_n":115,"n_dots":2.45,"target":"right","response":"right","rt":696.5,"correct":true,"confidence":4},{"trial_n":116,"n_dots":2.45,"target":"left","response":"right","rt":1260.099999994,"correct":false,"confidence":3},{"trial_n":117,"n_dots":2.55,"target":"left","response":"left","rt":1280,"correct":true,"confidence":3},{"trial_n":118,"n_dots":2.55,"target":"right","response":"right","rt":967,"correct":true,"confidence":2},{"trial_n":119,"n_dots":2.45,"target":"right","response":"right","rt":672.30000001192,"correct":true,"confidence":3},{"trial_n":120,"n_dots":2.45,"target":"left","response":"left","rt":1202.900000006,"correct":true,"confidence":3}]