[{"trial_n":1,"min":25,"max":230,"target":"present","response":"absent","rt":6227,"correct":false,"confidence":-1},{"trial_n":2,"min":25,"max":230,"target":"present","response":"absent","rt":1211,"correct":false,"confidence":-1},{"trial_n":3,"min":9,"max":246,"target":"absent","response":"absent","rt":562,"correct":true,"confidence":-1},{"trial_n":4,"min":9,"max":246,"target":"absent","response":"absent","rt":350,"correct":true,"confidence":-1},{"trial_n":5,"min":25,"max":230,"target":"present","response":"absent","rt":784,"correct":false,"confidence":-1},{"trial_n":6,"min":9,"max":246,"target":"present","response":"absent","rt":184,"correct":false,"confidence":-1},{"trial_n":7,"min":0,"max":255,"target":"absent","response":"absent","rt":302,"correct":true,"confidence":-1},{"trial_n":8,"min":0,"max":255,"target":"absent","response":"absent","rt":120,"correct":true,"confidence":-1},{"trial_n":9,"min":16,"max":239,"target":"present","response":"present","rt":649,"correct":true,"confidence":-1},{"trial_n":10,"min":16,"max":239,"target":"absent","response":"present","rt":538,"correct":false,"confidence":-1},{"trial_n":11,"min":8,"max":247,"target":"absent","response":"present","rt":446,"correct":false,"confidence":-1},{"trial_n":12,"min":0,"max":255,"target":"present","response":"absent","rt":174,"correct":false,"confidence":-1},{"trial_n":13,"min":0,"max":255,"target":"absent","response":"present","rt":774,"correct":false,"confidence":-1},{"trial_n":14,"min":0,"max":255,"target":"absent","response":"absent","rt":685,"correct":true,"confidence":-1},{"trial_n":15,"min":0,"max":255,"target":"present","response":"present","rt":1502,"correct":true,"confidence":-1},{"trial_n":16,"min":8,"max":247,"target":"present","response":"present","rt":5371,"correct":true,"confidence":-1},{"trial_n":17,"min":8,"max":247,"target":"absent","response":"absent","rt":1254,"correct":true,"confidence":-1},{"trial_n":18,"min":16,"max":239,"target":"present","response":"present","rt":698,"correct":true,"confidence":-1},{"trial_n":19,"min":16,"max":239,"target":"absent","response":"present","rt":780,"correct":false,"confidence":-1},{"trial_n":20,"min":8,"max":247,"target":"present","response":"present","rt":1225,"correct":true,"confidence":-1},{"trial_n":21,"min":8,"max":247,"target":"present","response":"present","rt":600,"correct":true,"confidence":4},{"trial_n":22,"min":12,"max":243,"target":"absent","response":"absent","rt":1002,"correct":true,"confidence":4},{"trial_n":23,"min":12,"max":243,"target":"absent","response":"absent","rt":1861,"correct":true,"confidence":4},{"trial_n":24,"min":16,"max":239,"target":"absent","response":"absent","rt":1018,"correct":true,"confidence":3},{"trial_n":25,"min":16,"max":239,"target":"present","response":"present","rt":1485,"correct":true,"confidence":5},{"trial_n":26,"min":20,"max":235,"target":"absent","response":"absent","rt":1095,"correct":true,"confidence":4},{"trial_n":27,"min":20,"max":235,"target":"present","response":"present","rt":826.00000000001,"correct":true,"confidence":5},{"trial_n":28,"min":24,"max":231,"target":"present","response":"present","rt":1266,"correct":true,"confidence":3},{"trial_n":29,"min":24,"max":231,"target":"absent","response":"absent","rt":883,"correct":true,"confidence":3},{"trial_n":30,"min":28,"max":227,"target":"present","response":"present","rt":724,"correct":true,"confidence":3},{"trial_n":31,"min":28,"max":227,"target":"absent","response":"absent","rt":1051,"correct":true,"confidence":4},{"trial_n":32,"min":30,"max":225,"target":"absent","response":"absent","rt":1109,"correct":true,"confidence":4},{"trial_n":33,"min":30,"max":225,"target":"present","response":"present","rt":819,"correct":true,"confidence":4},{"trial_n":34,"min":32,"max":223,"target":"absent","response":"absent","rt":1438,"correct":true,"confidence":3},{"trial_n":35,"min":32,"max":223,"target":"present","response":"present","rt":1277,"correct":true,"confidence":4},{"trial_n":36,"min":34,"max":221,"target":"present","response":"present","rt":728,"correct":true,"confidence":5},{"trial_n":37,"min":34,"max":221,"target":"absent","response":"absent","rt":867.00000000001,"correct":true,"confidence":4},{"trial_n":38,"min":36,"max":219,"target":"present","response":"present","rt":635,"correct":true,"confidence":4},{"trial_n":39,"min":36,"max":219,"target":"absent","response":"absent","rt":922,"correct":true,"confidence":3},{"trial_n":40,"min":38,"max":217,"target":"absent","response":"absent","rt":1158,"correct":true,"confidence":5},{"trial_n":41,"min":38,"max":217,"target":"absent","response":"absent","rt":1194,"correct":true,"confidence":4},{"trial_n":42,"min":39,"max":216,"target":"absent","response":"absent","rt":859,"correct":true,"confidence":4},{"trial_n":43,"min":39,"max":216,"target":"present","response":"present","rt":691,"correct":true,"confidence":5},{"trial_n":44,"min":40,"max":215,"target":"absent","response":"absent","rt":866,"correct":true,"confidence":5},{"trial_n":45,"min":40,"max":215,"target":"present","response":"present","rt":809.00000000003,"correct":true,"confidence":4},{"trial_n":46,"min":41,"max":214,"target":"absent","response":"absent","rt":959,"correct":true,"confidence":3},{"trial_n":47,"min":41,"max":214,"target":"absent","response":"absent","rt":884,"correct":true,"confidence":3},{"trial_n":48,"min":42,"max":213,"target":"present","response":"present","rt":992,"correct":true,"confidence":4},{"trial_n":49,"min":42,"max":213,"target":"present","response":"present","rt":893,"correct":true,"confidence":4},{"trial_n":50,"min":43,"max":212,"target":"present","response":"present","rt":906,"correct":true,"confidence":4},{"trial_n":51,"min":43,"max":212,"target":"present","response":"present","rt":1602,"correct":true,"confidence":3},{"trial_n":52,"min":44,"max":211,"target":"absent","response":"absent","rt":2000,"correct":true,"confidence":4},{"trial_n":53,"min":44,"max":211,"target":"present","response":"present","rt":969,"correct":true,"confidence":4},{"trial_n":54,"min":45,"max":210,"target":"present","response":"present","rt":998,"correct":true,"confidence":4},{"trial_n":55,"min":45,"max":210,"target":"absent","response":"absent","rt":1062,"correct":true,"confidence":3},{"trial_n":56,"min":46,"max":209,"target":"absent","response":"present","rt":1548,"correct":false,"confidence":1},{"trial_n":57,"min":45,"max":210,"target":"absent","response":"absent","rt":1234,"correct":true,"confidence":1},{"trial_n":58,"min":45,"max":210,"target":"present","response":"present","rt":791,"correct":true,"confidence":3},{"trial_n":59,"min":46,"max":209,"target":"present","response":"present","rt":3054,"correct":true,"confidence":4},{"trial_n":60,"min":46,"max":209,"target":"present","response":"present","rt":940.99999999997,"correct":true,"confidence":4},{"trial_n":61,"min":47,"max":208,"target":"absent","response":"absent","rt":1162,"correct":true,"confidence":1},{"trial_n":62,"min":47,"max":208,"target":"absent","response":"absent","rt":1028,"correct":true,"confidence":1},{"trial_n":63,"min":48,"max":207,"target":"absent","response":"absent","rt":1771,"correct":true,"confidence":1},{"trial_n":64,"min":48,"max":207,"target":"present","response":"present","rt":842.00000000003,"correct":true,"confidence":3},{"trial_n":65,"min":49,"max":206,"target":"absent","response":"absent","rt":1641,"correct":true,"confidence":3},{"trial_n":66,"min":49,"max":206,"target":"present","response":"present","rt":764.00000000003,"correct":true,"confidence":4},{"trial_n":67,"min":50,"max":205,"target":"present","response":"present","rt":828,"correct":true,"confidence":4},{"trial_n":68,"min":50,"max":205,"target":"present","response":"present","rt":884.99999999997,"correct":true,"confidence":4},{"trial_n":69,"min":51,"max":204,"target":"present","response":"present","rt":1383,"correct":true,"confidence":4},{"trial_n":70,"min":51,"max":204,"target":"present","response":"present","rt":1217,"correct":true,"confidence":3},{"trial_n":71,"min":41,"max":214,"target":"present","response":"absent","rt":3121,"correct":false,"confidence":-1},{"trial_n":72,"min":41,"max":214,"target":"present","response":"absent","rt":765.99999999997,"correct":false,"confidence":-1},{"trial_n":73,"min":25,"max":230,"target":"absent","response":"present","rt":812,"correct":false,"confidence":-1},{"trial_n":74,"min":9,"max":246,"target":"absent","response":"absent","rt":958.00000000003,"correct":true,"confidence":-1},{"trial_n":75,"min":9,"max":246,"target":"present","response":"present","rt":1141,"correct":true,"confidence":-1},{"trial_n":76,"min":25,"max":230,"target":"absent","response":"absent","rt":1324,"correct":true,"confidence":-1},{"trial_n":77,"min":25,"max":230,"target":"absent","response":"absent","rt":1344,"correct":true,"confidence":-1},{"trial_n":78,"min":41,"max":214,"target":"absent","response":"absent","rt":1397,"correct":true,"confidence":-1},{"trial_n":79,"min":41,"max":214,"target":"present","response":"present","rt":1512,"correct":true,"confidence":-1},{"trial_n":80,"min":57,"max":198,"target":"present","response":"present","rt":740,"correct":true,"confidence":-1},{"trial_n":81,"min":57,"max":198,"target":"absent","response":"present","rt":620,"correct":false,"confidence":-1},{"trial_n":82,"min":49,"max":206,"target":"present","response":"absent","rt":665,"correct":false,"confidence":-1},{"trial_n":83,"min":41,"max":214,"target":"absent","response":"absent","rt":1339,"correct":true,"confidence":-1},{"trial_n":84,"min":41,"max":214,"target":"absent","response":"absent","rt":888,"correct":true,"confidence":-1},{"trial_n":85,"min":49,"max":206,"target":"present","response":"present","rt":773,"correct":true,"confidence":-1},{"trial_n":86,"min":49,"max":206,"target":"absent","response":"absent","rt":958,"correct":true,"confidence":-1},{"trial_n":87,"min":57,"max":198,"target":"absent","response":"present","rt":1186,"correct":false,"confidence":-1},{"trial_n":88,"min":49,"max":206,"target":"present","response":"present","rt":901,"correct":true,"confidence":-1},{"trial_n":89,"min":49,"max":206,"target":"present","response":"present","rt":1118,"correct":true,"confidence":-1},{"trial_n":90,"min":57,"max":198,"target":"absent","response":"absent","rt":868,"correct":true,"confidence":-1},{"trial_n":91,"min":57,"max":198,"target":"absent","response":"absent","rt":863.99999999994,"correct":true,"confidence":3},{"trial_n":92,"min":61,"max":194,"target":"present","response":"present","rt":796,"correct":true,"confidence":4},{"trial_n":93,"min":61,"max":194,"target":"absent","response":"absent","rt":1013,"correct":true,"confidence":3},{"trial_n":94,"min":65,"max":190,"target":"absent","response":"present","rt":975,"correct":false,"confidence":1},{"trial_n":95,"min":61,"max":194,"target":"present","response":"present","rt":907.99999999994,"correct":true,"confidence":3},{"trial_n":96,"min":61,"max":194,"target":"present","response":"present","rt":1558,"correct":true,"confidence":4},{"trial_n":97,"min":65,"max":190,"target":"present","response":"present","rt":759,"correct":true,"confidence":4},{"trial_n":98,"min":65,"max":190,"target":"present","response":"present","rt":647,"correct":true,"confidence":3},{"trial_n":99,"min":69,"max":186,"target":"present","response":"present","rt":789.99999999994,"correct":true,"confidence":3},{"trial_n":100,"min":69,"max":186,"target":"present","response":"present","rt":642,"correct":true,"confidence":4},{"trial_n":101,"min":71,"max":184,"target":"absent","response":"present","rt":1083,"correct":false,"confidence":1},{"trial_n":102,"min":69,"max":186,"target":"present","response":"present","rt":1269,"correct":true,"confidence":3},{"trial_n":103,"min":69,"max":186,"target":"absent","response":"absent","rt":1175,"correct":true,"confidence":1},{"trial_n":104,"min":71,"max":184,"target":"present","response":"present","rt":1648,"correct":true,"confidence":3},{"trial_n":105,"min":71,"max":184,"target":"present","response":"present","rt":701,"correct":true,"confidence":4},{"trial_n":106,"min":73,"max":182,"target":"present","response":"present","rt":1111,"correct":true,"confidence":4},{"trial_n":107,"min":73,"max":182,"target":"absent","response":"absent","rt":947,"correct":true,"confidence":3},{"trial_n":108,"min":75,"max":180,"target":"absent","response":"absent","rt":1300.9999999999,"correct":true,"confidence":1},{"trial_n":109,"min":75,"max":180,"target":"present","response":"present","rt":842.99999999994,"correct":true,"confidence":2},{"trial_n":110,"min":77,"max":178,"target":"absent","response":"absent","rt":992.00000000006,"correct":true,"confidence":1},{"trial_n":111,"min":77,"max":178,"target":"absent","response":"present","rt":1336,"correct":false,"confidence":1},{"trial_n":112,"min":76,"max":179,"target":"absent","response":"present","rt":1048.9999999999,"correct":false,"confidence":3},{"trial_n":113,"min":75,"max":180,"target":"present","response":"present","rt":747,"correct":true,"confidence":3},{"trial_n":114,"min":75,"max":180,"target":"present","response":"present","rt":949,"correct":true,"confidence":3},{"trial_n":115,"min":76,"max":179,"target":"absent","response":"absent","rt":656,"correct":true,"confidence":4},{"trial_n":116,"min":76,"max":179,"target":"present","response":"present","rt":1301,"correct":true,"confidence":1},{"trial_n":117,"min":77,"max":178,"target":"absent","response":"present","rt":933,"correct":false,"confidence":1},{"trial_n":118,"min":76,"max":179,"target":"absent","response":"absent","rt":1008,"correct":true,"confidence":1},{"trial_n":119,"min":76,"max":179,"target":"absent","response":"absent","rt":849,"correct":true,"confidence":1},{"trial_n":120,"min":77,"max":178,"target":"present","response":"present","rt":1427,"correct":true,"confidence":1},{"trial_n":121,"min":77,"max":178,"target":"absent","response":"present","rt":1078,"correct":false,"confidence":2},{"trial_n":122,"min":76,"max":179,"target":"present","response":"present","rt":2797,"correct":true,"confidence":3},{"trial_n":123,"min":76,"max":179,"target":"present","response":"present","rt":931,"correct":true,"confidence":3},{"trial_n":124,"min":77,"max":178,"target":"absent","response":"absent","rt":1828.9999999999,"correct":true,"confidence":4},{"trial_n":125,"min":77,"max":178,"target":"absent","response":"absent","rt":987,"correct":true,"confidence":3},{"trial_n":126,"min":78,"max":177,"target":"absent","response":"present","rt":1229.9999999999,"correct":false,"confidence":1},{"trial_n":127,"min":77,"max":178,"target":"present","response":"absent","rt":1087,"correct":false,"confidence":1},{"trial_n":128,"min":76,"max":179,"target":"present","response":"present","rt":779,"correct":true,"confidence":3},{"trial_n":129,"min":76,"max":179,"target":"absent","response":"present","rt":1009,"correct":false,"confidence":1},{"trial_n":130,"min":75,"max":180,"target":"absent","response":"absent","rt":1089,"correct":true,"confidence":1},{"trial_n":131,"min":75,"max":180,"target":"present","response":"present","rt":1131,"correct":true,"confidence":3},{"trial_n":132,"min":76,"max":179,"target":"present","response":"present","rt":846,"correct":true,"confidence":4},{"trial_n":133,"min":76,"max":179,"target":"absent","response":"present","rt":1092,"correct":false,"confidence":1},{"trial_n":134,"min":75,"max":180,"target":"present","response":"present","rt":992,"correct":true,"confidence":4},{"trial_n":135,"min":75,"max":180,"target":"absent","response":"present","rt":1167,"correct":false,"confidence":3},{"trial_n":136,"min":74,"max":181,"target":"present","response":"present","rt":1454,"correct":true,"confidence":4},{"trial_n":137,"min":74,"max":181,"target":"absent","response":"absent","rt":1001,"correct":true,"confidence":4},{"trial_n":138,"min":75,"max":180,"target":"present","response":"present","rt":1148,"correct":true,"confidence":4},{"trial_n":139,"min":75,"max":180,"target":"present","response":"present","rt":545,"correct":true,"confidence":5},{"trial_n":140,"min":76,"max":179,"target":"present","response":"present","rt":729,"correct":true,"confidence":4}]