[{"trial_n":1,"span":8,"encoder":"52785083","distractor":"52787083","target":"present","response":"present","rt":"7909","correct":true,"confidence":-1},{"trial_n":2,"span":8,"encoder":"85917974","distractor":"85917977","target":"present","response":"absent","rt":"2054","correct":false,"confidence":-1},{"trial_n":3,"span":6,"encoder":"079320","distractor":"279320","target":"absent","response":"present","rt":"2076","correct":false,"confidence":-1},{"trial_n":4,"span":4,"encoder":"9987","distractor":"5987","target":"absent","response":"absent","rt":"2043","correct":true,"confidence":-1},{"trial_n":5,"span":4,"encoder":"1854","distractor":"1852","target":"present","response":"absent","rt":"5336","correct":false,"confidence":-1},{"trial_n":6,"span":2,"encoder":"58","distractor":"38","target":"present","response":"present","rt":"1452","correct":true,"confidence":-1},{"trial_n":7,"span":2,"encoder":"77","distractor":"79","target":"absent","response":"absent","rt":"1985","correct":true,"confidence":-1},{"trial_n":8,"span":4,"encoder":"5693","distractor":"6693","target":"present","response":"present","rt":"1734","correct":true,"confidence":-1},{"trial_n":9,"span":4,"encoder":"5010","distractor":"5012","target":"present","response":"present","rt":"1121","correct":true,"confidence":-1},{"trial_n":10,"span":6,"encoder":"863848","distractor":"873848","target":"present","response":"present","rt":"2440","correct":true,"confidence":-1},{"trial_n":11,"span":6,"encoder":"953722","distractor":"903722","target":"absent","response":"absent","rt":"2309","correct":true,"confidence":-1},{"trial_n":12,"span":7,"encoder":"0627501","distractor":"0627581","target":"absent","response":"absent","rt":"1301","correct":true,"confidence":-1},{"trial_n":13,"span":7,"encoder":"7367956","distractor":"7387956","target":"present","response":"present","rt":"2198","correct":true,"confidence":-1},{"trial_n":14,"span":8,"encoder":"72922196","distractor":"72922191","target":"present","response":"present","rt":"4640","correct":true,"confidence":-1},{"trial_n":15,"span":8,"encoder":"10715277","distractor":"10725277","target":"present","response":"absent","rt":"3348","correct":false,"confidence":-1},{"trial_n":16,"span":7,"encoder":"6219582","distractor":"6219542","target":"absent","response":"present","rt":"1532","correct":false,"confidence":-1},{"trial_n":17,"span":6,"encoder":"844152","distractor":"844153","target":"absent","response":"absent","rt":"2479","correct":true,"confidence":-1},{"trial_n":18,"span":6,"encoder":"848993","distractor":"848953","target":"present","response":"absent","rt":"2368","correct":false,"confidence":-1},{"trial_n":19,"span":5,"encoder":"06008","distractor":"04008","target":"present","response":"absent","rt":"1267","correct":false,"confidence":-1},{"trial_n":20,"span":4,"encoder":"7946","distractor":"7940","target":"present","response":"present","rt":"1658","correct":true,"confidence":-1},{"trial_n":21,"span":4,"encoder":"4512","distractor":"4502","target":"present","response":"present","rt":"1313","correct":true,"confidence":5},{"trial_n":22,"span":5,"encoder":"16841","distractor":"56841","target":"present","response":"present","rt":"2076","correct":true,"confidence":3},{"trial_n":23,"span":5,"encoder":"58489","distractor":"68489","target":"absent","response":"absent","rt":"1898","correct":true,"confidence":5},{"trial_n":24,"span":6,"encoder":"135273","distractor":"135073","target":"present","response":"present","rt":"3134","correct":true,"confidence":5},{"trial_n":25,"span":6,"encoder":"631755","distractor":"631754","target":"present","response":"absent","rt":"2798","correct":false,"confidence":5},{"trial_n":26,"span":5,"encoder":"07822","distractor":"07862","target":"absent","response":"absent","rt":"2181","correct":true,"confidence":5},{"trial_n":27,"span":5,"encoder":"33722","distractor":"37722","target":"absent","response":"absent","rt":"1460","correct":true,"confidence":5},{"trial_n":28,"span":6,"encoder":"853763","distractor":"852763","target":"present","response":"present","rt":"2740","correct":true,"confidence":4},{"trial_n":29,"span":6,"encoder":"044143","distractor":"094143","target":"absent","response":"absent","rt":"2183","correct":true,"confidence":5},{"trial_n":30,"span":7,"encoder":"0186881","distractor":"0186891","target":"absent","response":"present","rt":"4099","correct":false,"confidence":3},{"trial_n":31,"span":6,"encoder":"739308","distractor":"739302","target":"present","response":"present","rt":"2134","correct":true,"confidence":5},{"trial_n":32,"span":6,"encoder":"204191","distractor":"202191","target":"present","response":"present","rt":"1908","correct":true,"confidence":4},{"trial_n":33,"span":7,"encoder":"9607728","distractor":"9609728","target":"absent","response":"absent","rt":"4501","correct":true,"confidence":3},{"trial_n":34,"span":7,"encoder":"8605989","distractor":"8605289","target":"present","response":"present","rt":"2407","correct":true,"confidence":4},{"trial_n":35,"span":8,"encoder":"34502650","distractor":"54502650","target":"absent","response":"present","rt":"2786","correct":false,"confidence":1},{"trial_n":36,"span":7,"encoder":"5444534","distractor":"5444514","target":"absent","response":"absent","rt":"5740.0000000001","correct":true,"confidence":1},{"trial_n":37,"span":7,"encoder":"3118300","distractor":"3111300","target":"absent","response":"present","rt":"1448","correct":false,"confidence":4},{"trial_n":38,"span":6,"encoder":"319369","distractor":"319069","target":"present","response":"present","rt":"2076","correct":true,"confidence":3},{"trial_n":39,"span":6,"encoder":"011381","distractor":"014381","target":"absent","response":"present","rt":"2664","correct":false,"confidence":3},{"trial_n":40,"span":5,"encoder":"29350","distractor":"29310","target":"absent","response":"present","rt":"1520","correct":false,"confidence":4},{"trial_n":41,"span":4,"encoder":"5998","distractor":"5928","target":"absent","response":"present","rt":"2003","correct":false,"confidence":3},{"trial_n":42,"span":3,"encoder":"118","distractor":"128","target":"absent","response":"absent","rt":"2401","correct":true,"confidence":1},{"trial_n":43,"span":3,"encoder":"377","distractor":"317","target":"absent","response":"absent","rt":"1825","correct":true,"confidence":5},{"trial_n":44,"span":4,"encoder":"6800","distractor":"6890","target":"absent","response":"absent","rt":"1560","correct":true,"confidence":5},{"trial_n":45,"span":4,"encoder":"0754","distractor":"0854","target":"absent","response":"absent","rt":"1568","correct":true,"confidence":5},{"trial_n":46,"span":5,"encoder":"13905","distractor":"43905","target":"present","response":"present","rt":"1474","correct":true,"confidence":5},{"trial_n":47,"span":5,"encoder":"98362","distractor":"18362","target":"present","response":"present","rt":"1499","correct":true,"confidence":5},{"trial_n":48,"span":6,"encoder":"028744","distractor":"078744","target":"present","response":"present","rt":"2673","correct":true,"confidence":4},{"trial_n":49,"span":6,"encoder":"179973","distractor":"177973","target":"absent","response":"absent","rt":"3542.0000000001","correct":true,"confidence":4},{"trial_n":50,"span":7,"encoder":"7044602","distractor":"7041602","target":"present","response":"absent","rt":"3540.9999999999","correct":false,"confidence":4},{"trial_n":51,"span":6,"encoder":"793428","distractor":"723428","target":"absent","response":"present","rt":"1428","correct":false,"confidence":3},{"trial_n":52,"span":5,"encoder":"44123","distractor":"24123","target":"absent","response":"absent","rt":"1612","correct":true,"confidence":5},{"trial_n":53,"span":5,"encoder":"66529","distractor":"63529","target":"present","response":"present","rt":"3516","correct":true,"confidence":4},{"trial_n":54,"span":6,"encoder":"902866","distractor":"904866","target":"present","response":"present","rt":"2183","correct":true,"confidence":4},{"trial_n":55,"span":6,"encoder":"128525","distractor":"120525","target":"present","response":"present","rt":"2102.0000000001","correct":true,"confidence":5},{"trial_n":56,"span":7,"encoder":"5615745","distractor":"5665745","target":"absent","response":"absent","rt":"2898.0000000001","correct":true,"confidence":5},{"trial_n":57,"span":7,"encoder":"0118654","distractor":"0112654","target":"present","response":"present","rt":"3098.9999999999","correct":true,"confidence":4},{"trial_n":58,"span":8,"encoder":"95185517","distractor":"95385517","target":"absent","response":"absent","rt":"3509","correct":true,"confidence":4},{"trial_n":59,"span":8,"encoder":"93988959","distractor":"93388959","target":"absent","response":"absent","rt":"2269.9999999999","correct":true,"confidence":4},{"trial_n":60,"span":9,"encoder":"171783883","distractor":"171783884","target":"present","response":"present","rt":"1854.9999999999","correct":true,"confidence":4},{"trial_n":61,"span":9,"encoder":"120699873","distractor":"820699873","target":"absent","response":"present","rt":"2751","correct":false,"confidence":1},{"trial_n":62,"span":8,"encoder":"15967345","distractor":"15867345","target":"absent","response":"absent","rt":"1994","correct":true,"confidence":2},{"trial_n":63,"span":8,"encoder":"96355631","distractor":"96355638","target":"present","response":"absent","rt":"5429","correct":false,"confidence":3},{"trial_n":64,"span":7,"encoder":"9213225","distractor":"9253225","target":"present","response":"present","rt":"1583","correct":true,"confidence":4},{"trial_n":65,"span":7,"encoder":"8500218","distractor":"8500211","target":"absent","response":"absent","rt":"2018","correct":true,"confidence":5},{"trial_n":66,"span":8,"encoder":"28111902","distractor":"28181902","target":"absent","response":"absent","rt":"2638.0000000001","correct":true,"confidence":4},{"trial_n":67,"span":8,"encoder":"07317563","distractor":"07319563","target":"present","response":"present","rt":"1560.0000000001","correct":true,"confidence":3},{"trial_n":68,"span":9,"encoder":"922921400","distractor":"922921800","target":"absent","response":"present","rt":"1827","correct":false,"confidence":3},{"trial_n":69,"span":8,"encoder":"46548247","distractor":"48548247","target":"present","response":"present","rt":"2464","correct":true,"confidence":3},{"trial_n":70,"span":8,"encoder":"09323598","distractor":"79323598","target":"present","response":"present","rt":"3194.9999999999","correct":true,"confidence":3},{"trial_n":71,"span":8,"encoder":"08571094","distractor":"08579094","target":"present","response":"present","rt":"5947","correct":true,"confidence":-1},{"trial_n":72,"span":8,"encoder":"60455644","distractor":"60457644","target":"present","response":"present","rt":"2284","correct":true,"confidence":-1},{"trial_n":73,"span":9,"encoder":"261403943","distractor":"261403983","target":"absent","response":"absent","rt":"4318","correct":true,"confidence":-1},{"trial_n":74,"span":9,"encoder":"745036110","distractor":"725036110","target":"absent","response":"absent","rt":"4145.0000000001","correct":true,"confidence":-1},{"trial_n":75,"span":10,"encoder":"6868749597","distractor":"6848749597","target":"present","response":"present","rt":"7420","correct":true,"confidence":-1},{"trial_n":76,"span":10,"encoder":"7491304562","distractor":"7471304562","target":"absent","response":"absent","rt":"4682","correct":true,"confidence":-1},{"trial_n":77,"span":11,"encoder":"07421892566","distractor":"07401892566","target":"present","response":"present","rt":"4091","correct":true,"confidence":-1},{"trial_n":78,"span":11,"encoder":"20006487627","distractor":"20006487327","target":"present","response":"present","rt":"8004","correct":true,"confidence":-1},{"trial_n":79,"span":12,"encoder":"819645931163","distractor":"019645931163","target":"absent","response":"present","rt":"14521","correct":false,"confidence":-1},{"trial_n":80,"span":11,"encoder":"67968421924","distractor":"77968421924","target":"present","response":"present","rt":"6185","correct":true,"confidence":-1},{"trial_n":81,"span":11,"encoder":"07794644031","distractor":"07754644031","target":"present","response":"present","rt":"5259.0000000001","correct":true,"confidence":-1},{"trial_n":82,"span":12,"encoder":"755635983875","distractor":"755635983675","target":"present","response":"present","rt":"21807","correct":true,"confidence":-1},{"trial_n":83,"span":12,"encoder":"057733605565","distractor":"057737605565","target":"absent","response":"absent","rt":"3520","correct":true,"confidence":-1},{"trial_n":84,"span":13,"encoder":"1606935236742","distractor":"1606935236042","target":"present","response":"present","rt":"3817","correct":true,"confidence":-1},{"trial_n":85,"span":13,"encoder":"4058297569121","distractor":"4058297569181","target":"absent","response":"absent","rt":"402","correct":true,"confidence":-1},{"trial_n":86,"span":14,"encoder":"66073032711262","distractor":"46073032711262","target":"absent","response":"present","rt":"457","correct":false,"confidence":-1},{"trial_n":87,"span":13,"encoder":"2877596462581","distractor":"2875596462581","target":"absent","response":"absent","rt":"456","correct":true,"confidence":-1},{"trial_n":88,"span":13,"encoder":"8399897603539","distractor":"8399897643539","target":"present","response":"absent","rt":"457","correct":false,"confidence":-1},{"trial_n":89,"span":12,"encoder":"276570577466","distractor":"286570577466","target":"absent","response":"present","rt":"404","correct":false,"confidence":-1},{"trial_n":90,"span":11,"encoder":"86808814709","distractor":"86828814709","target":"present","response":"absent","rt":"1399.0000000001","correct":false,"confidence":-1},{"trial_n":91,"span":10,"encoder":"3651057570","distractor":"3656057570","target":"present","response":"absent","rt":"5587","correct":false,"confidence":1},{"trial_n":92,"span":9,"encoder":"800547795","distractor":"800847795","target":"present","response":"present","rt":"6558","correct":true,"confidence":5},{"trial_n":93,"span":9,"encoder":"529511374","distractor":"529511874","target":"present","response":"present","rt":"4526.0000000001","correct":true,"confidence":3},{"trial_n":94,"span":10,"encoder":"8442762626","distractor":"8449762626","target":"present","response":"absent","rt":"5966.9999999999","correct":false,"confidence":2},{"trial_n":95,"span":9,"encoder":"175132582","distractor":"178132582","target":"present","response":"present","rt":"1227.9999999999","correct":true,"confidence":4},{"trial_n":96,"span":9,"encoder":"437739465","distractor":"637739465","target":"absent","response":"absent","rt":"1602","correct":true,"confidence":3},{"trial_n":97,"span":10,"encoder":"2353562720","distractor":"2353565720","target":"present","response":"present","rt":"1347","correct":true,"confidence":2},{"trial_n":98,"span":10,"encoder":"7830683055","distractor":"7830683155","target":"absent","response":"absent","rt":"8488","correct":true,"confidence":4},{"trial_n":99,"span":11,"encoder":"10294255862","distractor":"10294250862","target":"present","response":"present","rt":"4285","correct":true,"confidence":5},{"trial_n":100,"span":11,"encoder":"34988764319","distractor":"34788764319","target":"absent","response":"absent","rt":"7323.0000000001","correct":true,"confidence":5},{"trial_n":101,"span":12,"encoder":"466500935968","distractor":"466500945968","target":"present","response":"absent","rt":"3709","correct":false,"confidence":1},{"trial_n":102,"span":11,"encoder":"14382611632","distractor":"14382616632","target":"absent","response":"present","rt":"1653","correct":false,"confidence":1},{"trial_n":103,"span":10,"encoder":"0018187622","distractor":"0018189622","target":"absent","response":"absent","rt":"4284","correct":true,"confidence":4},{"trial_n":104,"span":10,"encoder":"5420122537","distractor":"8420122537","target":"present","response":"present","rt":"4681","correct":true,"confidence":3},{"trial_n":105,"span":11,"encoder":"22420915914","distractor":"22420915915","target":"present","response":"present","rt":"6925","correct":true,"confidence":3},{"trial_n":106,"span":11,"encoder":"91668283459","distractor":"91768283459","target":"present","response":"present","rt":"6309.0000000001","correct":true,"confidence":5},{"trial_n":107,"span":12,"encoder":"128723629481","distractor":"128723629488","target":"absent","response":"absent","rt":"5979.9999999999","correct":true,"confidence":1},{"trial_n":108,"span":12,"encoder":"291703185080","distractor":"291703185680","target":"absent","response":"present","rt":"5442","correct":false,"confidence":1},{"trial_n":109,"span":11,"encoder":"14237859343","distractor":"24237859343","target":"present","response":"present","rt":"11311","correct":true,"confidence":3},{"trial_n":110,"span":11,"encoder":"50936332138","distractor":"56936332138","target":"present","response":"present","rt":"1103","correct":true,"confidence":3},{"trial_n":111,"span":12,"encoder":"203891937075","distractor":"203891937078","target":"absent","response":"absent","rt":"1198","correct":true,"confidence":1},{"trial_n":112,"span":12,"encoder":"326281818229","distractor":"326981818229","target":"absent","response":"present","rt":"9206","correct":false,"confidence":1},{"trial_n":113,"span":11,"encoder":"53169799734","distractor":"53169799634","target":"absent","response":"present","rt":"7203","correct":false,"confidence":3},{"trial_n":114,"span":10,"encoder":"4707392507","distractor":"4907392507","target":"present","response":"absent","rt":"2219","correct":false,"confidence":1},{"trial_n":115,"span":9,"encoder":"804856102","distractor":"804856402","target":"absent","response":"absent","rt":"3800","correct":true,"confidence":3},{"trial_n":116,"span":9,"encoder":"322555539","distractor":"322555939","target":"present","response":"absent","rt":"6259","correct":false,"confidence":3},{"trial_n":117,"span":8,"encoder":"81464878","distractor":"81464879","target":"absent","response":"absent","rt":"5074","correct":true,"confidence":5},{"trial_n":118,"span":8,"encoder":"96670249","distractor":"95670249","target":"present","response":"present","rt":"1580","correct":true,"confidence":1},{"trial_n":119,"span":9,"encoder":"377560308","distractor":"277560308","target":"present","response":"absent","rt":"7209","correct":false,"confidence":4},{"trial_n":120,"span":8,"encoder":"16440522","distractor":"16440572","target":"present","response":"present","rt":"4029","correct":true,"confidence":2},{"trial_n":121,"span":8,"encoder":"74675257","distractor":"74671257","target":"present","response":"present","rt":"5120","correct":true,"confidence":1},{"trial_n":122,"span":9,"encoder":"733821865","distractor":"737821865","target":"absent","response":"absent","rt":"6106","correct":true,"confidence":1},{"trial_n":123,"span":9,"encoder":"525006822","distractor":"525006922","target":"absent","response":"absent","rt":"3626","correct":true,"confidence":3},{"trial_n":124,"span":10,"encoder":"5285362124","distractor":"5285362224","target":"absent","response":"absent","rt":"2248","correct":true,"confidence":5},{"trial_n":125,"span":10,"encoder":"7667813484","distractor":"9667813484","target":"absent","response":"absent","rt":"2269","correct":true,"confidence":5},{"trial_n":126,"span":11,"encoder":"55758083908","distractor":"55758083108","target":"absent","response":"present","rt":"8705","correct":false,"confidence":1},{"trial_n":127,"span":10,"encoder":"7801140811","distractor":"7801148811","target":"present","response":"present","rt":"4793","correct":true,"confidence":1},{"trial_n":128,"span":10,"encoder":"7864388171","distractor":"7864388175","target":"absent","response":"absent","rt":"5041","correct":true,"confidence":1},{"trial_n":129,"span":11,"encoder":"42728872967","distractor":"42729872967","target":"absent","response":"absent","rt":"2486","correct":true,"confidence":5},{"trial_n":130,"span":11,"encoder":"72375054782","distractor":"75375054782","target":"absent","response":"absent","rt":"7431","correct":true,"confidence":3},{"trial_n":131,"span":12,"encoder":"279624040043","distractor":"272624040043","target":"present","response":"absent","rt":"18616","correct":false,"confidence":3},{"trial_n":132,"span":11,"encoder":"20270074011","distractor":"20270076011","target":"present","response":"present","rt":"5458.0000000002","correct":true,"confidence":4},{"trial_n":133,"span":11,"encoder":"13087925700","distractor":"12087925700","target":"present","response":"absent","rt":"3012","correct":false,"confidence":4},{"trial_n":134,"span":10,"encoder":"9274117440","distractor":"9278117440","target":"absent","response":"absent","rt":"3323.9999999998","correct":true,"confidence":5},{"trial_n":135,"span":10,"encoder":"9286170865","distractor":"9286570865","target":"absent","response":"present","rt":"4846","correct":false,"confidence":4},{"trial_n":136,"span":9,"encoder":"917666718","distractor":"917664718","target":"present","response":"present","rt":"3034","correct":true,"confidence":5},{"trial_n":137,"span":9,"encoder":"107692667","distractor":"107696667","target":"present","response":"present","rt":"4169","correct":true,"confidence":5},{"trial_n":138,"span":10,"encoder":"1809499493","distractor":"1801499493","target":"absent","response":"present","rt":"2937","correct":false,"confidence":4},{"trial_n":139,"span":9,"encoder":"122859196","distractor":"622859196","target":"absent","response":"absent","rt":"4782","correct":true,"confidence":5},{"trial_n":140,"span":9,"encoder":"085826004","distractor":"089826004","target":"absent","response":"absent","rt":"6387","correct":true,"confidence":4}]