[{"trial_n":1,"n_dots":4.25,"target":"left","response":"left","rt":3502,"correct":true,"confidence":-1},{"trial_n":2,"n_dots":4.25,"target":"right","response":"right","rt":2165,"correct":true,"confidence":-1},{"trial_n":3,"n_dots":3.85,"target":"left","response":"left","rt":372,"correct":true,"confidence":-1},{"trial_n":4,"n_dots":3.85,"target":"left","response":"right","rt":781,"correct":false,"confidence":-1},{"trial_n":5,"n_dots":4.25,"target":"right","response":"left","rt":488,"correct":false,"confidence":-1},{"trial_n":6,"n_dots":4.65,"target":"left","response":"right","rt":814,"correct":false,"confidence":-1},{"trial_n":7,"n_dots":5.05,"target":"right","response":"right","rt":542,"correct":true,"confidence":-1},{"trial_n":8,"n_dots":5.05,"target":"right","response":"right","rt":143,"correct":true,"confidence":-1},{"trial_n":9,"n_dots":4.85,"target":"right","response":"right","rt":270,"correct":true,"confidence":-1},{"trial_n":10,"n_dots":4.85,"target":"right","response":"right","rt":312,"correct":true,"confidence":-1},{"trial_n":11,"n_dots":4.65,"target":"right","response":"right","rt":380,"correct":true,"confidence":-1},{"trial_n":12,"n_dots":4.65,"target":"right","response":"right","rt":245.99999999994,"correct":true,"confidence":-1},{"trial_n":13,"n_dots":4.55,"target":"right","response":"right","rt":446.99999999994,"correct":true,"confidence":-1},{"trial_n":14,"n_dots":4.55,"target":"right","response":"right","rt":250,"correct":true,"confidence":-1},{"trial_n":15,"n_dots":4.45,"target":"left","response":"right","rt":89.000000000058,"correct":false,"confidence":-1},{"trial_n":16,"n_dots":4.55,"target":"right","response":"right","rt":142.99999999994,"correct":true,"confidence":-1},{"trial_n":17,"n_dots":4.55,"target":"left","response":"left","rt":315,"correct":true,"confidence":-1},{"trial_n":18,"n_dots":4.45,"target":"right","response":"right","rt":21.999999999942,"correct":true,"confidence":-1},{"trial_n":19,"n_dots":4.45,"target":"right","response":"right","rt":994.00000000006,"correct":true,"confidence":-1},{"trial_n":20,"n_dots":4.35,"target":"left","response":"left","rt":729,"correct":true,"confidence":-1},{"trial_n":21,"n_dots":4.35,"target":"right","response":"right","rt":578.99999999994,"correct":true,"confidence":3},{"trial_n":22,"n_dots":4.25,"target":"left","response":"left","rt":882,"correct":true,"confidence":4},{"trial_n":23,"n_dots":4.25,"target":"right","response":"right","rt":1402.0000000001,"correct":true,"confidence":4},{"trial_n":24,"n_dots":4.15,"target":"right","response":"right","rt":610,"correct":true,"confidence":3},{"trial_n":25,"n_dots":4.15,"target":"right","response":"left","rt":1618,"correct":false,"confidence":2},{"trial_n":26,"n_dots":4.25,"target":"left","response":"left","rt":1074,"correct":true,"confidence":2},{"trial_n":27,"n_dots":4.25,"target":"right","response":"right","rt":628,"correct":true,"confidence":3},{"trial_n":28,"n_dots":4.15,"target":"right","response":"right","rt":800.99999999994,"correct":true,"confidence":3},{"trial_n":29,"n_dots":4.15,"target":"left","response":"left","rt":840.99999999994,"correct":true,"confidence":4},{"trial_n":30,"n_dots":4.05,"target":"right","response":"right","rt":647,"correct":true,"confidence":3},{"trial_n":31,"n_dots":4.05,"target":"left","response":"left","rt":971,"correct":true,"confidence":3},{"trial_n":32,"n_dots":3.95,"target":"right","response":"right","rt":1073,"correct":true,"confidence":4},{"trial_n":33,"n_dots":3.95,"target":"left","response":"left","rt":815,"correct":true,"confidence":3},{"trial_n":34,"n_dots":3.85,"target":"left","response":"left","rt":1151,"correct":true,"confidence":5},{"trial_n":35,"n_dots":3.85,"target":"right","response":"right","rt":734,"correct":true,"confidence":3},{"trial_n":36,"n_dots":3.75,"target":"left","response":"left","rt":1732,"correct":true,"confidence":1},{"trial_n":37,"n_dots":3.75,"target":"right","response":"right","rt":844,"correct":true,"confidence":4},{"trial_n":38,"n_dots":3.65,"target":"right","response":"right","rt":1105,"correct":true,"confidence":2},{"trial_n":39,"n_dots":3.65,"target":"right","response":"right","rt":971,"correct":true,"confidence":3},{"trial_n":40,"n_dots":3.55,"target":"right","response":"right","rt":860,"correct":true,"confidence":2},{"trial_n":41,"n_dots":3.55,"target":"left","response":"left","rt":1185,"correct":true,"confidence":4},{"trial_n":42,"n_dots":3.45,"target":"left","response":"left","rt":724,"correct":true,"confidence":5},{"trial_n":43,"n_dots":3.45,"target":"left","response":"left","rt":792.00000000006,"correct":true,"confidence":3},{"trial_n":44,"n_dots":3.35,"target":"right","response":"right","rt":1214,"correct":true,"confidence":4},{"trial_n":45,"n_dots":3.35,"target":"right","response":"right","rt":1180.0000000001,"correct":true,"confidence":3},{"trial_n":46,"n_dots":3.25,"target":"left","response":"left","rt":864,"correct":true,"confidence":1},{"trial_n":47,"n_dots":3.25,"target":"right","response":"right","rt":665,"correct":true,"confidence":4},{"trial_n":48,"n_dots":3.15,"target":"left","response":"left","rt":1037,"correct":true,"confidence":3},{"trial_n":49,"n_dots":3.15,"target":"right","response":"right","rt":963,"correct":true,"confidence":1},{"trial_n":50,"n_dots":3.05,"target":"left","response":"right","rt":873.00000000006,"correct":false,"confidence":1},{"trial_n":51,"n_dots":3.15,"target":"left","response":"right","rt":925.99999999994,"correct":false,"confidence":3},{"trial_n":52,"n_dots":3.25,"target":"left","response":"left","rt":953,"correct":true,"confidence":4},{"trial_n":53,"n_dots":3.25,"target":"right","response":"left","rt":1121.0000000001,"correct":false,"confidence":1},{"trial_n":54,"n_dots":3.35,"target":"left","response":"left","rt":782.99999999988,"correct":true,"confidence":4},{"trial_n":55,"n_dots":3.35,"target":"left","response":"left","rt":1026.0000000001,"correct":true,"confidence":1},{"trial_n":56,"n_dots":3.25,"target":"left","response":"left","rt":715,"correct":true,"confidence":3},{"trial_n":57,"n_dots":3.25,"target":"left","response":"left","rt":760,"correct":true,"confidence":4},{"trial_n":58,"n_dots":3.15,"target":"left","response":"left","rt":596,"correct":true,"confidence":4},{"trial_n":59,"n_dots":3.15,"target":"left","response":"left","rt":993.00000000012,"correct":true,"confidence":1},{"trial_n":60,"n_dots":3.05,"target":"left","response":"left","rt":877,"correct":true,"confidence":5},{"trial_n":61,"n_dots":3.05,"target":"left","response":"left","rt":768,"correct":true,"confidence":4},{"trial_n":62,"n_dots":2.95,"target":"right","response":"right","rt":794,"correct":true,"confidence":3},{"trial_n":63,"n_dots":2.95,"target":"left","response":"left","rt":821,"correct":true,"confidence":1},{"trial_n":64,"n_dots":2.85,"target":"left","response":"left","rt":792,"correct":true,"confidence":4},{"trial_n":65,"n_dots":2.85,"target":"right","response":"right","rt":856,"correct":true,"confidence":4},{"trial_n":66,"n_dots":2.75,"target":"right","response":"right","rt":708,"correct":true,"confidence":1},{"trial_n":67,"n_dots":2.75,"target":"left","response":"right","rt":982,"correct":false,"confidence":2},{"trial_n":68,"n_dots":2.85,"target":"left","response":"left","rt":937,"correct":true,"confidence":3},{"trial_n":69,"n_dots":2.85,"target":"left","response":"left","rt":726,"correct":true,"confidence":3},{"trial_n":70,"n_dots":2.75,"target":"left","response":"right","rt":754,"correct":false,"confidence":1},{"trial_n":71,"n_dots":2.85,"target":"left","response":"left","rt":826,"correct":true,"confidence":4},{"trial_n":72,"n_dots":2.85,"target":"left","response":"left","rt":627,"correct":true,"confidence":3},{"trial_n":73,"n_dots":2.75,"target":"left","response":"left","rt":652,"correct":true,"confidence":4},{"trial_n":74,"n_dots":2.75,"target":"left","response":"left","rt":745,"correct":true,"confidence":1},{"trial_n":75,"n_dots":2.65,"target":"right","response":"right","rt":814.00000000012,"correct":true,"confidence":3},{"trial_n":76,"n_dots":2.65,"target":"left","response":"left","rt":798,"correct":true,"confidence":1},{"trial_n":77,"n_dots":2.55,"target":"left","response":"left","rt":708,"correct":true,"confidence":2},{"trial_n":78,"n_dots":2.55,"target":"left","response":"right","rt":996,"correct":false,"confidence":1},{"trial_n":79,"n_dots":2.65,"target":"left","response":"left","rt":850,"correct":true,"confidence":3},{"trial_n":80,"n_dots":2.65,"target":"right","response":"right","rt":717,"correct":true,"confidence":2},{"trial_n":81,"n_dots":2.55,"target":"left","response":"left","rt":933,"correct":true,"confidence":1},{"trial_n":82,"n_dots":2.55,"target":"right","response":"right","rt":626.00000000012,"correct":true,"confidence":3},{"trial_n":83,"n_dots":2.45,"target":"right","response":"left","rt":867,"correct":false,"confidence":3},{"trial_n":84,"n_dots":2.55,"target":"right","response":"left","rt":717,"correct":false,"confidence":3},{"trial_n":85,"n_dots":2.65,"target":"right","response":"right","rt":592.99999999988,"correct":true,"confidence":3},{"trial_n":86,"n_dots":2.65,"target":"left","response":"left","rt":832.00000000012,"correct":true,"confidence":4},{"trial_n":87,"n_dots":2.55,"target":"right","response":"right","rt":869.00000000012,"correct":true,"confidence":3},{"trial_n":88,"n_dots":2.55,"target":"right","response":"right","rt":831,"correct":true,"confidence":1},{"trial_n":89,"n_dots":2.45,"target":"right","response":"right","rt":667,"correct":true,"confidence":4},{"trial_n":90,"n_dots":2.45,"target":"right","response":"left","rt":1558,"correct":false,"confidence":2},{"trial_n":91,"n_dots":2.55,"target":"right","response":"right","rt":908,"correct":true,"confidence":3},{"trial_n":92,"n_dots":2.55,"target":"right","response":"left","rt":770,"correct":false,"confidence":1},{"trial_n":93,"n_dots":2.65,"target":"right","response":"left","rt":904,"correct":false,"confidence":1},{"trial_n":94,"n_dots":2.75,"target":"right","response":"left","rt":728,"correct":false,"confidence":2},{"trial_n":95,"n_dots":2.85,"target":"right","response":"right","rt":1205,"correct":true,"confidence":3},{"trial_n":96,"n_dots":2.85,"target":"left","response":"right","rt":806,"correct":false,"confidence":1},{"trial_n":97,"n_dots":2.95,"target":"right","response":"right","rt":637,"correct":true,"confidence":3},{"trial_n":98,"n_dots":2.95,"target":"right","response":"right","rt":664,"correct":true,"confidence":3},{"trial_n":99,"n_dots":2.85,"target":"left","response":"left","rt":575.99999999988,"correct":true,"confidence":3},{"trial_n":100,"n_dots":2.85,"target":"right","response":"right","rt":614,"correct":true,"confidence":5},{"trial_n":101,"n_dots":2.75,"target":"left","response":"right","rt":843,"correct":false,"confidence":1},{"trial_n":102,"n_dots":2.85,"target":"left","response":"left","rt":848,"correct":true,"confidence":3},{"trial_n":103,"n_dots":2.85,"target":"left","response":"left","rt":667,"correct":true,"confidence":3},{"trial_n":104,"n_dots":2.75,"target":"right","response":"right","rt":960,"correct":true,"confidence":3},{"trial_n":105,"n_dots":2.75,"target":"right","response":"right","rt":492,"correct":true,"confidence":1},{"trial_n":106,"n_dots":2.65,"target":"right","response":"right","rt":851,"correct":true,"confidence":3},{"trial_n":107,"n_dots":2.65,"target":"left","response":"left","rt":737,"correct":true,"confidence":4},{"trial_n":108,"n_dots":2.55,"target":"left","response":"right","rt":647,"correct":false,"confidence":2},{"trial_n":109,"n_dots":2.65,"target":"left","response":"left","rt":665,"correct":true,"confidence":4},{"trial_n":110,"n_dots":2.65,"target":"right","response":"right","rt":733,"correct":true,"confidence":1},{"trial_n":111,"n_dots":2.55,"target":"right","response":"right","rt":891,"correct":true,"confidence":1},{"trial_n":112,"n_dots":2.55,"target":"right","response":"right","rt":656,"correct":true,"confidence":3},{"trial_n":113,"n_dots":2.45,"target":"left","response":"left","rt":579.00000000012,"correct":true,"confidence":5},{"trial_n":114,"n_dots":2.45,"target":"left","response":"left","rt":787,"correct":true,"confidence":2},{"trial_n":115,"n_dots":2.35,"target":"right","response":"right","rt":712,"correct":true,"confidence":3},{"trial_n":116,"n_dots":2.35,"target":"left","response":"right","rt":706,"correct":false,"confidence":3},{"trial_n":117,"n_dots":2.45,"target":"left","response":"right","rt":958.99999999988,"correct":false,"confidence":1},{"trial_n":118,"n_dots":2.55,"target":"right","response":"left","rt":613.00000000012,"correct":false,"confidence":1},{"trial_n":119,"n_dots":2.65,"target":"left","response":"right","rt":908.99999999988,"correct":false,"confidence":3},{"trial_n":120,"n_dots":2.75,"target":"left","response":"right","rt":704,"correct":false,"confidence":3}]