[{"trial_n":1,"n_dots":4.25,"target":"left","response":"right","rt":8084.2000002861,"correct":false,"confidence":-1},{"trial_n":2,"n_dots":4.25,"target":"left","response":"left","rt":1263.8000001907,"correct":true,"confidence":-1},{"trial_n":3,"n_dots":4.25,"target":"right","response":"right","rt":831.69999980927,"correct":true,"confidence":-1},{"trial_n":4,"n_dots":3.85,"target":"right","response":"right","rt":1042,"correct":true,"confidence":-1},{"trial_n":5,"n_dots":3.85,"target":"left","response":"left","rt":1016.2000002861,"correct":true,"confidence":-1},{"trial_n":6,"n_dots":3.45,"target":"right","response":"right","rt":1201.1999998093,"correct":true,"confidence":-1},{"trial_n":7,"n_dots":3.45,"target":"left","response":"left","rt":1117.7999997139,"correct":true,"confidence":-1},{"trial_n":8,"n_dots":3.25,"target":"left","response":"left","rt":956.10000038147,"correct":true,"confidence":-1},{"trial_n":9,"n_dots":3.25,"target":"right","response":"right","rt":797.80000019073,"correct":true,"confidence":-1},{"trial_n":10,"n_dots":3.05,"target":"left","response":"left","rt":1022.9000000954,"correct":true,"confidence":-1},{"trial_n":11,"n_dots":3.05,"target":"right","response":"right","rt":758.19999980927,"correct":true,"confidence":-1},{"trial_n":12,"n_dots":2.85,"target":"left","response":"right","rt":784.30000019073,"correct":false,"confidence":-1},{"trial_n":13,"n_dots":2.95,"target":"right","response":"right","rt":478.09999990463,"correct":true,"confidence":-1},{"trial_n":14,"n_dots":2.95,"target":"right","response":"left","rt":2897.5,"correct":false,"confidence":-1},{"trial_n":15,"n_dots":3.05,"target":"right","response":"right","rt":709.80000019073,"correct":true,"confidence":-1},{"trial_n":16,"n_dots":3.05,"target":"left","response":"right","rt":696.39999961853,"correct":false,"confidence":-1},{"trial_n":17,"n_dots":3.15,"target":"right","response":"right","rt":481.2999997139,"correct":true,"confidence":-1},{"trial_n":18,"n_dots":3.15,"target":"right","response":"right","rt":919.7000002861,"correct":true,"confidence":-1},{"trial_n":19,"n_dots":3.05,"target":"right","response":"right","rt":415,"correct":true,"confidence":-1},{"trial_n":20,"n_dots":3.05,"target":"left","response":"right","rt":215.2999997139,"correct":false,"confidence":-1},{"trial_n":21,"n_dots":3.15,"target":"right","response":"right","rt":455.7999997139,"correct":true,"confidence":5},{"trial_n":22,"n_dots":3.15,"target":"right","response":"right","rt":1031.6999998093,"correct":true,"confidence":3},{"trial_n":23,"n_dots":3.05,"target":"right","response":"right","rt":270.89999961853,"correct":true,"confidence":3},{"trial_n":24,"n_dots":3.05,"target":"right","response":"left","rt":651.40000009537,"correct":false,"confidence":2},{"trial_n":25,"n_dots":3.15,"target":"left","response":"left","rt":415,"correct":true,"confidence":2},{"trial_n":26,"n_dots":3.15,"target":"left","response":"left","rt":921.7000002861,"correct":true,"confidence":4},{"trial_n":27,"n_dots":3.05,"target":"right","response":"left","rt":465.69999980927,"correct":false,"confidence":2},{"trial_n":28,"n_dots":3.15,"target":"right","response":"right","rt":1205.0999999046,"correct":true,"confidence":3},{"trial_n":29,"n_dots":3.15,"target":"right","response":"right","rt":576.90000009537,"correct":true,"confidence":5},{"trial_n":30,"n_dots":3.05,"target":"right","response":"right","rt":537.90000009537,"correct":true,"confidence":5},{"trial_n":31,"n_dots":3.05,"target":"right","response":"right","rt":319.5,"correct":true,"confidence":3},{"trial_n":32,"n_dots":2.95,"target":"left","response":"left","rt":290.2999997139,"correct":true,"confidence":3},{"trial_n":33,"n_dots":2.95,"target":"right","response":"left","rt":829.19999980927,"correct":false,"confidence":2},{"trial_n":34,"n_dots":3.05,"target":"left","response":"left","rt":391.40000009537,"correct":true,"confidence":3},{"trial_n":35,"n_dots":3.05,"target":"right","response":"right","rt":482.69999980927,"correct":true,"confidence":2},{"trial_n":36,"n_dots":2.95,"target":"right","response":"right","rt":303.80000019073,"correct":true,"confidence":4},{"trial_n":37,"n_dots":2.95,"target":"right","response":"right","rt":374.19999980927,"correct":true,"confidence":4},{"trial_n":38,"n_dots":2.85,"target":"right","response":"right","rt":590.40000009537,"correct":true,"confidence":3},{"trial_n":39,"n_dots":2.85,"target":"right","response":"left","rt":816,"correct":false,"confidence":3},{"trial_n":40,"n_dots":2.95,"target":"left","response":"right","rt":86.5,"correct":false,"confidence":4},{"trial_n":41,"n_dots":3.05,"target":"right","response":"right","rt":474.90000009537,"correct":true,"confidence":5},{"trial_n":42,"n_dots":3.05,"target":"right","response":"right","rt":260.89999961853,"correct":true,"confidence":5},{"trial_n":43,"n_dots":2.95,"target":"right","response":"right","rt":330.30000019073,"correct":true,"confidence":4},{"trial_n":44,"n_dots":2.95,"target":"right","response":"right","rt":410.7000002861,"correct":true,"confidence":3},{"trial_n":45,"n_dots":2.85,"target":"right","response":"right","rt":907.7999997139,"correct":true,"confidence":3},{"trial_n":46,"n_dots":2.85,"target":"left","response":"right","rt":284.80000019073,"correct":false,"confidence":4},{"trial_n":47,"n_dots":2.95,"target":"left","response":"left","rt":936.2000002861,"correct":true,"confidence":1},{"trial_n":48,"n_dots":2.95,"target":"left","response":"left","rt":1146.2999997139,"correct":true,"confidence":4},{"trial_n":49,"n_dots":2.85,"target":"left","response":"left","rt":372.80000019073,"correct":true,"confidence":3},{"trial_n":50,"n_dots":2.85,"target":"left","response":"left","rt":388.59999990463,"correct":true,"confidence":4},{"trial_n":51,"n_dots":2.75,"target":"left","response":"right","rt":117,"correct":false,"confidence":4},{"trial_n":52,"n_dots":2.85,"target":"left","response":"left","rt":610.80000019073,"correct":true,"confidence":5},{"trial_n":53,"n_dots":2.85,"target":"left","response":"left","rt":179.10000038147,"correct":true,"confidence":5},{"trial_n":54,"n_dots":2.75,"target":"left","response":"left","rt":390.19999980927,"correct":true,"confidence":5},{"trial_n":55,"n_dots":2.75,"target":"left","response":"left","rt":353.5,"correct":true,"confidence":4},{"trial_n":56,"n_dots":2.65,"target":"right","response":"right","rt":361.7999997139,"correct":true,"confidence":4},{"trial_n":57,"n_dots":2.65,"target":"right","response":"right","rt":323.5,"correct":true,"confidence":3},{"trial_n":58,"n_dots":2.55,"target":"left","response":"left","rt":492.5,"correct":true,"confidence":2},{"trial_n":59,"n_dots":2.55,"target":"right","response":"left","rt":649.09999990463,"correct":false,"confidence":2},{"trial_n":60,"n_dots":2.65,"target":"left","response":"left","rt":535.90000009537,"correct":true,"confidence":3},{"trial_n":61,"n_dots":2.65,"target":"left","response":"left","rt":279.5,"correct":true,"confidence":2},{"trial_n":62,"n_dots":2.55,"target":"left","response":"right","rt":43.5,"correct":false,"confidence":2},{"trial_n":63,"n_dots":2.65,"target":"right","response":"right","rt":128.5,"correct":true,"confidence":4},{"trial_n":64,"n_dots":2.65,"target":"left","response":"left","rt":462.5,"correct":true,"confidence":3},{"trial_n":65,"n_dots":2.55,"target":"left","response":"left","rt":278.90000009537,"correct":true,"confidence":3},{"trial_n":66,"n_dots":2.55,"target":"left","response":"left","rt":376.09999990463,"correct":true,"confidence":5},{"trial_n":67,"n_dots":2.45,"target":"left","response":"left","rt":400.7000002861,"correct":true,"confidence":4},{"trial_n":68,"n_dots":2.45,"target":"left","response":"left","rt":1355.8000001907,"correct":true,"confidence":4},{"trial_n":69,"n_dots":2.35,"target":"left","response":"right","rt":591.69999980927,"correct":false,"confidence":4},{"trial_n":70,"n_dots":2.45,"target":"right","response":"right","rt":457.89999961853,"correct":true,"confidence":3},{"trial_n":71,"n_dots":2.45,"target":"right","response":"left","rt":954.5,"correct":false,"confidence":2},{"trial_n":72,"n_dots":2.55,"target":"left","response":"left","rt":319.5,"correct":true,"confidence":4},{"trial_n":73,"n_dots":2.55,"target":"right","response":"left","rt":479.5,"correct":false,"confidence":2},{"trial_n":74,"n_dots":2.65,"target":"right","response":"right","rt":585.59999990463,"correct":true,"confidence":3},{"trial_n":75,"n_dots":2.65,"target":"left","response":"left","rt":403.80000019073,"correct":true,"confidence":2},{"trial_n":76,"n_dots":2.55,"target":"right","response":"left","rt":609.7000002861,"correct":false,"confidence":2},{"trial_n":77,"n_dots":2.65,"target":"right","response":"right","rt":812.69999980927,"correct":true,"confidence":1},{"trial_n":78,"n_dots":2.65,"target":"left","response":"right","rt":2242.4000000954,"correct":false,"confidence":2},{"trial_n":79,"n_dots":2.75,"target":"right","response":"right","rt":330.40000009537,"correct":true,"confidence":4},{"trial_n":80,"n_dots":2.75,"target":"left","response":"left","rt":430.89999961853,"correct":true,"confidence":3},{"trial_n":81,"n_dots":2.65,"target":"left","response":"right","rt":325.5,"correct":false,"confidence":3},{"trial_n":82,"n_dots":2.75,"target":"left","response":"right","rt":237.90000009537,"correct":false,"confidence":5},{"trial_n":83,"n_dots":2.85,"target":"left","response":"right","rt":1418.3000001907,"correct":false,"confidence":2},{"trial_n":84,"n_dots":2.95,"target":"right","response":"left","rt":732.90000009537,"correct":false,"confidence":2},{"trial_n":85,"n_dots":3.05,"target":"right","response":"right","rt":579.19999980927,"correct":true,"confidence":3},{"trial_n":86,"n_dots":3.05,"target":"left","response":"left","rt":404.60000038147,"correct":true,"confidence":4},{"trial_n":87,"n_dots":2.95,"target":"left","response":"left","rt":554.59999990463,"correct":true,"confidence":3},{"trial_n":88,"n_dots":2.95,"target":"left","response":"left","rt":613.59999990463,"correct":true,"confidence":3},{"trial_n":89,"n_dots":2.85,"target":"right","response":"right","rt":640.40000009537,"correct":true,"confidence":2},{"trial_n":90,"n_dots":2.85,"target":"right","response":"right","rt":433.59999990463,"correct":true,"confidence":2},{"trial_n":91,"n_dots":2.75,"target":"right","response":"left","rt":2363.7999997139,"correct":false,"confidence":2},{"trial_n":92,"n_dots":2.85,"target":"right","response":"right","rt":473.40000009537,"correct":true,"confidence":3},{"trial_n":93,"n_dots":2.85,"target":"left","response":"left","rt":492.7000002861,"correct":true,"confidence":2},{"trial_n":94,"n_dots":2.75,"target":"right","response":"left","rt":645.30000019073,"correct":false,"confidence":1},{"trial_n":95,"n_dots":2.85,"target":"left","response":"right","rt":951.89999961853,"correct":false,"confidence":2},{"trial_n":96,"n_dots":2.95,"target":"left","response":"left","rt":725.2999997139,"correct":true,"confidence":4},{"trial_n":97,"n_dots":2.95,"target":"left","response":"left","rt":576.5,"correct":true,"confidence":4},{"trial_n":98,"n_dots":2.85,"target":"right","response":"right","rt":295.90000009537,"correct":true,"confidence":4},{"trial_n":99,"n_dots":2.85,"target":"left","response":"right","rt":310.60000038147,"correct":false,"confidence":4},{"trial_n":100,"n_dots":2.95,"target":"left","response":"right","rt":1015.3000001907,"correct":false,"confidence":4},{"trial_n":101,"n_dots":3.05,"target":"right","response":"right","rt":348.90000009537,"correct":true,"confidence":3},{"trial_n":102,"n_dots":3.05,"target":"left","response":"left","rt":432.19999980927,"correct":true,"confidence":5},{"trial_n":103,"n_dots":2.95,"target":"right","response":"right","rt":539.90000009537,"correct":true,"confidence":4},{"trial_n":104,"n_dots":2.95,"target":"left","response":"left","rt":408.40000009537,"correct":true,"confidence":4},{"trial_n":105,"n_dots":2.85,"target":"left","response":"left","rt":326.40000009537,"correct":true,"confidence":4},{"trial_n":106,"n_dots":2.85,"target":"right","response":"left","rt":300.09999990463,"correct":false,"confidence":4},{"trial_n":107,"n_dots":2.95,"target":"right","response":"left","rt":418.7000002861,"correct":false,"confidence":2},{"trial_n":108,"n_dots":3.05,"target":"left","response":"right","rt":121.39999961853,"correct":false,"confidence":3},{"trial_n":109,"n_dots":3.15,"target":"right","response":"right","rt":596.89999961853,"correct":true,"confidence":3},{"trial_n":110,"n_dots":3.15,"target":"right","response":"right","rt":1322.3999996185,"correct":true,"confidence":3},{"trial_n":111,"n_dots":3.05,"target":"left","response":"left","rt":381.19999980927,"correct":true,"confidence":5},{"trial_n":112,"n_dots":3.05,"target":"right","response":"right","rt":351.30000019073,"correct":true,"confidence":4},{"trial_n":113,"n_dots":2.95,"target":"right","response":"right","rt":642,"correct":true,"confidence":3},{"trial_n":114,"n_dots":2.95,"target":"right","response":"right","rt":2521.2000002861,"correct":true,"confidence":3},{"trial_n":115,"n_dots":2.85,"target":"left","response":"left","rt":378.59999990463,"correct":true,"confidence":2},{"trial_n":116,"n_dots":2.85,"target":"left","response":"left","rt":680.7999997139,"correct":true,"confidence":2},{"trial_n":117,"n_dots":2.75,"target":"left","response":"left","rt":1440.8999996185,"correct":true,"confidence":2},{"trial_n":118,"n_dots":2.75,"target":"right","response":"right","rt":345.80000019073,"correct":true,"confidence":4},{"trial_n":119,"n_dots":2.65,"target":"left","response":"left","rt":497.2000002861,"correct":true,"confidence":3},{"trial_n":120,"n_dots":2.65,"target":"left","response":"left","rt":457.09999990463,"correct":true,"confidence":2}]