[{"trial_n":1,"span":8,"encoder":"40323626","distractor":"70323626","target":"present","response":"present","rt":"4344.099999994","correct":true,"confidence":-1},{"trial_n":2,"span":8,"encoder":"81075483","distractor":"85075483","target":"present","response":"present","rt":"2375.8000000119","correct":true,"confidence":-1},{"trial_n":3,"span":10,"encoder":"3229744684","distractor":"3269744684","target":"absent","response":"present","rt":"3407.7999999821","correct":false,"confidence":-1},{"trial_n":4,"span":8,"encoder":"40723673","distractor":"80723673","target":"absent","response":"absent","rt":"1584.900000006","correct":true,"confidence":-1},{"trial_n":5,"span":8,"encoder":"74888839","distractor":"74388839","target":"present","response":"present","rt":"1624.1999999881","correct":true,"confidence":-1},{"trial_n":6,"span":10,"encoder":"8522287364","distractor":"8022287364","target":"absent","response":"present","rt":"3236.1999999881","correct":false,"confidence":-1},{"trial_n":7,"span":8,"encoder":"42688470","distractor":"42638470","target":"present","response":"present","rt":"1393.8999999762","correct":true,"confidence":-1},{"trial_n":8,"span":8,"encoder":"36047168","distractor":"36067168","target":"absent","response":"absent","rt":"3090.7999999821","correct":true,"confidence":-1},{"trial_n":9,"span":10,"encoder":"7612038147","distractor":"7612030147","target":"present","response":"present","rt":"3605","correct":true,"confidence":-1},{"trial_n":10,"span":10,"encoder":"6808955391","distractor":"6878955391","target":"present","response":"absent","rt":"1483.2999999821","correct":false,"confidence":-1},{"trial_n":11,"span":8,"encoder":"11603172","distractor":"11903172","target":"absent","response":"present","rt":"1696.099999994","correct":false,"confidence":-1},{"trial_n":12,"span":7,"encoder":"2628934","distractor":"2628834","target":"absent","response":"absent","rt":"2318.2000000179","correct":true,"confidence":-1},{"trial_n":13,"span":7,"encoder":"2093311","distractor":"2093318","target":"absent","response":"absent","rt":"1959.099999994","correct":true,"confidence":-1},{"trial_n":14,"span":8,"encoder":"67839520","distractor":"67839590","target":"absent","response":"absent","rt":"2088.8000000119","correct":true,"confidence":-1},{"trial_n":15,"span":8,"encoder":"69414408","distractor":"69464408","target":"present","response":"present","rt":"1426.6999999881","correct":true,"confidence":-1},{"trial_n":16,"span":9,"encoder":"570085170","distractor":"570085100","target":"absent","response":"present","rt":"2474.1999999881","correct":false,"confidence":-1},{"trial_n":17,"span":8,"encoder":"22310519","distractor":"22360519","target":"present","response":"absent","rt":"2396.099999994","correct":false,"confidence":-1},{"trial_n":18,"span":7,"encoder":"2433151","distractor":"2435151","target":"absent","response":"absent","rt":"1915.3999999762","correct":true,"confidence":-1},{"trial_n":19,"span":7,"encoder":"0168881","distractor":"7168881","target":"present","response":"present","rt":"996","correct":true,"confidence":-1},{"trial_n":20,"span":8,"encoder":"30755213","distractor":"37755213","target":"present","response":"present","rt":"1024.5","correct":true,"confidence":-1},{"trial_n":21,"span":8,"encoder":"65233840","distractor":"75233840","target":"absent","response":"absent","rt":"2989.2000000179","correct":true,"confidence":5},{"trial_n":22,"span":9,"encoder":"736916370","distractor":"706916370","target":"present","response":"present","rt":"5026.599999994","correct":true,"confidence":3},{"trial_n":23,"span":9,"encoder":"727236389","distractor":"727236386","target":"absent","response":"present","rt":"3263.6999999881","correct":false,"confidence":4},{"trial_n":24,"span":8,"encoder":"61367007","distractor":"61307007","target":"present","response":"present","rt":"2944","correct":true,"confidence":5},{"trial_n":25,"span":8,"encoder":"31002374","distractor":"31002370","target":"absent","response":"absent","rt":"1747.900000006","correct":true,"confidence":5},{"trial_n":26,"span":9,"encoder":"609539634","distractor":"639539634","target":"present","response":"present","rt":"5958.3000000119","correct":true,"confidence":4},{"trial_n":27,"span":9,"encoder":"206391380","distractor":"216391380","target":"present","response":"present","rt":"6451.5","correct":true,"confidence":3},{"trial_n":28,"span":10,"encoder":"2279671940","distractor":"2279641940","target":"present","response":"present","rt":"3986.099999994","correct":true,"confidence":4},{"trial_n":29,"span":10,"encoder":"3972439296","distractor":"3902439296","target":"absent","response":"absent","rt":"2442.3999999762","correct":true,"confidence":3},{"trial_n":30,"span":11,"encoder":"79928628729","distractor":"79528628729","target":"absent","response":"present","rt":"3270.400000006","correct":false,"confidence":4},{"trial_n":31,"span":10,"encoder":"5447048334","distractor":"5447048344","target":"present","response":"absent","rt":"2725","correct":false,"confidence":4},{"trial_n":32,"span":9,"encoder":"354374660","distractor":"754374660","target":"present","response":"present","rt":"2999.599999994","correct":true,"confidence":5},{"trial_n":33,"span":9,"encoder":"944756046","distractor":"944756546","target":"present","response":"present","rt":"3722.599999994","correct":true,"confidence":4},{"trial_n":34,"span":10,"encoder":"2590857343","distractor":"2590857313","target":"absent","response":"absent","rt":"2013.900000006","correct":true,"confidence":5},{"trial_n":35,"span":10,"encoder":"8338422447","distractor":"8338422441","target":"absent","response":"absent","rt":"3617.599999994","correct":true,"confidence":2},{"trial_n":36,"span":11,"encoder":"07545292939","distractor":"07555292939","target":"present","response":"absent","rt":"4428.5","correct":false,"confidence":2},{"trial_n":37,"span":10,"encoder":"4998799538","distractor":"2998799538","target":"absent","response":"present","rt":"2774.5","correct":false,"confidence":3},{"trial_n":38,"span":9,"encoder":"893068621","distractor":"293068621","target":"absent","response":"present","rt":"5543.1999999881","correct":false,"confidence":4},{"trial_n":39,"span":8,"encoder":"38965439","distractor":"38965429","target":"absent","response":"absent","rt":"3255.3999999762","correct":true,"confidence":5},{"trial_n":40,"span":8,"encoder":"53752767","distractor":"53753767","target":"absent","response":"absent","rt":"3014.8999999762","correct":true,"confidence":4},{"trial_n":41,"span":9,"encoder":"212980799","distractor":"212980795","target":"present","response":"present","rt":"5404.7000000179","correct":true,"confidence":4},{"trial_n":42,"span":9,"encoder":"506691584","distractor":"506621584","target":"present","response":"present","rt":"3687","correct":true,"confidence":3},{"trial_n":43,"span":10,"encoder":"8566971991","distractor":"8566971999","target":"present","response":"present","rt":"5357.1999999881","correct":true,"confidence":4},{"trial_n":44,"span":10,"encoder":"5205748567","distractor":"5205748967","target":"present","response":"present","rt":"3893.599999994","correct":true,"confidence":3},{"trial_n":45,"span":11,"encoder":"42152984808","distractor":"42102984808","target":"present","response":"present","rt":"1985.5","correct":true,"confidence":2},{"trial_n":46,"span":11,"encoder":"46170514058","distractor":"46170574058","target":"absent","response":"present","rt":"5310","correct":false,"confidence":4},{"trial_n":47,"span":10,"encoder":"1256080676","distractor":"5256080676","target":"present","response":"present","rt":"4071.1999999881","correct":true,"confidence":4},{"trial_n":48,"span":10,"encoder":"3849886754","distractor":"1849886754","target":"present","response":"absent","rt":"5566","correct":false,"confidence":2},{"trial_n":49,"span":9,"encoder":"859492038","distractor":"859292038","target":"present","response":"absent","rt":"6407.7999999821","correct":false,"confidence":4},{"trial_n":50,"span":8,"encoder":"10430160","distractor":"10450160","target":"absent","response":"present","rt":"3010.900000006","correct":false,"confidence":4},{"trial_n":51,"span":7,"encoder":"0029163","distractor":"0229163","target":"absent","response":"absent","rt":"2903.400000006","correct":true,"confidence":5},{"trial_n":52,"span":7,"encoder":"5614908","distractor":"5614708","target":"absent","response":"present","rt":"3568.2999999821","correct":false,"confidence":5},{"trial_n":53,"span":6,"encoder":"198427","distractor":"190427","target":"present","response":"present","rt":"2551.5","correct":true,"confidence":5},{"trial_n":54,"span":6,"encoder":"758619","distractor":"758614","target":"present","response":"absent","rt":"3932.8999999762","correct":false,"confidence":5},{"trial_n":55,"span":5,"encoder":"16074","distractor":"16014","target":"absent","response":"present","rt":"4742.2999999821","correct":false,"confidence":3},{"trial_n":56,"span":4,"encoder":"0230","distractor":"0730","target":"absent","response":"absent","rt":"1438.8999999762","correct":true,"confidence":5},{"trial_n":57,"span":4,"encoder":"3883","distractor":"9883","target":"absent","response":"absent","rt":"1192.5","correct":true,"confidence":5},{"trial_n":58,"span":5,"encoder":"90568","distractor":"10568","target":"absent","response":"absent","rt":"1684.1999999881","correct":true,"confidence":5},{"trial_n":59,"span":5,"encoder":"93970","distractor":"93930","target":"present","response":"present","rt":"2764.7000000179","correct":true,"confidence":5},{"trial_n":60,"span":6,"encoder":"435427","distractor":"435627","target":"present","response":"present","rt":"2267.599999994","correct":true,"confidence":5},{"trial_n":61,"span":6,"encoder":"713341","distractor":"743341","target":"absent","response":"present","rt":"4240.1999999881","correct":false,"confidence":3},{"trial_n":62,"span":5,"encoder":"14347","distractor":"14367","target":"absent","response":"absent","rt":"1711.5","correct":true,"confidence":5},{"trial_n":63,"span":5,"encoder":"12832","distractor":"12839","target":"present","response":"present","rt":"2151.900000006","correct":true,"confidence":5},{"trial_n":64,"span":6,"encoder":"817186","distractor":"917186","target":"absent","response":"absent","rt":"1059.6999999881","correct":true,"confidence":5},{"trial_n":65,"span":6,"encoder":"667072","distractor":"667012","target":"present","response":"present","rt":"1823.2000000179","correct":true,"confidence":5},{"trial_n":66,"span":7,"encoder":"2222004","distractor":"2722004","target":"absent","response":"absent","rt":"3308.7999999821","correct":true,"confidence":4},{"trial_n":67,"span":7,"encoder":"2070634","distractor":"2070664","target":"present","response":"present","rt":"4173.6999999881","correct":true,"confidence":4},{"trial_n":68,"span":8,"encoder":"17506743","distractor":"17501743","target":"absent","response":"absent","rt":"2532.2999999821","correct":true,"confidence":3},{"trial_n":69,"span":8,"encoder":"99428231","distractor":"99228231","target":"present","response":"absent","rt":"2497.400000006","correct":false,"confidence":1},{"trial_n":70,"span":7,"encoder":"3851322","distractor":"3851328","target":"present","response":"absent","rt":"2931.5","correct":false,"confidence":4},{"trial_n":71,"span":8,"encoder":"38618306","distractor":"28618306","target":"present","response":"present","rt":"1346.400000006","correct":true,"confidence":-1},{"trial_n":72,"span":8,"encoder":"77277786","distractor":"77277686","target":"present","response":"present","rt":"2344.3999999762","correct":true,"confidence":-1},{"trial_n":73,"span":9,"encoder":"057022292","distractor":"057032292","target":"absent","response":"present","rt":"2807.7999999821","correct":false,"confidence":-1},{"trial_n":74,"span":8,"encoder":"83231526","distractor":"83231586","target":"absent","response":"absent","rt":"3184.1000000238","correct":true,"confidence":-1},{"trial_n":75,"span":8,"encoder":"48732098","distractor":"48132098","target":"present","response":"present","rt":"6128.900000006","correct":true,"confidence":-1},{"trial_n":76,"span":9,"encoder":"456510945","distractor":"456510545","target":"absent","response":"absent","rt":"2589.6999999881","correct":true,"confidence":-1},{"trial_n":77,"span":9,"encoder":"015559979","distractor":"015559479","target":"absent","response":"absent","rt":"2809.400000006","correct":true,"confidence":-1},{"trial_n":78,"span":10,"encoder":"7090880377","distractor":"7090820377","target":"present","response":"absent","rt":"1577.2999999821","correct":false,"confidence":-1},{"trial_n":79,"span":9,"encoder":"557683928","distractor":"557683228","target":"absent","response":"absent","rt":"1367.1999999881","correct":true,"confidence":-1},{"trial_n":80,"span":9,"encoder":"159096158","distractor":"153096158","target":"absent","response":"present","rt":"5955","correct":false,"confidence":-1},{"trial_n":81,"span":8,"encoder":"78219630","distractor":"78119630","target":"absent","response":"absent","rt":"1180.2999999821","correct":true,"confidence":-1},{"trial_n":82,"span":8,"encoder":"37356656","distractor":"37356606","target":"present","response":"present","rt":"1190.5","correct":true,"confidence":-1},{"trial_n":83,"span":9,"encoder":"626028008","distractor":"626028088","target":"absent","response":"absent","rt":"1832.1000000238","correct":true,"confidence":-1},{"trial_n":84,"span":9,"encoder":"101360506","distractor":"101360556","target":"present","response":"present","rt":"1474.8000000119","correct":true,"confidence":-1},{"trial_n":85,"span":10,"encoder":"7926291681","distractor":"7906291681","target":"absent","response":"absent","rt":"2542.099999994","correct":true,"confidence":-1},{"trial_n":86,"span":10,"encoder":"5831008184","distractor":"5831008186","target":"present","response":"present","rt":"1010.1999999881","correct":true,"confidence":-1},{"trial_n":87,"span":11,"encoder":"04665727444","distractor":"04665757444","target":"absent","response":"present","rt":"4291.1999999881","correct":false,"confidence":-1},{"trial_n":88,"span":10,"encoder":"4280979778","distractor":"4380979778","target":"present","response":"absent","rt":"3089","correct":false,"confidence":-1},{"trial_n":89,"span":9,"encoder":"027701852","distractor":"027702852","target":"absent","response":"present","rt":"2627.2999999821","correct":false,"confidence":-1},{"trial_n":90,"span":8,"encoder":"88392592","distractor":"83392592","target":"absent","response":"absent","rt":"3979.3000000119","correct":true,"confidence":-1},{"trial_n":91,"span":8,"encoder":"69931596","distractor":"63931596","target":"present","response":"present","rt":"3678.599999994","correct":true,"confidence":4},{"trial_n":92,"span":9,"encoder":"905379418","distractor":"205379418","target":"present","response":"present","rt":"2010.099999994","correct":true,"confidence":5},{"trial_n":93,"span":9,"encoder":"234578852","distractor":"634578852","target":"absent","response":"absent","rt":"3629","correct":true,"confidence":5},{"trial_n":94,"span":10,"encoder":"6645392020","distractor":"6645292020","target":"present","response":"absent","rt":"4461.599999994","correct":false,"confidence":3},{"trial_n":95,"span":9,"encoder":"197353595","distractor":"897353595","target":"absent","response":"absent","rt":"2431.2999999821","correct":true,"confidence":5},{"trial_n":96,"span":9,"encoder":"301280343","distractor":"301280643","target":"present","response":"present","rt":"5001.400000006","correct":true,"confidence":2},{"trial_n":97,"span":10,"encoder":"6960538749","distractor":"6460538749","target":"present","response":"absent","rt":"2050.6000000238","correct":false,"confidence":1},{"trial_n":98,"span":9,"encoder":"580182900","distractor":"580192900","target":"present","response":"absent","rt":"7787.3999999762","correct":false,"confidence":3},{"trial_n":99,"span":8,"encoder":"75752616","distractor":"75722616","target":"present","response":"present","rt":"1895.1999999881","correct":true,"confidence":5},{"trial_n":100,"span":8,"encoder":"78751584","distractor":"70751584","target":"absent","response":"absent","rt":"3848.6999999881","correct":true,"confidence":3},{"trial_n":101,"span":9,"encoder":"312315019","distractor":"352315019","target":"present","response":"present","rt":"7014.7999999821","correct":true,"confidence":2},{"trial_n":102,"span":9,"encoder":"609184982","distractor":"639184982","target":"present","response":"absent","rt":"5896.2000000179","correct":false,"confidence":3},{"trial_n":103,"span":8,"encoder":"56824602","distractor":"56824612","target":"absent","response":"absent","rt":"6053.099999994","correct":true,"confidence":4},{"trial_n":104,"span":8,"encoder":"24243977","distractor":"24543977","target":"present","response":"present","rt":"6485.900000006","correct":true,"confidence":5},{"trial_n":105,"span":9,"encoder":"184228343","distractor":"184278343","target":"present","response":"present","rt":"2342.900000006","correct":true,"confidence":4},{"trial_n":106,"span":9,"encoder":"365036290","distractor":"365038290","target":"absent","response":"present","rt":"1887.099999994","correct":false,"confidence":2},{"trial_n":107,"span":8,"encoder":"31234426","distractor":"31244426","target":"absent","response":"absent","rt":"5583.6999999881","correct":true,"confidence":4},{"trial_n":108,"span":8,"encoder":"92079447","distractor":"92679447","target":"present","response":"present","rt":"3090.1999999881","correct":true,"confidence":5},{"trial_n":109,"span":9,"encoder":"730965460","distractor":"730965461","target":"absent","response":"absent","rt":"1804.3999999762","correct":true,"confidence":5},{"trial_n":110,"span":9,"encoder":"431203263","distractor":"431203363","target":"absent","response":"absent","rt":"4059.7999999821","correct":true,"confidence":4},{"trial_n":111,"span":10,"encoder":"5962758192","distractor":"5992758192","target":"absent","response":"absent","rt":"2879","correct":true,"confidence":5},{"trial_n":112,"span":10,"encoder":"9493871728","distractor":"5493871728","target":"absent","response":"absent","rt":"4248","correct":true,"confidence":5},{"trial_n":113,"span":11,"encoder":"69322007929","distractor":"69322007969","target":"absent","response":"present","rt":"11019.699999988","correct":false,"confidence":3},{"trial_n":114,"span":10,"encoder":"4420730667","distractor":"4320730667","target":"absent","response":"absent","rt":"6421.8000000119","correct":true,"confidence":3},{"trial_n":115,"span":10,"encoder":"7273507760","distractor":"7273547760","target":"absent","response":"present","rt":"7329.900000006","correct":false,"confidence":3},{"trial_n":116,"span":9,"encoder":"533266843","distractor":"533286843","target":"absent","response":"absent","rt":"7074.6999999881","correct":true,"confidence":2},{"trial_n":117,"span":9,"encoder":"025034887","distractor":"025934887","target":"present","response":"present","rt":"8687.7999999821","correct":true,"confidence":1},{"trial_n":118,"span":10,"encoder":"4252327455","distractor":"7252327455","target":"absent","response":"absent","rt":"3417.900000006","correct":true,"confidence":3},{"trial_n":119,"span":10,"encoder":"5824546181","distractor":"9824546181","target":"absent","response":"absent","rt":"2828.1999999881","correct":true,"confidence":4},{"trial_n":120,"span":11,"encoder":"50826183933","distractor":"10826183933","target":"absent","response":"absent","rt":"1573","correct":true,"confidence":5},{"trial_n":121,"span":11,"encoder":"06755788568","distractor":"06755788562","target":"present","response":"present","rt":"1832.099999994","correct":true,"confidence":5},{"trial_n":122,"span":12,"encoder":"603211641450","distractor":"603213641450","target":"absent","response":"absent","rt":"3525.099999994","correct":true,"confidence":4},{"trial_n":123,"span":12,"encoder":"510103334857","distractor":"510103314857","target":"absent","response":"present","rt":"6196.400000006","correct":false,"confidence":3},{"trial_n":124,"span":11,"encoder":"32140579080","distractor":"32140579680","target":"present","response":"present","rt":"4803.2000000179","correct":true,"confidence":4},{"trial_n":125,"span":11,"encoder":"74657966329","distractor":"54657966329","target":"present","response":"present","rt":"7054.5","correct":true,"confidence":4},{"trial_n":126,"span":12,"encoder":"280356689933","distractor":"280356689939","target":"absent","response":"absent","rt":"1975.400000006","correct":true,"confidence":3},{"trial_n":127,"span":12,"encoder":"767621737970","distractor":"767621736970","target":"present","response":"absent","rt":"5686.2000000179","correct":false,"confidence":2},{"trial_n":128,"span":11,"encoder":"90180736915","distractor":"90180736914","target":"present","response":"present","rt":"747.5","correct":true,"confidence":5},{"trial_n":129,"span":11,"encoder":"32797456817","distractor":"32997456817","target":"present","response":"present","rt":"2336.400000006","correct":true,"confidence":4},{"trial_n":130,"span":12,"encoder":"097264052160","distractor":"097260052160","target":"present","response":"present","rt":"3471.8000000119","correct":true,"confidence":4},{"trial_n":131,"span":12,"encoder":"548244516412","distractor":"548244716412","target":"present","response":"absent","rt":"2766.1999999881","correct":false,"confidence":1},{"trial_n":132,"span":11,"encoder":"36911810312","distractor":"36971810312","target":"present","response":"present","rt":"3741.3000000119","correct":true,"confidence":4},{"trial_n":133,"span":11,"encoder":"82944164979","distractor":"82904164979","target":"absent","response":"absent","rt":"4806.400000006","correct":true,"confidence":3},{"trial_n":134,"span":12,"encoder":"337196283733","distractor":"337196283333","target":"present","response":"present","rt":"3184.2999999821","correct":true,"confidence":4},{"trial_n":135,"span":12,"encoder":"000937959311","distractor":"000937959371","target":"present","response":"absent","rt":"1719.599999994","correct":false,"confidence":2},{"trial_n":136,"span":11,"encoder":"79824340971","distractor":"29824340971","target":"present","response":"present","rt":"2636","correct":true,"confidence":3},{"trial_n":137,"span":11,"encoder":"22202040118","distractor":"22201040118","target":"present","response":"absent","rt":"6870.400000006","correct":false,"confidence":3},{"trial_n":138,"span":10,"encoder":"8798409656","distractor":"8798409606","target":"present","response":"present","rt":"2517.5","correct":true,"confidence":4},{"trial_n":139,"span":10,"encoder":"3307377795","distractor":"3307177795","target":"present","response":"present","rt":"6005.2000000179","correct":true,"confidence":3},{"trial_n":140,"span":11,"encoder":"37065802275","distractor":"37265802275","target":"absent","response":"present","rt":"4841.1999999881","correct":false,"confidence":2}]