[{"trial_n":1,"n_dots":4.25,"target":"right","response":"left","rt":2260,"correct":false,"confidence":-1},{"trial_n":2,"n_dots":4.25,"target":"left","response":"left","rt":1085,"correct":true,"confidence":-1},{"trial_n":3,"n_dots":4.25,"target":"right","response":"right","rt":833,"correct":true,"confidence":-1},{"trial_n":4,"n_dots":3.85,"target":"right","response":"left","rt":1190,"correct":false,"confidence":-1},{"trial_n":5,"n_dots":4.25,"target":"left","response":"left","rt":397.00000000003,"correct":true,"confidence":-1},{"trial_n":6,"n_dots":4.25,"target":"right","response":"right","rt":344,"correct":true,"confidence":-1},{"trial_n":7,"n_dots":3.85,"target":"right","response":"right","rt":342.99999999997,"correct":true,"confidence":-1},{"trial_n":8,"n_dots":3.85,"target":"right","response":"right","rt":725,"correct":true,"confidence":-1},{"trial_n":9,"n_dots":3.65,"target":"right","response":"right","rt":426.00000000003,"correct":true,"confidence":-1},{"trial_n":10,"n_dots":3.65,"target":"right","response":"right","rt":286,"correct":true,"confidence":-1},{"trial_n":11,"n_dots":3.45,"target":"left","response":"left","rt":264.00000000003,"correct":true,"confidence":-1},{"trial_n":12,"n_dots":3.45,"target":"right","response":"right","rt":327,"correct":true,"confidence":-1},{"trial_n":13,"n_dots":3.35,"target":"left","response":"left","rt":307,"correct":true,"confidence":-1},{"trial_n":14,"n_dots":3.35,"target":"right","response":"left","rt":566,"correct":false,"confidence":-1},{"trial_n":15,"n_dots":3.45,"target":"left","response":"left","rt":260,"correct":true,"confidence":-1},{"trial_n":16,"n_dots":3.45,"target":"left","response":"left","rt":281.99999999994,"correct":true,"confidence":-1},{"trial_n":17,"n_dots":3.35,"target":"right","response":"right","rt":264,"correct":true,"confidence":-1},{"trial_n":18,"n_dots":3.35,"target":"right","response":"right","rt":307,"correct":true,"confidence":-1},{"trial_n":19,"n_dots":3.25,"target":"right","response":"right","rt":204,"correct":true,"confidence":-1},{"trial_n":20,"n_dots":3.25,"target":"left","response":"left","rt":2047,"correct":true,"confidence":-1},{"trial_n":21,"n_dots":3.15,"target":"left","response":"left","rt":314,"correct":true,"confidence":3},{"trial_n":22,"n_dots":3.15,"target":"left","response":"left","rt":973,"correct":true,"confidence":3},{"trial_n":23,"n_dots":3.05,"target":"right","response":"right","rt":832,"correct":true,"confidence":2},{"trial_n":24,"n_dots":3.05,"target":"left","response":"right","rt":2255,"correct":false,"confidence":2},{"trial_n":25,"n_dots":3.15,"target":"left","response":"right","rt":1245,"correct":false,"confidence":3},{"trial_n":26,"n_dots":3.25,"target":"right","response":"right","rt":754,"correct":true,"confidence":3},{"trial_n":27,"n_dots":3.25,"target":"left","response":"left","rt":831,"correct":true,"confidence":3},{"trial_n":28,"n_dots":3.15,"target":"left","response":"left","rt":1338,"correct":true,"confidence":4},{"trial_n":29,"n_dots":3.15,"target":"left","response":"left","rt":360,"correct":true,"confidence":3},{"trial_n":30,"n_dots":3.05,"target":"left","response":"left","rt":949.00000000006,"correct":true,"confidence":3},{"trial_n":31,"n_dots":3.05,"target":"left","response":"right","rt":517,"correct":false,"confidence":3},{"trial_n":32,"n_dots":3.15,"target":"left","response":"left","rt":371,"correct":true,"confidence":3},{"trial_n":33,"n_dots":3.15,"target":"right","response":"right","rt":787,"correct":true,"confidence":3},{"trial_n":34,"n_dots":3.05,"target":"left","response":"left","rt":461,"correct":true,"confidence":3},{"trial_n":35,"n_dots":3.05,"target":"right","response":"right","rt":1037.9999999999,"correct":true,"confidence":3},{"trial_n":36,"n_dots":2.95,"target":"right","response":"left","rt":1534,"correct":false,"confidence":3},{"trial_n":37,"n_dots":3.05,"target":"left","response":"right","rt":1105,"correct":false,"confidence":3},{"trial_n":38,"n_dots":3.15,"target":"right","response":"right","rt":2044,"correct":true,"confidence":3},{"trial_n":39,"n_dots":3.15,"target":"right","response":"right","rt":1643.9999999999,"correct":true,"confidence":3},{"trial_n":40,"n_dots":3.05,"target":"left","response":"left","rt":653,"correct":true,"confidence":3},{"trial_n":41,"n_dots":3.05,"target":"left","response":"left","rt":1282.0000000001,"correct":true,"confidence":3},{"trial_n":42,"n_dots":2.95,"target":"left","response":"right","rt":1277,"correct":false,"confidence":4},{"trial_n":43,"n_dots":3.05,"target":"left","response":"left","rt":1449,"correct":true,"confidence":3},{"trial_n":44,"n_dots":3.05,"target":"right","response":"right","rt":2132,"correct":true,"confidence":3},{"trial_n":45,"n_dots":2.95,"target":"right","response":"right","rt":1253,"correct":true,"confidence":3},{"trial_n":46,"n_dots":2.95,"target":"right","response":"right","rt":899,"correct":true,"confidence":3},{"trial_n":47,"n_dots":2.85,"target":"left","response":"right","rt":3227,"correct":false,"confidence":4},{"trial_n":48,"n_dots":2.95,"target":"left","response":"left","rt":1958,"correct":true,"confidence":1},{"trial_n":49,"n_dots":2.95,"target":"left","response":"right","rt":1836,"correct":false,"confidence":3},{"trial_n":50,"n_dots":3.05,"target":"right","response":"right","rt":1119,"correct":true,"confidence":4},{"trial_n":51,"n_dots":3.05,"target":"right","response":"right","rt":1081,"correct":true,"confidence":4},{"trial_n":52,"n_dots":2.95,"target":"right","response":"right","rt":1064,"correct":true,"confidence":3},{"trial_n":53,"n_dots":2.95,"target":"left","response":"left","rt":979.00000000006,"correct":true,"confidence":3},{"trial_n":54,"n_dots":2.85,"target":"right","response":"right","rt":824.00000000006,"correct":true,"confidence":4},{"trial_n":55,"n_dots":2.85,"target":"left","response":"left","rt":992,"correct":true,"confidence":3},{"trial_n":56,"n_dots":2.75,"target":"right","response":"right","rt":2108.9999999999,"correct":true,"confidence":3},{"trial_n":57,"n_dots":2.75,"target":"right","response":"right","rt":2222,"correct":true,"confidence":3},{"trial_n":58,"n_dots":2.65,"target":"left","response":"left","rt":594,"correct":true,"confidence":2},{"trial_n":59,"n_dots":2.65,"target":"left","response":"right","rt":422.99999999994,"correct":false,"confidence":3},{"trial_n":60,"n_dots":2.75,"target":"right","response":"right","rt":539,"correct":true,"confidence":3},{"trial_n":61,"n_dots":2.75,"target":"left","response":"left","rt":475,"correct":true,"confidence":2},{"trial_n":62,"n_dots":2.65,"target":"left","response":"right","rt":773,"correct":false,"confidence":2},{"trial_n":63,"n_dots":2.75,"target":"left","response":"right","rt":714,"correct":false,"confidence":3},{"trial_n":64,"n_dots":2.85,"target":"right","response":"left","rt":527,"correct":false,"confidence":2},{"trial_n":65,"n_dots":2.95,"target":"left","response":"left","rt":562,"correct":true,"confidence":3},{"trial_n":66,"n_dots":2.95,"target":"right","response":"right","rt":478,"correct":true,"confidence":3},{"trial_n":67,"n_dots":2.85,"target":"left","response":"left","rt":504,"correct":true,"confidence":3},{"trial_n":68,"n_dots":2.85,"target":"left","response":"left","rt":439,"correct":true,"confidence":4},{"trial_n":69,"n_dots":2.75,"target":"left","response":"left","rt":421,"correct":true,"confidence":3},{"trial_n":70,"n_dots":2.75,"target":"left","response":"left","rt":455,"correct":true,"confidence":3},{"trial_n":71,"n_dots":2.65,"target":"left","response":"left","rt":765,"correct":true,"confidence":4},{"trial_n":72,"n_dots":2.65,"target":"left","response":"left","rt":431,"correct":true,"confidence":3},{"trial_n":73,"n_dots":2.55,"target":"right","response":"right","rt":895.99999999994,"correct":true,"confidence":2},{"trial_n":74,"n_dots":2.55,"target":"left","response":"left","rt":386,"correct":true,"confidence":3},{"trial_n":75,"n_dots":2.45,"target":"right","response":"right","rt":561.99999999994,"correct":true,"confidence":3},{"trial_n":76,"n_dots":2.45,"target":"right","response":"left","rt":477,"correct":false,"confidence":2},{"trial_n":77,"n_dots":2.55,"target":"right","response":"right","rt":546,"correct":true,"confidence":1},{"trial_n":78,"n_dots":2.55,"target":"right","response":"left","rt":741,"correct":false,"confidence":3},{"trial_n":79,"n_dots":2.65,"target":"right","response":"left","rt":571.00000000006,"correct":false,"confidence":3},{"trial_n":80,"n_dots":2.75,"target":"right","response":"left","rt":561.00000000006,"correct":false,"confidence":3},{"trial_n":81,"n_dots":2.85,"target":"right","response":"left","rt":712,"correct":false,"confidence":3},{"trial_n":82,"n_dots":2.95,"target":"left","response":"left","rt":516,"correct":true,"confidence":3},{"trial_n":83,"n_dots":2.95,"target":"right","response":"right","rt":525,"correct":true,"confidence":2},{"trial_n":84,"n_dots":2.85,"target":"left","response":"right","rt":1025,"correct":false,"confidence":1},{"trial_n":85,"n_dots":2.95,"target":"left","response":"right","rt":521,"correct":false,"confidence":1},{"trial_n":86,"n_dots":3.05,"target":"right","response":"left","rt":414,"correct":false,"confidence":2},{"trial_n":87,"n_dots":3.15,"target":"left","response":"left","rt":382,"correct":true,"confidence":2},{"trial_n":88,"n_dots":3.15,"target":"left","response":"right","rt":441.00000000012,"correct":false,"confidence":3},{"trial_n":89,"n_dots":3.25,"target":"right","response":"left","rt":398,"correct":false,"confidence":2},{"trial_n":90,"n_dots":3.35,"target":"left","response":"left","rt":384,"correct":true,"confidence":4},{"trial_n":91,"n_dots":3.35,"target":"left","response":"left","rt":4456,"correct":true,"confidence":1},{"trial_n":92,"n_dots":3.25,"target":"left","response":"left","rt":1379,"correct":true,"confidence":3},{"trial_n":93,"n_dots":3.25,"target":"right","response":"left","rt":516.00000000012,"correct":false,"confidence":2},{"trial_n":94,"n_dots":3.35,"target":"left","response":"left","rt":461,"correct":true,"confidence":3},{"trial_n":95,"n_dots":3.35,"target":"right","response":"right","rt":361,"correct":true,"confidence":3},{"trial_n":96,"n_dots":3.25,"target":"right","response":"right","rt":360,"correct":true,"confidence":1},{"trial_n":97,"n_dots":3.25,"target":"right","response":"right","rt":504,"correct":true,"confidence":4},{"trial_n":98,"n_dots":3.15,"target":"right","response":"left","rt":619,"correct":false,"confidence":4},{"trial_n":99,"n_dots":3.25,"target":"right","response":"right","rt":852,"correct":true,"confidence":2},{"trial_n":100,"n_dots":3.25,"target":"right","response":"right","rt":430.99999999988,"correct":true,"confidence":4},{"trial_n":101,"n_dots":3.15,"target":"left","response":"left","rt":518,"correct":true,"confidence":3},{"trial_n":102,"n_dots":3.15,"target":"right","response":"left","rt":442,"correct":false,"confidence":4},{"trial_n":103,"n_dots":3.25,"target":"left","response":"right","rt":434,"correct":false,"confidence":3},{"trial_n":104,"n_dots":3.35,"target":"right","response":"right","rt":398,"correct":true,"confidence":3},{"trial_n":105,"n_dots":3.35,"target":"right","response":"right","rt":1061.0000000001,"correct":true,"confidence":3},{"trial_n":106,"n_dots":3.25,"target":"right","response":"right","rt":444,"correct":true,"confidence":1},{"trial_n":107,"n_dots":3.25,"target":"right","response":"left","rt":468,"correct":false,"confidence":3},{"trial_n":108,"n_dots":3.35,"target":"right","response":"right","rt":432,"correct":true,"confidence":4},{"trial_n":109,"n_dots":3.35,"target":"right","response":"right","rt":397.00000000012,"correct":true,"confidence":4},{"trial_n":110,"n_dots":3.25,"target":"left","response":"left","rt":389,"correct":true,"confidence":4},{"trial_n":111,"n_dots":3.25,"target":"left","response":"left","rt":401,"correct":true,"confidence":4},{"trial_n":112,"n_dots":3.15,"target":"right","response":"right","rt":571,"correct":true,"confidence":4},{"trial_n":113,"n_dots":3.15,"target":"right","response":"left","rt":448,"correct":false,"confidence":4},{"trial_n":114,"n_dots":3.25,"target":"left","response":"left","rt":854.99999999988,"correct":true,"confidence":3},{"trial_n":115,"n_dots":3.25,"target":"right","response":"right","rt":388,"correct":true,"confidence":4},{"trial_n":116,"n_dots":3.15,"target":"left","response":"left","rt":454,"correct":true,"confidence":4},{"trial_n":117,"n_dots":3.15,"target":"left","response":"left","rt":392,"correct":true,"confidence":4},{"trial_n":118,"n_dots":3.05,"target":"left","response":"left","rt":439,"correct":true,"confidence":4},{"trial_n":119,"n_dots":3.05,"target":"left","response":"left","rt":440,"correct":true,"confidence":4},{"trial_n":120,"n_dots":2.95,"target":"left","response":"left","rt":440,"correct":true,"confidence":2}]