[{"trial_n":1,"n_dots":4.25,"target":"left","response":"right","rt":3779.7000000179,"correct":false,"confidence":-1},{"trial_n":2,"n_dots":4.25,"target":"right","response":"right","rt":645.90000000596,"correct":true,"confidence":-1},{"trial_n":3,"n_dots":4.25,"target":"left","response":"left","rt":150.90000000596,"correct":true,"confidence":-1},{"trial_n":4,"n_dots":3.85,"target":"right","response":"left","rt":374.39999997616,"correct":false,"confidence":-1},{"trial_n":5,"n_dots":4.25,"target":"left","response":"left","rt":58.40000000596,"correct":true,"confidence":-1},{"trial_n":6,"n_dots":4.25,"target":"left","response":"left","rt":416.29999998212,"correct":true,"confidence":-1},{"trial_n":7,"n_dots":3.85,"target":"right","response":"right","rt":268,"correct":true,"confidence":-1},{"trial_n":8,"n_dots":3.85,"target":"right","response":"right","rt":397.40000000596,"correct":true,"confidence":-1},{"trial_n":9,"n_dots":3.65,"target":"left","response":"left","rt":115,"correct":true,"confidence":-1},{"trial_n":10,"n_dots":3.65,"target":"right","response":"left","rt":404,"correct":false,"confidence":-1},{"trial_n":11,"n_dots":3.85,"target":"left","response":"left","rt":174.30000001192,"correct":true,"confidence":-1},{"trial_n":12,"n_dots":3.85,"target":"left","response":"left","rt":26.899999976158,"correct":true,"confidence":-1},{"trial_n":13,"n_dots":3.75,"target":"left","response":"left","rt":445.80000001192,"correct":true,"confidence":-1},{"trial_n":14,"n_dots":3.75,"target":"right","response":"right","rt":371.89999997616,"correct":true,"confidence":-1},{"trial_n":15,"n_dots":3.65,"target":"left","response":"left","rt":460.79999998212,"correct":true,"confidence":-1},{"trial_n":16,"n_dots":3.65,"target":"left","response":"left","rt":38.5,"correct":true,"confidence":-1},{"trial_n":17,"n_dots":3.55,"target":"right","response":"right","rt":429.20000001788,"correct":true,"confidence":-1},{"trial_n":18,"n_dots":3.55,"target":"right","response":"left","rt":36.5,"correct":false,"confidence":-1},{"trial_n":19,"n_dots":3.65,"target":"left","response":"left","rt":396.90000000596,"correct":true,"confidence":-1},{"trial_n":20,"n_dots":3.65,"target":"left","response":"left","rt":52.5,"correct":true,"confidence":-1},{"trial_n":21,"n_dots":3.55,"target":"left","response":"left","rt":21.5,"correct":true,"confidence":4},{"trial_n":22,"n_dots":3.55,"target":"right","response":"right","rt":1965.3000000119,"correct":true,"confidence":3},{"trial_n":23,"n_dots":3.45,"target":"left","response":"left","rt":4276.599999994,"correct":true,"confidence":4},{"trial_n":24,"n_dots":3.45,"target":"left","response":"left","rt":204.5,"correct":true,"confidence":3},{"trial_n":25,"n_dots":3.35,"target":"left","response":"left","rt":90.5,"correct":true,"confidence":4},{"trial_n":26,"n_dots":3.35,"target":"left","response":"left","rt":650.29999998212,"correct":true,"confidence":2},{"trial_n":27,"n_dots":3.25,"target":"right","response":"right","rt":680.90000000596,"correct":true,"confidence":4},{"trial_n":28,"n_dots":3.25,"target":"left","response":"left","rt":2803.5,"correct":true,"confidence":1},{"trial_n":29,"n_dots":3.15,"target":"right","response":"left","rt":1274.8000000119,"correct":false,"confidence":2},{"trial_n":30,"n_dots":3.25,"target":"right","response":"right","rt":549.70000001788,"correct":true,"confidence":4},{"trial_n":31,"n_dots":3.25,"target":"left","response":"left","rt":570.40000000596,"correct":true,"confidence":5},{"trial_n":32,"n_dots":3.15,"target":"left","response":"left","rt":402.29999998212,"correct":true,"confidence":4},{"trial_n":33,"n_dots":3.15,"target":"right","response":"left","rt":388.5,"correct":false,"confidence":3},{"trial_n":34,"n_dots":3.25,"target":"right","response":"left","rt":381,"correct":false,"confidence":3},{"trial_n":35,"n_dots":3.35,"target":"right","response":"right","rt":564.89999997616,"correct":true,"confidence":2},{"trial_n":36,"n_dots":3.35,"target":"right","response":"left","rt":601.80000001192,"correct":false,"confidence":2},{"trial_n":37,"n_dots":3.45,"target":"right","response":"right","rt":501,"correct":true,"confidence":4},{"trial_n":38,"n_dots":3.45,"target":"left","response":"left","rt":347.40000000596,"correct":true,"confidence":5},{"trial_n":39,"n_dots":3.35,"target":"right","response":"right","rt":546.90000000596,"correct":true,"confidence":4},{"trial_n":40,"n_dots":3.35,"target":"right","response":"right","rt":1473.7000000179,"correct":true,"confidence":3},{"trial_n":41,"n_dots":3.25,"target":"right","response":"left","rt":1480,"correct":false,"confidence":2},{"trial_n":42,"n_dots":3.35,"target":"left","response":"left","rt":473,"correct":true,"confidence":1},{"trial_n":43,"n_dots":3.35,"target":"left","response":"right","rt":1031.2999999821,"correct":false,"confidence":3},{"trial_n":44,"n_dots":3.45,"target":"right","response":"right","rt":534.5,"correct":true,"confidence":4},{"trial_n":45,"n_dots":3.45,"target":"left","response":"left","rt":435.69999998808,"correct":true,"confidence":5},{"trial_n":46,"n_dots":3.35,"target":"right","response":"left","rt":1360.7000000179,"correct":false,"confidence":5},{"trial_n":47,"n_dots":3.45,"target":"right","response":"right","rt":282.69999998808,"correct":true,"confidence":3},{"trial_n":48,"n_dots":3.45,"target":"left","response":"left","rt":312.40000000596,"correct":true,"confidence":4},{"trial_n":49,"n_dots":3.35,"target":"right","response":"left","rt":1662.3000000119,"correct":false,"confidence":2},{"trial_n":50,"n_dots":3.45,"target":"left","response":"left","rt":1657.8000000119,"correct":true,"confidence":3},{"trial_n":51,"n_dots":3.45,"target":"right","response":"left","rt":813.69999998808,"correct":false,"confidence":2},{"trial_n":52,"n_dots":3.55,"target":"right","response":"right","rt":1220.400000006,"correct":true,"confidence":1},{"trial_n":53,"n_dots":3.55,"target":"right","response":"right","rt":719.5,"correct":true,"confidence":3},{"trial_n":54,"n_dots":3.45,"target":"left","response":"left","rt":1092.6000000238,"correct":true,"confidence":2},{"trial_n":55,"n_dots":3.45,"target":"left","response":"right","rt":534.60000002384,"correct":false,"confidence":2},{"trial_n":56,"n_dots":3.55,"target":"right","response":"right","rt":393.29999998212,"correct":true,"confidence":1},{"trial_n":57,"n_dots":3.55,"target":"left","response":"left","rt":2160.7999999821,"correct":true,"confidence":1},{"trial_n":58,"n_dots":3.45,"target":"left","response":"right","rt":1669.900000006,"correct":false,"confidence":1},{"trial_n":59,"n_dots":3.55,"target":"left","response":"left","rt":1700.8000000119,"correct":true,"confidence":3},{"trial_n":60,"n_dots":3.55,"target":"right","response":"right","rt":388.60000002384,"correct":true,"confidence":4},{"trial_n":61,"n_dots":3.45,"target":"right","response":"right","rt":312.69999998808,"correct":true,"confidence":4},{"trial_n":62,"n_dots":3.45,"target":"right","response":"right","rt":367.60000002384,"correct":true,"confidence":4},{"trial_n":63,"n_dots":3.35,"target":"left","response":"left","rt":721.69999998808,"correct":true,"confidence":3},{"trial_n":64,"n_dots":3.35,"target":"right","response":"right","rt":256.80000001192,"correct":true,"confidence":5},{"trial_n":65,"n_dots":3.25,"target":"right","response":"right","rt":1044.400000006,"correct":true,"confidence":3},{"trial_n":66,"n_dots":3.25,"target":"left","response":"left","rt":607.5,"correct":true,"confidence":4},{"trial_n":67,"n_dots":3.15,"target":"left","response":"left","rt":528.69999998808,"correct":true,"confidence":3},{"trial_n":68,"n_dots":3.15,"target":"left","response":"left","rt":425.20000001788,"correct":true,"confidence":4},{"trial_n":69,"n_dots":3.05,"target":"left","response":"left","rt":355.90000000596,"correct":true,"confidence":4},{"trial_n":70,"n_dots":3.05,"target":"right","response":"right","rt":1846.1999999881,"correct":true,"confidence":3},{"trial_n":71,"n_dots":2.95,"target":"left","response":"left","rt":214.59999999404,"correct":true,"confidence":3},{"trial_n":72,"n_dots":2.95,"target":"left","response":"left","rt":1136.400000006,"correct":true,"confidence":2},{"trial_n":73,"n_dots":2.85,"target":"right","response":"right","rt":711.10000002384,"correct":true,"confidence":3},{"trial_n":74,"n_dots":2.85,"target":"left","response":"right","rt":1177.7000000179,"correct":false,"confidence":2},{"trial_n":75,"n_dots":2.95,"target":"left","response":"left","rt":348.79999998212,"correct":true,"confidence":3},{"trial_n":76,"n_dots":2.95,"target":"right","response":"right","rt":513.5,"correct":true,"confidence":3},{"trial_n":77,"n_dots":2.85,"target":"right","response":"left","rt":1506.2999999821,"correct":false,"confidence":3},{"trial_n":78,"n_dots":2.95,"target":"left","response":"right","rt":1206.3000000119,"correct":false,"confidence":5},{"trial_n":79,"n_dots":3.05,"target":"left","response":"left","rt":2382.900000006,"correct":true,"confidence":2},{"trial_n":80,"n_dots":3.05,"target":"left","response":"right","rt":522,"correct":false,"confidence":1},{"trial_n":81,"n_dots":3.15,"target":"left","response":"left","rt":432,"correct":true,"confidence":2},{"trial_n":82,"n_dots":3.15,"target":"right","response":"right","rt":754.70000001788,"correct":true,"confidence":5},{"trial_n":83,"n_dots":3.05,"target":"right","response":"right","rt":719.69999998808,"correct":true,"confidence":4},{"trial_n":84,"n_dots":3.05,"target":"left","response":"left","rt":301.39999997616,"correct":true,"confidence":4},{"trial_n":85,"n_dots":2.95,"target":"left","response":"left","rt":1361.5,"correct":true,"confidence":3},{"trial_n":86,"n_dots":2.95,"target":"right","response":"right","rt":326.29999998212,"correct":true,"confidence":2},{"trial_n":87,"n_dots":2.85,"target":"right","response":"left","rt":743,"correct":false,"confidence":5},{"trial_n":88,"n_dots":2.95,"target":"left","response":"left","rt":524.20000001788,"correct":true,"confidence":4},{"trial_n":89,"n_dots":2.95,"target":"left","response":"right","rt":387.90000000596,"correct":false,"confidence":2},{"trial_n":90,"n_dots":3.05,"target":"right","response":"right","rt":540.39999997616,"correct":true,"confidence":3},{"trial_n":91,"n_dots":3.05,"target":"left","response":"left","rt":267.59999999404,"correct":true,"confidence":5},{"trial_n":92,"n_dots":2.95,"target":"right","response":"left","rt":674.10000002384,"correct":false,"confidence":2},{"trial_n":93,"n_dots":3.05,"target":"right","response":"right","rt":971.30000001192,"correct":true,"confidence":2},{"trial_n":94,"n_dots":3.05,"target":"right","response":"right","rt":559.69999998808,"correct":true,"confidence":5},{"trial_n":95,"n_dots":2.95,"target":"right","response":"left","rt":1128.1999999881,"correct":false,"confidence":3},{"trial_n":96,"n_dots":3.05,"target":"right","response":"right","rt":359.5,"correct":true,"confidence":4},{"trial_n":97,"n_dots":3.05,"target":"right","response":"right","rt":1313.5,"correct":true,"confidence":2},{"trial_n":98,"n_dots":2.95,"target":"right","response":"right","rt":1016,"correct":true,"confidence":1},{"trial_n":99,"n_dots":2.95,"target":"left","response":"left","rt":736.19999998808,"correct":true,"confidence":3},{"trial_n":100,"n_dots":2.85,"target":"right","response":"right","rt":1635,"correct":true,"confidence":5},{"trial_n":101,"n_dots":2.85,"target":"right","response":"right","rt":819.79999998212,"correct":true,"confidence":4},{"trial_n":102,"n_dots":2.75,"target":"left","response":"right","rt":1184.2999999821,"correct":false,"confidence":3},{"trial_n":103,"n_dots":2.85,"target":"right","response":"left","rt":1679.2999999821,"correct":false,"confidence":2},{"trial_n":104,"n_dots":2.95,"target":"right","response":"right","rt":1136.5,"correct":true,"confidence":3},{"trial_n":105,"n_dots":2.95,"target":"left","response":"left","rt":284.60000002384,"correct":true,"confidence":3},{"trial_n":106,"n_dots":2.85,"target":"left","response":"left","rt":290.10000002384,"correct":true,"confidence":5},{"trial_n":107,"n_dots":2.85,"target":"left","response":"left","rt":593.30000001192,"correct":true,"confidence":4},{"trial_n":108,"n_dots":2.75,"target":"right","response":"right","rt":841.69999998808,"correct":true,"confidence":4},{"trial_n":109,"n_dots":2.75,"target":"left","response":"left","rt":607,"correct":true,"confidence":3},{"trial_n":110,"n_dots":2.65,"target":"right","response":"right","rt":449.90000000596,"correct":true,"confidence":4},{"trial_n":111,"n_dots":2.65,"target":"left","response":"left","rt":1717.599999994,"correct":true,"confidence":4},{"trial_n":112,"n_dots":2.55,"target":"right","response":"right","rt":228.30000001192,"correct":true,"confidence":3},{"trial_n":113,"n_dots":2.55,"target":"right","response":"left","rt":216.10000002384,"correct":false,"confidence":5},{"trial_n":114,"n_dots":2.65,"target":"right","response":"left","rt":936.19999998808,"correct":false,"confidence":2},{"trial_n":115,"n_dots":2.75,"target":"right","response":"right","rt":525.09999999404,"correct":true,"confidence":4},{"trial_n":116,"n_dots":2.75,"target":"right","response":"right","rt":454.40000000596,"correct":true,"confidence":3},{"trial_n":117,"n_dots":2.65,"target":"left","response":"right","rt":1531.7999999821,"correct":false,"confidence":2},{"trial_n":118,"n_dots":2.75,"target":"left","response":"left","rt":942.80000001192,"correct":true,"confidence":5},{"trial_n":119,"n_dots":2.75,"target":"left","response":"left","rt":1550.1999999881,"correct":true,"confidence":3},{"trial_n":120,"n_dots":2.65,"target":"left","response":"left","rt":674.80000001192,"correct":true,"confidence":3}]