[{"trial_n":1,"min":25,"max":230,"target":"present","response":"absent","rt":3074.6999998093,"correct":false,"confidence":-1},{"trial_n":2,"min":25,"max":230,"target":"present","response":"present","rt":926,"correct":true,"confidence":-1},{"trial_n":3,"min":25,"max":230,"target":"absent","response":"absent","rt":789.09999990463,"correct":true,"confidence":-1},{"trial_n":4,"min":41,"max":214,"target":"absent","response":"absent","rt":575.7000002861,"correct":true,"confidence":-1},{"trial_n":5,"min":41,"max":214,"target":"present","response":"present","rt":609.7000002861,"correct":true,"confidence":-1},{"trial_n":6,"min":57,"max":198,"target":"absent","response":"absent","rt":419.89999961853,"correct":true,"confidence":-1},{"trial_n":7,"min":57,"max":198,"target":"absent","response":"absent","rt":503,"correct":true,"confidence":-1},{"trial_n":8,"min":73,"max":182,"target":"present","response":"absent","rt":348,"correct":false,"confidence":-1},{"trial_n":9,"min":57,"max":198,"target":"present","response":"present","rt":682.09999990463,"correct":true,"confidence":-1},{"trial_n":10,"min":57,"max":198,"target":"absent","response":"absent","rt":992.69999980927,"correct":true,"confidence":-1},{"trial_n":11,"min":65,"max":190,"target":"present","response":"present","rt":502.89999961853,"correct":true,"confidence":-1},{"trial_n":12,"min":65,"max":190,"target":"present","response":"absent","rt":365,"correct":false,"confidence":-1},{"trial_n":13,"min":57,"max":198,"target":"absent","response":"absent","rt":588.69999980927,"correct":true,"confidence":-1},{"trial_n":14,"min":57,"max":198,"target":"present","response":"present","rt":436.09999990463,"correct":true,"confidence":-1},{"trial_n":15,"min":65,"max":190,"target":"absent","response":"absent","rt":716.80000019073,"correct":true,"confidence":-1},{"trial_n":16,"min":65,"max":190,"target":"present","response":"present","rt":422.90000009537,"correct":true,"confidence":-1},{"trial_n":17,"min":73,"max":182,"target":"absent","response":"absent","rt":588.09999990463,"correct":true,"confidence":-1},{"trial_n":18,"min":73,"max":182,"target":"absent","response":"absent","rt":412.89999961853,"correct":true,"confidence":-1},{"trial_n":19,"min":81,"max":174,"target":"present","response":"absent","rt":548.69999980927,"correct":false,"confidence":-1},{"trial_n":20,"min":73,"max":182,"target":"present","response":"present","rt":465,"correct":true,"confidence":-1},{"trial_n":21,"min":73,"max":182,"target":"absent","response":"present","rt":933.69999980927,"correct":false,"confidence":2},{"trial_n":22,"min":69,"max":186,"target":"absent","response":"absent","rt":1930.4000000954,"correct":true,"confidence":3},{"trial_n":23,"min":69,"max":186,"target":"present","response":"present","rt":785.09999990463,"correct":true,"confidence":5},{"trial_n":24,"min":73,"max":182,"target":"present","response":"present","rt":778.90000009537,"correct":true,"confidence":5},{"trial_n":25,"min":73,"max":182,"target":"present","response":"present","rt":1426.5999999046,"correct":true,"confidence":5},{"trial_n":26,"min":77,"max":178,"target":"absent","response":"absent","rt":1739.8000001907,"correct":true,"confidence":2},{"trial_n":27,"min":77,"max":178,"target":"present","response":"present","rt":1084.8000001907,"correct":true,"confidence":3},{"trial_n":28,"min":81,"max":174,"target":"absent","response":"present","rt":815.90000009537,"correct":false,"confidence":5},{"trial_n":29,"min":77,"max":178,"target":"present","response":"present","rt":1636.5,"correct":true,"confidence":3},{"trial_n":30,"min":77,"max":178,"target":"absent","response":"present","rt":1229.2000002861,"correct":false,"confidence":2},{"trial_n":31,"min":75,"max":180,"target":"absent","response":"absent","rt":725.2999997139,"correct":true,"confidence":4},{"trial_n":32,"min":75,"max":180,"target":"absent","response":"present","rt":1047.7000002861,"correct":false,"confidence":3},{"trial_n":33,"min":73,"max":182,"target":"absent","response":"present","rt":1596.5999999046,"correct":false,"confidence":3},{"trial_n":34,"min":71,"max":184,"target":"present","response":"absent","rt":1434.6000003815,"correct":false,"confidence":1},{"trial_n":35,"min":69,"max":186,"target":"absent","response":"present","rt":1583.4000000954,"correct":false,"confidence":2},{"trial_n":36,"min":67,"max":188,"target":"present","response":"present","rt":807.40000009537,"correct":true,"confidence":5},{"trial_n":37,"min":67,"max":188,"target":"absent","response":"absent","rt":924.90000009537,"correct":true,"confidence":4},{"trial_n":38,"min":69,"max":186,"target":"present","response":"present","rt":963.7999997139,"correct":true,"confidence":5},{"trial_n":39,"min":69,"max":186,"target":"absent","response":"absent","rt":751.40000009537,"correct":true,"confidence":3},{"trial_n":40,"min":71,"max":184,"target":"present","response":"present","rt":1206.5999999046,"correct":true,"confidence":4},{"trial_n":41,"min":71,"max":184,"target":"absent","response":"absent","rt":1002.4000000954,"correct":true,"confidence":1},{"trial_n":42,"min":72,"max":183,"target":"present","response":"absent","rt":5384.3000001907,"correct":false,"confidence":1},{"trial_n":43,"min":71,"max":184,"target":"absent","response":"present","rt":1496,"correct":false,"confidence":3},{"trial_n":44,"min":70,"max":185,"target":"absent","response":"present","rt":1421.8000001907,"correct":false,"confidence":2},{"trial_n":45,"min":69,"max":186,"target":"present","response":"absent","rt":894.90000009537,"correct":false,"confidence":4},{"trial_n":46,"min":68,"max":187,"target":"present","response":"present","rt":940.2999997139,"correct":true,"confidence":5},{"trial_n":47,"min":68,"max":187,"target":"present","response":"present","rt":1413.9000000954,"correct":true,"confidence":5},{"trial_n":48,"min":69,"max":186,"target":"present","response":"present","rt":1203.7999997139,"correct":true,"confidence":3},{"trial_n":49,"min":69,"max":186,"target":"absent","response":"absent","rt":596.7999997139,"correct":true,"confidence":4},{"trial_n":50,"min":70,"max":185,"target":"absent","response":"absent","rt":957.5,"correct":true,"confidence":5},{"trial_n":51,"min":70,"max":185,"target":"absent","response":"absent","rt":758.80000019073,"correct":true,"confidence":5},{"trial_n":52,"min":71,"max":184,"target":"present","response":"present","rt":803.5,"correct":true,"confidence":5},{"trial_n":53,"min":71,"max":184,"target":"absent","response":"present","rt":2207.9000000954,"correct":false,"confidence":4},{"trial_n":54,"min":70,"max":185,"target":"absent","response":"present","rt":1253.5999999046,"correct":false,"confidence":2},{"trial_n":55,"min":69,"max":186,"target":"present","response":"present","rt":750,"correct":true,"confidence":5},{"trial_n":56,"min":69,"max":186,"target":"present","response":"absent","rt":1200.4000000954,"correct":false,"confidence":3},{"trial_n":57,"min":68,"max":187,"target":"present","response":"present","rt":754.2999997139,"correct":true,"confidence":5},{"trial_n":58,"min":68,"max":187,"target":"present","response":"present","rt":777.40000009537,"correct":true,"confidence":5},{"trial_n":59,"min":69,"max":186,"target":"present","response":"present","rt":989.59999990463,"correct":true,"confidence":4},{"trial_n":60,"min":69,"max":186,"target":"present","response":"present","rt":2074.1999998093,"correct":true,"confidence":2},{"trial_n":61,"min":70,"max":185,"target":"present","response":"absent","rt":801.09999990463,"correct":false,"confidence":2},{"trial_n":62,"min":69,"max":186,"target":"absent","response":"absent","rt":557.09999990463,"correct":true,"confidence":5},{"trial_n":63,"min":69,"max":186,"target":"absent","response":"absent","rt":644.90000009537,"correct":true,"confidence":5},{"trial_n":64,"min":70,"max":185,"target":"absent","response":"absent","rt":730,"correct":true,"confidence":5},{"trial_n":65,"min":70,"max":185,"target":"present","response":"present","rt":624.5,"correct":true,"confidence":5},{"trial_n":66,"min":71,"max":184,"target":"present","response":"present","rt":792.60000038147,"correct":true,"confidence":5},{"trial_n":67,"min":71,"max":184,"target":"absent","response":"absent","rt":557,"correct":true,"confidence":4},{"trial_n":68,"min":72,"max":183,"target":"present","response":"present","rt":1139.2999997139,"correct":true,"confidence":4},{"trial_n":69,"min":72,"max":183,"target":"absent","response":"present","rt":1737.3000001907,"correct":false,"confidence":2},{"trial_n":70,"min":71,"max":184,"target":"absent","response":"absent","rt":442.09999990463,"correct":true,"confidence":5},{"trial_n":71,"min":41,"max":214,"target":"present","response":"present","rt":2460.5,"correct":true,"confidence":-1},{"trial_n":72,"min":41,"max":214,"target":"present","response":"present","rt":829.69999980927,"correct":true,"confidence":-1},{"trial_n":73,"min":57,"max":198,"target":"absent","response":"present","rt":1040.4000000954,"correct":false,"confidence":-1},{"trial_n":74,"min":41,"max":214,"target":"absent","response":"absent","rt":374.89999961853,"correct":true,"confidence":-1},{"trial_n":75,"min":41,"max":214,"target":"present","response":"present","rt":329.59999990463,"correct":true,"confidence":-1},{"trial_n":76,"min":57,"max":198,"target":"present","response":"present","rt":724.80000019073,"correct":true,"confidence":-1},{"trial_n":77,"min":57,"max":198,"target":"absent","response":"absent","rt":474.80000019073,"correct":true,"confidence":-1},{"trial_n":78,"min":73,"max":182,"target":"present","response":"present","rt":531.40000009537,"correct":true,"confidence":-1},{"trial_n":79,"min":73,"max":182,"target":"present","response":"present","rt":424.90000009537,"correct":true,"confidence":-1},{"trial_n":80,"min":89,"max":166,"target":"present","response":"present","rt":790.69999980927,"correct":true,"confidence":-1},{"trial_n":81,"min":89,"max":166,"target":"present","response":"present","rt":396.40000009537,"correct":true,"confidence":-1},{"trial_n":82,"min":97,"max":158,"target":"absent","response":"absent","rt":974.69999980927,"correct":true,"confidence":-1},{"trial_n":83,"min":97,"max":158,"target":"present","response":"present","rt":594.10000038147,"correct":true,"confidence":-1},{"trial_n":84,"min":105,"max":150,"target":"absent","response":"present","rt":573.59999990463,"correct":false,"confidence":-1},{"trial_n":85,"min":97,"max":158,"target":"absent","response":"present","rt":453.7000002861,"correct":false,"confidence":-1},{"trial_n":86,"min":89,"max":166,"target":"present","response":"absent","rt":301.90000009537,"correct":false,"confidence":-1},{"trial_n":87,"min":81,"max":174,"target":"present","response":"present","rt":386,"correct":true,"confidence":-1},{"trial_n":88,"min":81,"max":174,"target":"absent","response":"present","rt":475.7000002861,"correct":false,"confidence":-1},{"trial_n":89,"min":73,"max":182,"target":"present","response":"absent","rt":469.30000019073,"correct":false,"confidence":-1},{"trial_n":90,"min":65,"max":190,"target":"present","response":"absent","rt":448.30000019073,"correct":false,"confidence":-1},{"trial_n":91,"min":61,"max":194,"target":"present","response":"present","rt":378.40000009537,"correct":true,"confidence":5},{"trial_n":92,"min":61,"max":194,"target":"present","response":"present","rt":452.40000009537,"correct":true,"confidence":4},{"trial_n":93,"min":65,"max":190,"target":"absent","response":"absent","rt":447.40000009537,"correct":true,"confidence":5},{"trial_n":94,"min":65,"max":190,"target":"absent","response":"absent","rt":490.69999980927,"correct":true,"confidence":3},{"trial_n":95,"min":69,"max":186,"target":"absent","response":"absent","rt":923.80000019073,"correct":true,"confidence":5},{"trial_n":96,"min":69,"max":186,"target":"absent","response":"absent","rt":869.09999990463,"correct":true,"confidence":5},{"trial_n":97,"min":73,"max":182,"target":"present","response":"present","rt":1091.3999996185,"correct":true,"confidence":4},{"trial_n":98,"min":73,"max":182,"target":"present","response":"present","rt":499.59999990463,"correct":true,"confidence":5},{"trial_n":99,"min":77,"max":178,"target":"absent","response":"absent","rt":1199,"correct":true,"confidence":2},{"trial_n":100,"min":77,"max":178,"target":"absent","response":"absent","rt":777.90000009537,"correct":true,"confidence":3},{"trial_n":101,"min":79,"max":176,"target":"present","response":"present","rt":635.2000002861,"correct":true,"confidence":2},{"trial_n":102,"min":79,"max":176,"target":"absent","response":"present","rt":1115.5,"correct":false,"confidence":1},{"trial_n":103,"min":77,"max":178,"target":"present","response":"present","rt":788.2000002861,"correct":true,"confidence":2},{"trial_n":104,"min":77,"max":178,"target":"present","response":"present","rt":438.30000019073,"correct":true,"confidence":4},{"trial_n":105,"min":79,"max":176,"target":"present","response":"present","rt":359.2000002861,"correct":true,"confidence":4},{"trial_n":106,"min":79,"max":176,"target":"absent","response":"absent","rt":906.7000002861,"correct":true,"confidence":2},{"trial_n":107,"min":81,"max":174,"target":"absent","response":"present","rt":516.7999997139,"correct":false,"confidence":2},{"trial_n":108,"min":79,"max":176,"target":"absent","response":"present","rt":527.40000009537,"correct":false,"confidence":4},{"trial_n":109,"min":77,"max":178,"target":"absent","response":"absent","rt":750.7999997139,"correct":true,"confidence":2},{"trial_n":110,"min":77,"max":178,"target":"absent","response":"absent","rt":862.5,"correct":true,"confidence":5},{"trial_n":111,"min":78,"max":177,"target":"absent","response":"absent","rt":467.09999990463,"correct":true,"confidence":4},{"trial_n":112,"min":78,"max":177,"target":"present","response":"present","rt":316,"correct":true,"confidence":5},{"trial_n":113,"min":79,"max":176,"target":"present","response":"present","rt":382.10000038147,"correct":true,"confidence":4},{"trial_n":114,"min":79,"max":176,"target":"present","response":"present","rt":993.30000019073,"correct":true,"confidence":3},{"trial_n":115,"min":80,"max":175,"target":"absent","response":"absent","rt":592.90000009537,"correct":true,"confidence":2},{"trial_n":116,"min":80,"max":175,"target":"present","response":"present","rt":561.19999980927,"correct":true,"confidence":3},{"trial_n":117,"min":81,"max":174,"target":"absent","response":"absent","rt":534.19999980927,"correct":true,"confidence":5},{"trial_n":118,"min":81,"max":174,"target":"absent","response":"absent","rt":1002.0999999046,"correct":true,"confidence":5},{"trial_n":119,"min":82,"max":173,"target":"absent","response":"absent","rt":451.30000019073,"correct":true,"confidence":5},{"trial_n":120,"min":82,"max":173,"target":"present","response":"present","rt":309.7999997139,"correct":true,"confidence":5},{"trial_n":121,"min":83,"max":172,"target":"present","response":"present","rt":679.10000038147,"correct":true,"confidence":4},{"trial_n":122,"min":83,"max":172,"target":"absent","response":"present","rt":1769.0999999046,"correct":false,"confidence":1},{"trial_n":123,"min":82,"max":173,"target":"absent","response":"present","rt":822.19999980927,"correct":false,"confidence":2},{"trial_n":124,"min":81,"max":174,"target":"absent","response":"present","rt":572,"correct":false,"confidence":1},{"trial_n":125,"min":80,"max":175,"target":"absent","response":"absent","rt":526.60000038147,"correct":true,"confidence":1},{"trial_n":126,"min":80,"max":175,"target":"absent","response":"absent","rt":518.30000019073,"correct":true,"confidence":4},{"trial_n":127,"min":81,"max":174,"target":"present","response":"absent","rt":970,"correct":false,"confidence":1},{"trial_n":128,"min":80,"max":175,"target":"present","response":"present","rt":271.59999990463,"correct":true,"confidence":5},{"trial_n":129,"min":80,"max":175,"target":"present","response":"present","rt":690.59999990463,"correct":true,"confidence":4},{"trial_n":130,"min":81,"max":174,"target":"present","response":"present","rt":548.5,"correct":true,"confidence":3},{"trial_n":131,"min":81,"max":174,"target":"absent","response":"present","rt":484.7999997139,"correct":false,"confidence":2},{"trial_n":132,"min":80,"max":175,"target":"absent","response":"absent","rt":534.5,"correct":true,"confidence":1},{"trial_n":133,"min":80,"max":175,"target":"absent","response":"present","rt":799.30000019073,"correct":false,"confidence":1},{"trial_n":134,"min":79,"max":176,"target":"present","response":"present","rt":465.09999990463,"correct":true,"confidence":4},{"trial_n":135,"min":79,"max":176,"target":"present","response":"present","rt":415.39999961853,"correct":true,"confidence":4},{"trial_n":136,"min":80,"max":175,"target":"present","response":"present","rt":227,"correct":true,"confidence":5},{"trial_n":137,"min":80,"max":175,"target":"absent","response":"absent","rt":438.80000019073,"correct":true,"confidence":3},{"trial_n":138,"min":81,"max":174,"target":"absent","response":"absent","rt":951.5,"correct":true,"confidence":4},{"trial_n":139,"min":81,"max":174,"target":"present","response":"present","rt":387.7999997139,"correct":true,"confidence":4},{"trial_n":140,"min":82,"max":173,"target":"present","response":"present","rt":404.09999990463,"correct":true,"confidence":5}]