[{"trial_n":1,"min":25,"max":230,"target":"present","response":"present","rt":3951.3000000119,"correct":true,"confidence":-1},{"trial_n":2,"min":25,"max":230,"target":"present","response":"present","rt":1602.2999999821,"correct":true,"confidence":-1},{"trial_n":3,"min":41,"max":214,"target":"absent","response":"absent","rt":1681.599999994,"correct":true,"confidence":-1},{"trial_n":4,"min":41,"max":214,"target":"absent","response":"absent","rt":532.79999998212,"correct":true,"confidence":-1},{"trial_n":5,"min":57,"max":198,"target":"present","response":"present","rt":750.80000001192,"correct":true,"confidence":-1},{"trial_n":6,"min":57,"max":198,"target":"present","response":"present","rt":982.19999998808,"correct":true,"confidence":-1},{"trial_n":7,"min":73,"max":182,"target":"present","response":"absent","rt":1007.2999999821,"correct":false,"confidence":-1},{"trial_n":8,"min":57,"max":198,"target":"present","response":"present","rt":734.39999997616,"correct":true,"confidence":-1},{"trial_n":9,"min":57,"max":198,"target":"absent","response":"absent","rt":724.40000000596,"correct":true,"confidence":-1},{"trial_n":10,"min":73,"max":182,"target":"present","response":"present","rt":1107.1999999881,"correct":true,"confidence":-1},{"trial_n":11,"min":73,"max":182,"target":"present","response":"present","rt":735.70000001788,"correct":true,"confidence":-1},{"trial_n":12,"min":81,"max":174,"target":"absent","response":"absent","rt":645.90000000596,"correct":true,"confidence":-1},{"trial_n":13,"min":81,"max":174,"target":"present","response":"present","rt":692.40000000596,"correct":true,"confidence":-1},{"trial_n":14,"min":89,"max":166,"target":"absent","response":"absent","rt":3604.900000006,"correct":true,"confidence":-1},{"trial_n":15,"min":89,"max":166,"target":"present","response":"absent","rt":529.29999998212,"correct":false,"confidence":-1},{"trial_n":16,"min":81,"max":174,"target":"present","response":"present","rt":638,"correct":true,"confidence":-1},{"trial_n":17,"min":81,"max":174,"target":"present","response":"present","rt":422.90000000596,"correct":true,"confidence":-1},{"trial_n":18,"min":89,"max":166,"target":"present","response":"present","rt":693.5,"correct":true,"confidence":-1},{"trial_n":19,"min":89,"max":166,"target":"absent","response":"absent","rt":793.59999999404,"correct":true,"confidence":-1},{"trial_n":20,"min":97,"max":158,"target":"present","response":"present","rt":1287.099999994,"correct":true,"confidence":-1},{"trial_n":21,"min":97,"max":158,"target":"absent","response":"present","rt":760.79999998212,"correct":false,"confidence":4},{"trial_n":22,"min":93,"max":162,"target":"absent","response":"present","rt":810.5,"correct":false,"confidence":4},{"trial_n":23,"min":89,"max":166,"target":"present","response":"present","rt":483.5,"correct":true,"confidence":4},{"trial_n":24,"min":89,"max":166,"target":"absent","response":"present","rt":1970.099999994,"correct":false,"confidence":4},{"trial_n":25,"min":85,"max":170,"target":"absent","response":"absent","rt":2333.5,"correct":true,"confidence":3},{"trial_n":26,"min":85,"max":170,"target":"present","response":"present","rt":291.19999998808,"correct":true,"confidence":3},{"trial_n":27,"min":89,"max":166,"target":"present","response":"absent","rt":1218.900000006,"correct":false,"confidence":4},{"trial_n":28,"min":85,"max":170,"target":"absent","response":"present","rt":1780.3000000119,"correct":false,"confidence":3},{"trial_n":29,"min":81,"max":174,"target":"absent","response":"present","rt":1788.8000000119,"correct":false,"confidence":3},{"trial_n":30,"min":77,"max":178,"target":"absent","response":"present","rt":769.59999999404,"correct":false,"confidence":4},{"trial_n":31,"min":75,"max":180,"target":"present","response":"present","rt":1483.7000000179,"correct":true,"confidence":4},{"trial_n":32,"min":75,"max":180,"target":"present","response":"present","rt":412.59999999404,"correct":true,"confidence":5},{"trial_n":33,"min":77,"max":178,"target":"present","response":"present","rt":813.69999998808,"correct":true,"confidence":5},{"trial_n":34,"min":77,"max":178,"target":"absent","response":"absent","rt":1568.7000000179,"correct":true,"confidence":4},{"trial_n":35,"min":79,"max":176,"target":"present","response":"present","rt":641.40000000596,"correct":true,"confidence":4},{"trial_n":36,"min":79,"max":176,"target":"present","response":"present","rt":558.40000000596,"correct":true,"confidence":5},{"trial_n":37,"min":81,"max":174,"target":"present","response":"present","rt":1176.099999994,"correct":true,"confidence":4},{"trial_n":38,"min":81,"max":174,"target":"absent","response":"absent","rt":717.09999999404,"correct":true,"confidence":5},{"trial_n":39,"min":83,"max":172,"target":"present","response":"absent","rt":823,"correct":false,"confidence":5},{"trial_n":40,"min":81,"max":174,"target":"present","response":"present","rt":1265.8000000119,"correct":true,"confidence":4},{"trial_n":41,"min":81,"max":174,"target":"present","response":"present","rt":427.40000000596,"correct":true,"confidence":5},{"trial_n":42,"min":82,"max":173,"target":"absent","response":"absent","rt":525.90000000596,"correct":true,"confidence":5},{"trial_n":43,"min":82,"max":173,"target":"present","response":"absent","rt":543.79999998212,"correct":false,"confidence":5},{"trial_n":44,"min":81,"max":174,"target":"absent","response":"absent","rt":295.59999999404,"correct":true,"confidence":5},{"trial_n":45,"min":81,"max":174,"target":"present","response":"present","rt":553.40000000596,"correct":true,"confidence":5},{"trial_n":46,"min":82,"max":173,"target":"present","response":"present","rt":554.30000001192,"correct":true,"confidence":5},{"trial_n":47,"min":82,"max":173,"target":"absent","response":"absent","rt":351.19999998808,"correct":true,"confidence":5},{"trial_n":48,"min":83,"max":172,"target":"absent","response":"absent","rt":451.69999998808,"correct":true,"confidence":5},{"trial_n":49,"min":83,"max":172,"target":"absent","response":"absent","rt":253.09999999404,"correct":true,"confidence":5},{"trial_n":50,"min":84,"max":171,"target":"absent","response":"absent","rt":421.09999999404,"correct":true,"confidence":5},{"trial_n":51,"min":84,"max":171,"target":"absent","response":"absent","rt":423.59999999404,"correct":true,"confidence":5},{"trial_n":52,"min":85,"max":170,"target":"present","response":"present","rt":1905.099999994,"correct":true,"confidence":4},{"trial_n":53,"min":85,"max":170,"target":"absent","response":"absent","rt":444.40000000596,"correct":true,"confidence":5},{"trial_n":54,"min":86,"max":169,"target":"absent","response":"absent","rt":354.5,"correct":true,"confidence":5},{"trial_n":55,"min":86,"max":169,"target":"absent","response":"absent","rt":297.89999997616,"correct":true,"confidence":5},{"trial_n":56,"min":87,"max":168,"target":"present","response":"absent","rt":356,"correct":false,"confidence":5},{"trial_n":57,"min":86,"max":169,"target":"absent","response":"absent","rt":199.20000001788,"correct":true,"confidence":5},{"trial_n":58,"min":86,"max":169,"target":"present","response":"present","rt":914.19999998808,"correct":true,"confidence":5},{"trial_n":59,"min":87,"max":168,"target":"absent","response":"absent","rt":357,"correct":true,"confidence":5},{"trial_n":60,"min":87,"max":168,"target":"absent","response":"absent","rt":387.80000001192,"correct":true,"confidence":5},{"trial_n":61,"min":88,"max":167,"target":"absent","response":"absent","rt":536.30000001192,"correct":true,"confidence":5},{"trial_n":62,"min":88,"max":167,"target":"absent","response":"absent","rt":114.59999999404,"correct":true,"confidence":5},{"trial_n":63,"min":89,"max":166,"target":"absent","response":"absent","rt":338.40000000596,"correct":true,"confidence":5},{"trial_n":64,"min":89,"max":166,"target":"absent","response":"absent","rt":245.5,"correct":true,"confidence":5},{"trial_n":65,"min":90,"max":165,"target":"absent","response":"absent","rt":700.40000000596,"correct":true,"confidence":5},{"trial_n":66,"min":90,"max":165,"target":"present","response":"absent","rt":380.60000002384,"correct":false,"confidence":5},{"trial_n":67,"min":89,"max":166,"target":"present","response":"present","rt":958.5,"correct":true,"confidence":4},{"trial_n":68,"min":89,"max":166,"target":"present","response":"present","rt":3140.400000006,"correct":true,"confidence":3},{"trial_n":69,"min":90,"max":165,"target":"absent","response":"absent","rt":456.19999998808,"correct":true,"confidence":5},{"trial_n":70,"min":90,"max":165,"target":"present","response":"absent","rt":725.09999999404,"correct":false,"confidence":4},{"trial_n":71,"min":41,"max":214,"target":"present","response":"present","rt":3687.400000006,"correct":true,"confidence":-1},{"trial_n":72,"min":41,"max":214,"target":"present","response":"present","rt":1505.7000000179,"correct":true,"confidence":-1},{"trial_n":73,"min":57,"max":198,"target":"absent","response":"absent","rt":2271,"correct":true,"confidence":-1},{"trial_n":74,"min":57,"max":198,"target":"absent","response":"absent","rt":949.59999999404,"correct":true,"confidence":-1},{"trial_n":75,"min":73,"max":182,"target":"present","response":"present","rt":789.40000000596,"correct":true,"confidence":-1},{"trial_n":76,"min":73,"max":182,"target":"present","response":"present","rt":798,"correct":true,"confidence":-1},{"trial_n":77,"min":89,"max":166,"target":"present","response":"present","rt":573.69999998808,"correct":true,"confidence":-1},{"trial_n":78,"min":89,"max":166,"target":"present","response":"present","rt":764.29999998212,"correct":true,"confidence":-1},{"trial_n":79,"min":105,"max":150,"target":"absent","response":"present","rt":818.80000001192,"correct":false,"confidence":-1},{"trial_n":80,"min":89,"max":166,"target":"absent","response":"absent","rt":1244.5,"correct":true,"confidence":-1},{"trial_n":81,"min":89,"max":166,"target":"present","response":"present","rt":949.79999998212,"correct":true,"confidence":-1},{"trial_n":82,"min":97,"max":158,"target":"present","response":"absent","rt":972.09999999404,"correct":false,"confidence":-1},{"trial_n":83,"min":89,"max":166,"target":"present","response":"present","rt":1461.599999994,"correct":true,"confidence":-1},{"trial_n":84,"min":89,"max":166,"target":"absent","response":"absent","rt":1242.7999999821,"correct":true,"confidence":-1},{"trial_n":85,"min":97,"max":158,"target":"absent","response":"absent","rt":1660.5,"correct":true,"confidence":-1},{"trial_n":86,"min":97,"max":158,"target":"present","response":"present","rt":1315.3999999762,"correct":true,"confidence":-1},{"trial_n":87,"min":105,"max":150,"target":"present","response":"absent","rt":1348.2999999821,"correct":false,"confidence":-1},{"trial_n":88,"min":97,"max":158,"target":"present","response":"present","rt":1283.6999999881,"correct":true,"confidence":-1},{"trial_n":89,"min":97,"max":158,"target":"present","response":"present","rt":513.69999998808,"correct":true,"confidence":-1},{"trial_n":90,"min":105,"max":150,"target":"present","response":"present","rt":465,"correct":true,"confidence":-1},{"trial_n":91,"min":105,"max":150,"target":"present","response":"absent","rt":765.20000001788,"correct":false,"confidence":4},{"trial_n":92,"min":101,"max":154,"target":"absent","response":"present","rt":816.80000001192,"correct":false,"confidence":4},{"trial_n":93,"min":97,"max":158,"target":"absent","response":"present","rt":658.19999998808,"correct":false,"confidence":3},{"trial_n":94,"min":93,"max":162,"target":"absent","response":"present","rt":461.80000001192,"correct":false,"confidence":4},{"trial_n":95,"min":89,"max":166,"target":"absent","response":"present","rt":585.40000000596,"correct":false,"confidence":4},{"trial_n":96,"min":85,"max":170,"target":"present","response":"absent","rt":611.5,"correct":false,"confidence":4},{"trial_n":97,"min":81,"max":174,"target":"absent","response":"absent","rt":1160.7999999821,"correct":true,"confidence":5},{"trial_n":98,"min":81,"max":174,"target":"present","response":"present","rt":522.19999998808,"correct":true,"confidence":5},{"trial_n":99,"min":85,"max":170,"target":"absent","response":"present","rt":781.70000001788,"correct":false,"confidence":5},{"trial_n":100,"min":81,"max":174,"target":"absent","response":"absent","rt":674.90000000596,"correct":true,"confidence":5},{"trial_n":101,"min":81,"max":174,"target":"present","response":"present","rt":576,"correct":true,"confidence":4},{"trial_n":102,"min":83,"max":172,"target":"present","response":"present","rt":201.40000000596,"correct":true,"confidence":5},{"trial_n":103,"min":83,"max":172,"target":"present","response":"present","rt":265.40000000596,"correct":true,"confidence":5},{"trial_n":104,"min":85,"max":170,"target":"absent","response":"present","rt":1005.099999994,"correct":false,"confidence":4},{"trial_n":105,"min":83,"max":172,"target":"absent","response":"absent","rt":351,"correct":true,"confidence":5},{"trial_n":106,"min":83,"max":172,"target":"absent","response":"present","rt":496.59999999404,"correct":false,"confidence":4},{"trial_n":107,"min":81,"max":174,"target":"absent","response":"absent","rt":987.69999998808,"correct":true,"confidence":5},{"trial_n":108,"min":81,"max":174,"target":"present","response":"present","rt":201.59999999404,"correct":true,"confidence":5},{"trial_n":109,"min":83,"max":172,"target":"present","response":"present","rt":2019.6999999881,"correct":true,"confidence":2},{"trial_n":110,"min":83,"max":172,"target":"absent","response":"absent","rt":1053,"correct":true,"confidence":3},{"trial_n":111,"min":84,"max":171,"target":"present","response":"present","rt":367.20000001788,"correct":true,"confidence":4},{"trial_n":112,"min":84,"max":171,"target":"absent","response":"present","rt":852,"correct":false,"confidence":3},{"trial_n":113,"min":83,"max":172,"target":"present","response":"present","rt":206.59999999404,"correct":true,"confidence":5},{"trial_n":114,"min":83,"max":172,"target":"present","response":"present","rt":1671.599999994,"correct":true,"confidence":3},{"trial_n":115,"min":84,"max":171,"target":"absent","response":"absent","rt":580.59999999404,"correct":true,"confidence":5},{"trial_n":116,"min":84,"max":171,"target":"absent","response":"absent","rt":2033.099999994,"correct":true,"confidence":5},{"trial_n":117,"min":85,"max":170,"target":"present","response":"present","rt":212.40000000596,"correct":true,"confidence":5},{"trial_n":118,"min":85,"max":170,"target":"absent","response":"present","rt":1874.900000006,"correct":false,"confidence":4},{"trial_n":119,"min":84,"max":171,"target":"absent","response":"present","rt":1005.099999994,"correct":false,"confidence":4},{"trial_n":120,"min":83,"max":172,"target":"absent","response":"absent","rt":882.79999998212,"correct":true,"confidence":5},{"trial_n":121,"min":83,"max":172,"target":"absent","response":"absent","rt":586.5,"correct":true,"confidence":4},{"trial_n":122,"min":84,"max":171,"target":"present","response":"absent","rt":1131.6999999881,"correct":false,"confidence":4},{"trial_n":123,"min":83,"max":172,"target":"absent","response":"absent","rt":603.5,"correct":true,"confidence":4},{"trial_n":124,"min":83,"max":172,"target":"present","response":"absent","rt":514.19999998808,"correct":false,"confidence":4},{"trial_n":125,"min":82,"max":173,"target":"present","response":"present","rt":222.69999998808,"correct":true,"confidence":5},{"trial_n":126,"min":82,"max":173,"target":"present","response":"present","rt":167.80000001192,"correct":true,"confidence":5},{"trial_n":127,"min":83,"max":172,"target":"present","response":"absent","rt":455.80000001192,"correct":false,"confidence":4},{"trial_n":128,"min":82,"max":173,"target":"absent","response":"absent","rt":401.10000002384,"correct":true,"confidence":4},{"trial_n":129,"min":82,"max":173,"target":"present","response":"present","rt":142.90000000596,"correct":true,"confidence":5},{"trial_n":130,"min":83,"max":172,"target":"absent","response":"absent","rt":2076.8000000119,"correct":true,"confidence":3},{"trial_n":131,"min":83,"max":172,"target":"present","response":"present","rt":184.79999998212,"correct":true,"confidence":4},{"trial_n":132,"min":84,"max":171,"target":"present","response":"absent","rt":1398.5,"correct":false,"confidence":3},{"trial_n":133,"min":83,"max":172,"target":"absent","response":"absent","rt":812,"correct":true,"confidence":4},{"trial_n":134,"min":83,"max":172,"target":"absent","response":"present","rt":456.90000000596,"correct":false,"confidence":4},{"trial_n":135,"min":82,"max":173,"target":"absent","response":"absent","rt":381.30000001192,"correct":true,"confidence":5},{"trial_n":136,"min":82,"max":173,"target":"absent","response":"absent","rt":856.90000000596,"correct":true,"confidence":4},{"trial_n":137,"min":83,"max":172,"target":"absent","response":"absent","rt":1655.900000006,"correct":true,"confidence":4},{"trial_n":138,"min":83,"max":172,"target":"present","response":"present","rt":248.40000000596,"correct":true,"confidence":5},{"trial_n":139,"min":84,"max":171,"target":"present","response":"absent","rt":592.5,"correct":false,"confidence":5},{"trial_n":140,"min":83,"max":172,"target":"absent","response":"absent","rt":1753.7999999821,"correct":true,"confidence":3}]