[{"trial_n":1,"min":25,"max":230,"target":"present","response":"present","rt":4444,"correct":true,"confidence":-1},{"trial_n":2,"min":25,"max":230,"target":"present","response":"present","rt":715,"correct":true,"confidence":-1},{"trial_n":3,"min":41,"max":214,"target":"absent","response":"absent","rt":740,"correct":true,"confidence":-1},{"trial_n":4,"min":41,"max":214,"target":"absent","response":"absent","rt":382,"correct":true,"confidence":-1},{"trial_n":5,"min":57,"max":198,"target":"present","response":"present","rt":388,"correct":true,"confidence":-1},{"trial_n":6,"min":57,"max":198,"target":"absent","response":"absent","rt":344,"correct":true,"confidence":-1},{"trial_n":7,"min":73,"max":182,"target":"absent","response":"present","rt":309,"correct":false,"confidence":-1},{"trial_n":8,"min":57,"max":198,"target":"present","response":"absent","rt":635,"correct":false,"confidence":-1},{"trial_n":9,"min":41,"max":214,"target":"absent","response":"absent","rt":436,"correct":true,"confidence":-1},{"trial_n":10,"min":41,"max":214,"target":"present","response":"present","rt":337,"correct":true,"confidence":-1},{"trial_n":11,"min":49,"max":206,"target":"absent","response":"absent","rt":437,"correct":true,"confidence":-1},{"trial_n":12,"min":49,"max":206,"target":"absent","response":"absent","rt":336,"correct":true,"confidence":-1},{"trial_n":13,"min":57,"max":198,"target":"absent","response":"absent","rt":503,"correct":true,"confidence":-1},{"trial_n":14,"min":57,"max":198,"target":"absent","response":"absent","rt":303,"correct":true,"confidence":-1},{"trial_n":15,"min":65,"max":190,"target":"present","response":"present","rt":322,"correct":true,"confidence":-1},{"trial_n":16,"min":65,"max":190,"target":"present","response":"present","rt":290,"correct":true,"confidence":-1},{"trial_n":17,"min":73,"max":182,"target":"absent","response":"absent","rt":425.99999999999,"correct":true,"confidence":-1},{"trial_n":18,"min":73,"max":182,"target":"absent","response":"absent","rt":447,"correct":true,"confidence":-1},{"trial_n":19,"min":81,"max":174,"target":"absent","response":"absent","rt":292.00000000001,"correct":true,"confidence":-1},{"trial_n":20,"min":81,"max":174,"target":"absent","response":"absent","rt":190,"correct":true,"confidence":-1},{"trial_n":21,"min":85,"max":170,"target":"present","response":"absent","rt":483,"correct":false,"confidence":3},{"trial_n":22,"min":81,"max":174,"target":"present","response":"present","rt":456,"correct":true,"confidence":4},{"trial_n":23,"min":81,"max":174,"target":"absent","response":"absent","rt":671,"correct":true,"confidence":3},{"trial_n":24,"min":85,"max":170,"target":"absent","response":"absent","rt":838,"correct":true,"confidence":4},{"trial_n":25,"min":85,"max":170,"target":"present","response":"absent","rt":770,"correct":false,"confidence":4},{"trial_n":26,"min":81,"max":174,"target":"absent","response":"absent","rt":836,"correct":true,"confidence":4},{"trial_n":27,"min":81,"max":174,"target":"present","response":"present","rt":1190,"correct":true,"confidence":3},{"trial_n":28,"min":85,"max":170,"target":"present","response":"present","rt":813,"correct":true,"confidence":4},{"trial_n":29,"min":85,"max":170,"target":"present","response":"absent","rt":780,"correct":false,"confidence":4},{"trial_n":30,"min":81,"max":174,"target":"present","response":"present","rt":1115,"correct":true,"confidence":5},{"trial_n":31,"min":81,"max":174,"target":"present","response":"present","rt":994,"correct":true,"confidence":5},{"trial_n":32,"min":83,"max":172,"target":"present","response":"absent","rt":926,"correct":false,"confidence":3},{"trial_n":33,"min":81,"max":174,"target":"absent","response":"present","rt":889,"correct":false,"confidence":3},{"trial_n":34,"min":79,"max":176,"target":"present","response":"present","rt":748,"correct":true,"confidence":5},{"trial_n":35,"min":79,"max":176,"target":"present","response":"absent","rt":1607,"correct":false,"confidence":2},{"trial_n":36,"min":77,"max":178,"target":"present","response":"present","rt":665.99999999999,"correct":true,"confidence":5},{"trial_n":37,"min":77,"max":178,"target":"present","response":"absent","rt":911,"correct":false,"confidence":2},{"trial_n":38,"min":75,"max":180,"target":"present","response":"present","rt":790,"correct":true,"confidence":5},{"trial_n":39,"min":75,"max":180,"target":"absent","response":"absent","rt":890,"correct":true,"confidence":3},{"trial_n":40,"min":77,"max":178,"target":"present","response":"present","rt":738,"correct":true,"confidence":4},{"trial_n":41,"min":77,"max":178,"target":"present","response":"present","rt":700.00000000001,"correct":true,"confidence":5},{"trial_n":42,"min":78,"max":177,"target":"present","response":"absent","rt":697.00000000001,"correct":false,"confidence":2},{"trial_n":43,"min":77,"max":178,"target":"absent","response":"absent","rt":799.99999999999,"correct":true,"confidence":1},{"trial_n":44,"min":77,"max":178,"target":"present","response":"absent","rt":2320,"correct":false,"confidence":2},{"trial_n":45,"min":76,"max":179,"target":"absent","response":"absent","rt":1649,"correct":true,"confidence":1},{"trial_n":46,"min":76,"max":179,"target":"absent","response":"absent","rt":840,"correct":true,"confidence":4},{"trial_n":47,"min":77,"max":178,"target":"absent","response":"absent","rt":1133,"correct":true,"confidence":4},{"trial_n":48,"min":77,"max":178,"target":"absent","response":"absent","rt":1268,"correct":true,"confidence":3},{"trial_n":49,"min":78,"max":177,"target":"present","response":"present","rt":1274,"correct":true,"confidence":5},{"trial_n":50,"min":78,"max":177,"target":"absent","response":"present","rt":3144,"correct":false,"confidence":1},{"trial_n":51,"min":77,"max":178,"target":"present","response":"present","rt":2570,"correct":true,"confidence":4},{"trial_n":52,"min":77,"max":178,"target":"present","response":"absent","rt":805,"correct":false,"confidence":2},{"trial_n":53,"min":76,"max":179,"target":"absent","response":"absent","rt":1065,"correct":true,"confidence":2},{"trial_n":54,"min":76,"max":179,"target":"present","response":"present","rt":1171,"correct":true,"confidence":4},{"trial_n":55,"min":77,"max":178,"target":"present","response":"present","rt":1070,"correct":true,"confidence":4},{"trial_n":56,"min":77,"max":178,"target":"absent","response":"absent","rt":940,"correct":true,"confidence":2},{"trial_n":57,"min":78,"max":177,"target":"present","response":"present","rt":865.99999999997,"correct":true,"confidence":5},{"trial_n":58,"min":78,"max":177,"target":"absent","response":"absent","rt":1090,"correct":true,"confidence":3},{"trial_n":59,"min":79,"max":176,"target":"absent","response":"absent","rt":1124,"correct":true,"confidence":1},{"trial_n":60,"min":79,"max":176,"target":"absent","response":"absent","rt":1152,"correct":true,"confidence":5},{"trial_n":61,"min":80,"max":175,"target":"absent","response":"absent","rt":792,"correct":true,"confidence":4},{"trial_n":62,"min":80,"max":175,"target":"absent","response":"absent","rt":2126,"correct":true,"confidence":1},{"trial_n":63,"min":81,"max":174,"target":"present","response":"present","rt":915,"correct":true,"confidence":5},{"trial_n":64,"min":81,"max":174,"target":"present","response":"present","rt":1553,"correct":true,"confidence":5},{"trial_n":65,"min":82,"max":173,"target":"absent","response":"absent","rt":921,"correct":true,"confidence":2},{"trial_n":66,"min":82,"max":173,"target":"present","response":"present","rt":1811,"correct":true,"confidence":3},{"trial_n":67,"min":83,"max":172,"target":"absent","response":"absent","rt":1759,"correct":true,"confidence":2},{"trial_n":68,"min":83,"max":172,"target":"present","response":"present","rt":1554,"correct":true,"confidence":3},{"trial_n":69,"min":84,"max":171,"target":"present","response":"absent","rt":1025,"correct":false,"confidence":4},{"trial_n":70,"min":83,"max":172,"target":"absent","response":"absent","rt":1825,"correct":true,"confidence":3},{"trial_n":71,"min":41,"max":214,"target":"present","response":"present","rt":2222.0000000001,"correct":true,"confidence":-1},{"trial_n":72,"min":41,"max":214,"target":"present","response":"present","rt":1193,"correct":true,"confidence":-1},{"trial_n":73,"min":57,"max":198,"target":"absent","response":"absent","rt":316,"correct":true,"confidence":-1},{"trial_n":74,"min":57,"max":198,"target":"absent","response":"absent","rt":346,"correct":true,"confidence":-1},{"trial_n":75,"min":73,"max":182,"target":"present","response":"present","rt":220,"correct":true,"confidence":-1},{"trial_n":76,"min":73,"max":182,"target":"present","response":"present","rt":161,"correct":true,"confidence":-1},{"trial_n":77,"min":89,"max":166,"target":"present","response":"present","rt":158,"correct":true,"confidence":-1},{"trial_n":78,"min":89,"max":166,"target":"present","response":"present","rt":102.99999999994,"correct":true,"confidence":-1},{"trial_n":79,"min":105,"max":150,"target":"absent","response":"absent","rt":574,"correct":true,"confidence":-1},{"trial_n":80,"min":105,"max":150,"target":"absent","response":"absent","rt":452,"correct":true,"confidence":-1},{"trial_n":81,"min":113,"max":142,"target":"absent","response":"present","rt":340,"correct":false,"confidence":-1},{"trial_n":82,"min":105,"max":150,"target":"absent","response":"absent","rt":343,"correct":true,"confidence":-1},{"trial_n":83,"min":105,"max":150,"target":"present","response":"absent","rt":400,"correct":false,"confidence":-1},{"trial_n":84,"min":97,"max":158,"target":"absent","response":"present","rt":498,"correct":false,"confidence":-1},{"trial_n":85,"min":89,"max":166,"target":"present","response":"absent","rt":387,"correct":false,"confidence":-1},{"trial_n":86,"min":81,"max":174,"target":"absent","response":"absent","rt":518,"correct":true,"confidence":-1},{"trial_n":87,"min":81,"max":174,"target":"absent","response":"present","rt":517,"correct":false,"confidence":-1},{"trial_n":88,"min":73,"max":182,"target":"absent","response":"present","rt":517,"correct":false,"confidence":-1},{"trial_n":89,"min":65,"max":190,"target":"absent","response":"absent","rt":353.00000000006,"correct":true,"confidence":-1},{"trial_n":90,"min":65,"max":190,"target":"absent","response":"absent","rt":314,"correct":true,"confidence":-1},{"trial_n":91,"min":69,"max":186,"target":"present","response":"present","rt":16,"correct":true,"confidence":5},{"trial_n":92,"min":69,"max":186,"target":"present","response":"present","rt":344,"correct":true,"confidence":4},{"trial_n":93,"min":73,"max":182,"target":"absent","response":"present","rt":640,"correct":false,"confidence":1},{"trial_n":94,"min":69,"max":186,"target":"absent","response":"present","rt":468.99999999994,"correct":false,"confidence":1},{"trial_n":95,"min":65,"max":190,"target":"present","response":"present","rt":478,"correct":true,"confidence":4},{"trial_n":96,"min":65,"max":190,"target":"absent","response":"absent","rt":1050,"correct":true,"confidence":4},{"trial_n":97,"min":69,"max":186,"target":"absent","response":"present","rt":1488,"correct":false,"confidence":1},{"trial_n":98,"min":65,"max":190,"target":"present","response":"present","rt":263.99999999994,"correct":true,"confidence":5},{"trial_n":99,"min":65,"max":190,"target":"present","response":"present","rt":760,"correct":true,"confidence":5},{"trial_n":100,"min":69,"max":186,"target":"present","response":"present","rt":691,"correct":true,"confidence":5},{"trial_n":101,"min":69,"max":186,"target":"absent","response":"present","rt":585,"correct":false,"confidence":5},{"trial_n":102,"min":67,"max":188,"target":"absent","response":"present","rt":934,"correct":false,"confidence":1},{"trial_n":103,"min":65,"max":190,"target":"present","response":"present","rt":417,"correct":true,"confidence":4},{"trial_n":104,"min":65,"max":190,"target":"present","response":"present","rt":676,"correct":true,"confidence":5},{"trial_n":105,"min":67,"max":188,"target":"absent","response":"absent","rt":784,"correct":true,"confidence":5},{"trial_n":106,"min":67,"max":188,"target":"present","response":"absent","rt":814,"correct":false,"confidence":4},{"trial_n":107,"min":65,"max":190,"target":"absent","response":"absent","rt":1314,"correct":true,"confidence":4},{"trial_n":108,"min":65,"max":190,"target":"present","response":"present","rt":587,"correct":true,"confidence":5},{"trial_n":109,"min":67,"max":188,"target":"present","response":"present","rt":509,"correct":true,"confidence":5},{"trial_n":110,"min":67,"max":188,"target":"absent","response":"present","rt":508,"correct":false,"confidence":5},{"trial_n":111,"min":66,"max":189,"target":"present","response":"present","rt":539,"correct":true,"confidence":5},{"trial_n":112,"min":66,"max":189,"target":"present","response":"present","rt":447,"correct":true,"confidence":4},{"trial_n":113,"min":67,"max":188,"target":"present","response":"present","rt":369.00000000006,"correct":true,"confidence":4},{"trial_n":114,"min":67,"max":188,"target":"absent","response":"absent","rt":916.99999999994,"correct":true,"confidence":5},{"trial_n":115,"min":68,"max":187,"target":"absent","response":"absent","rt":938,"correct":true,"confidence":4},{"trial_n":116,"min":68,"max":187,"target":"present","response":"present","rt":378,"correct":true,"confidence":5},{"trial_n":117,"min":69,"max":186,"target":"absent","response":"absent","rt":857.00000000006,"correct":true,"confidence":4},{"trial_n":118,"min":69,"max":186,"target":"present","response":"present","rt":197,"correct":true,"confidence":4},{"trial_n":119,"min":70,"max":185,"target":"present","response":"present","rt":285,"correct":true,"confidence":5},{"trial_n":120,"min":70,"max":185,"target":"present","response":"present","rt":705,"correct":true,"confidence":2},{"trial_n":121,"min":71,"max":184,"target":"present","response":"present","rt":271,"correct":true,"confidence":4},{"trial_n":122,"min":71,"max":184,"target":"absent","response":"absent","rt":811,"correct":true,"confidence":3},{"trial_n":123,"min":72,"max":183,"target":"absent","response":"present","rt":775,"correct":false,"confidence":1},{"trial_n":124,"min":71,"max":184,"target":"present","response":"present","rt":343,"correct":true,"confidence":4},{"trial_n":125,"min":71,"max":184,"target":"absent","response":"present","rt":497.00000000006,"correct":false,"confidence":1},{"trial_n":126,"min":70,"max":185,"target":"absent","response":"absent","rt":1512,"correct":true,"confidence":1},{"trial_n":127,"min":70,"max":185,"target":"absent","response":"absent","rt":598,"correct":true,"confidence":1},{"trial_n":128,"min":71,"max":184,"target":"absent","response":"absent","rt":868,"correct":true,"confidence":4},{"trial_n":129,"min":71,"max":184,"target":"absent","response":"absent","rt":1281,"correct":true,"confidence":5},{"trial_n":130,"min":72,"max":183,"target":"present","response":"present","rt":1527.0000000001,"correct":true,"confidence":5},{"trial_n":131,"min":72,"max":183,"target":"present","response":"present","rt":222.99999999994,"correct":true,"confidence":4},{"trial_n":132,"min":73,"max":182,"target":"present","response":"absent","rt":611,"correct":false,"confidence":3},{"trial_n":133,"min":72,"max":183,"target":"absent","response":"absent","rt":603,"correct":true,"confidence":4},{"trial_n":134,"min":72,"max":183,"target":"absent","response":"absent","rt":1024,"correct":true,"confidence":3},{"trial_n":135,"min":73,"max":182,"target":"present","response":"present","rt":530,"correct":true,"confidence":3},{"trial_n":136,"min":73,"max":182,"target":"present","response":"absent","rt":716,"correct":false,"confidence":3},{"trial_n":137,"min":72,"max":183,"target":"present","response":"present","rt":345.99999999994,"correct":true,"confidence":4},{"trial_n":138,"min":72,"max":183,"target":"present","response":"present","rt":337,"correct":true,"confidence":3},{"trial_n":139,"min":73,"max":182,"target":"present","response":"present","rt":302,"correct":true,"confidence":4},{"trial_n":140,"min":73,"max":182,"target":"absent","response":"absent","rt":512,"correct":true,"confidence":4}]