[{"trial_n":1,"span":8,"encoder":"27234897","distractor":"28234897","target":"present","response":"present","rt":"5041.5","correct":true,"confidence":-1},{"trial_n":2,"span":8,"encoder":"72033913","distractor":"72053913","target":"present","response":"present","rt":"2452.4000000954","correct":true,"confidence":-1},{"trial_n":3,"span":10,"encoder":"1430552550","distractor":"1430555550","target":"absent","response":"present","rt":"2459.5","correct":false,"confidence":-1},{"trial_n":4,"span":8,"encoder":"65243576","distractor":"66243576","target":"absent","response":"absent","rt":"2061.5","correct":true,"confidence":-1},{"trial_n":5,"span":8,"encoder":"40313045","distractor":"40313042","target":"present","response":"present","rt":"2505.2000002861","correct":true,"confidence":-1},{"trial_n":6,"span":10,"encoder":"0098721688","distractor":"0088721688","target":"absent","response":"absent","rt":"2197.4000000954","correct":true,"confidence":-1},{"trial_n":7,"span":10,"encoder":"6910345629","distractor":"6970345629","target":"present","response":"present","rt":"2320.8999996185","correct":true,"confidence":-1},{"trial_n":8,"span":12,"encoder":"236666190187","distractor":"236666190087","target":"present","response":"present","rt":"1592.5999999046","correct":true,"confidence":-1},{"trial_n":9,"span":12,"encoder":"372830167357","distractor":"372830164357","target":"present","response":"absent","rt":"3001","correct":false,"confidence":-1},{"trial_n":10,"span":10,"encoder":"7632048825","distractor":"7632048895","target":"absent","response":"absent","rt":"2206.5999999046","correct":true,"confidence":-1},{"trial_n":11,"span":10,"encoder":"1892861648","distractor":"1892861688","target":"absent","response":"absent","rt":"2857.0999999046","correct":true,"confidence":-1},{"trial_n":12,"span":11,"encoder":"75668953623","distractor":"75068953623","target":"absent","response":"present","rt":"2986.1999998093","correct":false,"confidence":-1},{"trial_n":13,"span":10,"encoder":"0496732943","distractor":"0496732953","target":"absent","response":"absent","rt":"2375.5999999046","correct":true,"confidence":-1},{"trial_n":14,"span":10,"encoder":"0970750204","distractor":"3970750204","target":"present","response":"present","rt":"1304.3000001907","correct":true,"confidence":-1},{"trial_n":15,"span":11,"encoder":"32751419565","distractor":"32771419565","target":"present","response":"present","rt":"1339.6999998093","correct":true,"confidence":-1},{"trial_n":16,"span":11,"encoder":"40638667228","distractor":"40638467228","target":"present","response":"present","rt":"1117.9000000954","correct":true,"confidence":-1},{"trial_n":17,"span":12,"encoder":"913219687210","distractor":"903219687210","target":"absent","response":"present","rt":"1471.5999999046","correct":false,"confidence":-1},{"trial_n":18,"span":11,"encoder":"20135034307","distractor":"20135234307","target":"present","response":"present","rt":"1346.9000000954","correct":true,"confidence":-1},{"trial_n":19,"span":11,"encoder":"55728615438","distractor":"55724615438","target":"absent","response":"present","rt":"1746.8000001907","correct":false,"confidence":-1},{"trial_n":20,"span":10,"encoder":"4574086478","distractor":"4554086478","target":"present","response":"present","rt":"60651.199999809","correct":true,"confidence":-1},{"trial_n":21,"span":10,"encoder":"6232130877","distractor":"6239130877","target":"present","response":"present","rt":"1876.3999996185","correct":true,"confidence":5},{"trial_n":22,"span":11,"encoder":"50307419828","distractor":"50307479828","target":"present","response":"present","rt":"3763.8000001907","correct":true,"confidence":5},{"trial_n":23,"span":11,"encoder":"07992501353","distractor":"03992501353","target":"absent","response":"present","rt":"4266.3000001907","correct":false,"confidence":4},{"trial_n":24,"span":10,"encoder":"7456259775","distractor":"7456259745","target":"absent","response":"absent","rt":"2476.5","correct":true,"confidence":5},{"trial_n":25,"span":10,"encoder":"1012093297","distractor":"1012098297","target":"absent","response":"absent","rt":"3016.3000001907","correct":true,"confidence":5},{"trial_n":26,"span":11,"encoder":"34355105620","distractor":"74355105620","target":"absent","response":"present","rt":"2908.9000000954","correct":false,"confidence":3},{"trial_n":27,"span":10,"encoder":"4868199509","distractor":"4868899509","target":"absent","response":"present","rt":"5118.5","correct":false,"confidence":4},{"trial_n":28,"span":9,"encoder":"838608909","distractor":"838608979","target":"present","response":"present","rt":"7702.5999999046","correct":true,"confidence":4},{"trial_n":29,"span":9,"encoder":"125827042","distractor":"125827142","target":"present","response":"present","rt":"3868.3999996185","correct":true,"confidence":5},{"trial_n":30,"span":10,"encoder":"7768960688","distractor":"7768260688","target":"absent","response":"absent","rt":"4751.3999996185","correct":true,"confidence":3},{"trial_n":31,"span":10,"encoder":"3659485319","distractor":"3659485719","target":"present","response":"present","rt":"3930.5","correct":true,"confidence":5},{"trial_n":32,"span":11,"encoder":"28886629737","distractor":"28886629037","target":"present","response":"present","rt":"3848.2000002861","correct":true,"confidence":3},{"trial_n":33,"span":11,"encoder":"17490867356","distractor":"17490267356","target":"absent","response":"present","rt":"3872","correct":false,"confidence":3},{"trial_n":34,"span":10,"encoder":"0335733172","distractor":"0335133172","target":"present","response":"present","rt":"2798.6999998093","correct":true,"confidence":2},{"trial_n":35,"span":10,"encoder":"7545964130","distractor":"7575964130","target":"present","response":"present","rt":"5593.8000001907","correct":true,"confidence":3},{"trial_n":36,"span":11,"encoder":"74319716339","distractor":"74319712339","target":"absent","response":"present","rt":"4945.5999999046","correct":false,"confidence":3},{"trial_n":37,"span":10,"encoder":"9855072620","distractor":"9855072660","target":"present","response":"absent","rt":"2654.5","correct":false,"confidence":4},{"trial_n":38,"span":9,"encoder":"100556615","distractor":"100556015","target":"present","response":"absent","rt":"4691.1999998093","correct":false,"confidence":2},{"trial_n":39,"span":8,"encoder":"91246728","distractor":"99246728","target":"absent","response":"absent","rt":"20229.799999714","correct":true,"confidence":2},{"trial_n":40,"span":8,"encoder":"73718491","distractor":"33718491","target":"present","response":"present","rt":"2721.4000000954","correct":true,"confidence":5},{"trial_n":41,"span":9,"encoder":"519477081","distractor":"519877081","target":"present","response":"present","rt":"3348.9000000954","correct":true,"confidence":5},{"trial_n":42,"span":9,"encoder":"533094787","distractor":"533094727","target":"absent","response":"absent","rt":"3332.4000000954","correct":true,"confidence":4},{"trial_n":43,"span":10,"encoder":"8770772306","distractor":"8770772303","target":"absent","response":"present","rt":"13166.599999905","correct":false,"confidence":5},{"trial_n":44,"span":9,"encoder":"606203310","distractor":"606202310","target":"absent","response":"absent","rt":"7116.3000001907","correct":true,"confidence":2},{"trial_n":45,"span":9,"encoder":"663361652","distractor":"163361652","target":"absent","response":"absent","rt":"2643.6000003815","correct":true,"confidence":5},{"trial_n":46,"span":10,"encoder":"2081348229","distractor":"2881348229","target":"absent","response":"absent","rt":"2554.5999999046","correct":true,"confidence":5},{"trial_n":47,"span":10,"encoder":"5739710426","distractor":"5039710426","target":"absent","response":"present","rt":"5412.4000000954","correct":false,"confidence":3},{"trial_n":48,"span":9,"encoder":"851533038","distractor":"251533038","target":"absent","response":"absent","rt":"4588.3000001907","correct":true,"confidence":5},{"trial_n":49,"span":9,"encoder":"449448562","distractor":"449448542","target":"present","response":"present","rt":"3291.4000000954","correct":true,"confidence":4},{"trial_n":50,"span":10,"encoder":"9590133593","distractor":"9595133593","target":"present","response":"absent","rt":"2276.9000000954","correct":false,"confidence":5},{"trial_n":51,"span":9,"encoder":"841590165","distractor":"841590465","target":"absent","response":"present","rt":"5213.2999997139","correct":false,"confidence":3},{"trial_n":52,"span":8,"encoder":"15609995","distractor":"15609495","target":"absent","response":"absent","rt":"2220.4000000954","correct":true,"confidence":5},{"trial_n":53,"span":8,"encoder":"76071748","distractor":"76070748","target":"absent","response":"absent","rt":"2781","correct":true,"confidence":5},{"trial_n":54,"span":9,"encoder":"475483545","distractor":"435483545","target":"present","response":"present","rt":"4150.9000000954","correct":true,"confidence":4},{"trial_n":55,"span":9,"encoder":"510279109","distractor":"510979109","target":"present","response":"present","rt":"4453.7000002861","correct":true,"confidence":2},{"trial_n":56,"span":10,"encoder":"6427684451","distractor":"6427884451","target":"absent","response":"absent","rt":"4006.5999999046","correct":true,"confidence":4},{"trial_n":57,"span":10,"encoder":"5352460539","distractor":"5352410539","target":"present","response":"absent","rt":"4532.5","correct":false,"confidence":1},{"trial_n":58,"span":9,"encoder":"990630910","distractor":"990330910","target":"absent","response":"absent","rt":"2313.9000000954","correct":true,"confidence":5},{"trial_n":59,"span":9,"encoder":"323616906","distractor":"325616906","target":"present","response":"present","rt":"4410.0999999046","correct":true,"confidence":4},{"trial_n":60,"span":10,"encoder":"7529608446","distractor":"7529603446","target":"present","response":"present","rt":"4927.0999999046","correct":true,"confidence":2},{"trial_n":61,"span":10,"encoder":"7387435123","distractor":"7387405123","target":"absent","response":"present","rt":"4068.1999998093","correct":false,"confidence":4},{"trial_n":62,"span":9,"encoder":"678477274","distractor":"678477254","target":"absent","response":"absent","rt":"4940.9000000954","correct":true,"confidence":2},{"trial_n":63,"span":9,"encoder":"859448747","distractor":"859444747","target":"present","response":"present","rt":"3946.4000000954","correct":true,"confidence":5},{"trial_n":64,"span":10,"encoder":"1712408637","distractor":"1712408638","target":"present","response":"present","rt":"4406.8000001907","correct":true,"confidence":5},{"trial_n":65,"span":10,"encoder":"7478728324","distractor":"7470728324","target":"absent","response":"absent","rt":"5022.9000000954","correct":true,"confidence":3},{"trial_n":66,"span":11,"encoder":"40284705948","distractor":"40284703948","target":"present","response":"absent","rt":"4310.6000003815","correct":false,"confidence":4},{"trial_n":67,"span":10,"encoder":"9736598529","distractor":"9936598529","target":"present","response":"absent","rt":"4533.3000001907","correct":false,"confidence":2},{"trial_n":68,"span":9,"encoder":"825879652","distractor":"835879652","target":"present","response":"absent","rt":"3348.5","correct":false,"confidence":2},{"trial_n":69,"span":8,"encoder":"48475148","distractor":"88475148","target":"present","response":"present","rt":"3902.5999999046","correct":true,"confidence":5},{"trial_n":70,"span":8,"encoder":"26960537","distractor":"24960537","target":"absent","response":"present","rt":"2921.2000002861","correct":false,"confidence":3},{"trial_n":71,"span":8,"encoder":"40890631","distractor":"40893631","target":"present","response":"present","rt":"4197.9000000954","correct":true,"confidence":-1},{"trial_n":72,"span":8,"encoder":"84671763","distractor":"84671760","target":"present","response":"present","rt":"2553.8000001907","correct":true,"confidence":-1},{"trial_n":73,"span":9,"encoder":"156257624","distractor":"186257624","target":"absent","response":"absent","rt":"1696.5","correct":true,"confidence":-1},{"trial_n":74,"span":9,"encoder":"353148288","distractor":"350148288","target":"absent","response":"absent","rt":"2759.4000000954","correct":true,"confidence":-1},{"trial_n":75,"span":10,"encoder":"7459078995","distractor":"7459076995","target":"present","response":"absent","rt":"4941.8000001907","correct":false,"confidence":-1},{"trial_n":76,"span":9,"encoder":"355374284","distractor":"355379284","target":"absent","response":"present","rt":"3365.9000000954","correct":false,"confidence":-1},{"trial_n":77,"span":8,"encoder":"07457239","distractor":"77457239","target":"present","response":"present","rt":"8681.5999999046","correct":true,"confidence":-1},{"trial_n":78,"span":8,"encoder":"25310661","distractor":"75310661","target":"absent","response":"absent","rt":"4856.0999999046","correct":true,"confidence":-1},{"trial_n":79,"span":9,"encoder":"492361571","distractor":"492361471","target":"present","response":"present","rt":"2457.5999999046","correct":true,"confidence":-1},{"trial_n":80,"span":9,"encoder":"566839460","distractor":"566239460","target":"absent","response":"absent","rt":"2825.7000002861","correct":true,"confidence":-1},{"trial_n":81,"span":10,"encoder":"4109605841","distractor":"4129605841","target":"present","response":"present","rt":"6188.5999999046","correct":true,"confidence":-1},{"trial_n":82,"span":10,"encoder":"6251601909","distractor":"6851601909","target":"present","response":"present","rt":"3664.0999999046","correct":true,"confidence":-1},{"trial_n":83,"span":11,"encoder":"20405974271","distractor":"20405674271","target":"present","response":"present","rt":"5996.0999999046","correct":true,"confidence":-1},{"trial_n":84,"span":11,"encoder":"27333715126","distractor":"28333715126","target":"absent","response":"absent","rt":"4000.5999999046","correct":true,"confidence":-1},{"trial_n":85,"span":12,"encoder":"440320475113","distractor":"840320475113","target":"present","response":"absent","rt":"3374.7000002861","correct":false,"confidence":-1},{"trial_n":86,"span":11,"encoder":"01159682881","distractor":"01159682181","target":"present","response":"present","rt":"2682.2000002861","correct":true,"confidence":-1},{"trial_n":87,"span":11,"encoder":"14481583478","distractor":"14481523478","target":"absent","response":"absent","rt":"4254.6999998093","correct":true,"confidence":-1},{"trial_n":88,"span":12,"encoder":"100950296161","distractor":"100920296161","target":"present","response":"absent","rt":"8375.0999999046","correct":false,"confidence":-1},{"trial_n":89,"span":11,"encoder":"97739587955","distractor":"97739587755","target":"present","response":"present","rt":"6828.8000001907","correct":true,"confidence":-1},{"trial_n":90,"span":11,"encoder":"26032293283","distractor":"26012293283","target":"absent","response":"present","rt":"5579.1999998093","correct":false,"confidence":-1},{"trial_n":91,"span":10,"encoder":"8373058799","distractor":"8373058759","target":"present","response":"absent","rt":"81174.699999809","correct":false,"confidence":1},{"trial_n":92,"span":9,"encoder":"070742714","distractor":"070742713","target":"absent","response":"absent","rt":"3291.8000001907","correct":true,"confidence":5},{"trial_n":93,"span":9,"encoder":"604689462","distractor":"624689462","target":"present","response":"present","rt":"11513.100000381","correct":true,"confidence":4},{"trial_n":94,"span":10,"encoder":"6551634899","distractor":"6557634899","target":"present","response":"present","rt":"8776.7999997139","correct":true,"confidence":5},{"trial_n":95,"span":10,"encoder":"5742591117","distractor":"5742591217","target":"present","response":"present","rt":"2526.9000000954","correct":true,"confidence":5},{"trial_n":96,"span":11,"encoder":"40674285790","distractor":"40674245790","target":"absent","response":"absent","rt":"5070.6999998093","correct":true,"confidence":3},{"trial_n":97,"span":11,"encoder":"30081671387","distractor":"30081271387","target":"present","response":"present","rt":"7381.0999999046","correct":true,"confidence":2},{"trial_n":98,"span":12,"encoder":"535395863203","distractor":"535395865203","target":"absent","response":"absent","rt":"3157.9000000954","correct":true,"confidence":5},{"trial_n":99,"span":12,"encoder":"669340466150","distractor":"669340466159","target":"absent","response":"absent","rt":"4234.0999999046","correct":true,"confidence":5},{"trial_n":100,"span":13,"encoder":"8333818465293","distractor":"8533818465293","target":"present","response":"present","rt":"3308.8000001907","correct":true,"confidence":3},{"trial_n":101,"span":13,"encoder":"8296163050387","distractor":"3296163050387","target":"absent","response":"absent","rt":"8436.1999998093","correct":true,"confidence":3},{"trial_n":102,"span":14,"encoder":"49463007739474","distractor":"19463007739474","target":"present","response":"present","rt":"14652.800000191","correct":true,"confidence":3},{"trial_n":103,"span":14,"encoder":"46564038025006","distractor":"46364038025006","target":"present","response":"present","rt":"15649.099999905","correct":true,"confidence":3},{"trial_n":104,"span":15,"encoder":"186386000853289","distractor":"186336000853289","target":"absent","response":"absent","rt":"10803.700000286","correct":true,"confidence":4},{"trial_n":105,"span":15,"encoder":"537378280362508","distractor":"537378282362508","target":"absent","response":"absent","rt":"11198.700000286","correct":true,"confidence":2},{"trial_n":106,"span":16,"encoder":"7349885422757097","distractor":"7349885222757097","target":"present","response":"present","rt":"4045.5","correct":true,"confidence":5},{"trial_n":107,"span":16,"encoder":"6849980713746776","distractor":"6869980713746776","target":"absent","response":"absent","rt":"7232.1999998093","correct":true,"confidence":4},{"trial_n":108,"span":17,"encoder":"96465169650007525","distractor":"96465169620007525","target":"absent","response":"absent","rt":"7892.1000003815","correct":true,"confidence":2},{"trial_n":109,"span":17,"encoder":"72850871431591976","distractor":"72850871431595976","target":"absent","response":"absent","rt":"3727.2000002861","correct":true,"confidence":5},{"trial_n":110,"span":18,"encoder":"387009443598467785","distractor":"387009443898467785","target":"absent","response":"present","rt":"16571.899999619","correct":false,"confidence":4},{"trial_n":111,"span":17,"encoder":"47267963658097450","distractor":"47267963698097450","target":"absent","response":"absent","rt":"8286.1999998093","correct":true,"confidence":3},{"trial_n":112,"span":17,"encoder":"27013461469572655","distractor":"25013461469572655","target":"present","response":"present","rt":"16032","correct":true,"confidence":4},{"trial_n":113,"span":18,"encoder":"715808284853526715","distractor":"715800284853526715","target":"absent","response":"absent","rt":"5342.5999999046","correct":true,"confidence":5},{"trial_n":114,"span":18,"encoder":"777985484402058134","distractor":"777985484432058134","target":"absent","response":"absent","rt":"12538.599999905","correct":true,"confidence":3},{"trial_n":115,"span":19,"encoder":"4696742733861777070","distractor":"4696742733861577070","target":"present","response":"present","rt":"3012.6999998093","correct":true,"confidence":5},{"trial_n":116,"span":19,"encoder":"0991471235287239308","distractor":"0991401235287239308","target":"present","response":"present","rt":"9126.5","correct":true,"confidence":4},{"trial_n":117,"span":20,"encoder":"47736152597047575326","distractor":"47786152597047575326","target":"absent","response":"absent","rt":"6709.9000000954","correct":true,"confidence":1},{"trial_n":118,"span":20,"encoder":"04585270757015479823","distractor":"04585270757015079823","target":"present","response":"present","rt":"4223.6999998093","correct":true,"confidence":3},{"trial_n":119,"span":21,"encoder":"613668636667029559565","distractor":"613668636667026559565","target":"absent","response":"absent","rt":"6500.1999998093","correct":true,"confidence":4},{"trial_n":120,"span":21,"encoder":"423384300420070569244","distractor":"423784300420070569244","target":"absent","response":"absent","rt":"9770.4000000954","correct":true,"confidence":2},{"trial_n":121,"span":22,"encoder":"1741192510951801878496","distractor":"1741192510951806878496","target":"absent","response":"absent","rt":"6864.9000000954","correct":true,"confidence":3},{"trial_n":122,"span":22,"encoder":"6864920229585194870727","distractor":"6864922229585194870727","target":"present","response":"present","rt":"7729","correct":true,"confidence":5},{"trial_n":123,"span":23,"encoder":"79185720981669249883427","distractor":"79185720981659249883427","target":"present","response":"present","rt":"13070.400000095","correct":true,"confidence":1},{"trial_n":124,"span":23,"encoder":"19499627019548682199473","distractor":"19499627019548682199483","target":"absent","response":"absent","rt":"2749.8999996185","correct":true,"confidence":5},{"trial_n":125,"span":24,"encoder":"112625275306357204924378","distractor":"142625275306357204924378","target":"absent","response":"present","rt":"26686.199999809","correct":false,"confidence":3},{"trial_n":126,"span":23,"encoder":"04262550254519008326220","distractor":"74262550254519008326220","target":"present","response":"present","rt":"9384.1000003815","correct":true,"confidence":4},{"trial_n":127,"span":23,"encoder":"61261700310271901650505","distractor":"61261700310277901650505","target":"absent","response":"absent","rt":"14586","correct":true,"confidence":4},{"trial_n":128,"span":24,"encoder":"239987331869604115259999","distractor":"239987331862604115259999","target":"present","response":"present","rt":"18748.799999714","correct":true,"confidence":2},{"trial_n":129,"span":24,"encoder":"615399653691833064908984","distractor":"615399653691833064988984","target":"absent","response":"absent","rt":"3379.2999997139","correct":true,"confidence":1},{"trial_n":130,"span":25,"encoder":"5876411340622387905358284","distractor":"5872411340622387905358284","target":"absent","response":"present","rt":"20719","correct":false,"confidence":1},{"trial_n":131,"span":24,"encoder":"067774511012354391237293","distractor":"067774511012354391239293","target":"absent","response":"absent","rt":"13108.899999619","correct":true,"confidence":4},{"trial_n":132,"span":24,"encoder":"551493513347349599005200","distractor":"551493513347349599105200","target":"present","response":"present","rt":"12997.800000191","correct":true,"confidence":2},{"trial_n":133,"span":25,"encoder":"1366609083821026937909762","distractor":"1866609083821026937909762","target":"present","response":"absent","rt":"8583.2000002861","correct":false,"confidence":1},{"trial_n":134,"span":24,"encoder":"664060884043376165850736","distractor":"664060884043376665850736","target":"present","response":"present","rt":"5357.4000000954","correct":true,"confidence":5},{"trial_n":135,"span":24,"encoder":"595043285777385009772364","distractor":"595043185777385009772364","target":"absent","response":"present","rt":"10571.199999809","correct":false,"confidence":1},{"trial_n":136,"span":23,"encoder":"85822015053431820493667","distractor":"88822015053431820493667","target":"present","response":"present","rt":"14402.699999809","correct":true,"confidence":2},{"trial_n":137,"span":23,"encoder":"10749135879795393585971","distractor":"10749135879798393585971","target":"present","response":"present","rt":"14798","correct":true,"confidence":3},{"trial_n":138,"span":24,"encoder":"826931862919922108332519","distractor":"826931862919322108332519","target":"present","response":"present","rt":"6447.2999997139","correct":true,"confidence":5},{"trial_n":139,"span":24,"encoder":"624980182777827310280467","distractor":"624980182777827310980467","target":"present","response":"present","rt":"5990.4000000954","correct":true,"confidence":3},{"trial_n":140,"span":25,"encoder":"5014497504310892540888815","distractor":"5014497503310892540888815","target":"absent","response":"present","rt":"5736.5999999046","correct":false,"confidence":1}]