[{"trial_n":1,"span":8,"encoder":"13216136","distractor":"13216131","target":"present","response":"present","rt":"2840","correct":true,"confidence":-1},{"trial_n":2,"span":8,"encoder":"18925163","distractor":"18925063","target":"present","response":"absent","rt":"2759","correct":false,"confidence":-1},{"trial_n":3,"span":6,"encoder":"146095","distractor":"146195","target":"absent","response":"absent","rt":"1052","correct":true,"confidence":-1},{"trial_n":4,"span":6,"encoder":"030823","distractor":"030023","target":"absent","response":"absent","rt":"1779","correct":true,"confidence":-1},{"trial_n":5,"span":8,"encoder":"39918630","distractor":"39978630","target":"present","response":"present","rt":"1698","correct":true,"confidence":-1},{"trial_n":6,"span":8,"encoder":"63242568","distractor":"60242568","target":"present","response":"present","rt":"1266","correct":true,"confidence":-1},{"trial_n":7,"span":10,"encoder":"1309274561","distractor":"1309204561","target":"present","response":"present","rt":"1298","correct":true,"confidence":-1},{"trial_n":8,"span":10,"encoder":"2938364226","distractor":"2938365226","target":"absent","response":"absent","rt":"1435","correct":true,"confidence":-1},{"trial_n":9,"span":12,"encoder":"201505372379","distractor":"201535372379","target":"absent","response":"present","rt":"902","correct":false,"confidence":-1},{"trial_n":10,"span":10,"encoder":"1429514377","distractor":"1429514378","target":"present","response":"absent","rt":"2121","correct":false,"confidence":-1},{"trial_n":11,"span":8,"encoder":"38631475","distractor":"36631475","target":"absent","response":"absent","rt":"1353","correct":true,"confidence":-1},{"trial_n":12,"span":8,"encoder":"32142627","distractor":"34142627","target":"absent","response":"absent","rt":"949","correct":true,"confidence":-1},{"trial_n":13,"span":9,"encoder":"983060080","distractor":"983060000","target":"present","response":"present","rt":"2043","correct":true,"confidence":-1},{"trial_n":14,"span":9,"encoder":"777199335","distractor":"707199335","target":"absent","response":"absent","rt":"4605","correct":true,"confidence":-1},{"trial_n":15,"span":10,"encoder":"3598849604","distractor":"3598849004","target":"present","response":"absent","rt":"2586","correct":false,"confidence":-1},{"trial_n":16,"span":9,"encoder":"003112141","distractor":"003112191","target":"absent","response":"absent","rt":"2232","correct":true,"confidence":-1},{"trial_n":17,"span":9,"encoder":"729356320","distractor":"729356120","target":"present","response":"present","rt":"1343","correct":true,"confidence":-1},{"trial_n":18,"span":10,"encoder":"6754329166","distractor":"6754320166","target":"present","response":"present","rt":"1442","correct":true,"confidence":-1},{"trial_n":19,"span":10,"encoder":"5721043633","distractor":"5721043636","target":"present","response":"present","rt":"1626","correct":true,"confidence":-1},{"trial_n":20,"span":11,"encoder":"62724094302","distractor":"66724094302","target":"present","response":"present","rt":"1325","correct":true,"confidence":-1},{"trial_n":21,"span":11,"encoder":"36394894341","distractor":"36394894349","target":"present","response":"present","rt":"2012","correct":true,"confidence":3},{"trial_n":22,"span":12,"encoder":"207254821393","distractor":"207254871393","target":"present","response":"present","rt":"2681","correct":true,"confidence":4},{"trial_n":23,"span":12,"encoder":"954505675489","distractor":"354505675489","target":"absent","response":"absent","rt":"2600","correct":true,"confidence":4},{"trial_n":24,"span":13,"encoder":"8352428692577","distractor":"8355428692577","target":"absent","response":"absent","rt":"2165","correct":true,"confidence":5},{"trial_n":25,"span":13,"encoder":"9187931111464","distractor":"9187931111469","target":"present","response":"absent","rt":"4649","correct":false,"confidence":2},{"trial_n":26,"span":12,"encoder":"660202139289","distractor":"662202139289","target":"absent","response":"absent","rt":"3130","correct":true,"confidence":5},{"trial_n":27,"span":12,"encoder":"484483164923","distractor":"484443164923","target":"absent","response":"absent","rt":"3224","correct":true,"confidence":3},{"trial_n":28,"span":13,"encoder":"5660680045048","distractor":"5669680045048","target":"absent","response":"absent","rt":"2306","correct":true,"confidence":4},{"trial_n":29,"span":13,"encoder":"0533105194589","distractor":"0533105164589","target":"present","response":"absent","rt":"2369","correct":false,"confidence":1},{"trial_n":30,"span":12,"encoder":"464077626024","distractor":"464077656024","target":"absent","response":"absent","rt":"3202","correct":true,"confidence":2},{"trial_n":31,"span":12,"encoder":"744131484359","distractor":"747131484359","target":"absent","response":"absent","rt":"2733","correct":true,"confidence":4},{"trial_n":32,"span":13,"encoder":"7428548994383","distractor":"7428548994983","target":"present","response":"present","rt":"3029","correct":true,"confidence":4},{"trial_n":33,"span":13,"encoder":"0273733006592","distractor":"0273763006592","target":"present","response":"present","rt":"3488","correct":true,"confidence":4},{"trial_n":34,"span":14,"encoder":"57755501063155","distractor":"57755501063157","target":"present","response":"absent","rt":"2163","correct":false,"confidence":4},{"trial_n":35,"span":13,"encoder":"4542617629816","distractor":"4548617629816","target":"present","response":"absent","rt":"4075","correct":false,"confidence":3},{"trial_n":36,"span":12,"encoder":"693066169276","distractor":"690066169276","target":"absent","response":"absent","rt":"3068","correct":true,"confidence":4},{"trial_n":37,"span":12,"encoder":"011232615331","distractor":"011232615371","target":"absent","response":"absent","rt":"2034","correct":true,"confidence":5},{"trial_n":38,"span":13,"encoder":"6687182170811","distractor":"6687182150811","target":"present","response":"present","rt":"3194.0000000001","correct":true,"confidence":4},{"trial_n":39,"span":13,"encoder":"2223540442772","distractor":"2223540440772","target":"absent","response":"present","rt":"3084.9999999999","correct":false,"confidence":2},{"trial_n":40,"span":12,"encoder":"524528649577","distractor":"524521649577","target":"present","response":"absent","rt":"2222","correct":false,"confidence":2},{"trial_n":41,"span":11,"encoder":"23910087876","distractor":"23910097876","target":"absent","response":"present","rt":"2621.0000000001","correct":false,"confidence":4},{"trial_n":42,"span":10,"encoder":"1093262387","distractor":"3093262387","target":"present","response":"present","rt":"2205.0000000001","correct":true,"confidence":4},{"trial_n":43,"span":10,"encoder":"0075634696","distractor":"0075614696","target":"absent","response":"absent","rt":"4115","correct":true,"confidence":4},{"trial_n":44,"span":11,"encoder":"22236981223","distractor":"22236921223","target":"absent","response":"absent","rt":"3386.9999999999","correct":true,"confidence":3},{"trial_n":45,"span":11,"encoder":"83367523005","distractor":"83361523005","target":"present","response":"present","rt":"3581","correct":true,"confidence":3},{"trial_n":46,"span":12,"encoder":"284643258256","distractor":"284643257256","target":"present","response":"present","rt":"2422","correct":true,"confidence":3},{"trial_n":47,"span":12,"encoder":"529110780976","distractor":"529410780976","target":"absent","response":"present","rt":"3337","correct":false,"confidence":2},{"trial_n":48,"span":11,"encoder":"77213972630","distractor":"77213972600","target":"absent","response":"present","rt":"3627.9999999999","correct":false,"confidence":4},{"trial_n":49,"span":10,"encoder":"5053883096","distractor":"5053883092","target":"absent","response":"absent","rt":"2868","correct":true,"confidence":4},{"trial_n":50,"span":10,"encoder":"7713040549","distractor":"7713045549","target":"absent","response":"present","rt":"2816","correct":false,"confidence":4},{"trial_n":51,"span":9,"encoder":"415193353","distractor":"415193333","target":"absent","response":"present","rt":"3804","correct":false,"confidence":3},{"trial_n":52,"span":8,"encoder":"35909403","distractor":"35939403","target":"present","response":"present","rt":"2766","correct":true,"confidence":4},{"trial_n":53,"span":8,"encoder":"48747211","distractor":"48747111","target":"absent","response":"absent","rt":"4100","correct":true,"confidence":2},{"trial_n":54,"span":9,"encoder":"297340755","distractor":"297346755","target":"absent","response":"present","rt":"3259","correct":false,"confidence":3},{"trial_n":55,"span":8,"encoder":"43171110","distractor":"43151110","target":"present","response":"absent","rt":"3081","correct":false,"confidence":2},{"trial_n":56,"span":7,"encoder":"8361151","distractor":"3361151","target":"present","response":"present","rt":"6658","correct":true,"confidence":3},{"trial_n":57,"span":7,"encoder":"9642575","distractor":"9692575","target":"absent","response":"absent","rt":"2063","correct":true,"confidence":1},{"trial_n":58,"span":8,"encoder":"81844658","distractor":"81544658","target":"present","response":"present","rt":"1756","correct":true,"confidence":2},{"trial_n":59,"span":8,"encoder":"88813829","distractor":"78813829","target":"present","response":"absent","rt":"3064","correct":false,"confidence":1},{"trial_n":60,"span":7,"encoder":"6870636","distractor":"6840636","target":"absent","response":"absent","rt":"1842.0000000001","correct":true,"confidence":5},{"trial_n":61,"span":7,"encoder":"3601081","distractor":"3001081","target":"absent","response":"absent","rt":"1710.9999999999","correct":true,"confidence":5},{"trial_n":62,"span":8,"encoder":"80636498","distractor":"80636698","target":"absent","response":"present","rt":"2201","correct":false,"confidence":3},{"trial_n":63,"span":7,"encoder":"0521676","distractor":"0531676","target":"present","response":"absent","rt":"2612.0000000001","correct":false,"confidence":4},{"trial_n":64,"span":6,"encoder":"938950","distractor":"438950","target":"present","response":"present","rt":"1923","correct":true,"confidence":4},{"trial_n":65,"span":6,"encoder":"600352","distractor":"603352","target":"present","response":"present","rt":"2019","correct":true,"confidence":2},{"trial_n":66,"span":7,"encoder":"9254601","distractor":"9254603","target":"present","response":"present","rt":"2401","correct":true,"confidence":4},{"trial_n":67,"span":7,"encoder":"7475611","distractor":"7445611","target":"absent","response":"absent","rt":"2190","correct":true,"confidence":5},{"trial_n":68,"span":8,"encoder":"97526224","distractor":"97526204","target":"present","response":"present","rt":"2766","correct":true,"confidence":4},{"trial_n":69,"span":8,"encoder":"20929812","distractor":"20921812","target":"absent","response":"absent","rt":"2583","correct":true,"confidence":4},{"trial_n":70,"span":9,"encoder":"148287519","distractor":"148287529","target":"present","response":"absent","rt":"2546","correct":false,"confidence":2},{"trial_n":71,"span":8,"encoder":"38515864","distractor":"38545864","target":"present","response":"present","rt":"3625","correct":true,"confidence":-1},{"trial_n":72,"span":8,"encoder":"84877235","distractor":"84817235","target":"present","response":"present","rt":"2040","correct":true,"confidence":-1},{"trial_n":73,"span":9,"encoder":"032859017","distractor":"032759017","target":"absent","response":"absent","rt":"1600","correct":true,"confidence":-1},{"trial_n":74,"span":9,"encoder":"402974832","distractor":"422974832","target":"absent","response":"absent","rt":"1483","correct":true,"confidence":-1},{"trial_n":75,"span":10,"encoder":"9050364864","distractor":"9070364864","target":"present","response":"present","rt":"1376","correct":true,"confidence":-1},{"trial_n":76,"span":10,"encoder":"1121818647","distractor":"9121818647","target":"absent","response":"absent","rt":"1457.0000000002","correct":true,"confidence":-1},{"trial_n":77,"span":11,"encoder":"65601035663","distractor":"65601035603","target":"absent","response":"absent","rt":"1777","correct":true,"confidence":-1},{"trial_n":78,"span":11,"encoder":"99603702403","distractor":"99603701403","target":"absent","response":"absent","rt":"2316","correct":true,"confidence":-1},{"trial_n":79,"span":12,"encoder":"806155332576","distractor":"806155332526","target":"absent","response":"present","rt":"3126.9999999998","correct":false,"confidence":-1},{"trial_n":80,"span":11,"encoder":"73306131601","distractor":"83306131601","target":"absent","response":"absent","rt":"2307","correct":true,"confidence":-1},{"trial_n":81,"span":11,"encoder":"92383955801","distractor":"92383952801","target":"present","response":"present","rt":"2418","correct":true,"confidence":-1},{"trial_n":82,"span":12,"encoder":"349357266456","distractor":"349357266457","target":"absent","response":"absent","rt":"1672","correct":true,"confidence":-1},{"trial_n":83,"span":12,"encoder":"043453788893","distractor":"043453782893","target":"absent","response":"absent","rt":"2518","correct":true,"confidence":-1},{"trial_n":84,"span":13,"encoder":"5992095128038","distractor":"5992095128938","target":"present","response":"present","rt":"4712","correct":true,"confidence":-1},{"trial_n":85,"span":13,"encoder":"6776720180667","distractor":"6772720180667","target":"present","response":"absent","rt":"4513.9999999998","correct":false,"confidence":-1},{"trial_n":86,"span":12,"encoder":"455783455465","distractor":"455733455465","target":"present","response":"present","rt":"3440","correct":true,"confidence":-1},{"trial_n":87,"span":12,"encoder":"434798018324","distractor":"434798818324","target":"present","response":"present","rt":"5552","correct":true,"confidence":-1},{"trial_n":88,"span":13,"encoder":"5235990792797","distractor":"5235990795797","target":"absent","response":"present","rt":"4235","correct":false,"confidence":-1},{"trial_n":89,"span":12,"encoder":"161232925079","distractor":"161272925079","target":"present","response":"present","rt":"5226","correct":true,"confidence":-1},{"trial_n":90,"span":12,"encoder":"023168114507","distractor":"029168114507","target":"present","response":"present","rt":"4344","correct":true,"confidence":-1},{"trial_n":91,"span":13,"encoder":"5168252236895","distractor":"5168252276895","target":"present","response":"absent","rt":"6530","correct":false,"confidence":2},{"trial_n":92,"span":12,"encoder":"449504292431","distractor":"449204292431","target":"absent","response":"absent","rt":"6159","correct":true,"confidence":3},{"trial_n":93,"span":12,"encoder":"263487748087","distractor":"266487748087","target":"absent","response":"absent","rt":"6798","correct":true,"confidence":4},{"trial_n":94,"span":13,"encoder":"8068540987814","distractor":"8028540987814","target":"present","response":"present","rt":"4693","correct":true,"confidence":4},{"trial_n":95,"span":13,"encoder":"3832835078499","distractor":"1832835078499","target":"absent","response":"absent","rt":"3842","correct":true,"confidence":5},{"trial_n":96,"span":14,"encoder":"27623955167773","distractor":"27623255167773","target":"absent","response":"absent","rt":"19651","correct":true,"confidence":2},{"trial_n":97,"span":14,"encoder":"41857549379466","distractor":"41857549379416","target":"absent","response":"present","rt":"4412","correct":false,"confidence":1},{"trial_n":98,"span":13,"encoder":"3887080040632","distractor":"2887080040632","target":"absent","response":"absent","rt":"6295","correct":true,"confidence":3},{"trial_n":99,"span":13,"encoder":"8124916306117","distractor":"8124516306117","target":"absent","response":"absent","rt":"5462","correct":true,"confidence":4},{"trial_n":100,"span":14,"encoder":"61225321416239","distractor":"61225321476239","target":"absent","response":"present","rt":"5212","correct":false,"confidence":1},{"trial_n":101,"span":13,"encoder":"1473477521418","distractor":"1473977521418","target":"present","response":"present","rt":"4096","correct":true,"confidence":5},{"trial_n":102,"span":13,"encoder":"7448098605451","distractor":"7448098605951","target":"absent","response":"present","rt":"5347","correct":false,"confidence":1},{"trial_n":103,"span":12,"encoder":"101043508393","distractor":"101043508398","target":"present","response":"absent","rt":"5793","correct":false,"confidence":3},{"trial_n":104,"span":11,"encoder":"79710454469","distractor":"75710454469","target":"absent","response":"present","rt":"6588.9999999998","correct":false,"confidence":1},{"trial_n":105,"span":10,"encoder":"3382840910","distractor":"3282840910","target":"absent","response":"absent","rt":"4691","correct":true,"confidence":4},{"trial_n":106,"span":10,"encoder":"8324094394","distractor":"8324094384","target":"present","response":"absent","rt":"4259.0000000002","correct":false,"confidence":1},{"trial_n":107,"span":9,"encoder":"904186120","distractor":"904184120","target":"absent","response":"present","rt":"4812","correct":false,"confidence":3},{"trial_n":108,"span":8,"encoder":"54415218","distractor":"54715218","target":"absent","response":"absent","rt":"2762","correct":true,"confidence":4},{"trial_n":109,"span":8,"encoder":"24468524","distractor":"24468523","target":"present","response":"present","rt":"5285","correct":true,"confidence":2},{"trial_n":110,"span":9,"encoder":"060977794","distractor":"060937794","target":"present","response":"absent","rt":"4751.9999999998","correct":false,"confidence":3},{"trial_n":111,"span":8,"encoder":"93946404","distractor":"93946407","target":"absent","response":"absent","rt":"7070.9999999998","correct":true,"confidence":2},{"trial_n":112,"span":8,"encoder":"87194211","distractor":"87164211","target":"present","response":"present","rt":"4143","correct":true,"confidence":4},{"trial_n":113,"span":9,"encoder":"656852028","distractor":"156852028","target":"present","response":"present","rt":"3973","correct":true,"confidence":4},{"trial_n":114,"span":9,"encoder":"472567112","distractor":"412567112","target":"present","response":"present","rt":"4407","correct":true,"confidence":2},{"trial_n":115,"span":10,"encoder":"0729072297","distractor":"0729070297","target":"present","response":"absent","rt":"5495","correct":false,"confidence":2},{"trial_n":116,"span":9,"encoder":"537085569","distractor":"537085565","target":"absent","response":"absent","rt":"8820","correct":true,"confidence":3},{"trial_n":117,"span":9,"encoder":"351665587","distractor":"351665589","target":"present","response":"present","rt":"2619","correct":true,"confidence":5},{"trial_n":118,"span":10,"encoder":"9984618727","distractor":"9988618727","target":"present","response":"present","rt":"8123","correct":true,"confidence":3},{"trial_n":119,"span":10,"encoder":"9756879529","distractor":"9756779529","target":"present","response":"absent","rt":"9269","correct":false,"confidence":1},{"trial_n":120,"span":9,"encoder":"074871752","distractor":"574871752","target":"absent","response":"absent","rt":"2573","correct":true,"confidence":5},{"trial_n":121,"span":9,"encoder":"303491570","distractor":"303191570","target":"present","response":"present","rt":"3544.0000000002","correct":true,"confidence":5},{"trial_n":122,"span":10,"encoder":"4528667841","distractor":"4828667841","target":"absent","response":"absent","rt":"2638","correct":true,"confidence":4},{"trial_n":123,"span":10,"encoder":"0530591871","distractor":"0530591671","target":"present","response":"present","rt":"4166","correct":true,"confidence":1},{"trial_n":124,"span":11,"encoder":"45599745060","distractor":"42599745060","target":"absent","response":"absent","rt":"7529","correct":true,"confidence":3},{"trial_n":125,"span":11,"encoder":"79505830637","distractor":"79105830637","target":"absent","response":"absent","rt":"2785","correct":true,"confidence":3},{"trial_n":126,"span":12,"encoder":"200038021066","distractor":"700038021066","target":"present","response":"present","rt":"2471.9999999998","correct":true,"confidence":5},{"trial_n":127,"span":12,"encoder":"025385056748","distractor":"025335056748","target":"present","response":"present","rt":"7634","correct":true,"confidence":4},{"trial_n":128,"span":13,"encoder":"3204098451918","distractor":"3204099451918","target":"absent","response":"absent","rt":"4529","correct":true,"confidence":1},{"trial_n":129,"span":13,"encoder":"1486398332249","distractor":"1486388332249","target":"absent","response":"absent","rt":"6592.9999999998","correct":true,"confidence":4},{"trial_n":130,"span":14,"encoder":"90469974848418","distractor":"90469174848418","target":"present","response":"present","rt":"3833","correct":true,"confidence":1},{"trial_n":131,"span":14,"encoder":"87627353491874","distractor":"87623353491874","target":"present","response":"present","rt":"6648.9999999995","correct":true,"confidence":1},{"trial_n":132,"span":15,"encoder":"051746791890790","distractor":"051746791890730","target":"absent","response":"present","rt":"12971","correct":false,"confidence":2},{"trial_n":133,"span":14,"encoder":"90137354640205","distractor":"90137324640205","target":"present","response":"present","rt":"8460","correct":true,"confidence":2},{"trial_n":134,"span":14,"encoder":"21604093505664","distractor":"41604093505664","target":"present","response":"absent","rt":"6442.9999999995","correct":false,"confidence":1},{"trial_n":135,"span":13,"encoder":"9789831664948","distractor":"9789831664048","target":"present","response":"present","rt":"4550","correct":true,"confidence":5},{"trial_n":136,"span":13,"encoder":"0818776095142","distractor":"0818773095142","target":"present","response":"present","rt":"3912","correct":true,"confidence":4},{"trial_n":137,"span":14,"encoder":"31849893490042","distractor":"31849843490042","target":"present","response":"present","rt":"10345","correct":true,"confidence":3},{"trial_n":138,"span":14,"encoder":"72809488999008","distractor":"72009488999008","target":"present","response":"absent","rt":"5655","correct":false,"confidence":1},{"trial_n":139,"span":13,"encoder":"9051184846024","distractor":"4051184846024","target":"absent","response":"present","rt":"3448","correct":false,"confidence":1},{"trial_n":140,"span":12,"encoder":"109180116159","distractor":"109180116959","target":"absent","response":"absent","rt":"4513","correct":true,"confidence":3}]