[{"trial_n":1,"span":8,"encoder":"65135540","distractor":"45135540","target":"present","response":"present","rt":"6117.5","correct":true,"confidence":-1},{"trial_n":2,"span":8,"encoder":"22511863","distractor":"22591863","target":"present","response":"present","rt":"1703.2000000477","correct":true,"confidence":-1},{"trial_n":3,"span":10,"encoder":"6206048960","distractor":"6206048260","target":"absent","response":"absent","rt":"2818.8999998569","correct":true,"confidence":-1},{"trial_n":4,"span":10,"encoder":"2405709537","distractor":"2405009537","target":"absent","response":"present","rt":"2558","correct":false,"confidence":-1},{"trial_n":5,"span":8,"encoder":"16314183","distractor":"16314153","target":"present","response":"present","rt":"3626.7999999523","correct":true,"confidence":-1},{"trial_n":6,"span":8,"encoder":"71710687","distractor":"72710687","target":"absent","response":"present","rt":"5660.2999999523","correct":false,"confidence":-1},{"trial_n":7,"span":6,"encoder":"973015","distractor":"973315","target":"present","response":"present","rt":"1118.5","correct":true,"confidence":-1},{"trial_n":8,"span":6,"encoder":"956912","distractor":"956512","target":"absent","response":"present","rt":"614.30000019073","correct":false,"confidence":-1},{"trial_n":9,"span":4,"encoder":"8084","distractor":"8083","target":"absent","response":"present","rt":"473.90000009537","correct":false,"confidence":-1},{"trial_n":10,"span":2,"encoder":"51","distractor":"58","target":"present","response":"present","rt":"2028.1999998093","correct":true,"confidence":-1},{"trial_n":11,"span":2,"encoder":"37","distractor":"34","target":"absent","response":"absent","rt":"1346.1000001431","correct":true,"confidence":-1},{"trial_n":12,"span":3,"encoder":"883","distractor":"882","target":"absent","response":"absent","rt":"1739.7999999523","correct":true,"confidence":-1},{"trial_n":13,"span":3,"encoder":"985","distractor":"185","target":"absent","response":"absent","rt":"1094.2000000477","correct":true,"confidence":-1},{"trial_n":14,"span":4,"encoder":"4419","distractor":"5419","target":"absent","response":"absent","rt":"1423.0999999046","correct":true,"confidence":-1},{"trial_n":15,"span":4,"encoder":"9382","distractor":"4382","target":"present","response":"present","rt":"1838.7000000477","correct":true,"confidence":-1},{"trial_n":16,"span":5,"encoder":"97103","distractor":"97108","target":"present","response":"present","rt":"2042.9000000954","correct":true,"confidence":-1},{"trial_n":17,"span":5,"encoder":"93349","distractor":"93149","target":"absent","response":"absent","rt":"2055","correct":true,"confidence":-1},{"trial_n":18,"span":6,"encoder":"082895","distractor":"082095","target":"present","response":"present","rt":"1526.1000001431","correct":true,"confidence":-1},{"trial_n":19,"span":6,"encoder":"838335","distractor":"838735","target":"absent","response":"absent","rt":"1542.0999999046","correct":true,"confidence":-1},{"trial_n":20,"span":7,"encoder":"4104055","distractor":"4107055","target":"absent","response":"absent","rt":"2297.9000000954","correct":true,"confidence":-1},{"trial_n":21,"span":7,"encoder":"5435914","distractor":"0435914","target":"present","response":"present","rt":"2606.5","correct":true,"confidence":4},{"trial_n":22,"span":8,"encoder":"61136506","distractor":"61156506","target":"absent","response":"absent","rt":"2322.9000000954","correct":true,"confidence":3},{"trial_n":23,"span":8,"encoder":"96846131","distractor":"98846131","target":"absent","response":"absent","rt":"1670.2999999523","correct":true,"confidence":3},{"trial_n":24,"span":9,"encoder":"767999509","distractor":"764999509","target":"present","response":"present","rt":"1896.9000000954","correct":true,"confidence":4},{"trial_n":25,"span":9,"encoder":"565213285","distractor":"565223285","target":"present","response":"present","rt":"4733.2000000477","correct":true,"confidence":3},{"trial_n":26,"span":10,"encoder":"8883212679","distractor":"8883212649","target":"present","response":"present","rt":"4094.4000000954","correct":true,"confidence":3},{"trial_n":27,"span":10,"encoder":"6525170980","distractor":"6525170950","target":"absent","response":"present","rt":"2333.5999999046","correct":false,"confidence":2},{"trial_n":28,"span":9,"encoder":"749598954","distractor":"749598974","target":"present","response":"present","rt":"1980.3000001907","correct":true,"confidence":3},{"trial_n":29,"span":9,"encoder":"925980074","distractor":"925480074","target":"absent","response":"absent","rt":"2041.9000000954","correct":true,"confidence":1},{"trial_n":30,"span":10,"encoder":"5494027427","distractor":"5498027427","target":"present","response":"present","rt":"3068.4000000954","correct":true,"confidence":2},{"trial_n":31,"span":10,"encoder":"9063270620","distractor":"9063270920","target":"present","response":"present","rt":"2417.7999999523","correct":true,"confidence":3},{"trial_n":32,"span":11,"encoder":"61952499480","distractor":"61952419480","target":"absent","response":"absent","rt":"2083.5999999046","correct":true,"confidence":3},{"trial_n":33,"span":11,"encoder":"88671463573","distractor":"88671466573","target":"absent","response":"present","rt":"1818","correct":false,"confidence":3},{"trial_n":34,"span":10,"encoder":"7600313006","distractor":"7600313016","target":"absent","response":"present","rt":"3867.4000000954","correct":false,"confidence":3},{"trial_n":35,"span":9,"encoder":"896350926","distractor":"896350956","target":"present","response":"present","rt":"1794.6000001431","correct":true,"confidence":3},{"trial_n":36,"span":9,"encoder":"313875647","distractor":"313875677","target":"present","response":"present","rt":"3641.3999998569","correct":true,"confidence":3},{"trial_n":37,"span":10,"encoder":"8270059186","distractor":"8270019186","target":"present","response":"absent","rt":"1912.7000000477","correct":false,"confidence":2},{"trial_n":38,"span":9,"encoder":"951913183","distractor":"951983183","target":"present","response":"present","rt":"1830.7999999523","correct":true,"confidence":3},{"trial_n":39,"span":9,"encoder":"142532957","distractor":"122532957","target":"absent","response":"present","rt":"1219.2999999523","correct":false,"confidence":1},{"trial_n":40,"span":8,"encoder":"63818703","distractor":"63810703","target":"present","response":"present","rt":"2876.5","correct":true,"confidence":1},{"trial_n":41,"span":8,"encoder":"14535402","distractor":"14535002","target":"absent","response":"absent","rt":"4331.4000000954","correct":true,"confidence":3},{"trial_n":42,"span":9,"encoder":"902735226","distractor":"902735222","target":"present","response":"present","rt":"3129.5","correct":true,"confidence":4},{"trial_n":43,"span":9,"encoder":"425644990","distractor":"425444990","target":"present","response":"present","rt":"3113.2000000477","correct":true,"confidence":3},{"trial_n":44,"span":10,"encoder":"2814713017","distractor":"2714713017","target":"absent","response":"present","rt":"8002","correct":false,"confidence":3},{"trial_n":45,"span":9,"encoder":"416720332","distractor":"416120332","target":"present","response":"present","rt":"3880.5999999046","correct":true,"confidence":3},{"trial_n":46,"span":9,"encoder":"542596385","distractor":"542593385","target":"absent","response":"absent","rt":"3245.2000000477","correct":true,"confidence":3},{"trial_n":47,"span":10,"encoder":"3281957831","distractor":"3281157831","target":"present","response":"absent","rt":"1421.4000000954","correct":false,"confidence":1},{"trial_n":48,"span":9,"encoder":"489003463","distractor":"489603463","target":"absent","response":"absent","rt":"1027.5","correct":true,"confidence":1},{"trial_n":49,"span":9,"encoder":"307531432","distractor":"307231432","target":"present","response":"absent","rt":"1202.5","correct":false,"confidence":1},{"trial_n":50,"span":8,"encoder":"55514751","distractor":"55514752","target":"absent","response":"present","rt":"1080.4000000954","correct":false,"confidence":1},{"trial_n":51,"span":7,"encoder":"3321428","distractor":"3321408","target":"absent","response":"present","rt":"2887.0999999046","correct":false,"confidence":1},{"trial_n":52,"span":6,"encoder":"621004","distractor":"681004","target":"present","response":"present","rt":"1352.4000000954","correct":true,"confidence":1},{"trial_n":53,"span":6,"encoder":"620310","distractor":"020310","target":"present","response":"absent","rt":"961.59999990463","correct":false,"confidence":1},{"trial_n":54,"span":5,"encoder":"26783","distractor":"23783","target":"absent","response":"absent","rt":"1527.5999999046","correct":true,"confidence":1},{"trial_n":55,"span":5,"encoder":"04190","distractor":"04100","target":"absent","response":"present","rt":"1156.6000001431","correct":false,"confidence":1},{"trial_n":56,"span":4,"encoder":"9018","distractor":"4018","target":"absent","response":"absent","rt":"1740.7999999523","correct":true,"confidence":4},{"trial_n":57,"span":4,"encoder":"9913","distractor":"9910","target":"present","response":"present","rt":"2394.3999998569","correct":true,"confidence":5},{"trial_n":58,"span":5,"encoder":"91195","distractor":"81195","target":"absent","response":"absent","rt":"2285","correct":true,"confidence":5},{"trial_n":59,"span":5,"encoder":"71404","distractor":"71704","target":"present","response":"present","rt":"1850.2999999523","correct":true,"confidence":5},{"trial_n":60,"span":6,"encoder":"729265","distractor":"729268","target":"present","response":"present","rt":"2605.5","correct":true,"confidence":4},{"trial_n":61,"span":6,"encoder":"023812","distractor":"022812","target":"absent","response":"absent","rt":"4705.7000000477","correct":true,"confidence":4},{"trial_n":62,"span":7,"encoder":"7459032","distractor":"8459032","target":"absent","response":"absent","rt":"6239.4000000954","correct":true,"confidence":3},{"trial_n":63,"span":7,"encoder":"9652094","distractor":"9652594","target":"present","response":"present","rt":"2727","correct":true,"confidence":5},{"trial_n":64,"span":8,"encoder":"37431733","distractor":"37431703","target":"present","response":"present","rt":"3262.2000000477","correct":true,"confidence":4},{"trial_n":65,"span":8,"encoder":"59974312","distractor":"59974382","target":"present","response":"present","rt":"3336","correct":true,"confidence":5},{"trial_n":66,"span":9,"encoder":"011559150","distractor":"010559150","target":"present","response":"present","rt":"1854.2000000477","correct":true,"confidence":4},{"trial_n":67,"span":9,"encoder":"497439250","distractor":"498439250","target":"absent","response":"absent","rt":"2420.7999999523","correct":true,"confidence":4},{"trial_n":68,"span":10,"encoder":"0550299634","distractor":"0550299654","target":"absent","response":"absent","rt":"9175.7000000477","correct":true,"confidence":3},{"trial_n":69,"span":10,"encoder":"5261056190","distractor":"8261056190","target":"present","response":"present","rt":"4348.2999999523","correct":true,"confidence":3},{"trial_n":70,"span":11,"encoder":"75171765670","distractor":"75171565670","target":"present","response":"present","rt":"5161.5999999046","correct":true,"confidence":1},{"trial_n":71,"span":8,"encoder":"12822720","distractor":"12822700","target":"present","response":"present","rt":"6574.7000000477","correct":true,"confidence":-1},{"trial_n":72,"span":8,"encoder":"84727778","distractor":"84725778","target":"present","response":"present","rt":"2270.8999998569","correct":true,"confidence":-1},{"trial_n":73,"span":9,"encoder":"861199138","distractor":"864199138","target":"absent","response":"absent","rt":"3736.7000000477","correct":true,"confidence":-1},{"trial_n":74,"span":9,"encoder":"285098068","distractor":"585098068","target":"absent","response":"absent","rt":"4932.4000000954","correct":true,"confidence":-1},{"trial_n":75,"span":10,"encoder":"5028922860","distractor":"9028922860","target":"present","response":"present","rt":"2279.4000000954","correct":true,"confidence":-1},{"trial_n":76,"span":10,"encoder":"5966112893","distractor":"5965112893","target":"present","response":"present","rt":"2899.7999999523","correct":true,"confidence":-1},{"trial_n":77,"span":11,"encoder":"58635910606","distractor":"54635910606","target":"present","response":"present","rt":"2626.0999999046","correct":true,"confidence":-1},{"trial_n":78,"span":11,"encoder":"35869932376","distractor":"35869932386","target":"present","response":"present","rt":"3885.2000000477","correct":true,"confidence":-1},{"trial_n":79,"span":12,"encoder":"664881005674","distractor":"664881805674","target":"present","response":"present","rt":"4313.6999998093","correct":true,"confidence":-1},{"trial_n":80,"span":12,"encoder":"462556114952","distractor":"462546114952","target":"absent","response":"absent","rt":"5096.7999999523","correct":true,"confidence":-1},{"trial_n":81,"span":13,"encoder":"5785281463574","distractor":"5785281463577","target":"absent","response":"absent","rt":"1190.7999999523","correct":true,"confidence":-1},{"trial_n":82,"span":13,"encoder":"9271920313320","distractor":"9272920313320","target":"absent","response":"absent","rt":"2720.5","correct":true,"confidence":-1},{"trial_n":83,"span":14,"encoder":"67900588041059","distractor":"67900588043059","target":"present","response":"present","rt":"5170.9000000954","correct":true,"confidence":-1},{"trial_n":84,"span":14,"encoder":"78065246687993","distractor":"78265246687993","target":"present","response":"present","rt":"5512.0999999046","correct":true,"confidence":-1},{"trial_n":85,"span":15,"encoder":"406007912541138","distractor":"006007912541138","target":"absent","response":"present","rt":"491.59999990463","correct":false,"confidence":-1},{"trial_n":86,"span":14,"encoder":"70855878600901","distractor":"70755878600901","target":"present","response":"present","rt":"4657.5","correct":true,"confidence":-1},{"trial_n":87,"span":14,"encoder":"73111201099206","distractor":"73121201099206","target":"present","response":"present","rt":"1402.6000001431","correct":true,"confidence":-1},{"trial_n":88,"span":15,"encoder":"514296794569387","distractor":"514297794569387","target":"present","response":"present","rt":"1444.5","correct":true,"confidence":-1},{"trial_n":89,"span":15,"encoder":"593444749638073","distractor":"593444749638076","target":"absent","response":"present","rt":"613.19999980927","correct":false,"confidence":-1},{"trial_n":90,"span":14,"encoder":"76497173975243","distractor":"76497173945243","target":"absent","response":"present","rt":"1494.7999999523","correct":false,"confidence":-1},{"trial_n":91,"span":13,"encoder":"4991423192999","distractor":"4991423192996","target":"present","response":"present","rt":"555.70000004768","correct":true,"confidence":2},{"trial_n":92,"span":13,"encoder":"5470123713820","distractor":"5478123713820","target":"present","response":"present","rt":"468.60000014305","correct":true,"confidence":1},{"trial_n":93,"span":14,"encoder":"44037819527026","distractor":"44037819527036","target":"present","response":"present","rt":"576.70000004768","correct":true,"confidence":1},{"trial_n":94,"span":14,"encoder":"83123477862750","distractor":"13123477862750","target":"absent","response":"absent","rt":"4030.5","correct":true,"confidence":3},{"trial_n":95,"span":15,"encoder":"304599362811130","distractor":"304592362811130","target":"present","response":"present","rt":"3722.5","correct":true,"confidence":3},{"trial_n":96,"span":15,"encoder":"519590998678632","distractor":"519590998688632","target":"present","response":"absent","rt":"5385.1000001431","correct":false,"confidence":4},{"trial_n":97,"span":14,"encoder":"90120921702268","distractor":"90120921702262","target":"present","response":"present","rt":"11981.299999952","correct":true,"confidence":1},{"trial_n":98,"span":14,"encoder":"90178314669254","distractor":"90178314666254","target":"present","response":"present","rt":"1986.5","correct":true,"confidence":1},{"trial_n":99,"span":15,"encoder":"509902167267151","distractor":"509902162267151","target":"present","response":"present","rt":"1788.7999999523","correct":true,"confidence":1},{"trial_n":100,"span":15,"encoder":"788661839190051","distractor":"788661831190051","target":"absent","response":"present","rt":"2962","correct":false,"confidence":1},{"trial_n":101,"span":14,"encoder":"93427847093550","distractor":"93427847093580","target":"present","response":"absent","rt":"1745","correct":false,"confidence":1},{"trial_n":102,"span":13,"encoder":"2638895723179","distractor":"2638855723179","target":"absent","response":"present","rt":"873.10000014305","correct":false,"confidence":1},{"trial_n":103,"span":12,"encoder":"856369932434","distractor":"856368932434","target":"present","response":"present","rt":"5625.2000000477","correct":true,"confidence":1},{"trial_n":104,"span":12,"encoder":"068626325494","distractor":"068626325694","target":"absent","response":"absent","rt":"4185.5999999046","correct":true,"confidence":1},{"trial_n":105,"span":13,"encoder":"0427086240659","distractor":"0427086245659","target":"present","response":"present","rt":"2072.6000001431","correct":true,"confidence":1},{"trial_n":106,"span":13,"encoder":"8185741731753","distractor":"8585741731753","target":"absent","response":"present","rt":"794.69999980927","correct":false,"confidence":1},{"trial_n":107,"span":12,"encoder":"478701763645","distractor":"478704763645","target":"absent","response":"absent","rt":"1740","correct":true,"confidence":1},{"trial_n":108,"span":12,"encoder":"103949102259","distractor":"103949102279","target":"present","response":"present","rt":"2339.5999999046","correct":true,"confidence":3},{"trial_n":109,"span":13,"encoder":"1108261016124","distractor":"1108261216124","target":"absent","response":"present","rt":"2004.8999998569","correct":false,"confidence":2},{"trial_n":110,"span":12,"encoder":"031141843554","distractor":"031131843554","target":"absent","response":"absent","rt":"2182.7000000477","correct":true,"confidence":2},{"trial_n":111,"span":12,"encoder":"731105450989","distractor":"931105450989","target":"present","response":"present","rt":"1499.7000000477","correct":true,"confidence":2},{"trial_n":112,"span":13,"encoder":"1420304814822","distractor":"7420304814822","target":"absent","response":"absent","rt":"2403.2000000477","correct":true,"confidence":2},{"trial_n":113,"span":13,"encoder":"4776022777365","distractor":"9776022777365","target":"absent","response":"absent","rt":"3400.5","correct":true,"confidence":3},{"trial_n":114,"span":14,"encoder":"75479560583675","distractor":"75479560883675","target":"absent","response":"present","rt":"1486.0999999046","correct":false,"confidence":1},{"trial_n":115,"span":13,"encoder":"0313560735556","distractor":"0313569735556","target":"absent","response":"present","rt":"1052.9000000954","correct":false,"confidence":1},{"trial_n":116,"span":12,"encoder":"594684191559","distractor":"594689191559","target":"present","response":"present","rt":"1110.0999999046","correct":true,"confidence":1},{"trial_n":117,"span":12,"encoder":"259889902440","distractor":"259889902441","target":"absent","response":"absent","rt":"708.5","correct":true,"confidence":1},{"trial_n":118,"span":13,"encoder":"6291113930658","distractor":"6291113930688","target":"absent","response":"present","rt":"1005.5","correct":false,"confidence":1},{"trial_n":119,"span":12,"encoder":"445419964024","distractor":"445219964024","target":"absent","response":"present","rt":"1225.9000000954","correct":false,"confidence":1},{"trial_n":120,"span":11,"encoder":"45034766265","distractor":"45004766265","target":"absent","response":"present","rt":"1573","correct":false,"confidence":1},{"trial_n":121,"span":10,"encoder":"6086359222","distractor":"6086659222","target":"present","response":"absent","rt":"1245.4000000954","correct":false,"confidence":1},{"trial_n":122,"span":9,"encoder":"046650166","distractor":"046050166","target":"present","response":"present","rt":"817.10000014305","correct":true,"confidence":1},{"trial_n":123,"span":9,"encoder":"347634298","distractor":"307634298","target":"present","response":"present","rt":"1972.0999999046","correct":true,"confidence":1},{"trial_n":124,"span":10,"encoder":"5969624254","distractor":"5949624254","target":"absent","response":"present","rt":"2948.4000000954","correct":false,"confidence":1},{"trial_n":125,"span":9,"encoder":"161291346","distractor":"161291343","target":"present","response":"absent","rt":"1395.9000000954","correct":false,"confidence":1},{"trial_n":126,"span":8,"encoder":"55281727","distractor":"55281725","target":"present","response":"present","rt":"1135.2999999523","correct":true,"confidence":1},{"trial_n":127,"span":8,"encoder":"50059676","distractor":"50056676","target":"present","response":"absent","rt":"3716.5999999046","correct":false,"confidence":1},{"trial_n":128,"span":7,"encoder":"0825698","distractor":"0325698","target":"absent","response":"present","rt":"1943.4000000954","correct":false,"confidence":1},{"trial_n":129,"span":6,"encoder":"303242","distractor":"303202","target":"absent","response":"present","rt":"1871.1000001431","correct":false,"confidence":1},{"trial_n":130,"span":5,"encoder":"55942","distractor":"50942","target":"present","response":"absent","rt":"1432.5","correct":false,"confidence":1},{"trial_n":131,"span":4,"encoder":"5188","distractor":"5128","target":"absent","response":"absent","rt":"1758.4000000954","correct":true,"confidence":3},{"trial_n":132,"span":4,"encoder":"7797","distractor":"7897","target":"absent","response":"absent","rt":"1397.2000000477","correct":true,"confidence":3},{"trial_n":133,"span":5,"encoder":"06897","distractor":"06847","target":"absent","response":"absent","rt":"1979","correct":true,"confidence":4},{"trial_n":134,"span":5,"encoder":"52311","distractor":"42311","target":"present","response":"absent","rt":"1960.8000001907","correct":false,"confidence":2},{"trial_n":135,"span":4,"encoder":"2045","distractor":"2041","target":"present","response":"present","rt":"1256.6000001431","correct":true,"confidence":5},{"trial_n":136,"span":4,"encoder":"4136","distractor":"4836","target":"absent","response":"absent","rt":"1379.3999998569","correct":true,"confidence":5},{"trial_n":137,"span":5,"encoder":"97107","distractor":"94107","target":"absent","response":"absent","rt":"1285.5","correct":true,"confidence":5},{"trial_n":138,"span":5,"encoder":"36767","distractor":"16767","target":"absent","response":"absent","rt":"1273.2000000477","correct":true,"confidence":5},{"trial_n":139,"span":6,"encoder":"202536","distractor":"282536","target":"present","response":"present","rt":"2374.8999998569","correct":true,"confidence":5},{"trial_n":140,"span":6,"encoder":"898586","distractor":"898546","target":"absent","response":"absent","rt":"6306.3999998569","correct":true,"confidence":4}]