[{"trial_n":1,"n_dots":4.25,"target":"right","response":"right","rt":11886,"correct":true,"confidence":-1},{"trial_n":2,"n_dots":4.25,"target":"left","response":"left","rt":1004.0999999046,"correct":true,"confidence":-1},{"trial_n":3,"n_dots":3.85,"target":"right","response":"right","rt":762.5,"correct":true,"confidence":-1},{"trial_n":4,"n_dots":3.85,"target":"left","response":"left","rt":384.39999985695,"correct":true,"confidence":-1},{"trial_n":5,"n_dots":3.45,"target":"left","response":"left","rt":252.80000019073,"correct":true,"confidence":-1},{"trial_n":6,"n_dots":3.45,"target":"right","response":"right","rt":423.90000009537,"correct":true,"confidence":-1},{"trial_n":7,"n_dots":3.05,"target":"left","response":"left","rt":572.5,"correct":true,"confidence":-1},{"trial_n":8,"n_dots":3.05,"target":"right","response":"right","rt":968.5,"correct":true,"confidence":-1},{"trial_n":9,"n_dots":2.85,"target":"left","response":"left","rt":467.79999995232,"correct":true,"confidence":-1},{"trial_n":10,"n_dots":2.85,"target":"right","response":"left","rt":570,"correct":false,"confidence":-1},{"trial_n":11,"n_dots":3.05,"target":"right","response":"right","rt":937.29999995232,"correct":true,"confidence":-1},{"trial_n":12,"n_dots":3.05,"target":"right","response":"left","rt":707,"correct":false,"confidence":-1},{"trial_n":13,"n_dots":3.15,"target":"right","response":"right","rt":636.90000009537,"correct":true,"confidence":-1},{"trial_n":14,"n_dots":3.15,"target":"left","response":"left","rt":354.30000019073,"correct":true,"confidence":-1},{"trial_n":15,"n_dots":3.05,"target":"left","response":"right","rt":1025.7999999523,"correct":false,"confidence":-1},{"trial_n":16,"n_dots":3.15,"target":"right","response":"left","rt":488.29999995232,"correct":false,"confidence":-1},{"trial_n":17,"n_dots":3.25,"target":"left","response":"left","rt":296.39999985695,"correct":true,"confidence":-1},{"trial_n":18,"n_dots":3.25,"target":"left","response":"left","rt":589.79999995232,"correct":true,"confidence":-1},{"trial_n":19,"n_dots":3.15,"target":"left","response":"right","rt":4078.1999998093,"correct":false,"confidence":-1},{"trial_n":20,"n_dots":3.25,"target":"right","response":"right","rt":582.30000019073,"correct":true,"confidence":-1},{"trial_n":21,"n_dots":3.25,"target":"left","response":"right","rt":536.90000009537,"correct":false,"confidence":3},{"trial_n":22,"n_dots":3.35,"target":"right","response":"right","rt":434.60000014305,"correct":true,"confidence":4},{"trial_n":23,"n_dots":3.35,"target":"right","response":"right","rt":545.79999995232,"correct":true,"confidence":4},{"trial_n":24,"n_dots":3.25,"target":"left","response":"left","rt":431.39999985695,"correct":true,"confidence":4},{"trial_n":25,"n_dots":3.25,"target":"right","response":"right","rt":636.40000009537,"correct":true,"confidence":3},{"trial_n":26,"n_dots":3.15,"target":"left","response":"right","rt":3186.3000001907,"correct":false,"confidence":2},{"trial_n":27,"n_dots":3.25,"target":"left","response":"right","rt":8556.0999999046,"correct":false,"confidence":3},{"trial_n":28,"n_dots":3.35,"target":"right","response":"left","rt":1004.5999999046,"correct":false,"confidence":3},{"trial_n":29,"n_dots":3.45,"target":"left","response":"right","rt":1408.2999999523,"correct":false,"confidence":2},{"trial_n":30,"n_dots":3.55,"target":"right","response":"right","rt":579.09999990463,"correct":true,"confidence":4},{"trial_n":31,"n_dots":3.55,"target":"left","response":"left","rt":476.79999995232,"correct":true,"confidence":4},{"trial_n":32,"n_dots":3.45,"target":"right","response":"right","rt":228.30000019073,"correct":true,"confidence":3},{"trial_n":33,"n_dots":3.45,"target":"right","response":"right","rt":1294.6999998093,"correct":true,"confidence":2},{"trial_n":34,"n_dots":3.35,"target":"left","response":"left","rt":667.10000014305,"correct":true,"confidence":4},{"trial_n":35,"n_dots":3.35,"target":"left","response":"left","rt":423.39999985695,"correct":true,"confidence":4},{"trial_n":36,"n_dots":3.25,"target":"right","response":"right","rt":964.10000014305,"correct":true,"confidence":2},{"trial_n":37,"n_dots":3.25,"target":"left","response":"left","rt":366.39999985695,"correct":true,"confidence":3},{"trial_n":38,"n_dots":3.15,"target":"left","response":"left","rt":310.89999985695,"correct":true,"confidence":2},{"trial_n":39,"n_dots":3.15,"target":"right","response":"left","rt":802.20000004768,"correct":false,"confidence":3},{"trial_n":40,"n_dots":3.25,"target":"right","response":"right","rt":917.10000014305,"correct":true,"confidence":3},{"trial_n":41,"n_dots":3.25,"target":"left","response":"left","rt":1662.2000000477,"correct":true,"confidence":2},{"trial_n":42,"n_dots":3.15,"target":"right","response":"right","rt":834,"correct":true,"confidence":3},{"trial_n":43,"n_dots":3.15,"target":"right","response":"right","rt":721.59999990463,"correct":true,"confidence":3},{"trial_n":44,"n_dots":3.05,"target":"left","response":"left","rt":430.79999995232,"correct":true,"confidence":2},{"trial_n":45,"n_dots":3.05,"target":"left","response":"left","rt":831.09999990463,"correct":true,"confidence":3},{"trial_n":46,"n_dots":2.95,"target":"right","response":"right","rt":417.19999980927,"correct":true,"confidence":4},{"trial_n":47,"n_dots":2.95,"target":"right","response":"right","rt":328.79999995232,"correct":true,"confidence":3},{"trial_n":48,"n_dots":2.85,"target":"left","response":"right","rt":1068.9000000954,"correct":false,"confidence":2},{"trial_n":49,"n_dots":2.95,"target":"right","response":"right","rt":1000.4000000954,"correct":true,"confidence":2},{"trial_n":50,"n_dots":2.95,"target":"right","response":"right","rt":810.70000004768,"correct":true,"confidence":2},{"trial_n":51,"n_dots":2.85,"target":"right","response":"left","rt":621.40000009537,"correct":false,"confidence":3},{"trial_n":52,"n_dots":2.95,"target":"left","response":"left","rt":688.40000009537,"correct":true,"confidence":2},{"trial_n":53,"n_dots":2.95,"target":"right","response":"right","rt":146.29999995232,"correct":true,"confidence":3},{"trial_n":54,"n_dots":2.85,"target":"right","response":"left","rt":1281.5,"correct":false,"confidence":2},{"trial_n":55,"n_dots":2.95,"target":"right","response":"right","rt":626.09999990463,"correct":true,"confidence":2},{"trial_n":56,"n_dots":2.95,"target":"right","response":"right","rt":374.5,"correct":true,"confidence":3},{"trial_n":57,"n_dots":2.85,"target":"right","response":"right","rt":3197.2000000477,"correct":true,"confidence":1},{"trial_n":58,"n_dots":2.85,"target":"left","response":"left","rt":794.29999995232,"correct":true,"confidence":3},{"trial_n":59,"n_dots":2.75,"target":"right","response":"left","rt":1494.7000000477,"correct":false,"confidence":1},{"trial_n":60,"n_dots":2.85,"target":"right","response":"right","rt":839.79999995232,"correct":true,"confidence":2},{"trial_n":61,"n_dots":2.85,"target":"left","response":"left","rt":540,"correct":true,"confidence":2},{"trial_n":62,"n_dots":2.75,"target":"right","response":"left","rt":515,"correct":false,"confidence":1},{"trial_n":63,"n_dots":2.85,"target":"right","response":"right","rt":918.79999995232,"correct":true,"confidence":1},{"trial_n":64,"n_dots":2.85,"target":"right","response":"right","rt":852.70000004768,"correct":true,"confidence":2},{"trial_n":65,"n_dots":2.75,"target":"right","response":"left","rt":1467.3999998569,"correct":false,"confidence":2},{"trial_n":66,"n_dots":2.85,"target":"right","response":"right","rt":2704.6000001431,"correct":true,"confidence":2},{"trial_n":67,"n_dots":2.85,"target":"right","response":"right","rt":1337.6999998093,"correct":true,"confidence":2},{"trial_n":68,"n_dots":2.75,"target":"right","response":"right","rt":1061.5,"correct":true,"confidence":2},{"trial_n":69,"n_dots":2.75,"target":"right","response":"right","rt":733.29999995232,"correct":true,"confidence":1},{"trial_n":70,"n_dots":2.65,"target":"left","response":"left","rt":626.70000004768,"correct":true,"confidence":1},{"trial_n":71,"n_dots":2.65,"target":"right","response":"right","rt":571.70000004768,"correct":true,"confidence":1},{"trial_n":72,"n_dots":2.55,"target":"right","response":"left","rt":329.5,"correct":false,"confidence":2},{"trial_n":73,"n_dots":2.65,"target":"left","response":"left","rt":795.09999990463,"correct":true,"confidence":1},{"trial_n":74,"n_dots":2.65,"target":"left","response":"left","rt":1437,"correct":true,"confidence":1},{"trial_n":75,"n_dots":2.55,"target":"right","response":"right","rt":1156.6999998093,"correct":true,"confidence":1},{"trial_n":76,"n_dots":2.55,"target":"left","response":"left","rt":1078.7000000477,"correct":true,"confidence":1},{"trial_n":77,"n_dots":2.45,"target":"left","response":"right","rt":1088.8999998569,"correct":false,"confidence":2},{"trial_n":78,"n_dots":2.55,"target":"left","response":"left","rt":1200.1000001431,"correct":true,"confidence":1},{"trial_n":79,"n_dots":2.55,"target":"left","response":"right","rt":947.90000009537,"correct":false,"confidence":1},{"trial_n":80,"n_dots":2.65,"target":"right","response":"left","rt":146.60000014305,"correct":false,"confidence":1},{"trial_n":81,"n_dots":2.75,"target":"left","response":"left","rt":449.29999995232,"correct":true,"confidence":3},{"trial_n":82,"n_dots":2.75,"target":"left","response":"left","rt":614.89999985695,"correct":true,"confidence":2},{"trial_n":83,"n_dots":2.65,"target":"left","response":"left","rt":1490.7000000477,"correct":true,"confidence":2},{"trial_n":84,"n_dots":2.65,"target":"left","response":"right","rt":405.39999985695,"correct":false,"confidence":3},{"trial_n":85,"n_dots":2.75,"target":"right","response":"left","rt":915.5,"correct":false,"confidence":2},{"trial_n":86,"n_dots":2.85,"target":"right","response":"right","rt":368.60000014305,"correct":true,"confidence":4},{"trial_n":87,"n_dots":2.85,"target":"left","response":"left","rt":475.5,"correct":true,"confidence":3},{"trial_n":88,"n_dots":2.75,"target":"left","response":"right","rt":807.70000004768,"correct":false,"confidence":2},{"trial_n":89,"n_dots":2.85,"target":"right","response":"left","rt":1423.7999999523,"correct":false,"confidence":1},{"trial_n":90,"n_dots":2.95,"target":"left","response":"left","rt":1437.7000000477,"correct":true,"confidence":1},{"trial_n":91,"n_dots":2.95,"target":"left","response":"left","rt":595.29999995232,"correct":true,"confidence":2},{"trial_n":92,"n_dots":2.85,"target":"right","response":"right","rt":1351.7999999523,"correct":true,"confidence":1},{"trial_n":93,"n_dots":2.85,"target":"left","response":"left","rt":313.79999995232,"correct":true,"confidence":3},{"trial_n":94,"n_dots":2.75,"target":"right","response":"right","rt":895.90000009537,"correct":true,"confidence":1},{"trial_n":95,"n_dots":2.75,"target":"right","response":"left","rt":191.5,"correct":false,"confidence":2},{"trial_n":96,"n_dots":2.85,"target":"left","response":"left","rt":1260.5999999046,"correct":true,"confidence":1},{"trial_n":97,"n_dots":2.85,"target":"left","response":"right","rt":443.69999980927,"correct":false,"confidence":1},{"trial_n":98,"n_dots":2.95,"target":"left","response":"left","rt":400.5,"correct":true,"confidence":3},{"trial_n":99,"n_dots":2.95,"target":"left","response":"left","rt":331.20000004768,"correct":true,"confidence":3},{"trial_n":100,"n_dots":2.85,"target":"right","response":"right","rt":777.90000009537,"correct":true,"confidence":2},{"trial_n":101,"n_dots":2.85,"target":"right","response":"right","rt":1052.2999999523,"correct":true,"confidence":2},{"trial_n":102,"n_dots":2.75,"target":"right","response":"right","rt":956.90000009537,"correct":true,"confidence":3},{"trial_n":103,"n_dots":2.75,"target":"left","response":"left","rt":722.90000009537,"correct":true,"confidence":1},{"trial_n":104,"n_dots":2.65,"target":"left","response":"left","rt":462.39999985695,"correct":true,"confidence":3},{"trial_n":105,"n_dots":2.65,"target":"left","response":"right","rt":787.09999990463,"correct":false,"confidence":2},{"trial_n":106,"n_dots":2.75,"target":"right","response":"right","rt":496.79999995232,"correct":true,"confidence":3},{"trial_n":107,"n_dots":2.75,"target":"left","response":"right","rt":694.29999995232,"correct":false,"confidence":1},{"trial_n":108,"n_dots":2.85,"target":"left","response":"left","rt":1101.5999999046,"correct":true,"confidence":1},{"trial_n":109,"n_dots":2.85,"target":"left","response":"left","rt":642.30000019073,"correct":true,"confidence":3},{"trial_n":110,"n_dots":2.75,"target":"right","response":"right","rt":328.70000004768,"correct":true,"confidence":3},{"trial_n":111,"n_dots":2.75,"target":"right","response":"right","rt":782.5,"correct":true,"confidence":1},{"trial_n":112,"n_dots":2.65,"target":"right","response":"right","rt":555.39999985695,"correct":true,"confidence":2},{"trial_n":113,"n_dots":2.65,"target":"left","response":"right","rt":565.09999990463,"correct":false,"confidence":3},{"trial_n":114,"n_dots":2.75,"target":"left","response":"right","rt":1055.0999999046,"correct":false,"confidence":1},{"trial_n":115,"n_dots":2.85,"target":"left","response":"right","rt":263.69999980927,"correct":false,"confidence":3},{"trial_n":116,"n_dots":2.95,"target":"left","response":"left","rt":521.5,"correct":true,"confidence":3},{"trial_n":117,"n_dots":2.95,"target":"left","response":"right","rt":751,"correct":false,"confidence":2},{"trial_n":118,"n_dots":3.05,"target":"right","response":"right","rt":342.20000004768,"correct":true,"confidence":3},{"trial_n":119,"n_dots":3.05,"target":"left","response":"left","rt":1355.6000001431,"correct":true,"confidence":1},{"trial_n":120,"n_dots":2.95,"target":"left","response":"right","rt":394.79999995232,"correct":false,"confidence":2}]