[{"trial_n":1,"min":25,"max":230,"target":"present","response":"present","rt":5561.7000000477,"correct":true,"confidence":-1},{"trial_n":2,"min":25,"max":230,"target":"present","response":"present","rt":3025.7000000477,"correct":true,"confidence":-1},{"trial_n":3,"min":41,"max":214,"target":"absent","response":"absent","rt":1624.5,"correct":true,"confidence":-1},{"trial_n":4,"min":41,"max":214,"target":"absent","response":"absent","rt":1432.0999999046,"correct":true,"confidence":-1},{"trial_n":5,"min":57,"max":198,"target":"present","response":"present","rt":916,"correct":true,"confidence":-1},{"trial_n":6,"min":57,"max":198,"target":"present","response":"present","rt":801.90000009537,"correct":true,"confidence":-1},{"trial_n":7,"min":73,"max":182,"target":"absent","response":"absent","rt":1127.2999999523,"correct":true,"confidence":-1},{"trial_n":8,"min":73,"max":182,"target":"absent","response":"absent","rt":519.59999990463,"correct":true,"confidence":-1},{"trial_n":9,"min":89,"max":166,"target":"absent","response":"absent","rt":726.39999985695,"correct":true,"confidence":-1},{"trial_n":10,"min":89,"max":166,"target":"absent","response":"absent","rt":716.19999980927,"correct":true,"confidence":-1},{"trial_n":11,"min":97,"max":158,"target":"absent","response":"absent","rt":1588.1000001431,"correct":true,"confidence":-1},{"trial_n":12,"min":97,"max":158,"target":"present","response":"absent","rt":537.09999990463,"correct":false,"confidence":-1},{"trial_n":13,"min":89,"max":166,"target":"absent","response":"absent","rt":1228,"correct":true,"confidence":-1},{"trial_n":14,"min":89,"max":166,"target":"present","response":"present","rt":2095.8000001907,"correct":true,"confidence":-1},{"trial_n":15,"min":97,"max":158,"target":"present","response":"absent","rt":1418.7000000477,"correct":false,"confidence":-1},{"trial_n":16,"min":89,"max":166,"target":"absent","response":"absent","rt":1005.2999999523,"correct":true,"confidence":-1},{"trial_n":17,"min":89,"max":166,"target":"present","response":"absent","rt":1863.7000000477,"correct":false,"confidence":-1},{"trial_n":18,"min":81,"max":174,"target":"absent","response":"present","rt":902.5,"correct":false,"confidence":-1},{"trial_n":19,"min":73,"max":182,"target":"present","response":"present","rt":1017.5,"correct":true,"confidence":-1},{"trial_n":20,"min":73,"max":182,"target":"absent","response":"absent","rt":1584.8999998569,"correct":true,"confidence":-1},{"trial_n":21,"min":77,"max":178,"target":"absent","response":"present","rt":4207.4000000954,"correct":false,"confidence":4},{"trial_n":22,"min":73,"max":182,"target":"absent","response":"present","rt":2292.5999999046,"correct":false,"confidence":3},{"trial_n":23,"min":69,"max":186,"target":"present","response":"present","rt":1666.5999999046,"correct":true,"confidence":5},{"trial_n":24,"min":69,"max":186,"target":"absent","response":"absent","rt":1869.2999999523,"correct":true,"confidence":4},{"trial_n":25,"min":73,"max":182,"target":"absent","response":"present","rt":5512.7000000477,"correct":false,"confidence":2},{"trial_n":26,"min":69,"max":186,"target":"absent","response":"absent","rt":2434.7000000477,"correct":true,"confidence":3},{"trial_n":27,"min":69,"max":186,"target":"present","response":"present","rt":1791.3999998569,"correct":true,"confidence":5},{"trial_n":28,"min":73,"max":182,"target":"present","response":"present","rt":1522.8999998569,"correct":true,"confidence":5},{"trial_n":29,"min":73,"max":182,"target":"present","response":"present","rt":2465.5999999046,"correct":true,"confidence":3},{"trial_n":30,"min":77,"max":178,"target":"absent","response":"present","rt":1945.8999998569,"correct":false,"confidence":3},{"trial_n":31,"min":75,"max":180,"target":"present","response":"present","rt":2020.2999999523,"correct":true,"confidence":4},{"trial_n":32,"min":75,"max":180,"target":"absent","response":"present","rt":955.20000004768,"correct":false,"confidence":3},{"trial_n":33,"min":73,"max":182,"target":"present","response":"present","rt":978.59999990463,"correct":true,"confidence":5},{"trial_n":34,"min":73,"max":182,"target":"absent","response":"present","rt":936.10000014305,"correct":false,"confidence":3},{"trial_n":35,"min":71,"max":184,"target":"absent","response":"present","rt":1620.7000000477,"correct":false,"confidence":3},{"trial_n":36,"min":69,"max":186,"target":"absent","response":"absent","rt":1217,"correct":true,"confidence":3},{"trial_n":37,"min":69,"max":186,"target":"absent","response":"present","rt":879.09999990463,"correct":false,"confidence":3},{"trial_n":38,"min":67,"max":188,"target":"absent","response":"absent","rt":2029.2000000477,"correct":true,"confidence":3},{"trial_n":39,"min":67,"max":188,"target":"present","response":"present","rt":859.29999995232,"correct":true,"confidence":5},{"trial_n":40,"min":69,"max":186,"target":"present","response":"present","rt":959,"correct":true,"confidence":5},{"trial_n":41,"min":69,"max":186,"target":"absent","response":"absent","rt":1504.8999998569,"correct":true,"confidence":3},{"trial_n":42,"min":70,"max":185,"target":"present","response":"present","rt":732.5,"correct":true,"confidence":4},{"trial_n":43,"min":70,"max":185,"target":"present","response":"present","rt":731.09999990463,"correct":true,"confidence":5},{"trial_n":44,"min":71,"max":184,"target":"present","response":"present","rt":844.09999990463,"correct":true,"confidence":3},{"trial_n":45,"min":71,"max":184,"target":"absent","response":"present","rt":1006.7000000477,"correct":false,"confidence":3},{"trial_n":46,"min":70,"max":185,"target":"present","response":"present","rt":939.70000004768,"correct":true,"confidence":5},{"trial_n":47,"min":70,"max":185,"target":"present","response":"present","rt":771.90000009537,"correct":true,"confidence":4},{"trial_n":48,"min":71,"max":184,"target":"present","response":"present","rt":778.70000004768,"correct":true,"confidence":5},{"trial_n":49,"min":71,"max":184,"target":"present","response":"present","rt":645.40000009537,"correct":true,"confidence":5},{"trial_n":50,"min":72,"max":183,"target":"present","response":"present","rt":1396.2999999523,"correct":true,"confidence":5},{"trial_n":51,"min":72,"max":183,"target":"present","response":"present","rt":857.59999990463,"correct":true,"confidence":5},{"trial_n":52,"min":73,"max":182,"target":"present","response":"present","rt":1822.4000000954,"correct":true,"confidence":5},{"trial_n":53,"min":73,"max":182,"target":"absent","response":"absent","rt":1603.7999999523,"correct":true,"confidence":3},{"trial_n":54,"min":74,"max":181,"target":"absent","response":"absent","rt":1163.3000001907,"correct":true,"confidence":3},{"trial_n":55,"min":74,"max":181,"target":"present","response":"present","rt":1625.1999998093,"correct":true,"confidence":5},{"trial_n":56,"min":75,"max":180,"target":"present","response":"present","rt":1257.0999999046,"correct":true,"confidence":4},{"trial_n":57,"min":75,"max":180,"target":"present","response":"present","rt":1003.7000000477,"correct":true,"confidence":5},{"trial_n":58,"min":76,"max":179,"target":"present","response":"present","rt":800.20000004768,"correct":true,"confidence":5},{"trial_n":59,"min":76,"max":179,"target":"absent","response":"absent","rt":921.5,"correct":true,"confidence":4},{"trial_n":60,"min":77,"max":178,"target":"absent","response":"present","rt":1485.7000000477,"correct":false,"confidence":3},{"trial_n":61,"min":76,"max":179,"target":"present","response":"present","rt":763.89999985695,"correct":true,"confidence":4},{"trial_n":62,"min":76,"max":179,"target":"present","response":"absent","rt":1070.1000001431,"correct":false,"confidence":3},{"trial_n":63,"min":75,"max":180,"target":"present","response":"present","rt":748.29999995232,"correct":true,"confidence":4},{"trial_n":64,"min":75,"max":180,"target":"absent","response":"present","rt":1288.7999999523,"correct":false,"confidence":3},{"trial_n":65,"min":74,"max":181,"target":"present","response":"present","rt":724.5,"correct":true,"confidence":4},{"trial_n":66,"min":74,"max":181,"target":"absent","response":"absent","rt":763.20000004768,"correct":true,"confidence":3},{"trial_n":67,"min":75,"max":180,"target":"absent","response":"absent","rt":918.5,"correct":true,"confidence":3},{"trial_n":68,"min":75,"max":180,"target":"present","response":"present","rt":813.60000014305,"correct":true,"confidence":5},{"trial_n":69,"min":76,"max":179,"target":"absent","response":"absent","rt":1047,"correct":true,"confidence":3},{"trial_n":70,"min":76,"max":179,"target":"absent","response":"present","rt":1188.6999998093,"correct":false,"confidence":3},{"trial_n":71,"min":41,"max":214,"target":"present","response":"present","rt":5025.9000000954,"correct":true,"confidence":-1},{"trial_n":72,"min":41,"max":214,"target":"present","response":"present","rt":976.90000009537,"correct":true,"confidence":-1},{"trial_n":73,"min":57,"max":198,"target":"absent","response":"absent","rt":1683.7000000477,"correct":true,"confidence":-1},{"trial_n":74,"min":57,"max":198,"target":"absent","response":"absent","rt":1228.6999998093,"correct":true,"confidence":-1},{"trial_n":75,"min":73,"max":182,"target":"present","response":"present","rt":886.09999990463,"correct":true,"confidence":-1},{"trial_n":76,"min":73,"max":182,"target":"present","response":"present","rt":631,"correct":true,"confidence":-1},{"trial_n":77,"min":89,"max":166,"target":"present","response":"present","rt":881.20000004768,"correct":true,"confidence":-1},{"trial_n":78,"min":89,"max":166,"target":"absent","response":"absent","rt":3505.6000001431,"correct":true,"confidence":-1},{"trial_n":79,"min":105,"max":150,"target":"present","response":"absent","rt":843.40000009537,"correct":false,"confidence":-1},{"trial_n":80,"min":89,"max":166,"target":"absent","response":"absent","rt":1194.8999998569,"correct":true,"confidence":-1},{"trial_n":81,"min":89,"max":166,"target":"absent","response":"present","rt":1351.7000000477,"correct":false,"confidence":-1},{"trial_n":82,"min":81,"max":174,"target":"absent","response":"present","rt":702.39999985695,"correct":false,"confidence":-1},{"trial_n":83,"min":73,"max":182,"target":"absent","response":"absent","rt":1625.5,"correct":true,"confidence":-1},{"trial_n":84,"min":73,"max":182,"target":"present","response":"present","rt":695.5,"correct":true,"confidence":-1},{"trial_n":85,"min":81,"max":174,"target":"present","response":"present","rt":609.20000004768,"correct":true,"confidence":-1},{"trial_n":86,"min":81,"max":174,"target":"absent","response":"present","rt":793.5,"correct":false,"confidence":-1},{"trial_n":87,"min":73,"max":182,"target":"present","response":"present","rt":471.70000004768,"correct":true,"confidence":-1},{"trial_n":88,"min":73,"max":182,"target":"absent","response":"present","rt":2815.6000001431,"correct":false,"confidence":-1},{"trial_n":89,"min":65,"max":190,"target":"present","response":"present","rt":487.90000009537,"correct":true,"confidence":-1},{"trial_n":90,"min":65,"max":190,"target":"absent","response":"present","rt":676.79999995232,"correct":false,"confidence":-1},{"trial_n":91,"min":61,"max":194,"target":"present","response":"present","rt":686.40000009537,"correct":true,"confidence":5},{"trial_n":92,"min":61,"max":194,"target":"absent","response":"present","rt":984.29999995232,"correct":false,"confidence":4},{"trial_n":93,"min":57,"max":198,"target":"absent","response":"absent","rt":1116.8000001907,"correct":true,"confidence":4},{"trial_n":94,"min":57,"max":198,"target":"present","response":"present","rt":773.09999990463,"correct":true,"confidence":4},{"trial_n":95,"min":61,"max":194,"target":"absent","response":"absent","rt":1384.2000000477,"correct":true,"confidence":4},{"trial_n":96,"min":61,"max":194,"target":"absent","response":"absent","rt":1215.7999999523,"correct":true,"confidence":4},{"trial_n":97,"min":65,"max":190,"target":"present","response":"present","rt":805.59999990463,"correct":true,"confidence":5},{"trial_n":98,"min":65,"max":190,"target":"present","response":"present","rt":688.80000019073,"correct":true,"confidence":5},{"trial_n":99,"min":69,"max":186,"target":"absent","response":"absent","rt":1253.8999998569,"correct":true,"confidence":4},{"trial_n":100,"min":69,"max":186,"target":"present","response":"present","rt":748.79999995232,"correct":true,"confidence":5},{"trial_n":101,"min":71,"max":184,"target":"absent","response":"absent","rt":3474.3999998569,"correct":true,"confidence":2},{"trial_n":102,"min":71,"max":184,"target":"absent","response":"absent","rt":1180.5999999046,"correct":true,"confidence":4},{"trial_n":103,"min":73,"max":182,"target":"present","response":"present","rt":659.5,"correct":true,"confidence":4},{"trial_n":104,"min":73,"max":182,"target":"absent","response":"absent","rt":841.80000019073,"correct":true,"confidence":4},{"trial_n":105,"min":75,"max":180,"target":"present","response":"present","rt":1202.0999999046,"correct":true,"confidence":4},{"trial_n":106,"min":75,"max":180,"target":"absent","response":"absent","rt":911.79999995232,"correct":true,"confidence":4},{"trial_n":107,"min":77,"max":178,"target":"absent","response":"absent","rt":1341.7000000477,"correct":true,"confidence":2},{"trial_n":108,"min":77,"max":178,"target":"present","response":"present","rt":915.5,"correct":true,"confidence":3},{"trial_n":109,"min":79,"max":176,"target":"present","response":"present","rt":770.59999990463,"correct":true,"confidence":4},{"trial_n":110,"min":79,"max":176,"target":"present","response":"present","rt":2001,"correct":true,"confidence":3},{"trial_n":111,"min":80,"max":175,"target":"present","response":"present","rt":612.09999990463,"correct":true,"confidence":3},{"trial_n":112,"min":80,"max":175,"target":"absent","response":"present","rt":863.60000014305,"correct":false,"confidence":2},{"trial_n":113,"min":79,"max":176,"target":"present","response":"present","rt":1718.2999999523,"correct":true,"confidence":5},{"trial_n":114,"min":79,"max":176,"target":"absent","response":"absent","rt":1234.7000000477,"correct":true,"confidence":3},{"trial_n":115,"min":80,"max":175,"target":"present","response":"present","rt":959.20000004768,"correct":true,"confidence":4},{"trial_n":116,"min":80,"max":175,"target":"present","response":"present","rt":1567.9000000954,"correct":true,"confidence":3},{"trial_n":117,"min":81,"max":174,"target":"present","response":"present","rt":758.5,"correct":true,"confidence":4},{"trial_n":118,"min":81,"max":174,"target":"absent","response":"absent","rt":876.39999985695,"correct":true,"confidence":3},{"trial_n":119,"min":82,"max":173,"target":"present","response":"present","rt":983.10000014305,"correct":true,"confidence":1},{"trial_n":120,"min":82,"max":173,"target":"present","response":"present","rt":943.29999995232,"correct":true,"confidence":3},{"trial_n":121,"min":83,"max":172,"target":"present","response":"present","rt":927.20000004768,"correct":true,"confidence":1},{"trial_n":122,"min":83,"max":172,"target":"absent","response":"present","rt":3216.5,"correct":false,"confidence":1},{"trial_n":123,"min":82,"max":173,"target":"present","response":"present","rt":729.69999980927,"correct":true,"confidence":3},{"trial_n":124,"min":82,"max":173,"target":"absent","response":"absent","rt":1273.4000000954,"correct":true,"confidence":1},{"trial_n":125,"min":83,"max":172,"target":"present","response":"present","rt":771.09999990463,"correct":true,"confidence":3},{"trial_n":126,"min":83,"max":172,"target":"absent","response":"absent","rt":1084.2000000477,"correct":true,"confidence":1},{"trial_n":127,"min":84,"max":171,"target":"present","response":"present","rt":831.19999980927,"correct":true,"confidence":4},{"trial_n":128,"min":84,"max":171,"target":"absent","response":"absent","rt":1148.5,"correct":true,"confidence":3},{"trial_n":129,"min":85,"max":170,"target":"present","response":"present","rt":749,"correct":true,"confidence":4},{"trial_n":130,"min":85,"max":170,"target":"absent","response":"absent","rt":1095.5,"correct":true,"confidence":1},{"trial_n":131,"min":86,"max":169,"target":"absent","response":"present","rt":787.40000009537,"correct":false,"confidence":1},{"trial_n":132,"min":85,"max":170,"target":"present","response":"present","rt":804.30000019073,"correct":true,"confidence":3},{"trial_n":133,"min":85,"max":170,"target":"absent","response":"present","rt":951,"correct":false,"confidence":1},{"trial_n":134,"min":84,"max":171,"target":"present","response":"present","rt":935,"correct":true,"confidence":1},{"trial_n":135,"min":84,"max":171,"target":"present","response":"present","rt":1186.5,"correct":true,"confidence":3},{"trial_n":136,"min":85,"max":170,"target":"absent","response":"present","rt":1410.4000000954,"correct":false,"confidence":1},{"trial_n":137,"min":84,"max":171,"target":"absent","response":"present","rt":947.5,"correct":false,"confidence":1},{"trial_n":138,"min":83,"max":172,"target":"absent","response":"present","rt":967.29999995232,"correct":false,"confidence":1},{"trial_n":139,"min":82,"max":173,"target":"present","response":"present","rt":848.40000009537,"correct":true,"confidence":4},{"trial_n":140,"min":82,"max":173,"target":"absent","response":"present","rt":916.70000004768,"correct":false,"confidence":1}]