[{"trial_n":1,"n_dots":4.25,"target":"left","response":"left","rt":3023.700000003,"correct":true,"confidence":-1},{"trial_n":2,"n_dots":4.25,"target":"left","response":"right","rt":676.70000000298,"correct":false,"confidence":-1},{"trial_n":3,"n_dots":4.65,"target":"right","response":"right","rt":492.90000000596,"correct":true,"confidence":-1},{"trial_n":4,"n_dots":4.65,"target":"right","response":"right","rt":167.59999999404,"correct":true,"confidence":-1},{"trial_n":5,"n_dots":4.25,"target":"left","response":"left","rt":362.90000000596,"correct":true,"confidence":-1},{"trial_n":6,"n_dots":4.25,"target":"right","response":"left","rt":167.09999999404,"correct":false,"confidence":-1},{"trial_n":7,"n_dots":4.65,"target":"right","response":"left","rt":249.09999999404,"correct":false,"confidence":-1},{"trial_n":8,"n_dots":4.85,"target":"left","response":"left","rt":485.20000000298,"correct":true,"confidence":-1},{"trial_n":9,"n_dots":4.85,"target":"left","response":"left","rt":363.70000000298,"correct":true,"confidence":-1},{"trial_n":10,"n_dots":4.65,"target":"right","response":"right","rt":506.5,"correct":true,"confidence":-1},{"trial_n":11,"n_dots":4.65,"target":"right","response":"right","rt":523.09999999404,"correct":true,"confidence":-1},{"trial_n":12,"n_dots":4.45,"target":"left","response":"left","rt":25.800000011921,"correct":true,"confidence":-1},{"trial_n":13,"n_dots":4.45,"target":"left","response":"right","rt":2791.3999999911,"correct":false,"confidence":-1},{"trial_n":14,"n_dots":4.55,"target":"left","response":"left","rt":1695.8999999911,"correct":true,"confidence":-1},{"trial_n":15,"n_dots":4.55,"target":"right","response":"right","rt":160,"correct":true,"confidence":-1},{"trial_n":16,"n_dots":4.45,"target":"left","response":"left","rt":48.59999999404,"correct":true,"confidence":-1},{"trial_n":17,"n_dots":4.45,"target":"left","response":"left","rt":426.29999999702,"correct":true,"confidence":-1},{"trial_n":18,"n_dots":4.35,"target":"right","response":"right","rt":22.09999999404,"correct":true,"confidence":-1},{"trial_n":19,"n_dots":4.35,"target":"left","response":"right","rt":2.2999999970198,"correct":false,"confidence":-1},{"trial_n":20,"n_dots":4.45,"target":"left","response":"left","rt":443.40000000596,"correct":true,"confidence":-1},{"trial_n":21,"n_dots":4.45,"target":"left","response":"right","rt":939.69999998808,"correct":false,"confidence":3},{"trial_n":22,"n_dots":4.55,"target":"right","response":"left","rt":312.79999999702,"correct":false,"confidence":3},{"trial_n":23,"n_dots":4.65,"target":"left","response":"left","rt":229.79999999702,"correct":true,"confidence":3},{"trial_n":24,"n_dots":4.65,"target":"right","response":"left","rt":675.5,"correct":false,"confidence":3},{"trial_n":25,"n_dots":4.75,"target":"right","response":"right","rt":977.29999999702,"correct":true,"confidence":4},{"trial_n":26,"n_dots":4.75,"target":"left","response":"right","rt":1133.5,"correct":false,"confidence":3},{"trial_n":27,"n_dots":4.85,"target":"right","response":"left","rt":232.5,"correct":false,"confidence":3},{"trial_n":28,"n_dots":4.95,"target":"left","response":"right","rt":2369.200000003,"correct":false,"confidence":4},{"trial_n":29,"n_dots":5.05,"target":"right","response":"right","rt":1372.799999997,"correct":true,"confidence":3},{"trial_n":30,"n_dots":5.05,"target":"right","response":"right","rt":1121.5,"correct":true,"confidence":4},{"trial_n":31,"n_dots":4.95,"target":"left","response":"right","rt":275.09999999404,"correct":false,"confidence":1},{"trial_n":32,"n_dots":5.05,"target":"left","response":"left","rt":90.699999988079,"correct":true,"confidence":3},{"trial_n":33,"n_dots":5.05,"target":"left","response":"left","rt":1133.400000006,"correct":true,"confidence":3},{"trial_n":34,"n_dots":4.95,"target":"right","response":"right","rt":137.39999999106,"correct":true,"confidence":5},{"trial_n":35,"n_dots":4.95,"target":"right","response":"right","rt":818.79999999702,"correct":true,"confidence":5},{"trial_n":36,"n_dots":4.85,"target":"right","response":"right","rt":7732.599999994,"correct":true,"confidence":4},{"trial_n":37,"n_dots":4.85,"target":"right","response":"right","rt":605.09999999404,"correct":true,"confidence":5},{"trial_n":38,"n_dots":4.75,"target":"right","response":"right","rt":53.09999999404,"correct":true,"confidence":1},{"trial_n":39,"n_dots":4.75,"target":"left","response":"left","rt":2047.200000003,"correct":true,"confidence":5},{"trial_n":40,"n_dots":4.65,"target":"right","response":"right","rt":402,"correct":true,"confidence":5},{"trial_n":41,"n_dots":4.65,"target":"right","response":"right","rt":261.40000000596,"correct":true,"confidence":5},{"trial_n":42,"n_dots":4.55,"target":"left","response":"left","rt":351.29999999702,"correct":true,"confidence":5},{"trial_n":43,"n_dots":4.55,"target":"left","response":"left","rt":237.5,"correct":true,"confidence":3},{"trial_n":44,"n_dots":4.45,"target":"right","response":"right","rt":215.29999999702,"correct":true,"confidence":4},{"trial_n":45,"n_dots":4.45,"target":"left","response":"left","rt":118,"correct":true,"confidence":5},{"trial_n":46,"n_dots":4.35,"target":"right","response":"right","rt":285.5,"correct":true,"confidence":5},{"trial_n":47,"n_dots":4.35,"target":"left","response":"left","rt":211.5,"correct":true,"confidence":5},{"trial_n":48,"n_dots":4.25,"target":"left","response":"left","rt":158.90000000596,"correct":true,"confidence":4},{"trial_n":49,"n_dots":4.25,"target":"left","response":"left","rt":7.4000000059605,"correct":true,"confidence":5},{"trial_n":50,"n_dots":4.15,"target":"left","response":"left","rt":202.90000000596,"correct":true,"confidence":4},{"trial_n":51,"n_dots":4.15,"target":"left","response":"left","rt":74.70000000298,"correct":true,"confidence":4},{"trial_n":52,"n_dots":4.05,"target":"right","response":"right","rt":256,"correct":true,"confidence":5},{"trial_n":53,"n_dots":4.05,"target":"left","response":"left","rt":713,"correct":true,"confidence":5},{"trial_n":54,"n_dots":3.95,"target":"right","response":"right","rt":101.79999999702,"correct":true,"confidence":4},{"trial_n":55,"n_dots":3.95,"target":"left","response":"right","rt":844.29999999702,"correct":false,"confidence":4},{"trial_n":56,"n_dots":4.05,"target":"right","response":"right","rt":380.40000000596,"correct":true,"confidence":5},{"trial_n":57,"n_dots":4.05,"target":"right","response":"right","rt":543,"correct":true,"confidence":5},{"trial_n":58,"n_dots":3.95,"target":"left","response":"left","rt":56.20000000298,"correct":true,"confidence":4},{"trial_n":59,"n_dots":3.95,"target":"left","response":"left","rt":261.29999999702,"correct":true,"confidence":4},{"trial_n":60,"n_dots":3.85,"target":"left","response":"left","rt":140.5,"correct":true,"confidence":4},{"trial_n":61,"n_dots":3.85,"target":"left","response":"left","rt":187.60000000894,"correct":true,"confidence":4},{"trial_n":62,"n_dots":3.75,"target":"right","response":"right","rt":180.5,"correct":true,"confidence":5},{"trial_n":63,"n_dots":3.75,"target":"right","response":"right","rt":339.90000000596,"correct":true,"confidence":5},{"trial_n":64,"n_dots":3.65,"target":"right","response":"right","rt":2844.8999999911,"correct":true,"confidence":1},{"trial_n":65,"n_dots":3.65,"target":"left","response":"left","rt":334.29999999702,"correct":true,"confidence":4},{"trial_n":66,"n_dots":3.55,"target":"right","response":"right","rt":179.20000000298,"correct":true,"confidence":4},{"trial_n":67,"n_dots":3.55,"target":"left","response":"right","rt":175.20000000298,"correct":false,"confidence":5},{"trial_n":68,"n_dots":3.65,"target":"left","response":"left","rt":686.79999999702,"correct":true,"confidence":4},{"trial_n":69,"n_dots":3.65,"target":"right","response":"right","rt":416.09999999404,"correct":true,"confidence":5},{"trial_n":70,"n_dots":3.55,"target":"left","response":"left","rt":463.20000000298,"correct":true,"confidence":4},{"trial_n":71,"n_dots":3.55,"target":"right","response":"right","rt":661.80000001192,"correct":true,"confidence":5},{"trial_n":72,"n_dots":3.45,"target":"left","response":"left","rt":555.79999999702,"correct":true,"confidence":4},{"trial_n":73,"n_dots":3.45,"target":"right","response":"right","rt":25.29999999702,"correct":true,"confidence":4},{"trial_n":74,"n_dots":3.35,"target":"right","response":"left","rt":3211.799999997,"correct":false,"confidence":4},{"trial_n":75,"n_dots":3.45,"target":"right","response":"right","rt":155.29999999702,"correct":true,"confidence":5},{"trial_n":76,"n_dots":3.45,"target":"right","response":"right","rt":295.70000000298,"correct":true,"confidence":5},{"trial_n":77,"n_dots":3.35,"target":"right","response":"right","rt":374.5,"correct":true,"confidence":5},{"trial_n":78,"n_dots":3.35,"target":"left","response":"left","rt":6677.1000000089,"correct":true,"confidence":4},{"trial_n":79,"n_dots":3.25,"target":"right","response":"left","rt":494,"correct":false,"confidence":5},{"trial_n":80,"n_dots":3.35,"target":"left","response":"left","rt":52,"correct":true,"confidence":5},{"trial_n":81,"n_dots":3.35,"target":"left","response":"left","rt":428,"correct":true,"confidence":5},{"trial_n":82,"n_dots":3.25,"target":"right","response":"right","rt":334.60000000894,"correct":true,"confidence":5},{"trial_n":83,"n_dots":3.25,"target":"left","response":"left","rt":115,"correct":true,"confidence":5},{"trial_n":84,"n_dots":3.15,"target":"left","response":"left","rt":308.20000000298,"correct":true,"confidence":5},{"trial_n":85,"n_dots":3.15,"target":"right","response":"right","rt":290.40000000596,"correct":true,"confidence":5},{"trial_n":86,"n_dots":3.05,"target":"left","response":"left","rt":153.70000000298,"correct":true,"confidence":5},{"trial_n":87,"n_dots":3.05,"target":"left","response":"left","rt":517,"correct":true,"confidence":5},{"trial_n":88,"n_dots":2.95,"target":"right","response":"left","rt":14.29999999702,"correct":false,"confidence":4},{"trial_n":89,"n_dots":3.05,"target":"right","response":"right","rt":214.09999999404,"correct":true,"confidence":5},{"trial_n":90,"n_dots":3.05,"target":"left","response":"left","rt":531.10000000894,"correct":true,"confidence":3},{"trial_n":91,"n_dots":2.95,"target":"right","response":"right","rt":414.79999999702,"correct":true,"confidence":4},{"trial_n":92,"n_dots":2.95,"target":"left","response":"left","rt":364.29999999702,"correct":true,"confidence":3},{"trial_n":93,"n_dots":2.85,"target":"right","response":"right","rt":44.5,"correct":true,"confidence":4},{"trial_n":94,"n_dots":2.85,"target":"right","response":"left","rt":61.100000008941,"correct":false,"confidence":4},{"trial_n":95,"n_dots":2.95,"target":"left","response":"right","rt":2428.299999997,"correct":false,"confidence":4},{"trial_n":96,"n_dots":3.05,"target":"left","response":"right","rt":526.39999999106,"correct":false,"confidence":4},{"trial_n":97,"n_dots":3.15,"target":"left","response":"left","rt":533.79999999702,"correct":true,"confidence":4},{"trial_n":98,"n_dots":3.15,"target":"right","response":"right","rt":682.70000000298,"correct":true,"confidence":5},{"trial_n":99,"n_dots":3.05,"target":"left","response":"left","rt":138.90000000596,"correct":true,"confidence":3},{"trial_n":100,"n_dots":3.05,"target":"right","response":"right","rt":500.5,"correct":true,"confidence":4},{"trial_n":101,"n_dots":2.95,"target":"right","response":"right","rt":600.70000000298,"correct":true,"confidence":4},{"trial_n":102,"n_dots":2.95,"target":"right","response":"right","rt":562.79999999702,"correct":true,"confidence":5},{"trial_n":103,"n_dots":2.85,"target":"right","response":"left","rt":727.79999999702,"correct":false,"confidence":1},{"trial_n":104,"n_dots":2.95,"target":"left","response":"left","rt":763.70000000298,"correct":true,"confidence":4},{"trial_n":105,"n_dots":2.95,"target":"left","response":"left","rt":800.90000000596,"correct":true,"confidence":5},{"trial_n":106,"n_dots":2.85,"target":"right","response":"right","rt":517.59999999404,"correct":true,"confidence":3},{"trial_n":107,"n_dots":2.85,"target":"left","response":"right","rt":1000.3999999911,"correct":false,"confidence":5},{"trial_n":108,"n_dots":2.95,"target":"left","response":"left","rt":410,"correct":true,"confidence":4},{"trial_n":109,"n_dots":2.95,"target":"right","response":"right","rt":464.20000000298,"correct":true,"confidence":4},{"trial_n":110,"n_dots":2.85,"target":"left","response":"right","rt":202.20000000298,"correct":false,"confidence":4},{"trial_n":111,"n_dots":2.95,"target":"left","response":"right","rt":537.20000000298,"correct":false,"confidence":5},{"trial_n":112,"n_dots":3.05,"target":"left","response":"left","rt":644.20000000298,"correct":true,"confidence":3},{"trial_n":113,"n_dots":3.05,"target":"right","response":"right","rt":444.89999999106,"correct":true,"confidence":5},{"trial_n":114,"n_dots":2.95,"target":"right","response":"right","rt":331.79999999702,"correct":true,"confidence":5},{"trial_n":115,"n_dots":2.95,"target":"right","response":"right","rt":241.70000000298,"correct":true,"confidence":5},{"trial_n":116,"n_dots":2.85,"target":"right","response":"right","rt":428.29999999702,"correct":true,"confidence":5},{"trial_n":117,"n_dots":2.85,"target":"right","response":"right","rt":520.70000000298,"correct":true,"confidence":5},{"trial_n":118,"n_dots":2.75,"target":"right","response":"left","rt":569.29999999702,"correct":false,"confidence":4},{"trial_n":119,"n_dots":2.85,"target":"right","response":"right","rt":527.70000000298,"correct":true,"confidence":5},{"trial_n":120,"n_dots":2.85,"target":"left","response":"right","rt":600,"correct":false,"confidence":5}]