[{"trial_n":1,"min":25,"max":230,"target":"present","response":"absent","rt":2695.400000006,"correct":false,"confidence":-1},{"trial_n":2,"min":25,"max":230,"target":"present","response":"present","rt":961.5,"correct":true,"confidence":-1},{"trial_n":3,"min":25,"max":230,"target":"absent","response":"absent","rt":723.5,"correct":true,"confidence":-1},{"trial_n":4,"min":41,"max":214,"target":"absent","response":"absent","rt":626.60000000894,"correct":true,"confidence":-1},{"trial_n":5,"min":41,"max":214,"target":"present","response":"present","rt":481,"correct":true,"confidence":-1},{"trial_n":6,"min":57,"max":198,"target":"present","response":"present","rt":654.79999999702,"correct":true,"confidence":-1},{"trial_n":7,"min":57,"max":198,"target":"absent","response":"absent","rt":1171.6000000089,"correct":true,"confidence":-1},{"trial_n":8,"min":73,"max":182,"target":"present","response":"present","rt":344.39999999106,"correct":true,"confidence":-1},{"trial_n":9,"min":73,"max":182,"target":"absent","response":"absent","rt":461.70000000298,"correct":true,"confidence":-1},{"trial_n":10,"min":89,"max":166,"target":"present","response":"absent","rt":365,"correct":false,"confidence":-1},{"trial_n":11,"min":81,"max":174,"target":"present","response":"present","rt":526.40000000596,"correct":true,"confidence":-1},{"trial_n":12,"min":81,"max":174,"target":"absent","response":"absent","rt":320.79999999702,"correct":true,"confidence":-1},{"trial_n":13,"min":89,"max":166,"target":"absent","response":"absent","rt":678.19999998808,"correct":true,"confidence":-1},{"trial_n":14,"min":89,"max":166,"target":"absent","response":"absent","rt":898.60000000894,"correct":true,"confidence":-1},{"trial_n":15,"min":97,"max":158,"target":"absent","response":"absent","rt":905.09999999404,"correct":true,"confidence":-1},{"trial_n":16,"min":97,"max":158,"target":"absent","response":"absent","rt":475.20000000298,"correct":true,"confidence":-1},{"trial_n":17,"min":105,"max":150,"target":"absent","response":"absent","rt":364.20000000298,"correct":true,"confidence":-1},{"trial_n":18,"min":105,"max":150,"target":"present","response":"absent","rt":243.60000000894,"correct":false,"confidence":-1},{"trial_n":19,"min":97,"max":158,"target":"present","response":"absent","rt":603.79999999702,"correct":false,"confidence":-1},{"trial_n":20,"min":89,"max":166,"target":"present","response":"absent","rt":963.69999998808,"correct":false,"confidence":-1},{"trial_n":21,"min":85,"max":170,"target":"absent","response":"absent","rt":1348,"correct":true,"confidence":3},{"trial_n":22,"min":85,"max":170,"target":"present","response":"present","rt":745.20000000298,"correct":true,"confidence":3},{"trial_n":23,"min":89,"max":166,"target":"present","response":"absent","rt":461.90000000596,"correct":false,"confidence":2},{"trial_n":24,"min":85,"max":170,"target":"present","response":"present","rt":516.90000000596,"correct":true,"confidence":4},{"trial_n":25,"min":85,"max":170,"target":"present","response":"absent","rt":873.70000000298,"correct":false,"confidence":3},{"trial_n":26,"min":81,"max":174,"target":"present","response":"present","rt":640.70000000298,"correct":true,"confidence":5},{"trial_n":27,"min":81,"max":174,"target":"absent","response":"absent","rt":889.79999999702,"correct":true,"confidence":3},{"trial_n":28,"min":85,"max":170,"target":"present","response":"present","rt":525.89999999106,"correct":true,"confidence":4},{"trial_n":29,"min":85,"max":170,"target":"absent","response":"absent","rt":886.5,"correct":true,"confidence":4},{"trial_n":30,"min":89,"max":166,"target":"absent","response":"present","rt":485.29999999702,"correct":false,"confidence":3},{"trial_n":31,"min":87,"max":168,"target":"present","response":"present","rt":583.20000000298,"correct":true,"confidence":3},{"trial_n":32,"min":87,"max":168,"target":"present","response":"absent","rt":1027.5,"correct":false,"confidence":4},{"trial_n":33,"min":85,"max":170,"target":"absent","response":"present","rt":879.5,"correct":false,"confidence":2},{"trial_n":34,"min":83,"max":172,"target":"present","response":"absent","rt":679.5,"correct":false,"confidence":3},{"trial_n":35,"min":81,"max":174,"target":"present","response":"absent","rt":546.09999999404,"correct":false,"confidence":4},{"trial_n":36,"min":79,"max":176,"target":"present","response":"present","rt":1404.799999997,"correct":true,"confidence":3},{"trial_n":37,"min":79,"max":176,"target":"present","response":"present","rt":1234.200000003,"correct":true,"confidence":4},{"trial_n":38,"min":81,"max":174,"target":"present","response":"absent","rt":1759.5,"correct":false,"confidence":4},{"trial_n":39,"min":79,"max":176,"target":"absent","response":"present","rt":760.5,"correct":false,"confidence":3},{"trial_n":40,"min":77,"max":178,"target":"absent","response":"present","rt":404,"correct":false,"confidence":3},{"trial_n":41,"min":76,"max":179,"target":"absent","response":"present","rt":570.5,"correct":false,"confidence":2},{"trial_n":42,"min":75,"max":180,"target":"absent","response":"present","rt":511.5,"correct":false,"confidence":4},{"trial_n":43,"min":74,"max":181,"target":"present","response":"present","rt":328.40000000596,"correct":true,"confidence":4},{"trial_n":44,"min":74,"max":181,"target":"absent","response":"present","rt":323.19999998808,"correct":false,"confidence":2},{"trial_n":45,"min":73,"max":182,"target":"present","response":"present","rt":466.70000000298,"correct":true,"confidence":1},{"trial_n":46,"min":73,"max":182,"target":"present","response":"present","rt":928.09999999404,"correct":true,"confidence":4},{"trial_n":47,"min":74,"max":181,"target":"absent","response":"absent","rt":703.20000000298,"correct":true,"confidence":2},{"trial_n":48,"min":74,"max":181,"target":"present","response":"present","rt":503.09999999404,"correct":true,"confidence":5},{"trial_n":49,"min":75,"max":180,"target":"absent","response":"absent","rt":958.29999999702,"correct":true,"confidence":5},{"trial_n":50,"min":75,"max":180,"target":"absent","response":"present","rt":743.39999999106,"correct":false,"confidence":3},{"trial_n":51,"min":74,"max":181,"target":"present","response":"present","rt":1099.700000003,"correct":true,"confidence":5},{"trial_n":52,"min":74,"max":181,"target":"absent","response":"absent","rt":673,"correct":true,"confidence":3},{"trial_n":53,"min":75,"max":180,"target":"present","response":"present","rt":391.69999998808,"correct":true,"confidence":4},{"trial_n":54,"min":75,"max":180,"target":"present","response":"present","rt":614.59999999404,"correct":true,"confidence":5},{"trial_n":55,"min":76,"max":179,"target":"absent","response":"present","rt":604.69999998808,"correct":false,"confidence":1},{"trial_n":56,"min":75,"max":180,"target":"absent","response":"absent","rt":503.5,"correct":true,"confidence":1},{"trial_n":57,"min":75,"max":180,"target":"absent","response":"present","rt":534.5,"correct":false,"confidence":1},{"trial_n":58,"min":74,"max":181,"target":"absent","response":"absent","rt":399.19999998808,"correct":true,"confidence":1},{"trial_n":59,"min":74,"max":181,"target":"present","response":"present","rt":684.39999999106,"correct":true,"confidence":5},{"trial_n":60,"min":75,"max":180,"target":"absent","response":"absent","rt":813.59999999404,"correct":true,"confidence":1},{"trial_n":61,"min":75,"max":180,"target":"present","response":"present","rt":1079.700000003,"correct":true,"confidence":5},{"trial_n":62,"min":76,"max":179,"target":"absent","response":"absent","rt":1116.700000003,"correct":true,"confidence":3},{"trial_n":63,"min":76,"max":179,"target":"present","response":"present","rt":533.69999998808,"correct":true,"confidence":5},{"trial_n":64,"min":77,"max":178,"target":"absent","response":"absent","rt":693,"correct":true,"confidence":3},{"trial_n":65,"min":77,"max":178,"target":"present","response":"present","rt":597.89999999106,"correct":true,"confidence":4},{"trial_n":66,"min":78,"max":177,"target":"absent","response":"present","rt":525.20000000298,"correct":false,"confidence":3},{"trial_n":67,"min":77,"max":178,"target":"absent","response":"present","rt":407.39999999106,"correct":false,"confidence":3},{"trial_n":68,"min":76,"max":179,"target":"present","response":"present","rt":746,"correct":true,"confidence":5},{"trial_n":69,"min":76,"max":179,"target":"absent","response":"absent","rt":942.79999999702,"correct":true,"confidence":3},{"trial_n":70,"min":77,"max":178,"target":"present","response":"present","rt":411.39999999106,"correct":true,"confidence":3},{"trial_n":71,"min":41,"max":214,"target":"present","response":"present","rt":1131.099999994,"correct":true,"confidence":-1},{"trial_n":72,"min":41,"max":214,"target":"present","response":"present","rt":708.59999999404,"correct":true,"confidence":-1},{"trial_n":73,"min":57,"max":198,"target":"absent","response":"absent","rt":686.20000000298,"correct":true,"confidence":-1},{"trial_n":74,"min":57,"max":198,"target":"absent","response":"absent","rt":704.70000000298,"correct":true,"confidence":-1},{"trial_n":75,"min":73,"max":182,"target":"present","response":"absent","rt":386.20000000298,"correct":false,"confidence":-1},{"trial_n":76,"min":57,"max":198,"target":"present","response":"present","rt":856.29999999702,"correct":true,"confidence":-1},{"trial_n":77,"min":57,"max":198,"target":"present","response":"present","rt":749.10000000894,"correct":true,"confidence":-1},{"trial_n":78,"min":73,"max":182,"target":"present","response":"present","rt":283.5,"correct":true,"confidence":-1},{"trial_n":79,"min":73,"max":182,"target":"present","response":"present","rt":258.79999999702,"correct":true,"confidence":-1},{"trial_n":80,"min":89,"max":166,"target":"present","response":"absent","rt":1024.599999994,"correct":false,"confidence":-1},{"trial_n":81,"min":81,"max":174,"target":"present","response":"present","rt":351.5,"correct":true,"confidence":-1},{"trial_n":82,"min":81,"max":174,"target":"absent","response":"absent","rt":532.70000000298,"correct":true,"confidence":-1},{"trial_n":83,"min":89,"max":166,"target":"absent","response":"present","rt":358.5,"correct":false,"confidence":-1},{"trial_n":84,"min":81,"max":174,"target":"absent","response":"absent","rt":476.39999999106,"correct":true,"confidence":-1},{"trial_n":85,"min":81,"max":174,"target":"absent","response":"absent","rt":357.89999999106,"correct":true,"confidence":-1},{"trial_n":86,"min":89,"max":166,"target":"present","response":"present","rt":266.79999999702,"correct":true,"confidence":-1},{"trial_n":87,"min":89,"max":166,"target":"present","response":"absent","rt":304,"correct":false,"confidence":-1},{"trial_n":88,"min":81,"max":174,"target":"present","response":"absent","rt":805.70000000298,"correct":false,"confidence":-1},{"trial_n":89,"min":73,"max":182,"target":"present","response":"present","rt":227.39999999106,"correct":true,"confidence":-1},{"trial_n":90,"min":73,"max":182,"target":"absent","response":"absent","rt":536.30000001192,"correct":true,"confidence":-1},{"trial_n":91,"min":77,"max":178,"target":"absent","response":"absent","rt":1050.1000000089,"correct":true,"confidence":3},{"trial_n":92,"min":77,"max":178,"target":"present","response":"present","rt":724,"correct":true,"confidence":3},{"trial_n":93,"min":81,"max":174,"target":"present","response":"present","rt":588.20000000298,"correct":true,"confidence":5},{"trial_n":94,"min":81,"max":174,"target":"present","response":"absent","rt":709.29999999702,"correct":false,"confidence":4},{"trial_n":95,"min":77,"max":178,"target":"present","response":"present","rt":435.39999999106,"correct":true,"confidence":3},{"trial_n":96,"min":77,"max":178,"target":"absent","response":"absent","rt":892,"correct":true,"confidence":5},{"trial_n":97,"min":81,"max":174,"target":"present","response":"present","rt":395.70000000298,"correct":true,"confidence":5},{"trial_n":98,"min":81,"max":174,"target":"present","response":"present","rt":1465.799999997,"correct":true,"confidence":5},{"trial_n":99,"min":85,"max":170,"target":"present","response":"present","rt":3705.099999994,"correct":true,"confidence":4},{"trial_n":100,"min":85,"max":170,"target":"present","response":"present","rt":1075.799999997,"correct":true,"confidence":5},{"trial_n":101,"min":87,"max":168,"target":"present","response":"present","rt":529.79999999702,"correct":true,"confidence":4},{"trial_n":102,"min":87,"max":168,"target":"present","response":"present","rt":491.5,"correct":true,"confidence":4},{"trial_n":103,"min":89,"max":166,"target":"absent","response":"absent","rt":825.20000000298,"correct":true,"confidence":5},{"trial_n":104,"min":89,"max":166,"target":"absent","response":"present","rt":649.5,"correct":false,"confidence":3},{"trial_n":105,"min":87,"max":168,"target":"present","response":"absent","rt":707.40000000596,"correct":false,"confidence":3},{"trial_n":106,"min":85,"max":170,"target":"present","response":"absent","rt":585.5,"correct":false,"confidence":1},{"trial_n":107,"min":83,"max":172,"target":"absent","response":"absent","rt":874,"correct":true,"confidence":1},{"trial_n":108,"min":83,"max":172,"target":"absent","response":"absent","rt":384,"correct":true,"confidence":1},{"trial_n":109,"min":85,"max":170,"target":"present","response":"present","rt":1017.299999997,"correct":true,"confidence":5},{"trial_n":110,"min":85,"max":170,"target":"present","response":"present","rt":627.29999999702,"correct":true,"confidence":5},{"trial_n":111,"min":86,"max":169,"target":"present","response":"absent","rt":641,"correct":false,"confidence":3},{"trial_n":112,"min":85,"max":170,"target":"absent","response":"absent","rt":964.70000000298,"correct":true,"confidence":4},{"trial_n":113,"min":85,"max":170,"target":"absent","response":"absent","rt":640.89999999106,"correct":true,"confidence":3},{"trial_n":114,"min":86,"max":169,"target":"absent","response":"absent","rt":658.90000000596,"correct":true,"confidence":4},{"trial_n":115,"min":86,"max":169,"target":"present","response":"present","rt":513.79999999702,"correct":true,"confidence":3},{"trial_n":116,"min":87,"max":168,"target":"absent","response":"absent","rt":638.5,"correct":true,"confidence":4},{"trial_n":117,"min":87,"max":168,"target":"absent","response":"absent","rt":576.29999999702,"correct":true,"confidence":3},{"trial_n":118,"min":88,"max":167,"target":"absent","response":"absent","rt":460.60000000894,"correct":true,"confidence":4},{"trial_n":119,"min":88,"max":167,"target":"absent","response":"absent","rt":546.70000000298,"correct":true,"confidence":4},{"trial_n":120,"min":89,"max":166,"target":"absent","response":"present","rt":621.29999999702,"correct":false,"confidence":3},{"trial_n":121,"min":88,"max":167,"target":"absent","response":"absent","rt":830.39999999106,"correct":true,"confidence":4},{"trial_n":122,"min":88,"max":167,"target":"absent","response":"absent","rt":1175.8000000119,"correct":true,"confidence":5},{"trial_n":123,"min":89,"max":166,"target":"absent","response":"absent","rt":663.29999999702,"correct":true,"confidence":3},{"trial_n":124,"min":89,"max":166,"target":"absent","response":"absent","rt":765.90000000596,"correct":true,"confidence":1},{"trial_n":125,"min":90,"max":165,"target":"absent","response":"absent","rt":644.70000000298,"correct":true,"confidence":4},{"trial_n":126,"min":90,"max":165,"target":"absent","response":"absent","rt":489.40000000596,"correct":true,"confidence":3},{"trial_n":127,"min":91,"max":164,"target":"absent","response":"absent","rt":347.40000000596,"correct":true,"confidence":3},{"trial_n":128,"min":91,"max":164,"target":"absent","response":"absent","rt":341.09999999404,"correct":true,"confidence":3},{"trial_n":129,"min":92,"max":163,"target":"present","response":"absent","rt":373.79999999702,"correct":false,"confidence":1},{"trial_n":130,"min":91,"max":164,"target":"absent","response":"present","rt":836,"correct":false,"confidence":1},{"trial_n":131,"min":90,"max":165,"target":"present","response":"absent","rt":522.09999999404,"correct":false,"confidence":1},{"trial_n":132,"min":89,"max":166,"target":"present","response":"present","rt":497.29999999702,"correct":true,"confidence":4},{"trial_n":133,"min":89,"max":166,"target":"absent","response":"present","rt":972.30000001192,"correct":false,"confidence":3},{"trial_n":134,"min":88,"max":167,"target":"absent","response":"present","rt":941,"correct":false,"confidence":3},{"trial_n":135,"min":87,"max":168,"target":"absent","response":"absent","rt":1295,"correct":true,"confidence":4},{"trial_n":136,"min":87,"max":168,"target":"present","response":"present","rt":534.29999999702,"correct":true,"confidence":3},{"trial_n":137,"min":88,"max":167,"target":"present","response":"present","rt":417.89999999106,"correct":true,"confidence":3},{"trial_n":138,"min":88,"max":167,"target":"present","response":"absent","rt":900,"correct":false,"confidence":4},{"trial_n":139,"min":87,"max":168,"target":"absent","response":"present","rt":572.30000001192,"correct":false,"confidence":1},{"trial_n":140,"min":86,"max":169,"target":"present","response":"present","rt":488.40000000596,"correct":true,"confidence":1}]