[{"trial_n":1,"span":8,"encoder":"40460880","distractor":"40464880","target":"present","response":"present","rt":"2154.400000006","correct":true,"confidence":-1},{"trial_n":2,"span":8,"encoder":"99868485","distractor":"99468485","target":"present","response":"absent","rt":"2441.799999997","correct":false,"confidence":-1},{"trial_n":3,"span":6,"encoder":"133099","distractor":"134099","target":"absent","response":"absent","rt":"1533.3000000119","correct":true,"confidence":-1},{"trial_n":4,"span":6,"encoder":"517512","distractor":"517518","target":"absent","response":"absent","rt":"976.29999999702","correct":true,"confidence":-1},{"trial_n":5,"span":8,"encoder":"65439649","distractor":"75439649","target":"present","response":"present","rt":"2674.200000003","correct":true,"confidence":-1},{"trial_n":6,"span":8,"encoder":"02953181","distractor":"02956181","target":"absent","response":"absent","rt":"1510.3000000119","correct":true,"confidence":-1},{"trial_n":7,"span":10,"encoder":"3417870959","distractor":"3413870959","target":"absent","response":"absent","rt":"1221.200000003","correct":true,"confidence":-1},{"trial_n":8,"span":10,"encoder":"5632533662","distractor":"5632733662","target":"present","response":"present","rt":"856.29999999702","correct":true,"confidence":-1},{"trial_n":9,"span":12,"encoder":"435897893562","distractor":"635897893562","target":"absent","response":"absent","rt":"2263.900000006","correct":true,"confidence":-1},{"trial_n":10,"span":12,"encoder":"202360263302","distractor":"202560263302","target":"present","response":"present","rt":"1022.5","correct":true,"confidence":-1},{"trial_n":11,"span":14,"encoder":"04823194731838","distractor":"04823194771838","target":"absent","response":"present","rt":"1840","correct":false,"confidence":-1},{"trial_n":12,"span":13,"encoder":"2781516833359","distractor":"2781516033359","target":"absent","response":"absent","rt":"854.60000000894","correct":true,"confidence":-1},{"trial_n":13,"span":13,"encoder":"7880674975169","distractor":"7880374975169","target":"present","response":"present","rt":"1280.3000000119","correct":true,"confidence":-1},{"trial_n":14,"span":14,"encoder":"62035067955453","distractor":"62035063955453","target":"absent","response":"present","rt":"2263.900000006","correct":false,"confidence":-1},{"trial_n":15,"span":13,"encoder":"7833886192856","distractor":"7833186192856","target":"present","response":"absent","rt":"1826.099999994","correct":false,"confidence":-1},{"trial_n":16,"span":12,"encoder":"323989519736","distractor":"353989519736","target":"absent","response":"present","rt":"1880","correct":false,"confidence":-1},{"trial_n":17,"span":11,"encoder":"22207634420","distractor":"22607634420","target":"present","response":"absent","rt":"1458.799999997","correct":false,"confidence":-1},{"trial_n":18,"span":10,"encoder":"1820065124","distractor":"1820065824","target":"present","response":"present","rt":"1437.3000000119","correct":true,"confidence":-1},{"trial_n":19,"span":10,"encoder":"5519053100","distractor":"5519053108","target":"present","response":"present","rt":"1681.400000006","correct":true,"confidence":-1},{"trial_n":20,"span":11,"encoder":"59797666402","distractor":"59797666802","target":"absent","response":"absent","rt":"4096.5","correct":true,"confidence":-1},{"trial_n":21,"span":11,"encoder":"46023099560","distractor":"46023999560","target":"present","response":"present","rt":"1047.099999994","correct":true,"confidence":3},{"trial_n":22,"span":12,"encoder":"374593579086","distractor":"370593579086","target":"present","response":"present","rt":"2471.700000003","correct":true,"confidence":4},{"trial_n":23,"span":12,"encoder":"244405927983","distractor":"244409927983","target":"present","response":"absent","rt":"3352.799999997","correct":false,"confidence":3},{"trial_n":24,"span":11,"encoder":"91236076940","distractor":"91236976940","target":"absent","response":"absent","rt":"3407.6999999881","correct":true,"confidence":3},{"trial_n":25,"span":11,"encoder":"53818048392","distractor":"53818078392","target":"absent","response":"present","rt":"1258.5","correct":false,"confidence":2},{"trial_n":26,"span":10,"encoder":"0264879992","distractor":"2264879992","target":"present","response":"present","rt":"2659.900000006","correct":true,"confidence":5},{"trial_n":27,"span":10,"encoder":"7854004200","distractor":"7854009200","target":"absent","response":"absent","rt":"1299.599999994","correct":true,"confidence":3},{"trial_n":28,"span":11,"encoder":"33906296886","distractor":"33906299886","target":"present","response":"present","rt":"4911.799999997","correct":true,"confidence":3},{"trial_n":29,"span":11,"encoder":"01135621992","distractor":"01135621092","target":"present","response":"present","rt":"3584.299999997","correct":true,"confidence":3},{"trial_n":30,"span":12,"encoder":"826776180867","distractor":"326776180867","target":"absent","response":"present","rt":"962.90000000596","correct":false,"confidence":3},{"trial_n":31,"span":11,"encoder":"25486483644","distractor":"25456483644","target":"present","response":"present","rt":"1625.200000003","correct":true,"confidence":2},{"trial_n":32,"span":11,"encoder":"56416688656","distractor":"56418688656","target":"absent","response":"absent","rt":"7045.5","correct":true,"confidence":3},{"trial_n":33,"span":12,"encoder":"889158990461","distractor":"589158990461","target":"present","response":"present","rt":"3607.700000003","correct":true,"confidence":5},{"trial_n":34,"span":12,"encoder":"452837350821","distractor":"452837350825","target":"present","response":"absent","rt":"2586.8999999911","correct":false,"confidence":3},{"trial_n":35,"span":11,"encoder":"67387347574","distractor":"67387397574","target":"present","response":"present","rt":"1532.3999999911","correct":true,"confidence":3},{"trial_n":36,"span":11,"encoder":"01583364078","distractor":"01581364078","target":"absent","response":"present","rt":"2413.299999997","correct":false,"confidence":3},{"trial_n":37,"span":10,"encoder":"8318979382","distractor":"8328979382","target":"absent","response":"present","rt":"3208.1000000089","correct":false,"confidence":4},{"trial_n":38,"span":9,"encoder":"854953815","distractor":"154953815","target":"present","response":"present","rt":"1893.200000003","correct":true,"confidence":2},{"trial_n":39,"span":9,"encoder":"477759598","distractor":"474759598","target":"absent","response":"present","rt":"7343.599999994","correct":false,"confidence":2},{"trial_n":40,"span":8,"encoder":"63066191","distractor":"63096191","target":"present","response":"present","rt":"1187","correct":true,"confidence":2},{"trial_n":41,"span":8,"encoder":"11390724","distractor":"18390724","target":"present","response":"present","rt":"1453.700000003","correct":true,"confidence":3},{"trial_n":42,"span":9,"encoder":"242309484","distractor":"242369484","target":"present","response":"present","rt":"987.79999999702","correct":true,"confidence":4},{"trial_n":43,"span":9,"encoder":"683178727","distractor":"683378727","target":"present","response":"present","rt":"2402.700000003","correct":true,"confidence":5},{"trial_n":44,"span":10,"encoder":"2515874401","distractor":"1515874401","target":"absent","response":"absent","rt":"1515.700000003","correct":true,"confidence":5},{"trial_n":45,"span":10,"encoder":"1463065239","distractor":"1463065739","target":"absent","response":"absent","rt":"2356.6000000089","correct":true,"confidence":4},{"trial_n":46,"span":11,"encoder":"28620499698","distractor":"28624499698","target":"present","response":"present","rt":"1461.400000006","correct":true,"confidence":3},{"trial_n":47,"span":11,"encoder":"32696073566","distractor":"32656073566","target":"present","response":"present","rt":"980.60000000894","correct":true,"confidence":3},{"trial_n":48,"span":12,"encoder":"802070246686","distractor":"862070246686","target":"present","response":"present","rt":"1219.1000000089","correct":true,"confidence":3},{"trial_n":49,"span":12,"encoder":"312156913828","distractor":"312156913868","target":"present","response":"present","rt":"2212.099999994","correct":true,"confidence":3},{"trial_n":50,"span":13,"encoder":"0648764888178","distractor":"0648764888170","target":"absent","response":"present","rt":"1348","correct":false,"confidence":3},{"trial_n":51,"span":12,"encoder":"551027612460","distractor":"550027612460","target":"absent","response":"absent","rt":"1515.700000003","correct":true,"confidence":3},{"trial_n":52,"span":12,"encoder":"955973246837","distractor":"955973241837","target":"absent","response":"present","rt":"2660.8000000119","correct":false,"confidence":3},{"trial_n":53,"span":11,"encoder":"95042327661","distractor":"85042327661","target":"present","response":"absent","rt":"3176.200000003","correct":false,"confidence":2},{"trial_n":54,"span":10,"encoder":"5960980823","distractor":"5960982823","target":"present","response":"present","rt":"1086.799999997","correct":true,"confidence":3},{"trial_n":55,"span":10,"encoder":"4597571997","distractor":"4597571957","target":"present","response":"present","rt":"994.59999999404","correct":true,"confidence":3},{"trial_n":56,"span":11,"encoder":"78537181817","distractor":"78539181817","target":"absent","response":"present","rt":"1549.6000000089","correct":false,"confidence":2},{"trial_n":57,"span":10,"encoder":"4574234065","distractor":"4504234065","target":"absent","response":"absent","rt":"1800.200000003","correct":true,"confidence":3},{"trial_n":58,"span":10,"encoder":"7413812152","distractor":"7413882152","target":"absent","response":"absent","rt":"3803.099999994","correct":true,"confidence":4},{"trial_n":59,"span":11,"encoder":"70298070230","distractor":"70299070230","target":"absent","response":"present","rt":"1845.200000003","correct":false,"confidence":5},{"trial_n":60,"span":10,"encoder":"9331817720","distractor":"9332817720","target":"present","response":"present","rt":"804.89999999106","correct":true,"confidence":3},{"trial_n":61,"span":10,"encoder":"6636659859","distractor":"6637659859","target":"absent","response":"present","rt":"717.09999999404","correct":false,"confidence":3},{"trial_n":62,"span":9,"encoder":"927244767","distractor":"127244767","target":"absent","response":"present","rt":"25249.599999994","correct":false,"confidence":3},{"trial_n":63,"span":8,"encoder":"53055421","distractor":"53055491","target":"absent","response":"absent","rt":"2659.299999997","correct":true,"confidence":5},{"trial_n":64,"span":8,"encoder":"08166924","distractor":"08266924","target":"absent","response":"absent","rt":"2156.299999997","correct":true,"confidence":5},{"trial_n":65,"span":9,"encoder":"782971418","distractor":"782976418","target":"present","response":"present","rt":"2657.3999999911","correct":true,"confidence":2},{"trial_n":66,"span":9,"encoder":"631796746","distractor":"631796747","target":"present","response":"present","rt":"2617.5","correct":true,"confidence":1},{"trial_n":67,"span":10,"encoder":"0185201946","distractor":"0185201956","target":"absent","response":"present","rt":"962.39999999106","correct":false,"confidence":3},{"trial_n":68,"span":9,"encoder":"811949069","distractor":"811949469","target":"absent","response":"present","rt":"2388","correct":false,"confidence":3},{"trial_n":69,"span":8,"encoder":"70775967","distractor":"70755967","target":"present","response":"present","rt":"1434","correct":true,"confidence":3},{"trial_n":70,"span":8,"encoder":"52499386","distractor":"52499086","target":"absent","response":"absent","rt":"1802.1000000089","correct":true,"confidence":5},{"trial_n":71,"span":8,"encoder":"48683569","distractor":"48683579","target":"present","response":"present","rt":"3567.900000006","correct":true,"confidence":-1},{"trial_n":72,"span":8,"encoder":"56878366","distractor":"56888366","target":"present","response":"present","rt":"696.79999999702","correct":true,"confidence":-1},{"trial_n":73,"span":9,"encoder":"214738453","distractor":"218738453","target":"absent","response":"absent","rt":"3835.3999999911","correct":true,"confidence":-1},{"trial_n":74,"span":9,"encoder":"481047592","distractor":"481047593","target":"absent","response":"absent","rt":"1363.200000003","correct":true,"confidence":-1},{"trial_n":75,"span":10,"encoder":"5935195998","distractor":"5933195998","target":"present","response":"present","rt":"2881.599999994","correct":true,"confidence":-1},{"trial_n":76,"span":10,"encoder":"9709211010","distractor":"9709291010","target":"present","response":"present","rt":"2927","correct":true,"confidence":-1},{"trial_n":77,"span":11,"encoder":"88444581183","distractor":"89444581183","target":"absent","response":"present","rt":"5185","correct":false,"confidence":-1},{"trial_n":78,"span":10,"encoder":"5255325182","distractor":"5255375182","target":"absent","response":"absent","rt":"900.20000000298","correct":true,"confidence":-1},{"trial_n":79,"span":10,"encoder":"2202453526","distractor":"5202453526","target":"absent","response":"present","rt":"1115.099999994","correct":false,"confidence":-1},{"trial_n":80,"span":9,"encoder":"750321409","distractor":"730321409","target":"present","response":"present","rt":"3484.799999997","correct":true,"confidence":-1},{"trial_n":81,"span":9,"encoder":"719447023","distractor":"719457023","target":"present","response":"absent","rt":"4356.299999997","correct":false,"confidence":-1},{"trial_n":82,"span":8,"encoder":"06134376","distractor":"06138376","target":"present","response":"present","rt":"1252.900000006","correct":true,"confidence":-1},{"trial_n":83,"span":8,"encoder":"71471809","distractor":"71476809","target":"absent","response":"absent","rt":"2662.700000003","correct":true,"confidence":-1},{"trial_n":84,"span":9,"encoder":"385209959","distractor":"385219959","target":"absent","response":"absent","rt":"1819","correct":true,"confidence":-1},{"trial_n":85,"span":9,"encoder":"947749718","distractor":"947739718","target":"present","response":"present","rt":"1615.3999999911","correct":true,"confidence":-1},{"trial_n":86,"span":10,"encoder":"7205317083","distractor":"7205337083","target":"absent","response":"present","rt":"496.89999999106","correct":false,"confidence":-1},{"trial_n":87,"span":9,"encoder":"008590769","distractor":"008595769","target":"absent","response":"absent","rt":"460.70000000298","correct":true,"confidence":-1},{"trial_n":88,"span":9,"encoder":"248885636","distractor":"248885836","target":"absent","response":"absent","rt":"3025.099999994","correct":true,"confidence":-1},{"trial_n":89,"span":10,"encoder":"3247396539","distractor":"3247396039","target":"absent","response":"absent","rt":"373.39999999106","correct":true,"confidence":-1},{"trial_n":90,"span":10,"encoder":"3223019006","distractor":"3226019006","target":"present","response":"present","rt":"518.90000000596","correct":true,"confidence":-1},{"trial_n":91,"span":11,"encoder":"23255768737","distractor":"23255068737","target":"present","response":"present","rt":"947.90000000596","correct":true,"confidence":2},{"trial_n":92,"span":11,"encoder":"44546074638","distractor":"44546044638","target":"absent","response":"absent","rt":"654.09999999404","correct":true,"confidence":3},{"trial_n":93,"span":12,"encoder":"848388056191","distractor":"848388076191","target":"present","response":"absent","rt":"1316.3999999911","correct":false,"confidence":2},{"trial_n":94,"span":11,"encoder":"91295904506","distractor":"91295944506","target":"present","response":"present","rt":"2777.900000006","correct":true,"confidence":4},{"trial_n":95,"span":11,"encoder":"80242426216","distractor":"80342426216","target":"present","response":"present","rt":"922.90000000596","correct":true,"confidence":4},{"trial_n":96,"span":12,"encoder":"346543906953","distractor":"346549906953","target":"present","response":"present","rt":"4780.099999994","correct":true,"confidence":3},{"trial_n":97,"span":12,"encoder":"702355739091","distractor":"702355739691","target":"present","response":"present","rt":"505.5","correct":true,"confidence":1},{"trial_n":98,"span":13,"encoder":"1083365972820","distractor":"1063365972820","target":"present","response":"present","rt":"2638.700000003","correct":true,"confidence":2},{"trial_n":99,"span":13,"encoder":"8340133908160","distractor":"9340133908160","target":"absent","response":"absent","rt":"548.20000000298","correct":true,"confidence":3},{"trial_n":100,"span":14,"encoder":"68594733797174","distractor":"68599733797174","target":"absent","response":"present","rt":"455.39999999106","correct":false,"confidence":3},{"trial_n":101,"span":13,"encoder":"3633386157449","distractor":"3653386157449","target":"present","response":"absent","rt":"362.39999999106","correct":false,"confidence":3},{"trial_n":102,"span":12,"encoder":"402279932327","distractor":"404279932327","target":"absent","response":"present","rt":"640.30000001192","correct":false,"confidence":5},{"trial_n":103,"span":11,"encoder":"68998675579","distractor":"68998575579","target":"present","response":"present","rt":"1171.099999994","correct":true,"confidence":3},{"trial_n":104,"span":11,"encoder":"24285673971","distractor":"24485673971","target":"present","response":"absent","rt":"3098.400000006","correct":false,"confidence":4},{"trial_n":105,"span":10,"encoder":"5098558700","distractor":"5098518700","target":"absent","response":"present","rt":"1468.8999999911","correct":false,"confidence":2},{"trial_n":106,"span":9,"encoder":"897122545","distractor":"827122545","target":"absent","response":"absent","rt":"588.5","correct":true,"confidence":5},{"trial_n":107,"span":9,"encoder":"810817068","distractor":"810818068","target":"absent","response":"present","rt":"2809.900000006","correct":false,"confidence":3},{"trial_n":108,"span":8,"encoder":"54709166","distractor":"54779166","target":"absent","response":"present","rt":"3410.5","correct":false,"confidence":3},{"trial_n":109,"span":7,"encoder":"3233549","distractor":"3237549","target":"absent","response":"absent","rt":"1276.799999997","correct":true,"confidence":2},{"trial_n":110,"span":7,"encoder":"3893070","distractor":"0893070","target":"present","response":"present","rt":"608.5","correct":true,"confidence":4},{"trial_n":111,"span":8,"encoder":"48974022","distractor":"48974012","target":"present","response":"present","rt":"6748.299999997","correct":true,"confidence":2},{"trial_n":112,"span":8,"encoder":"24167751","distractor":"94167751","target":"present","response":"absent","rt":"8628.900000006","correct":false,"confidence":3},{"trial_n":113,"span":7,"encoder":"5431601","distractor":"5431001","target":"present","response":"present","rt":"4771.700000003","correct":true,"confidence":3},{"trial_n":114,"span":7,"encoder":"7508710","distractor":"7568710","target":"present","response":"absent","rt":"2380.1000000089","correct":false,"confidence":4},{"trial_n":115,"span":6,"encoder":"556023","distractor":"556423","target":"absent","response":"present","rt":"588.90000000596","correct":false,"confidence":3},{"trial_n":116,"span":5,"encoder":"82571","distractor":"82561","target":"present","response":"present","rt":"1068.900000006","correct":true,"confidence":5},{"trial_n":117,"span":5,"encoder":"20356","distractor":"20351","target":"absent","response":"absent","rt":"998.20000000298","correct":true,"confidence":5},{"trial_n":118,"span":6,"encoder":"857242","distractor":"857042","target":"present","response":"present","rt":"2447.900000006","correct":true,"confidence":5},{"trial_n":119,"span":6,"encoder":"126994","distractor":"226994","target":"absent","response":"absent","rt":"1014","correct":true,"confidence":5},{"trial_n":120,"span":7,"encoder":"5587795","distractor":"5587995","target":"absent","response":"absent","rt":"3196.900000006","correct":true,"confidence":3},{"trial_n":121,"span":7,"encoder":"6989086","distractor":"6189086","target":"absent","response":"present","rt":"599.30000001192","correct":false,"confidence":3},{"trial_n":122,"span":6,"encoder":"223206","distractor":"223906","target":"present","response":"present","rt":"1107.900000006","correct":true,"confidence":3},{"trial_n":123,"span":6,"encoder":"556369","distractor":"556389","target":"present","response":"absent","rt":"10374.700000003","correct":false,"confidence":3},{"trial_n":124,"span":5,"encoder":"88478","distractor":"85478","target":"present","response":"present","rt":"2729.599999994","correct":true,"confidence":5},{"trial_n":125,"span":5,"encoder":"66466","distractor":"63466","target":"present","response":"present","rt":"1656.700000003","correct":true,"confidence":5},{"trial_n":126,"span":6,"encoder":"249051","distractor":"249057","target":"absent","response":"absent","rt":"2206.700000003","correct":true,"confidence":5},{"trial_n":127,"span":6,"encoder":"703513","distractor":"703563","target":"absent","response":"present","rt":"570.80000001192","correct":false,"confidence":4},{"trial_n":128,"span":5,"encoder":"62148","distractor":"62108","target":"absent","response":"absent","rt":"1310.6000000089","correct":true,"confidence":5},{"trial_n":129,"span":5,"encoder":"18272","distractor":"18271","target":"absent","response":"absent","rt":"914.5","correct":true,"confidence":5},{"trial_n":130,"span":6,"encoder":"953017","distractor":"953037","target":"present","response":"present","rt":"1323.799999997","correct":true,"confidence":5},{"trial_n":131,"span":6,"encoder":"420557","distractor":"620557","target":"absent","response":"absent","rt":"419","correct":true,"confidence":1},{"trial_n":132,"span":7,"encoder":"1777009","distractor":"1777409","target":"absent","response":"absent","rt":"2024.799999997","correct":true,"confidence":3},{"trial_n":133,"span":7,"encoder":"1455207","distractor":"1755207","target":"present","response":"absent","rt":"527.09999999404","correct":false,"confidence":1},{"trial_n":134,"span":6,"encoder":"193312","distractor":"173312","target":"present","response":"present","rt":"1110.1999999881","correct":true,"confidence":3},{"trial_n":135,"span":6,"encoder":"968472","distractor":"968475","target":"absent","response":"absent","rt":"2168.200000003","correct":true,"confidence":3},{"trial_n":136,"span":7,"encoder":"0396861","distractor":"0356861","target":"present","response":"present","rt":"3448.299999997","correct":true,"confidence":3},{"trial_n":137,"span":7,"encoder":"2124865","distractor":"2124825","target":"present","response":"absent","rt":"472.70000000298","correct":false,"confidence":3},{"trial_n":138,"span":6,"encoder":"977058","distractor":"967058","target":"absent","response":"present","rt":"1335.400000006","correct":false,"confidence":4},{"trial_n":139,"span":5,"encoder":"39345","distractor":"39945","target":"absent","response":"absent","rt":"1740.799999997","correct":true,"confidence":1},{"trial_n":140,"span":5,"encoder":"21528","distractor":"51528","target":"present","response":"present","rt":"2736","correct":true,"confidence":3}]