[{"trial_n":1,"span":8,"encoder":"91119185","distractor":"91119187","target":"present","response":"present","rt":"3296.3000000119","correct":true,"confidence":-1},{"trial_n":2,"span":8,"encoder":"34061493","distractor":"34061693","target":"present","response":"present","rt":"2936.6999999881","correct":true,"confidence":-1},{"trial_n":3,"span":10,"encoder":"0847104210","distractor":"0847104250","target":"absent","response":"absent","rt":"1953.6999999881","correct":true,"confidence":-1},{"trial_n":4,"span":10,"encoder":"0534725794","distractor":"0534625794","target":"absent","response":"present","rt":"2284.1999999881","correct":false,"confidence":-1},{"trial_n":5,"span":8,"encoder":"47249232","distractor":"45249232","target":"present","response":"present","rt":"2637.6999999881","correct":true,"confidence":-1},{"trial_n":6,"span":8,"encoder":"16646558","distractor":"16606558","target":"absent","response":"absent","rt":"1873.5","correct":true,"confidence":-1},{"trial_n":7,"span":10,"encoder":"5485391944","distractor":"5585391944","target":"present","response":"absent","rt":"1589","correct":false,"confidence":-1},{"trial_n":8,"span":8,"encoder":"67602001","distractor":"37602001","target":"present","response":"present","rt":"1917.8999999762","correct":true,"confidence":-1},{"trial_n":9,"span":8,"encoder":"37950049","distractor":"37950849","target":"present","response":"present","rt":"1907","correct":true,"confidence":-1},{"trial_n":10,"span":10,"encoder":"1223919925","distractor":"1223909925","target":"absent","response":"present","rt":"1939.3999999762","correct":false,"confidence":-1},{"trial_n":11,"span":8,"encoder":"54085157","distractor":"54083157","target":"absent","response":"present","rt":"1597.9000000358","correct":false,"confidence":-1},{"trial_n":12,"span":7,"encoder":"7148844","distractor":"7148847","target":"present","response":"present","rt":"1366.2999999523","correct":true,"confidence":-1},{"trial_n":13,"span":7,"encoder":"8546482","distractor":"8546489","target":"present","response":"present","rt":"1976.6999999881","correct":true,"confidence":-1},{"trial_n":14,"span":8,"encoder":"46696879","distractor":"46693879","target":"absent","response":"present","rt":"1272.7000000477","correct":false,"confidence":-1},{"trial_n":15,"span":7,"encoder":"7836867","distractor":"7836887","target":"present","response":"present","rt":"1579.8999999762","correct":true,"confidence":-1},{"trial_n":16,"span":7,"encoder":"1665818","distractor":"1661818","target":"absent","response":"present","rt":"1126.4000000358","correct":false,"confidence":-1},{"trial_n":17,"span":6,"encoder":"344581","distractor":"394581","target":"absent","response":"present","rt":"1113","correct":false,"confidence":-1},{"trial_n":18,"span":5,"encoder":"53422","distractor":"53420","target":"present","response":"absent","rt":"1831.6000000238","correct":false,"confidence":-1},{"trial_n":19,"span":4,"encoder":"1340","distractor":"1840","target":"absent","response":"present","rt":"2386.2999999523","correct":false,"confidence":-1},{"trial_n":20,"span":3,"encoder":"378","distractor":"379","target":"absent","response":"absent","rt":"1832.3000000119","correct":true,"confidence":-1},{"trial_n":21,"span":3,"encoder":"143","distractor":"743","target":"present","response":"present","rt":"1314.3000000119","correct":true,"confidence":5},{"trial_n":22,"span":4,"encoder":"7936","distractor":"7932","target":"absent","response":"absent","rt":"1199","correct":true,"confidence":5},{"trial_n":23,"span":4,"encoder":"2454","distractor":"2054","target":"absent","response":"absent","rt":"1932","correct":true,"confidence":5},{"trial_n":24,"span":5,"encoder":"38482","distractor":"78482","target":"absent","response":"absent","rt":"1505.0999999642","correct":true,"confidence":5},{"trial_n":25,"span":5,"encoder":"90535","distractor":"90539","target":"absent","response":"absent","rt":"3160.0999999642","correct":true,"confidence":4},{"trial_n":26,"span":6,"encoder":"400994","distractor":"400934","target":"absent","response":"absent","rt":"1297.5","correct":true,"confidence":5},{"trial_n":27,"span":6,"encoder":"024908","distractor":"024508","target":"absent","response":"absent","rt":"2794.3000000119","correct":true,"confidence":3},{"trial_n":28,"span":7,"encoder":"5335259","distractor":"5335249","target":"present","response":"present","rt":"3728.6000000238","correct":true,"confidence":3},{"trial_n":29,"span":7,"encoder":"9363804","distractor":"9363704","target":"absent","response":"absent","rt":"1797.8000000119","correct":true,"confidence":5},{"trial_n":30,"span":8,"encoder":"84221412","distractor":"83221412","target":"present","response":"present","rt":"3023.6000000238","correct":true,"confidence":3},{"trial_n":31,"span":8,"encoder":"32753965","distractor":"32755965","target":"present","response":"present","rt":"3759.9000000358","correct":true,"confidence":4},{"trial_n":32,"span":9,"encoder":"454569973","distractor":"458569973","target":"absent","response":"absent","rt":"3523.3999999762","correct":true,"confidence":3},{"trial_n":33,"span":9,"encoder":"590306879","distractor":"590300879","target":"present","response":"present","rt":"2536.9000000358","correct":true,"confidence":4},{"trial_n":34,"span":10,"encoder":"9427670354","distractor":"3427670354","target":"absent","response":"present","rt":"5875.8999999762","correct":false,"confidence":3},{"trial_n":35,"span":9,"encoder":"992155058","distractor":"992155078","target":"absent","response":"absent","rt":"2163.5","correct":true,"confidence":3},{"trial_n":36,"span":9,"encoder":"961351200","distractor":"461351200","target":"absent","response":"absent","rt":"1605.1999999881","correct":true,"confidence":5},{"trial_n":37,"span":10,"encoder":"4190311167","distractor":"4190315167","target":"present","response":"present","rt":"2821.3000000119","correct":true,"confidence":3},{"trial_n":38,"span":10,"encoder":"1816730158","distractor":"1836730158","target":"present","response":"present","rt":"2364.9000000358","correct":true,"confidence":3},{"trial_n":39,"span":11,"encoder":"91290130997","distractor":"91190130997","target":"present","response":"present","rt":"3964.4000000358","correct":true,"confidence":3},{"trial_n":40,"span":11,"encoder":"37014837359","distractor":"37014837353","target":"absent","response":"absent","rt":"2310.5","correct":true,"confidence":4},{"trial_n":41,"span":12,"encoder":"783044836120","distractor":"783047836120","target":"present","response":"present","rt":"3985.3000000119","correct":true,"confidence":4},{"trial_n":42,"span":12,"encoder":"557064903401","distractor":"557664903401","target":"present","response":"present","rt":"7840.7000000477","correct":true,"confidence":3},{"trial_n":43,"span":13,"encoder":"8180057289109","distractor":"8187057289109","target":"present","response":"absent","rt":"2145.1000000238","correct":false,"confidence":2},{"trial_n":44,"span":12,"encoder":"171478137732","distractor":"171478137733","target":"present","response":"present","rt":"4035.1999999881","correct":true,"confidence":3},{"trial_n":45,"span":12,"encoder":"511936915412","distractor":"511937915412","target":"absent","response":"present","rt":"2617","correct":false,"confidence":3},{"trial_n":46,"span":11,"encoder":"31126703728","distractor":"31156703728","target":"absent","response":"present","rt":"6959.3999999762","correct":false,"confidence":3},{"trial_n":47,"span":10,"encoder":"0598615581","distractor":"2598615581","target":"present","response":"present","rt":"3681.2000000477","correct":true,"confidence":2},{"trial_n":48,"span":10,"encoder":"0939845222","distractor":"0939848222","target":"present","response":"present","rt":"3976.5999999642","correct":true,"confidence":3},{"trial_n":49,"span":11,"encoder":"17571942226","distractor":"13571942226","target":"absent","response":"present","rt":"2360.5","correct":false,"confidence":3},{"trial_n":50,"span":10,"encoder":"1599572261","distractor":"6599572261","target":"absent","response":"present","rt":"1919","correct":false,"confidence":3},{"trial_n":51,"span":9,"encoder":"109817230","distractor":"109417230","target":"present","response":"present","rt":"3113.3999999762","correct":true,"confidence":4},{"trial_n":52,"span":9,"encoder":"802134748","distractor":"802534748","target":"absent","response":"present","rt":"8861.1000000238","correct":false,"confidence":3},{"trial_n":53,"span":8,"encoder":"23541635","distractor":"23541655","target":"absent","response":"absent","rt":"2058.5","correct":true,"confidence":2},{"trial_n":54,"span":8,"encoder":"95142164","distractor":"95140164","target":"present","response":"present","rt":"5261.1000000238","correct":true,"confidence":3},{"trial_n":55,"span":9,"encoder":"160320145","distractor":"160320945","target":"present","response":"present","rt":"2246.1000000238","correct":true,"confidence":4},{"trial_n":56,"span":9,"encoder":"678448547","distractor":"578448547","target":"present","response":"present","rt":"2627.3000000119","correct":true,"confidence":3},{"trial_n":57,"span":10,"encoder":"7867607901","distractor":"7860607901","target":"present","response":"absent","rt":"1930.0999999642","correct":false,"confidence":5},{"trial_n":58,"span":9,"encoder":"149148018","distractor":"149138018","target":"present","response":"present","rt":"4332.5999999642","correct":true,"confidence":4},{"trial_n":59,"span":9,"encoder":"473521028","distractor":"473521038","target":"present","response":"present","rt":"2227.1999999881","correct":true,"confidence":4},{"trial_n":60,"span":10,"encoder":"1314412579","distractor":"1314412179","target":"absent","response":"absent","rt":"10892","correct":true,"confidence":2},{"trial_n":61,"span":10,"encoder":"0820613209","distractor":"0830613209","target":"present","response":"present","rt":"2936","correct":true,"confidence":3},{"trial_n":62,"span":11,"encoder":"23587497024","distractor":"23587487024","target":"absent","response":"present","rt":"1912","correct":false,"confidence":2},{"trial_n":63,"span":10,"encoder":"4398458715","distractor":"4398455715","target":"absent","response":"present","rt":"1802.6999999881","correct":false,"confidence":4},{"trial_n":64,"span":9,"encoder":"624655176","distractor":"624645176","target":"present","response":"present","rt":"3342.8000000119","correct":true,"confidence":3},{"trial_n":65,"span":9,"encoder":"530448782","distractor":"530468782","target":"absent","response":"present","rt":"4271.1000000238","correct":false,"confidence":3},{"trial_n":66,"span":8,"encoder":"00471798","distractor":"07471798","target":"absent","response":"present","rt":"3898.5","correct":false,"confidence":3},{"trial_n":67,"span":7,"encoder":"2929603","distractor":"2923603","target":"present","response":"absent","rt":"2935.8000000119","correct":false,"confidence":5},{"trial_n":68,"span":6,"encoder":"587659","distractor":"587657","target":"present","response":"present","rt":"4808.3999999762","correct":true,"confidence":5},{"trial_n":69,"span":6,"encoder":"249036","distractor":"249046","target":"absent","response":"absent","rt":"2644.8000000119","correct":true,"confidence":5},{"trial_n":70,"span":7,"encoder":"4173333","distractor":"4373333","target":"present","response":"absent","rt":"2278.1999999881","correct":false,"confidence":4},{"trial_n":71,"span":8,"encoder":"21895257","distractor":"21795257","target":"present","response":"present","rt":"4941.6999999881","correct":true,"confidence":-1},{"trial_n":72,"span":8,"encoder":"74244051","distractor":"74204051","target":"present","response":"present","rt":"3287.5999999642","correct":true,"confidence":-1},{"trial_n":73,"span":9,"encoder":"795857450","distractor":"795857150","target":"absent","response":"absent","rt":"6514.1999999881","correct":true,"confidence":-1},{"trial_n":74,"span":9,"encoder":"414260140","distractor":"914260140","target":"absent","response":"absent","rt":"4711.0999999642","correct":true,"confidence":-1},{"trial_n":75,"span":10,"encoder":"1285210361","distractor":"1245210361","target":"present","response":"present","rt":"3030.1999999881","correct":true,"confidence":-1},{"trial_n":76,"span":10,"encoder":"9469362072","distractor":"9469362073","target":"absent","response":"present","rt":"2769.6000000238","correct":false,"confidence":-1},{"trial_n":77,"span":9,"encoder":"956314705","distractor":"916314705","target":"absent","response":"absent","rt":"4236","correct":true,"confidence":-1},{"trial_n":78,"span":9,"encoder":"533476144","distractor":"533446144","target":"absent","response":"absent","rt":"2083.6999999881","correct":true,"confidence":-1},{"trial_n":79,"span":10,"encoder":"2290966135","distractor":"2290962135","target":"present","response":"present","rt":"1572","correct":true,"confidence":-1},{"trial_n":80,"span":10,"encoder":"7232735307","distractor":"7232035307","target":"absent","response":"present","rt":"6672.3999999762","correct":false,"confidence":-1},{"trial_n":81,"span":9,"encoder":"297262660","distractor":"297262668","target":"present","response":"present","rt":"8222.6000000238","correct":true,"confidence":-1},{"trial_n":82,"span":9,"encoder":"009378676","distractor":"009308676","target":"present","response":"present","rt":"5368.1000000238","correct":true,"confidence":-1},{"trial_n":83,"span":10,"encoder":"1260846449","distractor":"1230846449","target":"absent","response":"present","rt":"3351.3999999762","correct":false,"confidence":-1},{"trial_n":84,"span":9,"encoder":"561095900","distractor":"561095600","target":"absent","response":"present","rt":"7484.6000000238","correct":false,"confidence":-1},{"trial_n":85,"span":8,"encoder":"63377401","distractor":"93377401","target":"absent","response":"absent","rt":"3915.3000000119","correct":true,"confidence":-1},{"trial_n":86,"span":8,"encoder":"91974997","distractor":"91674997","target":"absent","response":"absent","rt":"3291.9000000358","correct":true,"confidence":-1},{"trial_n":87,"span":9,"encoder":"757768920","distractor":"737768920","target":"absent","response":"absent","rt":"2565.7000000477","correct":true,"confidence":-1},{"trial_n":88,"span":9,"encoder":"722662551","distractor":"722632551","target":"absent","response":"absent","rt":"1021.8000000119","correct":true,"confidence":-1},{"trial_n":89,"span":10,"encoder":"1677240838","distractor":"6677240838","target":"absent","response":"present","rt":"1338.5","correct":false,"confidence":-1},{"trial_n":90,"span":9,"encoder":"265880414","distractor":"295880414","target":"present","response":"absent","rt":"1002.6999999881","correct":false,"confidence":-1},{"trial_n":91,"span":8,"encoder":"27508196","distractor":"27508194","target":"present","response":"absent","rt":"237983.89999998","correct":false,"confidence":2},{"trial_n":92,"span":7,"encoder":"1336139","distractor":"1336109","target":"present","response":"present","rt":"6054.2000000477","correct":true,"confidence":3},{"trial_n":93,"span":7,"encoder":"7792436","distractor":"7392436","target":"present","response":"absent","rt":"3597.8000000119","correct":false,"confidence":3},{"trial_n":94,"span":6,"encoder":"967614","distractor":"367614","target":"absent","response":"present","rt":"3372.3000000119","correct":false,"confidence":5},{"trial_n":95,"span":5,"encoder":"20127","distractor":"20123","target":"present","response":"present","rt":"2701.8000000119","correct":true,"confidence":1},{"trial_n":96,"span":5,"encoder":"06146","distractor":"06046","target":"absent","response":"absent","rt":"2070.8000000119","correct":true,"confidence":4},{"trial_n":97,"span":6,"encoder":"327203","distractor":"327503","target":"present","response":"present","rt":"3190.5","correct":true,"confidence":4},{"trial_n":98,"span":6,"encoder":"532903","distractor":"535903","target":"absent","response":"absent","rt":"2556","correct":true,"confidence":4},{"trial_n":99,"span":7,"encoder":"7368946","distractor":"7368940","target":"present","response":"present","rt":"5666","correct":true,"confidence":3},{"trial_n":100,"span":7,"encoder":"0808900","distractor":"0608900","target":"present","response":"present","rt":"2956.6999999881","correct":true,"confidence":4},{"trial_n":101,"span":8,"encoder":"51696720","distractor":"51696420","target":"present","response":"present","rt":"4080.3000000119","correct":true,"confidence":5},{"trial_n":102,"span":8,"encoder":"22179489","distractor":"22179419","target":"absent","response":"absent","rt":"3227.6999999881","correct":true,"confidence":3},{"trial_n":103,"span":9,"encoder":"248586142","distractor":"248586144","target":"present","response":"present","rt":"5062.6999999881","correct":true,"confidence":2},{"trial_n":104,"span":9,"encoder":"320841119","distractor":"320831119","target":"present","response":"present","rt":"2485.5","correct":true,"confidence":5},{"trial_n":105,"span":10,"encoder":"1863112209","distractor":"1863112202","target":"present","response":"present","rt":"2752.6000000238","correct":true,"confidence":5},{"trial_n":106,"span":10,"encoder":"3684488483","distractor":"3684482483","target":"absent","response":"present","rt":"6445.6999999881","correct":false,"confidence":2},{"trial_n":107,"span":9,"encoder":"897931102","distractor":"897921102","target":"present","response":"present","rt":"3507.6999999881","correct":true,"confidence":3},{"trial_n":108,"span":9,"encoder":"035125969","distractor":"035125669","target":"absent","response":"absent","rt":"2234.7000000477","correct":true,"confidence":3},{"trial_n":109,"span":10,"encoder":"5031320818","distractor":"5031320618","target":"present","response":"present","rt":"2733.3999999762","correct":true,"confidence":5},{"trial_n":110,"span":10,"encoder":"6487415362","distractor":"6487515362","target":"absent","response":"absent","rt":"3915.8999999762","correct":true,"confidence":3},{"trial_n":111,"span":11,"encoder":"90628945224","distractor":"90628905224","target":"absent","response":"present","rt":"2823.1999999881","correct":false,"confidence":4},{"trial_n":112,"span":10,"encoder":"9813672893","distractor":"9813672823","target":"absent","response":"present","rt":"1539.6999999881","correct":false,"confidence":3},{"trial_n":113,"span":9,"encoder":"727714395","distractor":"727714335","target":"present","response":"present","rt":"1752","correct":true,"confidence":4},{"trial_n":114,"span":9,"encoder":"085294002","distractor":"085297002","target":"present","response":"present","rt":"1803.8000000119","correct":true,"confidence":5},{"trial_n":115,"span":10,"encoder":"9448355274","distractor":"4448355274","target":"present","response":"present","rt":"4151.6000000238","correct":true,"confidence":4},{"trial_n":116,"span":10,"encoder":"5184690156","distractor":"5184690158","target":"absent","response":"absent","rt":"1860.6000000238","correct":true,"confidence":4},{"trial_n":117,"span":11,"encoder":"17217254088","distractor":"17217254086","target":"absent","response":"absent","rt":"1717.1000000238","correct":true,"confidence":4},{"trial_n":118,"span":11,"encoder":"43867661251","distractor":"43867461251","target":"absent","response":"absent","rt":"8505.5999999642","correct":true,"confidence":3},{"trial_n":119,"span":12,"encoder":"999083707702","distractor":"999083707602","target":"present","response":"present","rt":"6320.8000000119","correct":true,"confidence":3},{"trial_n":120,"span":12,"encoder":"227464493573","distractor":"127464493573","target":"present","response":"absent","rt":"3805.1000000238","correct":false,"confidence":2},{"trial_n":121,"span":11,"encoder":"69901085533","distractor":"69901085534","target":"absent","response":"absent","rt":"2021.1000000238","correct":true,"confidence":4},{"trial_n":122,"span":11,"encoder":"93851226620","distractor":"93881226620","target":"absent","response":"present","rt":"2716.9000000358","correct":false,"confidence":3},{"trial_n":123,"span":10,"encoder":"7748052030","distractor":"8748052030","target":"absent","response":"absent","rt":"2099.6999999881","correct":true,"confidence":4},{"trial_n":124,"span":10,"encoder":"6489114196","distractor":"6439114196","target":"present","response":"absent","rt":"4575.2999999523","correct":false,"confidence":2},{"trial_n":125,"span":9,"encoder":"954381026","distractor":"954081026","target":"absent","response":"absent","rt":"5392.3000000119","correct":true,"confidence":3},{"trial_n":126,"span":9,"encoder":"451074244","distractor":"451074444","target":"present","response":"present","rt":"1925.6999999881","correct":true,"confidence":5},{"trial_n":127,"span":10,"encoder":"5909629802","distractor":"5909629402","target":"present","response":"absent","rt":"1661.9000000358","correct":false,"confidence":3},{"trial_n":128,"span":9,"encoder":"575295433","distractor":"975295433","target":"present","response":"absent","rt":"4136.8999999762","correct":false,"confidence":2},{"trial_n":129,"span":8,"encoder":"43018220","distractor":"43018225","target":"absent","response":"absent","rt":"2807.1999999881","correct":true,"confidence":4},{"trial_n":130,"span":8,"encoder":"88152106","distractor":"88152176","target":"present","response":"absent","rt":"17273.199999988","correct":false,"confidence":1},{"trial_n":131,"span":7,"encoder":"4379284","distractor":"4379224","target":"absent","response":"present","rt":"2904.8000000119","correct":false,"confidence":2},{"trial_n":132,"span":6,"encoder":"683832","distractor":"683532","target":"present","response":"present","rt":"2552.7000000477","correct":true,"confidence":5},{"trial_n":133,"span":6,"encoder":"965202","distractor":"985202","target":"absent","response":"absent","rt":"3561.5","correct":true,"confidence":5},{"trial_n":134,"span":7,"encoder":"4330020","distractor":"4330420","target":"absent","response":"absent","rt":"1946","correct":true,"confidence":5},{"trial_n":135,"span":7,"encoder":"2749608","distractor":"2749308","target":"present","response":"present","rt":"3172.6000000238","correct":true,"confidence":5},{"trial_n":136,"span":8,"encoder":"45636782","distractor":"45636482","target":"present","response":"absent","rt":"2134.5","correct":false,"confidence":2},{"trial_n":137,"span":7,"encoder":"4600367","distractor":"4600967","target":"present","response":"present","rt":"3367.9000000358","correct":true,"confidence":5},{"trial_n":138,"span":7,"encoder":"5168774","distractor":"5128774","target":"present","response":"present","rt":"1915","correct":true,"confidence":5},{"trial_n":139,"span":8,"encoder":"91069776","distractor":"41069776","target":"absent","response":"absent","rt":"1756.5","correct":true,"confidence":5},{"trial_n":140,"span":8,"encoder":"34655695","distractor":"24655695","target":"present","response":"absent","rt":"1812.8000000119","correct":false,"confidence":3}]