[{"trial_n":1,"span":8,"encoder":"81265639","distractor":"21265639","target":"present","response":"present","rt":"4477.3999999911","correct":true,"confidence":-1},{"trial_n":2,"span":8,"encoder":"19723527","distractor":"19723727","target":"present","response":"present","rt":"2312.5","correct":true,"confidence":-1},{"trial_n":3,"span":10,"encoder":"4927871300","distractor":"4927872300","target":"absent","response":"absent","rt":"2270.200000003","correct":true,"confidence":-1},{"trial_n":4,"span":10,"encoder":"9061669160","distractor":"9061669130","target":"absent","response":"absent","rt":"1754.400000006","correct":true,"confidence":-1},{"trial_n":5,"span":12,"encoder":"942644460566","distractor":"942604460566","target":"present","response":"present","rt":"1542.900000006","correct":true,"confidence":-1},{"trial_n":6,"span":12,"encoder":"489185267625","distractor":"485185267625","target":"absent","response":"absent","rt":"2192","correct":true,"confidence":-1},{"trial_n":7,"span":14,"encoder":"26121014124498","distractor":"16121014124498","target":"present","response":"present","rt":"1727.3999999911","correct":true,"confidence":-1},{"trial_n":8,"span":14,"encoder":"46444201854246","distractor":"46444201854216","target":"present","response":"present","rt":"1993.8000000119","correct":true,"confidence":-1},{"trial_n":9,"span":16,"encoder":"7453798084244975","distractor":"7453798084244575","target":"present","response":"present","rt":"3190.099999994","correct":true,"confidence":-1},{"trial_n":10,"span":16,"encoder":"1702745590403749","distractor":"1702745590503749","target":"absent","response":"absent","rt":"2309.1000000089","correct":true,"confidence":-1},{"trial_n":11,"span":18,"encoder":"719874073458396649","distractor":"719874033458396649","target":"absent","response":"present","rt":"2683.8000000119","correct":false,"confidence":-1},{"trial_n":12,"span":17,"encoder":"95763103884939213","distractor":"95763103584939213","target":"present","response":"absent","rt":"1085.6000000089","correct":false,"confidence":-1},{"trial_n":13,"span":16,"encoder":"9142536550871741","distractor":"9142536551871741","target":"present","response":"absent","rt":"2102.1000000089","correct":false,"confidence":-1},{"trial_n":14,"span":15,"encoder":"228726616827195","distractor":"228026616827195","target":"absent","response":"absent","rt":"2359.5","correct":true,"confidence":-1},{"trial_n":15,"span":15,"encoder":"303804918844732","distractor":"303804938844732","target":"present","response":"present","rt":"1116.900000006","correct":true,"confidence":-1},{"trial_n":16,"span":16,"encoder":"9992961713930075","distractor":"9992941713930075","target":"present","response":"present","rt":"2935.3999999911","correct":true,"confidence":-1},{"trial_n":17,"span":16,"encoder":"2951454316035512","distractor":"2951454316095512","target":"absent","response":"absent","rt":"1183.5","correct":true,"confidence":-1},{"trial_n":18,"span":17,"encoder":"53650741014181043","distractor":"53650741014081043","target":"absent","response":"present","rt":"1379.400000006","correct":false,"confidence":-1},{"trial_n":19,"span":16,"encoder":"8245928600617950","distractor":"8240928600617950","target":"absent","response":"present","rt":"2946.200000003","correct":false,"confidence":-1},{"trial_n":20,"span":15,"encoder":"208993580752992","distractor":"208993580752962","target":"absent","response":"absent","rt":"1682.6999999881","correct":true,"confidence":-1},{"trial_n":21,"span":15,"encoder":"973552621098959","distractor":"973252621098959","target":"present","response":"absent","rt":"5454.099999994","correct":false,"confidence":2},{"trial_n":22,"span":14,"encoder":"97908206710117","distractor":"97988206710117","target":"absent","response":"present","rt":"2565.599999994","correct":false,"confidence":2},{"trial_n":23,"span":13,"encoder":"6455322549077","distractor":"6455322549277","target":"present","response":"present","rt":"4848.799999997","correct":true,"confidence":2},{"trial_n":24,"span":13,"encoder":"2907948394911","distractor":"2906948394911","target":"present","response":"absent","rt":"2208.3000000119","correct":false,"confidence":1},{"trial_n":25,"span":12,"encoder":"931182082948","distractor":"931180082948","target":"absent","response":"present","rt":"5871.6999999881","correct":false,"confidence":1},{"trial_n":26,"span":11,"encoder":"17703430767","distractor":"17203430767","target":"absent","response":"absent","rt":"4431.6000000089","correct":true,"confidence":3},{"trial_n":27,"span":11,"encoder":"28683948038","distractor":"28683942038","target":"present","response":"absent","rt":"5924.3000000119","correct":false,"confidence":2},{"trial_n":28,"span":10,"encoder":"9182027674","distractor":"9182067674","target":"present","response":"present","rt":"2619.900000006","correct":true,"confidence":3},{"trial_n":29,"span":10,"encoder":"6773285316","distractor":"6773288316","target":"present","response":"present","rt":"11169.199999988","correct":true,"confidence":3},{"trial_n":30,"span":11,"encoder":"26624258687","distractor":"26024258687","target":"present","response":"absent","rt":"10428.699999988","correct":false,"confidence":3},{"trial_n":31,"span":10,"encoder":"8208779685","distractor":"8208719685","target":"absent","response":"absent","rt":"9187.299999997","correct":true,"confidence":2},{"trial_n":32,"span":10,"encoder":"1739222131","distractor":"1719222131","target":"absent","response":"present","rt":"3268.5","correct":false,"confidence":3},{"trial_n":33,"span":9,"encoder":"134418592","distractor":"134518592","target":"present","response":"absent","rt":"2454.799999997","correct":false,"confidence":3},{"trial_n":34,"span":8,"encoder":"54655219","distractor":"54655119","target":"present","response":"present","rt":"2735.200000003","correct":true,"confidence":2},{"trial_n":35,"span":8,"encoder":"39061269","distractor":"39060269","target":"present","response":"present","rt":"1857.599999994","correct":true,"confidence":2},{"trial_n":36,"span":9,"encoder":"570021789","distractor":"270021789","target":"present","response":"present","rt":"3350.6999999881","correct":true,"confidence":2},{"trial_n":37,"span":9,"encoder":"863716596","distractor":"813716596","target":"present","response":"absent","rt":"11489.5","correct":false,"confidence":3},{"trial_n":38,"span":8,"encoder":"41601018","distractor":"61601018","target":"present","response":"present","rt":"6768.599999994","correct":true,"confidence":2},{"trial_n":39,"span":8,"encoder":"19570932","distractor":"19577932","target":"absent","response":"absent","rt":"3520.5","correct":true,"confidence":4},{"trial_n":40,"span":9,"encoder":"868377398","distractor":"838377398","target":"absent","response":"absent","rt":"7780.3999999911","correct":true,"confidence":3},{"trial_n":41,"span":9,"encoder":"354403930","distractor":"354433930","target":"absent","response":"present","rt":"3763.8999999911","correct":false,"confidence":1},{"trial_n":42,"span":8,"encoder":"57024294","distractor":"57024274","target":"absent","response":"absent","rt":"3137.5","correct":true,"confidence":5},{"trial_n":43,"span":8,"encoder":"40127237","distractor":"60127237","target":"absent","response":"absent","rt":"2719","correct":true,"confidence":4},{"trial_n":44,"span":9,"encoder":"893380657","distractor":"293380657","target":"present","response":"present","rt":"4924.8999999911","correct":true,"confidence":3},{"trial_n":45,"span":9,"encoder":"553548634","distractor":"583548634","target":"absent","response":"absent","rt":"5655.900000006","correct":true,"confidence":1},{"trial_n":46,"span":10,"encoder":"7608135592","distractor":"7698135592","target":"absent","response":"present","rt":"2118.700000003","correct":false,"confidence":2},{"trial_n":47,"span":9,"encoder":"748403086","distractor":"748403006","target":"absent","response":"present","rt":"3708.8999999911","correct":false,"confidence":3},{"trial_n":48,"span":8,"encoder":"28930481","distractor":"28930981","target":"present","response":"present","rt":"2672.6000000089","correct":true,"confidence":3},{"trial_n":49,"span":8,"encoder":"60053403","distractor":"00053403","target":"absent","response":"absent","rt":"3443.8999999911","correct":true,"confidence":3},{"trial_n":50,"span":9,"encoder":"067579849","distractor":"067579839","target":"absent","response":"absent","rt":"2399.6999999881","correct":true,"confidence":3},{"trial_n":51,"span":9,"encoder":"887357802","distractor":"887357502","target":"present","response":"absent","rt":"6320.599999994","correct":false,"confidence":3},{"trial_n":52,"span":8,"encoder":"13456050","distractor":"13456060","target":"absent","response":"present","rt":"2636.900000006","correct":false,"confidence":5},{"trial_n":53,"span":7,"encoder":"2612041","distractor":"2612441","target":"present","response":"present","rt":"6380.400000006","correct":true,"confidence":1},{"trial_n":54,"span":7,"encoder":"0134135","distractor":"0634135","target":"absent","response":"present","rt":"4273.900000006","correct":false,"confidence":3},{"trial_n":55,"span":6,"encoder":"639966","distractor":"639066","target":"present","response":"present","rt":"2366.8999999911","correct":true,"confidence":5},{"trial_n":56,"span":6,"encoder":"514351","distractor":"564351","target":"present","response":"present","rt":"3032.1000000089","correct":true,"confidence":4},{"trial_n":57,"span":7,"encoder":"6256460","distractor":"6256450","target":"present","response":"absent","rt":"3097.900000006","correct":false,"confidence":2},{"trial_n":58,"span":6,"encoder":"838039","distractor":"888039","target":"present","response":"present","rt":"9159.099999994","correct":true,"confidence":2},{"trial_n":59,"span":6,"encoder":"147859","distractor":"147879","target":"present","response":"absent","rt":"7196.799999997","correct":false,"confidence":2},{"trial_n":60,"span":5,"encoder":"26002","distractor":"26052","target":"absent","response":"absent","rt":"1845.299999997","correct":true,"confidence":5},{"trial_n":61,"span":5,"encoder":"95080","distractor":"95780","target":"present","response":"present","rt":"2630.799999997","correct":true,"confidence":4},{"trial_n":62,"span":6,"encoder":"732188","distractor":"732118","target":"absent","response":"absent","rt":"1735.099999994","correct":true,"confidence":5},{"trial_n":63,"span":6,"encoder":"902310","distractor":"902390","target":"present","response":"absent","rt":"2865.6000000089","correct":false,"confidence":2},{"trial_n":64,"span":5,"encoder":"38914","distractor":"38114","target":"present","response":"present","rt":"2636","correct":true,"confidence":3},{"trial_n":65,"span":5,"encoder":"86100","distractor":"86108","target":"present","response":"present","rt":"2502.5","correct":true,"confidence":5},{"trial_n":66,"span":6,"encoder":"145754","distractor":"945754","target":"absent","response":"absent","rt":"1837.700000003","correct":true,"confidence":5},{"trial_n":67,"span":6,"encoder":"603467","distractor":"603487","target":"absent","response":"absent","rt":"2713.1000000089","correct":true,"confidence":5},{"trial_n":68,"span":7,"encoder":"0123019","distractor":"0193019","target":"absent","response":"absent","rt":"3482.8999999911","correct":true,"confidence":5},{"trial_n":69,"span":7,"encoder":"6112583","distractor":"6112883","target":"absent","response":"present","rt":"3268","correct":false,"confidence":3},{"trial_n":70,"span":6,"encoder":"244511","distractor":"244211","target":"absent","response":"absent","rt":"1823.799999997","correct":true,"confidence":5},{"trial_n":71,"span":8,"encoder":"28806646","distractor":"28806640","target":"present","response":"present","rt":"2037","correct":true,"confidence":-1},{"trial_n":72,"span":8,"encoder":"79570817","distractor":"79570617","target":"present","response":"absent","rt":"1538.1000000089","correct":false,"confidence":-1},{"trial_n":73,"span":7,"encoder":"4650370","distractor":"4650376","target":"absent","response":"absent","rt":"1109.700000003","correct":true,"confidence":-1},{"trial_n":74,"span":7,"encoder":"4525932","distractor":"4565932","target":"absent","response":"present","rt":"5246.400000006","correct":false,"confidence":-1},{"trial_n":75,"span":6,"encoder":"847314","distractor":"847214","target":"present","response":"present","rt":"1396.3000000119","correct":true,"confidence":-1},{"trial_n":76,"span":6,"encoder":"394566","distractor":"794566","target":"present","response":"present","rt":"1073.700000003","correct":true,"confidence":-1},{"trial_n":77,"span":7,"encoder":"4368722","distractor":"4368762","target":"present","response":"present","rt":"2921.1000000089","correct":true,"confidence":-1},{"trial_n":78,"span":7,"encoder":"3631635","distractor":"3631631","target":"present","response":"present","rt":"4351","correct":true,"confidence":-1},{"trial_n":79,"span":8,"encoder":"97057648","distractor":"97057645","target":"present","response":"present","rt":"1393","correct":true,"confidence":-1},{"trial_n":80,"span":8,"encoder":"32523779","distractor":"32523778","target":"absent","response":"absent","rt":"993.90000000596","correct":true,"confidence":-1},{"trial_n":81,"span":9,"encoder":"653520315","distractor":"653560315","target":"present","response":"absent","rt":"3802.8000000119","correct":false,"confidence":-1},{"trial_n":82,"span":8,"encoder":"48515746","distractor":"44515746","target":"absent","response":"absent","rt":"4157.200000003","correct":true,"confidence":-1},{"trial_n":83,"span":8,"encoder":"38932457","distractor":"68932457","target":"present","response":"present","rt":"2060.6999999881","correct":true,"confidence":-1},{"trial_n":84,"span":9,"encoder":"316427251","distractor":"306427251","target":"absent","response":"present","rt":"1513.299999997","correct":false,"confidence":-1},{"trial_n":85,"span":8,"encoder":"82111682","distractor":"82114682","target":"present","response":"absent","rt":"1023.700000003","correct":false,"confidence":-1},{"trial_n":86,"span":7,"encoder":"8776252","distractor":"8774252","target":"present","response":"present","rt":"661.59999999404","correct":true,"confidence":-1},{"trial_n":87,"span":7,"encoder":"3667191","distractor":"3667391","target":"present","response":"present","rt":"901.5","correct":true,"confidence":-1},{"trial_n":88,"span":8,"encoder":"11628797","distractor":"11628798","target":"absent","response":"present","rt":"5250.200000003","correct":false,"confidence":-1},{"trial_n":89,"span":7,"encoder":"0358638","distractor":"0358438","target":"present","response":"absent","rt":"1499.299999997","correct":false,"confidence":-1},{"trial_n":90,"span":6,"encoder":"994908","distractor":"994408","target":"absent","response":"absent","rt":"2457.900000006","correct":true,"confidence":-1},{"trial_n":91,"span":6,"encoder":"479319","distractor":"479419","target":"present","response":"present","rt":"3247.6999999881","correct":true,"confidence":1},{"trial_n":92,"span":7,"encoder":"4329868","distractor":"4329860","target":"absent","response":"absent","rt":"4437.900000006","correct":true,"confidence":4},{"trial_n":93,"span":7,"encoder":"8644260","distractor":"8644240","target":"absent","response":"absent","rt":"2962.6000000089","correct":true,"confidence":5},{"trial_n":94,"span":8,"encoder":"90775450","distractor":"90777450","target":"present","response":"present","rt":"5589.8000000119","correct":true,"confidence":4},{"trial_n":95,"span":8,"encoder":"74526093","distractor":"74526073","target":"absent","response":"absent","rt":"3658","correct":true,"confidence":4},{"trial_n":96,"span":9,"encoder":"654288871","distractor":"654288870","target":"absent","response":"absent","rt":"5790","correct":true,"confidence":3},{"trial_n":97,"span":9,"encoder":"484723037","distractor":"484720037","target":"present","response":"present","rt":"2892.6000000089","correct":true,"confidence":4},{"trial_n":98,"span":10,"encoder":"4911748225","distractor":"4911748285","target":"present","response":"present","rt":"2043.599999994","correct":true,"confidence":4},{"trial_n":99,"span":10,"encoder":"7905657913","distractor":"4905657913","target":"present","response":"present","rt":"5884.200000003","correct":true,"confidence":2},{"trial_n":100,"span":11,"encoder":"14255229386","distractor":"14253229386","target":"present","response":"present","rt":"4584.5","correct":true,"confidence":3},{"trial_n":101,"span":11,"encoder":"07451644539","distractor":"07459644539","target":"present","response":"absent","rt":"6257.400000006","correct":false,"confidence":1},{"trial_n":102,"span":10,"encoder":"4516745774","distractor":"4516745874","target":"absent","response":"absent","rt":"2051.3000000119","correct":true,"confidence":4},{"trial_n":103,"span":10,"encoder":"3213348117","distractor":"3213348217","target":"absent","response":"absent","rt":"4280.5","correct":true,"confidence":3},{"trial_n":104,"span":11,"encoder":"38882366580","distractor":"38885366580","target":"absent","response":"absent","rt":"5946.1999999881","correct":true,"confidence":2},{"trial_n":105,"span":11,"encoder":"70556845614","distractor":"70556845664","target":"absent","response":"absent","rt":"3215.5","correct":true,"confidence":5},{"trial_n":106,"span":12,"encoder":"577387505500","distractor":"577387555500","target":"present","response":"present","rt":"4228","correct":true,"confidence":4},{"trial_n":107,"span":12,"encoder":"792983547808","distractor":"792483547808","target":"present","response":"absent","rt":"8719.900000006","correct":false,"confidence":1},{"trial_n":108,"span":11,"encoder":"59091331026","distractor":"59091231026","target":"absent","response":"absent","rt":"3501","correct":true,"confidence":3},{"trial_n":109,"span":11,"encoder":"69972591972","distractor":"64972591972","target":"absent","response":"present","rt":"3876.700000003","correct":false,"confidence":1},{"trial_n":110,"span":10,"encoder":"5431765036","distractor":"5531765036","target":"present","response":"present","rt":"7630.200000003","correct":true,"confidence":1},{"trial_n":111,"span":10,"encoder":"4682924745","distractor":"4686924745","target":"present","response":"present","rt":"3238.299999997","correct":true,"confidence":3},{"trial_n":112,"span":11,"encoder":"68263444683","distractor":"68293444683","target":"absent","response":"present","rt":"5237.200000003","correct":false,"confidence":1},{"trial_n":113,"span":10,"encoder":"7068092155","distractor":"7068392155","target":"present","response":"absent","rt":"6294.1000000089","correct":false,"confidence":1},{"trial_n":114,"span":9,"encoder":"677807225","distractor":"677607225","target":"absent","response":"present","rt":"5238","correct":false,"confidence":1},{"trial_n":115,"span":8,"encoder":"38965527","distractor":"38965528","target":"absent","response":"absent","rt":"2607.099999994","correct":true,"confidence":5},{"trial_n":116,"span":8,"encoder":"39655228","distractor":"39658228","target":"absent","response":"absent","rt":"6154","correct":true,"confidence":4},{"trial_n":117,"span":9,"encoder":"269031844","distractor":"269231844","target":"present","response":"present","rt":"5029.5","correct":true,"confidence":1},{"trial_n":118,"span":9,"encoder":"817591618","distractor":"817596618","target":"absent","response":"present","rt":"1625.200000003","correct":false,"confidence":1},{"trial_n":119,"span":8,"encoder":"60682956","distractor":"60682955","target":"absent","response":"absent","rt":"2290.8999999911","correct":true,"confidence":5},{"trial_n":120,"span":8,"encoder":"59186711","distractor":"59146711","target":"absent","response":"present","rt":"5458.400000006","correct":false,"confidence":3},{"trial_n":121,"span":7,"encoder":"6783939","distractor":"7783939","target":"absent","response":"present","rt":"3090.799999997","correct":false,"confidence":3},{"trial_n":122,"span":6,"encoder":"171159","distractor":"101159","target":"absent","response":"absent","rt":"4153.799999997","correct":true,"confidence":5},{"trial_n":123,"span":6,"encoder":"238991","distractor":"278991","target":"present","response":"present","rt":"2800.099999994","correct":true,"confidence":5},{"trial_n":124,"span":7,"encoder":"7153213","distractor":"7153211","target":"present","response":"present","rt":"4023.700000003","correct":true,"confidence":5},{"trial_n":125,"span":7,"encoder":"8196884","distractor":"8156884","target":"present","response":"present","rt":"3637.6000000089","correct":true,"confidence":3},{"trial_n":126,"span":8,"encoder":"12539107","distractor":"12509107","target":"present","response":"present","rt":"6888","correct":true,"confidence":1},{"trial_n":127,"span":8,"encoder":"60517701","distractor":"67517701","target":"present","response":"present","rt":"7450.599999994","correct":true,"confidence":5},{"trial_n":128,"span":9,"encoder":"163296215","distractor":"165296215","target":"present","response":"present","rt":"5815","correct":true,"confidence":5},{"trial_n":129,"span":9,"encoder":"362064508","distractor":"362064528","target":"absent","response":"absent","rt":"2455.299999997","correct":true,"confidence":5},{"trial_n":130,"span":10,"encoder":"4423065702","distractor":"0423065702","target":"present","response":"present","rt":"2913.599999994","correct":true,"confidence":5},{"trial_n":131,"span":10,"encoder":"1152378111","distractor":"1151378111","target":"present","response":"present","rt":"4837.299999997","correct":true,"confidence":1},{"trial_n":132,"span":11,"encoder":"70677474867","distractor":"70677424867","target":"absent","response":"absent","rt":"9947","correct":true,"confidence":3},{"trial_n":133,"span":11,"encoder":"99748152637","distractor":"99748152437","target":"present","response":"present","rt":"8690.299999997","correct":true,"confidence":2},{"trial_n":134,"span":12,"encoder":"759912713817","distractor":"759912713810","target":"absent","response":"absent","rt":"2786.700000003","correct":true,"confidence":5},{"trial_n":135,"span":12,"encoder":"773839397859","distractor":"773849397859","target":"absent","response":"absent","rt":"4089.599999994","correct":true,"confidence":5},{"trial_n":136,"span":13,"encoder":"6247631741931","distractor":"6247631341931","target":"absent","response":"absent","rt":"20476.599999994","correct":true,"confidence":2},{"trial_n":137,"span":13,"encoder":"8574287239726","distractor":"8574217239726","target":"absent","response":"present","rt":"3290.599999994","correct":false,"confidence":2},{"trial_n":138,"span":12,"encoder":"637339700031","distractor":"635339700031","target":"absent","response":"absent","rt":"9026.200000003","correct":true,"confidence":1},{"trial_n":139,"span":12,"encoder":"359225676296","distractor":"359225671296","target":"present","response":"absent","rt":"7071.200000003","correct":false,"confidence":1},{"trial_n":140,"span":11,"encoder":"12855543503","distractor":"52855543503","target":"absent","response":"present","rt":"10328.199999988","correct":false,"confidence":1}]