[{"trial_n":1,"min":25,"max":230,"target":"present","response":"absent","rt":14944.699999988,"correct":false,"confidence":-1},{"trial_n":2,"min":25,"max":230,"target":"present","response":"present","rt":887.5,"correct":true,"confidence":-1},{"trial_n":3,"min":25,"max":230,"target":"absent","response":"absent","rt":572,"correct":true,"confidence":-1},{"trial_n":4,"min":41,"max":214,"target":"absent","response":"absent","rt":521.89999999106,"correct":true,"confidence":-1},{"trial_n":5,"min":41,"max":214,"target":"present","response":"present","rt":517,"correct":true,"confidence":-1},{"trial_n":6,"min":57,"max":198,"target":"absent","response":"absent","rt":424.90000000596,"correct":true,"confidence":-1},{"trial_n":7,"min":57,"max":198,"target":"present","response":"present","rt":421,"correct":true,"confidence":-1},{"trial_n":8,"min":73,"max":182,"target":"absent","response":"absent","rt":322.20000000298,"correct":true,"confidence":-1},{"trial_n":9,"min":73,"max":182,"target":"absent","response":"absent","rt":282.20000000298,"correct":true,"confidence":-1},{"trial_n":10,"min":89,"max":166,"target":"present","response":"present","rt":341.59999999404,"correct":true,"confidence":-1},{"trial_n":11,"min":89,"max":166,"target":"absent","response":"absent","rt":274.80000001192,"correct":true,"confidence":-1},{"trial_n":12,"min":97,"max":158,"target":"present","response":"absent","rt":239.79999999702,"correct":false,"confidence":-1},{"trial_n":13,"min":89,"max":166,"target":"present","response":"absent","rt":249.20000000298,"correct":false,"confidence":-1},{"trial_n":14,"min":81,"max":174,"target":"absent","response":"absent","rt":602.20000000298,"correct":true,"confidence":-1},{"trial_n":15,"min":81,"max":174,"target":"absent","response":"absent","rt":583.29999999702,"correct":true,"confidence":-1},{"trial_n":16,"min":89,"max":166,"target":"present","response":"absent","rt":559.70000000298,"correct":false,"confidence":-1},{"trial_n":17,"min":81,"max":174,"target":"absent","response":"absent","rt":754.90000000596,"correct":true,"confidence":-1},{"trial_n":18,"min":81,"max":174,"target":"present","response":"present","rt":423.90000000596,"correct":true,"confidence":-1},{"trial_n":19,"min":89,"max":166,"target":"present","response":"present","rt":545.5,"correct":true,"confidence":-1},{"trial_n":20,"min":89,"max":166,"target":"absent","response":"present","rt":515.5,"correct":false,"confidence":-1},{"trial_n":21,"min":85,"max":170,"target":"present","response":"present","rt":529.10000000894,"correct":true,"confidence":3},{"trial_n":22,"min":85,"max":170,"target":"absent","response":"absent","rt":927.79999999702,"correct":true,"confidence":3},{"trial_n":23,"min":89,"max":166,"target":"absent","response":"absent","rt":1552,"correct":true,"confidence":3},{"trial_n":24,"min":89,"max":166,"target":"absent","response":"present","rt":1112.5,"correct":false,"confidence":1},{"trial_n":25,"min":85,"max":170,"target":"present","response":"present","rt":1282.1000000089,"correct":true,"confidence":4},{"trial_n":26,"min":85,"max":170,"target":"absent","response":"present","rt":2135,"correct":false,"confidence":3},{"trial_n":27,"min":81,"max":174,"target":"absent","response":"absent","rt":977,"correct":true,"confidence":3},{"trial_n":28,"min":81,"max":174,"target":"present","response":"present","rt":1056,"correct":true,"confidence":5},{"trial_n":29,"min":85,"max":170,"target":"absent","response":"absent","rt":1401.3000000119,"correct":true,"confidence":2},{"trial_n":30,"min":85,"max":170,"target":"absent","response":"present","rt":1573.099999994,"correct":false,"confidence":2},{"trial_n":31,"min":83,"max":172,"target":"present","response":"present","rt":704.70000000298,"correct":true,"confidence":3},{"trial_n":32,"min":83,"max":172,"target":"absent","response":"absent","rt":1022.400000006,"correct":true,"confidence":3},{"trial_n":33,"min":85,"max":170,"target":"present","response":"present","rt":1878.5,"correct":true,"confidence":4},{"trial_n":34,"min":85,"max":170,"target":"present","response":"present","rt":1023.700000003,"correct":true,"confidence":5},{"trial_n":35,"min":87,"max":168,"target":"present","response":"absent","rt":920.79999999702,"correct":false,"confidence":4},{"trial_n":36,"min":85,"max":170,"target":"present","response":"present","rt":1107.700000003,"correct":true,"confidence":5},{"trial_n":37,"min":85,"max":170,"target":"present","response":"present","rt":963.5,"correct":true,"confidence":5},{"trial_n":38,"min":87,"max":168,"target":"present","response":"present","rt":1429.200000003,"correct":true,"confidence":3},{"trial_n":39,"min":87,"max":168,"target":"present","response":"present","rt":949.39999999106,"correct":true,"confidence":4},{"trial_n":40,"min":89,"max":166,"target":"present","response":"present","rt":1225.8999999911,"correct":true,"confidence":5},{"trial_n":41,"min":89,"max":166,"target":"absent","response":"absent","rt":2046.6999999881,"correct":true,"confidence":3},{"trial_n":42,"min":90,"max":165,"target":"absent","response":"absent","rt":1397.400000006,"correct":true,"confidence":2},{"trial_n":43,"min":90,"max":165,"target":"present","response":"present","rt":1011.599999994,"correct":true,"confidence":5},{"trial_n":44,"min":91,"max":164,"target":"absent","response":"present","rt":1156.6999999881,"correct":false,"confidence":3},{"trial_n":45,"min":90,"max":165,"target":"absent","response":"absent","rt":1374.200000003,"correct":true,"confidence":2},{"trial_n":46,"min":90,"max":165,"target":"present","response":"absent","rt":2345.6000000089,"correct":false,"confidence":1},{"trial_n":47,"min":89,"max":166,"target":"absent","response":"absent","rt":1197.1999999881,"correct":true,"confidence":4},{"trial_n":48,"min":89,"max":166,"target":"absent","response":"absent","rt":904.09999999404,"correct":true,"confidence":5},{"trial_n":49,"min":90,"max":165,"target":"present","response":"absent","rt":1229.1000000089,"correct":false,"confidence":3},{"trial_n":50,"min":89,"max":166,"target":"present","response":"absent","rt":891.40000000596,"correct":false,"confidence":4},{"trial_n":51,"min":88,"max":167,"target":"present","response":"present","rt":1349,"correct":true,"confidence":5},{"trial_n":52,"min":88,"max":167,"target":"absent","response":"absent","rt":1276.5,"correct":true,"confidence":4},{"trial_n":53,"min":89,"max":166,"target":"absent","response":"absent","rt":896.5,"correct":true,"confidence":5},{"trial_n":54,"min":89,"max":166,"target":"present","response":"present","rt":1117.200000003,"correct":true,"confidence":5},{"trial_n":55,"min":90,"max":165,"target":"absent","response":"absent","rt":1013.200000003,"correct":true,"confidence":4},{"trial_n":56,"min":90,"max":165,"target":"present","response":"present","rt":1209.5,"correct":true,"confidence":3},{"trial_n":57,"min":91,"max":164,"target":"present","response":"present","rt":1256.1000000089,"correct":true,"confidence":4},{"trial_n":58,"min":91,"max":164,"target":"absent","response":"absent","rt":1268.599999994,"correct":true,"confidence":3},{"trial_n":59,"min":92,"max":163,"target":"present","response":"absent","rt":841.40000000596,"correct":false,"confidence":4},{"trial_n":60,"min":91,"max":164,"target":"present","response":"present","rt":1220.200000003,"correct":true,"confidence":5},{"trial_n":61,"min":91,"max":164,"target":"absent","response":"absent","rt":793.59999999404,"correct":true,"confidence":5},{"trial_n":62,"min":92,"max":163,"target":"present","response":"present","rt":1058.3999999911,"correct":true,"confidence":4},{"trial_n":63,"min":92,"max":163,"target":"absent","response":"absent","rt":2484.8999999911,"correct":true,"confidence":1},{"trial_n":64,"min":93,"max":162,"target":"absent","response":"absent","rt":1002.900000006,"correct":true,"confidence":4},{"trial_n":65,"min":93,"max":162,"target":"present","response":"present","rt":1622,"correct":true,"confidence":2},{"trial_n":66,"min":94,"max":161,"target":"absent","response":"absent","rt":841.5,"correct":true,"confidence":4},{"trial_n":67,"min":94,"max":161,"target":"present","response":"present","rt":910.79999999702,"correct":true,"confidence":3},{"trial_n":68,"min":95,"max":160,"target":"absent","response":"present","rt":2275.1000000089,"correct":false,"confidence":3},{"trial_n":69,"min":94,"max":161,"target":"present","response":"present","rt":938.90000000596,"correct":true,"confidence":4},{"trial_n":70,"min":94,"max":161,"target":"absent","response":"absent","rt":870.39999999106,"correct":true,"confidence":3},{"trial_n":71,"min":41,"max":214,"target":"present","response":"present","rt":2866.400000006,"correct":true,"confidence":-1},{"trial_n":72,"min":41,"max":214,"target":"present","response":"present","rt":816.30000001192,"correct":true,"confidence":-1},{"trial_n":73,"min":57,"max":198,"target":"absent","response":"absent","rt":894.29999999702,"correct":true,"confidence":-1},{"trial_n":74,"min":57,"max":198,"target":"absent","response":"present","rt":862.20000000298,"correct":false,"confidence":-1},{"trial_n":75,"min":41,"max":214,"target":"present","response":"present","rt":987.20000000298,"correct":true,"confidence":-1},{"trial_n":76,"min":41,"max":214,"target":"absent","response":"absent","rt":1015.200000003,"correct":true,"confidence":-1},{"trial_n":77,"min":57,"max":198,"target":"present","response":"present","rt":406.10000000894,"correct":true,"confidence":-1},{"trial_n":78,"min":57,"max":198,"target":"absent","response":"absent","rt":497.09999999404,"correct":true,"confidence":-1},{"trial_n":79,"min":73,"max":182,"target":"absent","response":"absent","rt":475,"correct":true,"confidence":-1},{"trial_n":80,"min":73,"max":182,"target":"absent","response":"absent","rt":520.89999999106,"correct":true,"confidence":-1},{"trial_n":81,"min":81,"max":174,"target":"present","response":"present","rt":437,"correct":true,"confidence":-1},{"trial_n":82,"min":81,"max":174,"target":"present","response":"present","rt":486.20000000298,"correct":true,"confidence":-1},{"trial_n":83,"min":89,"max":166,"target":"present","response":"present","rt":1027.6000000089,"correct":true,"confidence":-1},{"trial_n":84,"min":89,"max":166,"target":"present","response":"present","rt":426.90000000596,"correct":true,"confidence":-1},{"trial_n":85,"min":97,"max":158,"target":"present","response":"absent","rt":1012.799999997,"correct":false,"confidence":-1},{"trial_n":86,"min":89,"max":166,"target":"present","response":"present","rt":411.20000000298,"correct":true,"confidence":-1},{"trial_n":87,"min":89,"max":166,"target":"absent","response":"present","rt":1024.599999994,"correct":false,"confidence":-1},{"trial_n":88,"min":81,"max":174,"target":"absent","response":"absent","rt":571.70000000298,"correct":true,"confidence":-1},{"trial_n":89,"min":81,"max":174,"target":"present","response":"present","rt":399.69999998808,"correct":true,"confidence":-1},{"trial_n":90,"min":89,"max":166,"target":"present","response":"present","rt":359.90000000596,"correct":true,"confidence":-1},{"trial_n":91,"min":89,"max":166,"target":"present","response":"present","rt":1216.200000003,"correct":true,"confidence":1},{"trial_n":92,"min":93,"max":162,"target":"absent","response":"absent","rt":1023.6999999881,"correct":true,"confidence":3},{"trial_n":93,"min":93,"max":162,"target":"present","response":"present","rt":802.29999999702,"correct":true,"confidence":1},{"trial_n":94,"min":97,"max":158,"target":"present","response":"present","rt":470.90000000596,"correct":true,"confidence":5},{"trial_n":95,"min":97,"max":158,"target":"present","response":"present","rt":604.20000000298,"correct":true,"confidence":4},{"trial_n":96,"min":101,"max":154,"target":"present","response":"absent","rt":1524.799999997,"correct":false,"confidence":1},{"trial_n":97,"min":97,"max":158,"target":"present","response":"present","rt":804.59999999404,"correct":true,"confidence":1},{"trial_n":98,"min":97,"max":158,"target":"present","response":"present","rt":551.20000000298,"correct":true,"confidence":3},{"trial_n":99,"min":101,"max":154,"target":"absent","response":"absent","rt":2908.5,"correct":true,"confidence":1},{"trial_n":100,"min":101,"max":154,"target":"present","response":"present","rt":1306.700000003,"correct":true,"confidence":1},{"trial_n":101,"min":103,"max":152,"target":"absent","response":"absent","rt":1809,"correct":true,"confidence":1},{"trial_n":102,"min":103,"max":152,"target":"absent","response":"present","rt":1133.900000006,"correct":false,"confidence":1},{"trial_n":103,"min":101,"max":154,"target":"absent","response":"present","rt":852.79999999702,"correct":false,"confidence":1},{"trial_n":104,"min":99,"max":156,"target":"absent","response":"present","rt":495.90000000596,"correct":false,"confidence":1},{"trial_n":105,"min":97,"max":158,"target":"absent","response":"present","rt":1075.299999997,"correct":false,"confidence":3},{"trial_n":106,"min":95,"max":160,"target":"absent","response":"absent","rt":1531.1000000089,"correct":true,"confidence":2},{"trial_n":107,"min":95,"max":160,"target":"present","response":"present","rt":525.80000001192,"correct":true,"confidence":3},{"trial_n":108,"min":97,"max":158,"target":"absent","response":"present","rt":1173.700000003,"correct":false,"confidence":3},{"trial_n":109,"min":95,"max":160,"target":"absent","response":"absent","rt":1099.400000006,"correct":true,"confidence":3},{"trial_n":110,"min":95,"max":160,"target":"present","response":"present","rt":894.5,"correct":true,"confidence":3},{"trial_n":111,"min":96,"max":159,"target":"present","response":"present","rt":917.20000000298,"correct":true,"confidence":3},{"trial_n":112,"min":96,"max":159,"target":"present","response":"present","rt":1335.799999997,"correct":true,"confidence":3},{"trial_n":113,"min":97,"max":158,"target":"present","response":"present","rt":1220.400000006,"correct":true,"confidence":3},{"trial_n":114,"min":97,"max":158,"target":"absent","response":"absent","rt":1746.8999999911,"correct":true,"confidence":1},{"trial_n":115,"min":98,"max":157,"target":"absent","response":"present","rt":646.09999999404,"correct":false,"confidence":3},{"trial_n":116,"min":97,"max":158,"target":"absent","response":"present","rt":2531.400000006,"correct":false,"confidence":1},{"trial_n":117,"min":96,"max":159,"target":"absent","response":"present","rt":979,"correct":false,"confidence":1},{"trial_n":118,"min":95,"max":160,"target":"present","response":"absent","rt":1583.6999999881,"correct":false,"confidence":1},{"trial_n":119,"min":94,"max":161,"target":"present","response":"present","rt":748.29999999702,"correct":true,"confidence":2},{"trial_n":120,"min":94,"max":161,"target":"absent","response":"present","rt":2416,"correct":false,"confidence":1},{"trial_n":121,"min":93,"max":162,"target":"absent","response":"present","rt":883.79999999702,"correct":false,"confidence":3},{"trial_n":122,"min":92,"max":163,"target":"present","response":"present","rt":554.29999999702,"correct":true,"confidence":5},{"trial_n":123,"min":92,"max":163,"target":"absent","response":"absent","rt":847.79999999702,"correct":true,"confidence":4},{"trial_n":124,"min":93,"max":162,"target":"present","response":"present","rt":546.69999998808,"correct":true,"confidence":3},{"trial_n":125,"min":93,"max":162,"target":"absent","response":"absent","rt":1673.5,"correct":true,"confidence":2},{"trial_n":126,"min":94,"max":161,"target":"absent","response":"absent","rt":3295.400000006,"correct":true,"confidence":1},{"trial_n":127,"min":94,"max":161,"target":"absent","response":"present","rt":2023,"correct":false,"confidence":3},{"trial_n":128,"min":93,"max":162,"target":"present","response":"absent","rt":1886.5,"correct":false,"confidence":1},{"trial_n":129,"min":92,"max":163,"target":"absent","response":"present","rt":1425.299999997,"correct":false,"confidence":1},{"trial_n":130,"min":91,"max":164,"target":"present","response":"present","rt":989.89999999106,"correct":true,"confidence":1},{"trial_n":131,"min":91,"max":164,"target":"present","response":"present","rt":1018.900000006,"correct":true,"confidence":3},{"trial_n":132,"min":92,"max":163,"target":"present","response":"present","rt":652.90000000596,"correct":true,"confidence":1},{"trial_n":133,"min":92,"max":163,"target":"present","response":"absent","rt":1083.8999999911,"correct":false,"confidence":1},{"trial_n":134,"min":91,"max":164,"target":"absent","response":"present","rt":963,"correct":false,"confidence":2},{"trial_n":135,"min":90,"max":165,"target":"present","response":"present","rt":453.5,"correct":true,"confidence":4},{"trial_n":136,"min":90,"max":165,"target":"absent","response":"present","rt":437,"correct":false,"confidence":4},{"trial_n":137,"min":89,"max":166,"target":"present","response":"absent","rt":1130.5,"correct":false,"confidence":3},{"trial_n":138,"min":88,"max":167,"target":"absent","response":"absent","rt":1308.5,"correct":true,"confidence":1},{"trial_n":139,"min":88,"max":167,"target":"absent","response":"present","rt":953,"correct":false,"confidence":1},{"trial_n":140,"min":87,"max":168,"target":"absent","response":"present","rt":859.39999999106,"correct":false,"confidence":2}]