[{"trial_n":1,"min":25,"max":230,"target":"present","response":"present","rt":2165.2000000477,"correct":true,"confidence":-1},{"trial_n":2,"min":25,"max":230,"target":"present","response":"present","rt":1055.3000000119,"correct":true,"confidence":-1},{"trial_n":3,"min":41,"max":214,"target":"absent","response":"absent","rt":703.40000003576,"correct":true,"confidence":-1},{"trial_n":4,"min":41,"max":214,"target":"absent","response":"absent","rt":826.60000002384,"correct":true,"confidence":-1},{"trial_n":5,"min":57,"max":198,"target":"present","response":"present","rt":655.19999998808,"correct":true,"confidence":-1},{"trial_n":6,"min":57,"max":198,"target":"present","response":"present","rt":740.5,"correct":true,"confidence":-1},{"trial_n":7,"min":73,"max":182,"target":"present","response":"present","rt":647.10000002384,"correct":true,"confidence":-1},{"trial_n":8,"min":73,"max":182,"target":"present","response":"present","rt":671.30000001192,"correct":true,"confidence":-1},{"trial_n":9,"min":89,"max":166,"target":"present","response":"absent","rt":554.5,"correct":false,"confidence":-1},{"trial_n":10,"min":73,"max":182,"target":"present","response":"present","rt":741.09999996424,"correct":true,"confidence":-1},{"trial_n":11,"min":73,"max":182,"target":"present","response":"absent","rt":592.19999998808,"correct":false,"confidence":-1},{"trial_n":12,"min":65,"max":190,"target":"absent","response":"absent","rt":883.89999997616,"correct":true,"confidence":-1},{"trial_n":13,"min":65,"max":190,"target":"present","response":"present","rt":623.19999998808,"correct":true,"confidence":-1},{"trial_n":14,"min":73,"max":182,"target":"present","response":"present","rt":703.19999998808,"correct":true,"confidence":-1},{"trial_n":15,"min":73,"max":182,"target":"present","response":"present","rt":587.60000002384,"correct":true,"confidence":-1},{"trial_n":16,"min":81,"max":174,"target":"present","response":"present","rt":536.40000003576,"correct":true,"confidence":-1},{"trial_n":17,"min":81,"max":174,"target":"present","response":"absent","rt":494.19999998808,"correct":false,"confidence":-1},{"trial_n":18,"min":73,"max":182,"target":"present","response":"present","rt":444.09999996424,"correct":true,"confidence":-1},{"trial_n":19,"min":73,"max":182,"target":"present","response":"present","rt":501.89999997616,"correct":true,"confidence":-1},{"trial_n":20,"min":81,"max":174,"target":"present","response":"present","rt":499.40000003576,"correct":true,"confidence":-1},{"trial_n":21,"min":81,"max":174,"target":"absent","response":"present","rt":1160.5,"correct":false,"confidence":3},{"trial_n":22,"min":77,"max":178,"target":"present","response":"present","rt":806.40000003576,"correct":true,"confidence":3},{"trial_n":23,"min":77,"max":178,"target":"present","response":"present","rt":1445.5999999642,"correct":true,"confidence":5},{"trial_n":24,"min":81,"max":174,"target":"absent","response":"present","rt":622.89999997616,"correct":false,"confidence":5},{"trial_n":25,"min":77,"max":178,"target":"absent","response":"absent","rt":628.80000001192,"correct":true,"confidence":3},{"trial_n":26,"min":77,"max":178,"target":"absent","response":"absent","rt":2545.3000000119,"correct":true,"confidence":4},{"trial_n":27,"min":81,"max":174,"target":"present","response":"absent","rt":1177.2000000477,"correct":false,"confidence":2},{"trial_n":28,"min":77,"max":178,"target":"absent","response":"absent","rt":1077.6999999881,"correct":true,"confidence":3},{"trial_n":29,"min":77,"max":178,"target":"absent","response":"absent","rt":787.20000004768,"correct":true,"confidence":2},{"trial_n":30,"min":81,"max":174,"target":"absent","response":"absent","rt":616.59999996424,"correct":true,"confidence":3},{"trial_n":31,"min":81,"max":174,"target":"absent","response":"absent","rt":871.59999996424,"correct":true,"confidence":3},{"trial_n":32,"min":83,"max":172,"target":"absent","response":"absent","rt":839.19999998808,"correct":true,"confidence":3},{"trial_n":33,"min":83,"max":172,"target":"absent","response":"present","rt":669.19999998808,"correct":false,"confidence":3},{"trial_n":34,"min":81,"max":174,"target":"absent","response":"absent","rt":555.39999997616,"correct":true,"confidence":4},{"trial_n":35,"min":81,"max":174,"target":"present","response":"present","rt":1410.2999999523,"correct":true,"confidence":3},{"trial_n":36,"min":83,"max":172,"target":"absent","response":"absent","rt":831.80000001192,"correct":true,"confidence":3},{"trial_n":37,"min":83,"max":172,"target":"present","response":"absent","rt":859.10000002384,"correct":false,"confidence":3},{"trial_n":38,"min":81,"max":174,"target":"absent","response":"absent","rt":784.5,"correct":true,"confidence":3},{"trial_n":39,"min":81,"max":174,"target":"present","response":"present","rt":636.79999995232,"correct":true,"confidence":4},{"trial_n":40,"min":83,"max":172,"target":"absent","response":"present","rt":652.19999998808,"correct":false,"confidence":3},{"trial_n":41,"min":82,"max":173,"target":"absent","response":"absent","rt":608,"correct":true,"confidence":3},{"trial_n":42,"min":82,"max":173,"target":"absent","response":"absent","rt":896.60000002384,"correct":true,"confidence":3},{"trial_n":43,"min":83,"max":172,"target":"present","response":"absent","rt":472.30000001192,"correct":false,"confidence":3},{"trial_n":44,"min":82,"max":173,"target":"absent","response":"absent","rt":564,"correct":true,"confidence":3},{"trial_n":45,"min":82,"max":173,"target":"present","response":"present","rt":687.69999998808,"correct":true,"confidence":5},{"trial_n":46,"min":83,"max":172,"target":"present","response":"present","rt":1166.6000000238,"correct":true,"confidence":4},{"trial_n":47,"min":83,"max":172,"target":"absent","response":"absent","rt":806.69999998808,"correct":true,"confidence":3},{"trial_n":48,"min":84,"max":171,"target":"absent","response":"absent","rt":632.69999998808,"correct":true,"confidence":3},{"trial_n":49,"min":84,"max":171,"target":"present","response":"present","rt":646.90000003576,"correct":true,"confidence":4},{"trial_n":50,"min":85,"max":170,"target":"present","response":"present","rt":627.69999998808,"correct":true,"confidence":5},{"trial_n":51,"min":85,"max":170,"target":"absent","response":"absent","rt":673.40000003576,"correct":true,"confidence":3},{"trial_n":52,"min":86,"max":169,"target":"absent","response":"absent","rt":546.10000002384,"correct":true,"confidence":3},{"trial_n":53,"min":86,"max":169,"target":"present","response":"present","rt":955.09999996424,"correct":true,"confidence":4},{"trial_n":54,"min":87,"max":168,"target":"absent","response":"absent","rt":649.30000001192,"correct":true,"confidence":2},{"trial_n":55,"min":87,"max":168,"target":"present","response":"absent","rt":844.10000002384,"correct":false,"confidence":4},{"trial_n":56,"min":86,"max":169,"target":"absent","response":"present","rt":677.69999998808,"correct":false,"confidence":5},{"trial_n":57,"min":85,"max":170,"target":"present","response":"present","rt":580.90000003576,"correct":true,"confidence":5},{"trial_n":58,"min":85,"max":170,"target":"absent","response":"present","rt":1150.5,"correct":false,"confidence":3},{"trial_n":59,"min":84,"max":171,"target":"absent","response":"absent","rt":654.29999995232,"correct":true,"confidence":2},{"trial_n":60,"min":84,"max":171,"target":"absent","response":"present","rt":710.79999995232,"correct":false,"confidence":4},{"trial_n":61,"min":83,"max":172,"target":"present","response":"present","rt":613.89999997616,"correct":true,"confidence":5},{"trial_n":62,"min":83,"max":172,"target":"present","response":"present","rt":618.10000002384,"correct":true,"confidence":3},{"trial_n":63,"min":84,"max":171,"target":"present","response":"present","rt":684.5,"correct":true,"confidence":4},{"trial_n":64,"min":84,"max":171,"target":"absent","response":"absent","rt":789.30000001192,"correct":true,"confidence":5},{"trial_n":65,"min":85,"max":170,"target":"present","response":"present","rt":608.89999997616,"correct":true,"confidence":4},{"trial_n":66,"min":85,"max":170,"target":"absent","response":"absent","rt":1139.8000000119,"correct":true,"confidence":2},{"trial_n":67,"min":86,"max":169,"target":"absent","response":"absent","rt":857.09999996424,"correct":true,"confidence":3},{"trial_n":68,"min":86,"max":169,"target":"absent","response":"absent","rt":779.90000003576,"correct":true,"confidence":3},{"trial_n":69,"min":87,"max":168,"target":"absent","response":"absent","rt":617.30000001192,"correct":true,"confidence":3},{"trial_n":70,"min":87,"max":168,"target":"present","response":"present","rt":638.40000003576,"correct":true,"confidence":3},{"trial_n":71,"min":41,"max":214,"target":"present","response":"present","rt":1784.6999999881,"correct":true,"confidence":-1},{"trial_n":72,"min":41,"max":214,"target":"present","response":"absent","rt":2063,"correct":false,"confidence":-1},{"trial_n":73,"min":25,"max":230,"target":"absent","response":"absent","rt":729.39999997616,"correct":true,"confidence":-1},{"trial_n":74,"min":25,"max":230,"target":"absent","response":"absent","rt":556.80000001192,"correct":true,"confidence":-1},{"trial_n":75,"min":41,"max":214,"target":"present","response":"present","rt":1499.6000000238,"correct":true,"confidence":-1},{"trial_n":76,"min":41,"max":214,"target":"absent","response":"absent","rt":786.80000001192,"correct":true,"confidence":-1},{"trial_n":77,"min":57,"max":198,"target":"present","response":"present","rt":1044.8999999762,"correct":true,"confidence":-1},{"trial_n":78,"min":57,"max":198,"target":"present","response":"present","rt":2291.5,"correct":true,"confidence":-1},{"trial_n":79,"min":73,"max":182,"target":"absent","response":"absent","rt":944.20000004768,"correct":true,"confidence":-1},{"trial_n":80,"min":73,"max":182,"target":"absent","response":"present","rt":740.80000001192,"correct":false,"confidence":-1},{"trial_n":81,"min":65,"max":190,"target":"absent","response":"absent","rt":524.30000001192,"correct":true,"confidence":-1},{"trial_n":82,"min":65,"max":190,"target":"absent","response":"present","rt":529.5,"correct":false,"confidence":-1},{"trial_n":83,"min":57,"max":198,"target":"present","response":"present","rt":533.69999998808,"correct":true,"confidence":-1},{"trial_n":84,"min":57,"max":198,"target":"present","response":"present","rt":556.19999998808,"correct":true,"confidence":-1},{"trial_n":85,"min":65,"max":190,"target":"absent","response":"present","rt":572.30000001192,"correct":false,"confidence":-1},{"trial_n":86,"min":57,"max":198,"target":"present","response":"present","rt":1060.2000000477,"correct":true,"confidence":-1},{"trial_n":87,"min":57,"max":198,"target":"absent","response":"absent","rt":1148,"correct":true,"confidence":-1},{"trial_n":88,"min":65,"max":190,"target":"present","response":"present","rt":820.09999996424,"correct":true,"confidence":-1},{"trial_n":89,"min":65,"max":190,"target":"present","response":"present","rt":395.59999996424,"correct":true,"confidence":-1},{"trial_n":90,"min":73,"max":182,"target":"present","response":"present","rt":594.19999998808,"correct":true,"confidence":-1},{"trial_n":91,"min":73,"max":182,"target":"present","response":"present","rt":1837.6000000238,"correct":true,"confidence":5},{"trial_n":92,"min":77,"max":178,"target":"absent","response":"absent","rt":616,"correct":true,"confidence":4},{"trial_n":93,"min":77,"max":178,"target":"present","response":"present","rt":680.5,"correct":true,"confidence":5},{"trial_n":94,"min":81,"max":174,"target":"present","response":"present","rt":701.80000001192,"correct":true,"confidence":4},{"trial_n":95,"min":81,"max":174,"target":"absent","response":"present","rt":1450.1000000238,"correct":false,"confidence":2},{"trial_n":96,"min":77,"max":178,"target":"absent","response":"absent","rt":574,"correct":true,"confidence":3},{"trial_n":97,"min":77,"max":178,"target":"absent","response":"absent","rt":604.19999998808,"correct":true,"confidence":3},{"trial_n":98,"min":81,"max":174,"target":"present","response":"present","rt":610.30000001192,"correct":true,"confidence":3},{"trial_n":99,"min":81,"max":174,"target":"present","response":"present","rt":951.70000004768,"correct":true,"confidence":4},{"trial_n":100,"min":85,"max":170,"target":"absent","response":"absent","rt":1222.1999999881,"correct":true,"confidence":1},{"trial_n":101,"min":85,"max":170,"target":"present","response":"present","rt":1024.1000000238,"correct":true,"confidence":3},{"trial_n":102,"min":87,"max":168,"target":"absent","response":"absent","rt":1114.5,"correct":true,"confidence":1},{"trial_n":103,"min":87,"max":168,"target":"absent","response":"absent","rt":784.09999996424,"correct":true,"confidence":2},{"trial_n":104,"min":89,"max":166,"target":"present","response":"present","rt":1684.5999999642,"correct":true,"confidence":2},{"trial_n":105,"min":89,"max":166,"target":"absent","response":"absent","rt":633.89999997616,"correct":true,"confidence":4},{"trial_n":106,"min":91,"max":164,"target":"absent","response":"present","rt":1096.3999999762,"correct":false,"confidence":1},{"trial_n":107,"min":89,"max":166,"target":"absent","response":"present","rt":1288.2999999523,"correct":false,"confidence":2},{"trial_n":108,"min":87,"max":168,"target":"absent","response":"absent","rt":822.20000004768,"correct":true,"confidence":3},{"trial_n":109,"min":87,"max":168,"target":"present","response":"present","rt":824.39999997616,"correct":true,"confidence":3},{"trial_n":110,"min":89,"max":166,"target":"present","response":"present","rt":1478.5,"correct":true,"confidence":3},{"trial_n":111,"min":89,"max":166,"target":"present","response":"present","rt":605.60000002384,"correct":true,"confidence":3},{"trial_n":112,"min":90,"max":165,"target":"present","response":"present","rt":641.30000001192,"correct":true,"confidence":3},{"trial_n":113,"min":90,"max":165,"target":"absent","response":"present","rt":974.39999997616,"correct":false,"confidence":1},{"trial_n":114,"min":89,"max":166,"target":"present","response":"present","rt":995.09999996424,"correct":true,"confidence":1},{"trial_n":115,"min":89,"max":166,"target":"present","response":"present","rt":714.59999996424,"correct":true,"confidence":3},{"trial_n":116,"min":90,"max":165,"target":"present","response":"present","rt":997.59999996424,"correct":true,"confidence":4},{"trial_n":117,"min":90,"max":165,"target":"absent","response":"present","rt":742.59999996424,"correct":false,"confidence":2},{"trial_n":118,"min":89,"max":166,"target":"present","response":"present","rt":746.09999996424,"correct":true,"confidence":2},{"trial_n":119,"min":89,"max":166,"target":"absent","response":"present","rt":709.20000004768,"correct":false,"confidence":2},{"trial_n":120,"min":88,"max":167,"target":"absent","response":"absent","rt":1185.3999999762,"correct":true,"confidence":3},{"trial_n":121,"min":88,"max":167,"target":"present","response":"present","rt":681.80000001192,"correct":true,"confidence":3},{"trial_n":122,"min":89,"max":166,"target":"absent","response":"present","rt":888.40000003576,"correct":false,"confidence":2},{"trial_n":123,"min":88,"max":167,"target":"absent","response":"present","rt":809.40000003576,"correct":false,"confidence":2},{"trial_n":124,"min":87,"max":168,"target":"present","response":"present","rt":810.20000004768,"correct":true,"confidence":2},{"trial_n":125,"min":87,"max":168,"target":"present","response":"present","rt":692.90000003576,"correct":true,"confidence":2},{"trial_n":126,"min":88,"max":167,"target":"present","response":"present","rt":1828.3000000119,"correct":true,"confidence":3},{"trial_n":127,"min":88,"max":167,"target":"present","response":"present","rt":670.79999995232,"correct":true,"confidence":3},{"trial_n":128,"min":89,"max":166,"target":"absent","response":"present","rt":750.69999998808,"correct":false,"confidence":1},{"trial_n":129,"min":88,"max":167,"target":"absent","response":"present","rt":1912.6999999881,"correct":false,"confidence":1},{"trial_n":130,"min":87,"max":168,"target":"present","response":"present","rt":750.80000001192,"correct":true,"confidence":3},{"trial_n":131,"min":87,"max":168,"target":"absent","response":"present","rt":747.10000002384,"correct":false,"confidence":1},{"trial_n":132,"min":86,"max":169,"target":"absent","response":"absent","rt":1826.5,"correct":true,"confidence":2},{"trial_n":133,"min":86,"max":169,"target":"absent","response":"present","rt":955.70000004768,"correct":false,"confidence":1},{"trial_n":134,"min":85,"max":170,"target":"present","response":"present","rt":643.69999998808,"correct":true,"confidence":3},{"trial_n":135,"min":85,"max":170,"target":"present","response":"present","rt":856.5,"correct":true,"confidence":4},{"trial_n":136,"min":86,"max":169,"target":"present","response":"present","rt":890.89999997616,"correct":true,"confidence":4},{"trial_n":137,"min":86,"max":169,"target":"absent","response":"absent","rt":680.60000002384,"correct":true,"confidence":3},{"trial_n":138,"min":87,"max":168,"target":"present","response":"present","rt":702.70000004768,"correct":true,"confidence":5},{"trial_n":139,"min":87,"max":168,"target":"absent","response":"absent","rt":1229.3000000119,"correct":true,"confidence":2},{"trial_n":140,"min":88,"max":167,"target":"absent","response":"absent","rt":836.29999995232,"correct":true,"confidence":4}]