[{"trial_n":1,"n_dots":4.25,"target":"right","response":"right","rt":1458.7999999523,"correct":true,"confidence":-1},{"trial_n":2,"n_dots":4.25,"target":"right","response":"right","rt":788.79999995232,"correct":true,"confidence":-1},{"trial_n":3,"n_dots":3.85,"target":"right","response":"right","rt":477.19999998808,"correct":true,"confidence":-1},{"trial_n":4,"n_dots":3.85,"target":"left","response":"left","rt":431.5,"correct":true,"confidence":-1},{"trial_n":5,"n_dots":3.45,"target":"left","response":"right","rt":440.60000002384,"correct":false,"confidence":-1},{"trial_n":6,"n_dots":3.85,"target":"left","response":"left","rt":252.69999998808,"correct":true,"confidence":-1},{"trial_n":7,"n_dots":3.85,"target":"right","response":"right","rt":555.19999998808,"correct":true,"confidence":-1},{"trial_n":8,"n_dots":3.65,"target":"left","response":"left","rt":229.39999997616,"correct":true,"confidence":-1},{"trial_n":9,"n_dots":3.65,"target":"left","response":"left","rt":436.70000004768,"correct":true,"confidence":-1},{"trial_n":10,"n_dots":3.45,"target":"right","response":"right","rt":930.5,"correct":true,"confidence":-1},{"trial_n":11,"n_dots":3.45,"target":"right","response":"left","rt":356,"correct":false,"confidence":-1},{"trial_n":12,"n_dots":3.65,"target":"left","response":"right","rt":991,"correct":false,"confidence":-1},{"trial_n":13,"n_dots":3.75,"target":"right","response":"right","rt":852.90000003576,"correct":true,"confidence":-1},{"trial_n":14,"n_dots":3.75,"target":"left","response":"left","rt":432.5,"correct":true,"confidence":-1},{"trial_n":15,"n_dots":3.65,"target":"left","response":"right","rt":716.70000004768,"correct":false,"confidence":-1},{"trial_n":16,"n_dots":3.75,"target":"right","response":"right","rt":541.39999997616,"correct":true,"confidence":-1},{"trial_n":17,"n_dots":3.75,"target":"left","response":"left","rt":380.30000001192,"correct":true,"confidence":-1},{"trial_n":18,"n_dots":3.65,"target":"right","response":"right","rt":135.5,"correct":true,"confidence":-1},{"trial_n":19,"n_dots":3.65,"target":"left","response":"left","rt":636.39999997616,"correct":true,"confidence":-1},{"trial_n":20,"n_dots":3.55,"target":"right","response":"right","rt":712.10000002384,"correct":true,"confidence":-1},{"trial_n":21,"n_dots":3.55,"target":"right","response":"right","rt":519.60000002384,"correct":true,"confidence":3},{"trial_n":22,"n_dots":3.45,"target":"right","response":"left","rt":602.19999998808,"correct":false,"confidence":3},{"trial_n":23,"n_dots":3.55,"target":"right","response":"right","rt":923.89999997616,"correct":true,"confidence":2},{"trial_n":24,"n_dots":3.55,"target":"left","response":"left","rt":686.5,"correct":true,"confidence":4},{"trial_n":25,"n_dots":3.45,"target":"left","response":"left","rt":565.5,"correct":true,"confidence":4},{"trial_n":26,"n_dots":3.45,"target":"right","response":"left","rt":642.80000001192,"correct":false,"confidence":3},{"trial_n":27,"n_dots":3.55,"target":"left","response":"left","rt":245.39999997616,"correct":true,"confidence":4},{"trial_n":28,"n_dots":3.55,"target":"right","response":"right","rt":533.90000003576,"correct":true,"confidence":4},{"trial_n":29,"n_dots":3.45,"target":"right","response":"right","rt":330.59999996424,"correct":true,"confidence":4},{"trial_n":30,"n_dots":3.45,"target":"left","response":"right","rt":452.60000002384,"correct":false,"confidence":4},{"trial_n":31,"n_dots":3.55,"target":"left","response":"left","rt":371.30000001192,"correct":true,"confidence":4},{"trial_n":32,"n_dots":3.55,"target":"right","response":"left","rt":567.30000001192,"correct":false,"confidence":3},{"trial_n":33,"n_dots":3.65,"target":"left","response":"right","rt":701.19999998808,"correct":false,"confidence":3},{"trial_n":34,"n_dots":3.75,"target":"left","response":"left","rt":496.30000001192,"correct":true,"confidence":3},{"trial_n":35,"n_dots":3.75,"target":"right","response":"right","rt":70.900000035763,"correct":true,"confidence":2},{"trial_n":36,"n_dots":3.65,"target":"right","response":"right","rt":438.19999998808,"correct":true,"confidence":1},{"trial_n":37,"n_dots":3.65,"target":"left","response":"left","rt":647.10000002384,"correct":true,"confidence":4},{"trial_n":38,"n_dots":3.55,"target":"left","response":"left","rt":618.80000001192,"correct":true,"confidence":3},{"trial_n":39,"n_dots":3.55,"target":"left","response":"left","rt":513,"correct":true,"confidence":5},{"trial_n":40,"n_dots":3.45,"target":"right","response":"right","rt":389,"correct":true,"confidence":4},{"trial_n":41,"n_dots":3.45,"target":"right","response":"right","rt":163.30000001192,"correct":true,"confidence":3},{"trial_n":42,"n_dots":3.35,"target":"right","response":"right","rt":256.60000002384,"correct":true,"confidence":4},{"trial_n":43,"n_dots":3.35,"target":"right","response":"left","rt":475.19999998808,"correct":false,"confidence":3},{"trial_n":44,"n_dots":3.45,"target":"right","response":"right","rt":246.19999998808,"correct":true,"confidence":4},{"trial_n":45,"n_dots":3.45,"target":"left","response":"left","rt":303.30000001192,"correct":true,"confidence":2},{"trial_n":46,"n_dots":3.35,"target":"right","response":"right","rt":208,"correct":true,"confidence":1},{"trial_n":47,"n_dots":3.35,"target":"right","response":"right","rt":331.39999997616,"correct":true,"confidence":3},{"trial_n":48,"n_dots":3.25,"target":"left","response":"left","rt":613.10000002384,"correct":true,"confidence":3},{"trial_n":49,"n_dots":3.25,"target":"right","response":"right","rt":110.60000002384,"correct":true,"confidence":3},{"trial_n":50,"n_dots":3.15,"target":"left","response":"right","rt":88.300000011921,"correct":false,"confidence":3},{"trial_n":51,"n_dots":3.25,"target":"right","response":"right","rt":613.89999997616,"correct":true,"confidence":3},{"trial_n":52,"n_dots":3.25,"target":"left","response":"left","rt":309.69999998808,"correct":true,"confidence":4},{"trial_n":53,"n_dots":3.15,"target":"right","response":"right","rt":124.89999997616,"correct":true,"confidence":4},{"trial_n":54,"n_dots":3.15,"target":"left","response":"left","rt":217.19999998808,"correct":true,"confidence":4},{"trial_n":55,"n_dots":3.05,"target":"left","response":"left","rt":688.89999997616,"correct":true,"confidence":4},{"trial_n":56,"n_dots":3.05,"target":"left","response":"left","rt":145.30000001192,"correct":true,"confidence":3},{"trial_n":57,"n_dots":2.95,"target":"right","response":"right","rt":202.80000001192,"correct":true,"confidence":3},{"trial_n":58,"n_dots":2.95,"target":"left","response":"left","rt":516.09999996424,"correct":true,"confidence":3},{"trial_n":59,"n_dots":2.85,"target":"left","response":"left","rt":372,"correct":true,"confidence":3},{"trial_n":60,"n_dots":2.85,"target":"left","response":"left","rt":686.69999998808,"correct":true,"confidence":3},{"trial_n":61,"n_dots":2.75,"target":"right","response":"left","rt":440.19999998808,"correct":false,"confidence":3},{"trial_n":62,"n_dots":2.85,"target":"right","response":"right","rt":150.30000001192,"correct":true,"confidence":3},{"trial_n":63,"n_dots":2.85,"target":"left","response":"left","rt":620.30000001192,"correct":true,"confidence":3},{"trial_n":64,"n_dots":2.75,"target":"left","response":"left","rt":496.40000003576,"correct":true,"confidence":2},{"trial_n":65,"n_dots":2.75,"target":"right","response":"left","rt":230.5,"correct":false,"confidence":2},{"trial_n":66,"n_dots":2.85,"target":"right","response":"right","rt":419.30000001192,"correct":true,"confidence":2},{"trial_n":67,"n_dots":2.85,"target":"right","response":"left","rt":508.30000001192,"correct":false,"confidence":2},{"trial_n":68,"n_dots":2.95,"target":"right","response":"right","rt":365.5,"correct":true,"confidence":4},{"trial_n":69,"n_dots":2.95,"target":"right","response":"right","rt":427.59999996424,"correct":true,"confidence":2},{"trial_n":70,"n_dots":2.85,"target":"right","response":"left","rt":510,"correct":false,"confidence":3},{"trial_n":71,"n_dots":2.95,"target":"left","response":"left","rt":370.30000001192,"correct":true,"confidence":4},{"trial_n":72,"n_dots":2.95,"target":"right","response":"left","rt":127.90000003576,"correct":false,"confidence":4},{"trial_n":73,"n_dots":3.05,"target":"left","response":"left","rt":301.09999996424,"correct":true,"confidence":3},{"trial_n":74,"n_dots":3.05,"target":"left","response":"left","rt":145.30000001192,"correct":true,"confidence":3},{"trial_n":75,"n_dots":2.95,"target":"left","response":"left","rt":356.5,"correct":true,"confidence":4},{"trial_n":76,"n_dots":2.95,"target":"left","response":"left","rt":382.69999998808,"correct":true,"confidence":4},{"trial_n":77,"n_dots":2.85,"target":"right","response":"right","rt":430.19999998808,"correct":true,"confidence":4},{"trial_n":78,"n_dots":2.85,"target":"left","response":"left","rt":93.899999976158,"correct":true,"confidence":4},{"trial_n":79,"n_dots":2.75,"target":"left","response":"left","rt":138.60000002384,"correct":true,"confidence":4},{"trial_n":80,"n_dots":2.75,"target":"right","response":"left","rt":282.69999998808,"correct":false,"confidence":2},{"trial_n":81,"n_dots":2.85,"target":"left","response":"left","rt":664,"correct":true,"confidence":3},{"trial_n":82,"n_dots":2.85,"target":"right","response":"right","rt":142.80000001192,"correct":true,"confidence":4},{"trial_n":83,"n_dots":2.75,"target":"right","response":"left","rt":360.80000001192,"correct":false,"confidence":2},{"trial_n":84,"n_dots":2.85,"target":"right","response":"right","rt":479.90000003576,"correct":true,"confidence":1},{"trial_n":85,"n_dots":2.85,"target":"left","response":"left","rt":249.09999996424,"correct":true,"confidence":2},{"trial_n":86,"n_dots":2.75,"target":"right","response":"right","rt":8293,"correct":true,"confidence":1},{"trial_n":87,"n_dots":2.75,"target":"left","response":"right","rt":225.19999998808,"correct":false,"confidence":3},{"trial_n":88,"n_dots":2.85,"target":"right","response":"left","rt":703.5,"correct":false,"confidence":3},{"trial_n":89,"n_dots":2.95,"target":"left","response":"right","rt":259.5,"correct":false,"confidence":3},{"trial_n":90,"n_dots":3.05,"target":"right","response":"right","rt":645.90000003576,"correct":true,"confidence":2},{"trial_n":91,"n_dots":3.05,"target":"left","response":"right","rt":573.19999998808,"correct":false,"confidence":1},{"trial_n":92,"n_dots":3.15,"target":"left","response":"left","rt":151.5,"correct":true,"confidence":3},{"trial_n":93,"n_dots":3.15,"target":"left","response":"left","rt":207.10000002384,"correct":true,"confidence":3},{"trial_n":94,"n_dots":3.05,"target":"left","response":"left","rt":178.5,"correct":true,"confidence":3},{"trial_n":95,"n_dots":3.05,"target":"left","response":"left","rt":426.29999995232,"correct":true,"confidence":3},{"trial_n":96,"n_dots":2.95,"target":"left","response":"right","rt":325.60000002384,"correct":false,"confidence":3},{"trial_n":97,"n_dots":3.05,"target":"right","response":"left","rt":170.89999997616,"correct":false,"confidence":3},{"trial_n":98,"n_dots":3.15,"target":"left","response":"left","rt":188.5,"correct":true,"confidence":3},{"trial_n":99,"n_dots":3.15,"target":"left","response":"right","rt":178.59999996424,"correct":false,"confidence":3},{"trial_n":100,"n_dots":3.25,"target":"right","response":"right","rt":220.30000001192,"correct":true,"confidence":3},{"trial_n":101,"n_dots":3.25,"target":"right","response":"right","rt":449.10000002384,"correct":true,"confidence":4},{"trial_n":102,"n_dots":3.15,"target":"right","response":"left","rt":104.10000002384,"correct":false,"confidence":4},{"trial_n":103,"n_dots":3.25,"target":"right","response":"right","rt":327,"correct":true,"confidence":4},{"trial_n":104,"n_dots":3.25,"target":"left","response":"left","rt":314.79999995232,"correct":true,"confidence":3},{"trial_n":105,"n_dots":3.15,"target":"right","response":"right","rt":35.199999988079,"correct":true,"confidence":4},{"trial_n":106,"n_dots":3.15,"target":"right","response":"right","rt":410.60000002384,"correct":true,"confidence":3},{"trial_n":107,"n_dots":3.05,"target":"left","response":"right","rt":893,"correct":false,"confidence":3},{"trial_n":108,"n_dots":3.15,"target":"right","response":"right","rt":517.39999997616,"correct":true,"confidence":3},{"trial_n":109,"n_dots":3.15,"target":"left","response":"right","rt":48.399999976158,"correct":false,"confidence":2},{"trial_n":110,"n_dots":3.25,"target":"left","response":"right","rt":147.5,"correct":false,"confidence":2},{"trial_n":111,"n_dots":3.35,"target":"left","response":"left","rt":322.09999996424,"correct":true,"confidence":3},{"trial_n":112,"n_dots":3.35,"target":"left","response":"left","rt":289.40000003576,"correct":true,"confidence":3},{"trial_n":113,"n_dots":3.25,"target":"right","response":"right","rt":250.09999996424,"correct":true,"confidence":4},{"trial_n":114,"n_dots":3.25,"target":"left","response":"left","rt":540.19999998808,"correct":true,"confidence":3},{"trial_n":115,"n_dots":3.15,"target":"left","response":"right","rt":548.30000001192,"correct":false,"confidence":3},{"trial_n":116,"n_dots":3.25,"target":"left","response":"left","rt":635.20000004768,"correct":true,"confidence":3},{"trial_n":117,"n_dots":3.25,"target":"right","response":"right","rt":497.19999998808,"correct":true,"confidence":3},{"trial_n":118,"n_dots":3.15,"target":"right","response":"right","rt":62.100000023842,"correct":true,"confidence":3},{"trial_n":119,"n_dots":3.15,"target":"right","response":"right","rt":344.90000003576,"correct":true,"confidence":1},{"trial_n":120,"n_dots":3.05,"target":"right","response":"right","rt":428.09999996424,"correct":true,"confidence":3}]