[{"trial_n":1,"min":25,"max":230,"target":"present","response":"present","rt":9326,"correct":true,"confidence":-1},{"trial_n":2,"min":25,"max":230,"target":"present","response":"present","rt":1634.6999999993,"correct":true,"confidence":-1},{"trial_n":3,"min":41,"max":214,"target":"absent","response":"absent","rt":544.69999999925,"correct":true,"confidence":-1},{"trial_n":4,"min":41,"max":214,"target":"absent","response":"absent","rt":391,"correct":true,"confidence":-1},{"trial_n":5,"min":57,"max":198,"target":"present","response":"present","rt":388.39999999851,"correct":true,"confidence":-1},{"trial_n":6,"min":57,"max":198,"target":"absent","response":"absent","rt":468.5,"correct":true,"confidence":-1},{"trial_n":7,"min":73,"max":182,"target":"absent","response":"absent","rt":153.19999999925,"correct":true,"confidence":-1},{"trial_n":8,"min":73,"max":182,"target":"absent","response":"absent","rt":92.800000000745,"correct":true,"confidence":-1},{"trial_n":9,"min":89,"max":166,"target":"present","response":"absent","rt":129.09999999776,"correct":false,"confidence":-1},{"trial_n":10,"min":73,"max":182,"target":"present","response":"absent","rt":1455.8000000007,"correct":false,"confidence":-1},{"trial_n":11,"min":65,"max":190,"target":"present","response":"present","rt":481,"correct":true,"confidence":-1},{"trial_n":12,"min":65,"max":190,"target":"present","response":"present","rt":434,"correct":true,"confidence":-1},{"trial_n":13,"min":73,"max":182,"target":"present","response":"present","rt":533.69999999925,"correct":true,"confidence":-1},{"trial_n":14,"min":73,"max":182,"target":"present","response":"present","rt":520.59999999776,"correct":true,"confidence":-1},{"trial_n":15,"min":81,"max":174,"target":"absent","response":"absent","rt":452.5,"correct":true,"confidence":-1},{"trial_n":16,"min":81,"max":174,"target":"present","response":"absent","rt":1039.0999999978,"correct":false,"confidence":-1},{"trial_n":17,"min":73,"max":182,"target":"absent","response":"present","rt":520.80000000075,"correct":false,"confidence":-1},{"trial_n":18,"min":65,"max":190,"target":"present","response":"present","rt":508.89999999851,"correct":true,"confidence":-1},{"trial_n":19,"min":65,"max":190,"target":"present","response":"present","rt":457.19999999925,"correct":true,"confidence":-1},{"trial_n":20,"min":73,"max":182,"target":"present","response":"present","rt":555.19999999925,"correct":true,"confidence":-1},{"trial_n":21,"min":73,"max":182,"target":"present","response":"present","rt":784.10000000149,"correct":true,"confidence":5},{"trial_n":22,"min":77,"max":178,"target":"absent","response":"absent","rt":734.80000000075,"correct":true,"confidence":3},{"trial_n":23,"min":77,"max":178,"target":"absent","response":"absent","rt":898.80000000075,"correct":true,"confidence":4},{"trial_n":24,"min":81,"max":174,"target":"present","response":"present","rt":1194,"correct":true,"confidence":5},{"trial_n":25,"min":81,"max":174,"target":"absent","response":"absent","rt":742.09999999776,"correct":true,"confidence":4},{"trial_n":26,"min":85,"max":170,"target":"present","response":"present","rt":1178.8000000007,"correct":true,"confidence":4},{"trial_n":27,"min":85,"max":170,"target":"absent","response":"present","rt":1295.1999999993,"correct":false,"confidence":4},{"trial_n":28,"min":81,"max":174,"target":"absent","response":"present","rt":503.90000000224,"correct":false,"confidence":2},{"trial_n":29,"min":77,"max":178,"target":"absent","response":"present","rt":1472.3999999985,"correct":false,"confidence":3},{"trial_n":30,"min":73,"max":182,"target":"present","response":"present","rt":659,"correct":true,"confidence":4},{"trial_n":31,"min":73,"max":182,"target":"absent","response":"present","rt":2144.5999999978,"correct":false,"confidence":4},{"trial_n":32,"min":71,"max":184,"target":"absent","response":"absent","rt":513.80000000075,"correct":true,"confidence":4},{"trial_n":33,"min":71,"max":184,"target":"absent","response":"absent","rt":1977.6000000015,"correct":true,"confidence":5},{"trial_n":34,"min":73,"max":182,"target":"present","response":"present","rt":544.10000000149,"correct":true,"confidence":5},{"trial_n":35,"min":73,"max":182,"target":"present","response":"present","rt":510.69999999925,"correct":true,"confidence":5},{"trial_n":36,"min":75,"max":180,"target":"present","response":"present","rt":611.09999999776,"correct":true,"confidence":5},{"trial_n":37,"min":75,"max":180,"target":"absent","response":"absent","rt":515.09999999776,"correct":true,"confidence":4},{"trial_n":38,"min":77,"max":178,"target":"absent","response":"absent","rt":574.90000000224,"correct":true,"confidence":4},{"trial_n":39,"min":77,"max":178,"target":"present","response":"absent","rt":643.30000000075,"correct":false,"confidence":3},{"trial_n":40,"min":75,"max":180,"target":"absent","response":"absent","rt":1338.8000000007,"correct":true,"confidence":3},{"trial_n":41,"min":75,"max":180,"target":"present","response":"present","rt":509.09999999776,"correct":true,"confidence":5},{"trial_n":42,"min":76,"max":179,"target":"present","response":"present","rt":532.30000000075,"correct":true,"confidence":5},{"trial_n":43,"min":76,"max":179,"target":"absent","response":"absent","rt":450.30000000075,"correct":true,"confidence":4},{"trial_n":44,"min":77,"max":178,"target":"absent","response":"absent","rt":511.5,"correct":true,"confidence":3},{"trial_n":45,"min":77,"max":178,"target":"absent","response":"absent","rt":1891.8999999985,"correct":true,"confidence":4},{"trial_n":46,"min":78,"max":177,"target":"present","response":"present","rt":585.30000000075,"correct":true,"confidence":5},{"trial_n":47,"min":78,"max":177,"target":"present","response":"absent","rt":681.59999999776,"correct":false,"confidence":3},{"trial_n":48,"min":77,"max":178,"target":"present","response":"present","rt":597.09999999776,"correct":true,"confidence":4},{"trial_n":49,"min":77,"max":178,"target":"present","response":"absent","rt":466.39999999851,"correct":false,"confidence":5},{"trial_n":50,"min":76,"max":179,"target":"present","response":"present","rt":781,"correct":true,"confidence":5},{"trial_n":51,"min":76,"max":179,"target":"absent","response":"absent","rt":477.09999999776,"correct":true,"confidence":5},{"trial_n":52,"min":77,"max":178,"target":"present","response":"present","rt":640.80000000075,"correct":true,"confidence":5},{"trial_n":53,"min":77,"max":178,"target":"absent","response":"absent","rt":505,"correct":true,"confidence":4},{"trial_n":54,"min":78,"max":177,"target":"present","response":"absent","rt":936.69999999925,"correct":false,"confidence":4},{"trial_n":55,"min":77,"max":178,"target":"present","response":"present","rt":1101.8999999985,"correct":true,"confidence":4},{"trial_n":56,"min":77,"max":178,"target":"present","response":"present","rt":506.80000000075,"correct":true,"confidence":5},{"trial_n":57,"min":78,"max":177,"target":"absent","response":"absent","rt":537.69999999925,"correct":true,"confidence":5},{"trial_n":58,"min":78,"max":177,"target":"present","response":"present","rt":399.59999999776,"correct":true,"confidence":5},{"trial_n":59,"min":79,"max":176,"target":"absent","response":"absent","rt":484.89999999851,"correct":true,"confidence":5},{"trial_n":60,"min":79,"max":176,"target":"absent","response":"absent","rt":524.59999999776,"correct":true,"confidence":5},{"trial_n":61,"min":80,"max":175,"target":"absent","response":"absent","rt":438.10000000149,"correct":true,"confidence":4},{"trial_n":62,"min":80,"max":175,"target":"absent","response":"absent","rt":960.69999999925,"correct":true,"confidence":5},{"trial_n":63,"min":81,"max":174,"target":"absent","response":"absent","rt":459.89999999851,"correct":true,"confidence":5},{"trial_n":64,"min":81,"max":174,"target":"absent","response":"absent","rt":376.80000000075,"correct":true,"confidence":5},{"trial_n":65,"min":82,"max":173,"target":"present","response":"absent","rt":385.59999999776,"correct":false,"confidence":5},{"trial_n":66,"min":81,"max":174,"target":"present","response":"present","rt":577.69999999925,"correct":true,"confidence":5},{"trial_n":67,"min":81,"max":174,"target":"absent","response":"absent","rt":436.19999999925,"correct":true,"confidence":5},{"trial_n":68,"min":82,"max":173,"target":"absent","response":"absent","rt":373.19999999925,"correct":true,"confidence":5},{"trial_n":69,"min":82,"max":173,"target":"absent","response":"absent","rt":479.09999999776,"correct":true,"confidence":5},{"trial_n":70,"min":83,"max":172,"target":"present","response":"present","rt":1079.8999999985,"correct":true,"confidence":5},{"trial_n":71,"min":41,"max":214,"target":"present","response":"present","rt":3814.5,"correct":true,"confidence":-1},{"trial_n":72,"min":41,"max":214,"target":"present","response":"present","rt":534.09999999776,"correct":true,"confidence":-1},{"trial_n":73,"min":57,"max":198,"target":"absent","response":"absent","rt":367.69999999925,"correct":true,"confidence":-1},{"trial_n":74,"min":57,"max":198,"target":"absent","response":"absent","rt":489.30000000075,"correct":true,"confidence":-1},{"trial_n":75,"min":73,"max":182,"target":"present","response":"present","rt":623.5,"correct":true,"confidence":-1},{"trial_n":76,"min":73,"max":182,"target":"present","response":"present","rt":627.19999999925,"correct":true,"confidence":-1},{"trial_n":77,"min":89,"max":166,"target":"absent","response":"present","rt":642.5,"correct":false,"confidence":-1},{"trial_n":78,"min":73,"max":182,"target":"absent","response":"absent","rt":749.80000000075,"correct":true,"confidence":-1},{"trial_n":79,"min":73,"max":182,"target":"absent","response":"absent","rt":491.89999999851,"correct":true,"confidence":-1},{"trial_n":80,"min":89,"max":166,"target":"absent","response":"absent","rt":467.30000000075,"correct":true,"confidence":-1},{"trial_n":81,"min":89,"max":166,"target":"present","response":"present","rt":751.90000000224,"correct":true,"confidence":-1},{"trial_n":82,"min":97,"max":158,"target":"absent","response":"present","rt":668,"correct":false,"confidence":-1},{"trial_n":83,"min":89,"max":166,"target":"present","response":"present","rt":606.40000000224,"correct":true,"confidence":-1},{"trial_n":84,"min":89,"max":166,"target":"absent","response":"absent","rt":869.30000000075,"correct":true,"confidence":-1},{"trial_n":85,"min":97,"max":158,"target":"absent","response":"absent","rt":580.69999999925,"correct":true,"confidence":-1},{"trial_n":86,"min":97,"max":158,"target":"present","response":"present","rt":573.59999999776,"correct":true,"confidence":-1},{"trial_n":87,"min":105,"max":150,"target":"absent","response":"present","rt":579.30000000075,"correct":false,"confidence":-1},{"trial_n":88,"min":97,"max":158,"target":"present","response":"absent","rt":605.30000000075,"correct":false,"confidence":-1},{"trial_n":89,"min":89,"max":166,"target":"present","response":"present","rt":440.89999999851,"correct":true,"confidence":-1},{"trial_n":90,"min":89,"max":166,"target":"present","response":"present","rt":861.39999999851,"correct":true,"confidence":-1},{"trial_n":91,"min":93,"max":162,"target":"absent","response":"absent","rt":1084.9000000022,"correct":true,"confidence":4},{"trial_n":92,"min":93,"max":162,"target":"absent","response":"present","rt":608.80000000075,"correct":false,"confidence":3},{"trial_n":93,"min":89,"max":166,"target":"present","response":"present","rt":742.5,"correct":true,"confidence":3},{"trial_n":94,"min":89,"max":166,"target":"present","response":"present","rt":744.80000000075,"correct":true,"confidence":4},{"trial_n":95,"min":93,"max":162,"target":"absent","response":"present","rt":720,"correct":false,"confidence":4},{"trial_n":96,"min":89,"max":166,"target":"present","response":"present","rt":834,"correct":true,"confidence":4},{"trial_n":97,"min":89,"max":166,"target":"absent","response":"absent","rt":1838.6999999993,"correct":true,"confidence":4},{"trial_n":98,"min":93,"max":162,"target":"present","response":"absent","rt":2677.8999999985,"correct":false,"confidence":2},{"trial_n":99,"min":89,"max":166,"target":"present","response":"present","rt":655.20000000298,"correct":true,"confidence":5},{"trial_n":100,"min":89,"max":166,"target":"present","response":"present","rt":1147,"correct":true,"confidence":4},{"trial_n":101,"min":91,"max":164,"target":"absent","response":"present","rt":714.5,"correct":false,"confidence":3},{"trial_n":102,"min":89,"max":166,"target":"absent","response":"present","rt":653.80000000075,"correct":false,"confidence":4},{"trial_n":103,"min":87,"max":168,"target":"absent","response":"absent","rt":1153.1999999993,"correct":true,"confidence":4},{"trial_n":104,"min":87,"max":168,"target":"absent","response":"absent","rt":1208.5,"correct":true,"confidence":5},{"trial_n":105,"min":89,"max":166,"target":"present","response":"present","rt":1114.8999999985,"correct":true,"confidence":4},{"trial_n":106,"min":89,"max":166,"target":"present","response":"present","rt":1564.6999999993,"correct":true,"confidence":5},{"trial_n":107,"min":91,"max":164,"target":"present","response":"present","rt":808.30000000075,"correct":true,"confidence":5},{"trial_n":108,"min":91,"max":164,"target":"present","response":"present","rt":1105.5,"correct":true,"confidence":4},{"trial_n":109,"min":93,"max":162,"target":"present","response":"present","rt":752.60000000149,"correct":true,"confidence":4},{"trial_n":110,"min":93,"max":162,"target":"absent","response":"present","rt":793.80000000075,"correct":false,"confidence":4},{"trial_n":111,"min":92,"max":163,"target":"absent","response":"absent","rt":2246.5999999978,"correct":true,"confidence":3},{"trial_n":112,"min":92,"max":163,"target":"present","response":"absent","rt":3477.3999999985,"correct":false,"confidence":2},{"trial_n":113,"min":91,"max":164,"target":"present","response":"absent","rt":2972.3000000007,"correct":false,"confidence":4},{"trial_n":114,"min":90,"max":165,"target":"present","response":"present","rt":757.60000000149,"correct":true,"confidence":4},{"trial_n":115,"min":90,"max":165,"target":"absent","response":"absent","rt":2633.8000000007,"correct":true,"confidence":4},{"trial_n":116,"min":91,"max":164,"target":"present","response":"present","rt":1077,"correct":true,"confidence":4},{"trial_n":117,"min":91,"max":164,"target":"absent","response":"absent","rt":2348.5999999978,"correct":true,"confidence":3},{"trial_n":118,"min":92,"max":163,"target":"present","response":"absent","rt":3407.8000000007,"correct":false,"confidence":1},{"trial_n":119,"min":91,"max":164,"target":"present","response":"present","rt":999.59999999776,"correct":true,"confidence":4},{"trial_n":120,"min":91,"max":164,"target":"absent","response":"absent","rt":2029.6000000015,"correct":true,"confidence":2},{"trial_n":121,"min":92,"max":163,"target":"absent","response":"present","rt":1211.6000000015,"correct":false,"confidence":3},{"trial_n":122,"min":91,"max":164,"target":"present","response":"present","rt":3863.0999999978,"correct":true,"confidence":2},{"trial_n":123,"min":91,"max":164,"target":"absent","response":"present","rt":2154.8999999985,"correct":false,"confidence":1},{"trial_n":124,"min":90,"max":165,"target":"absent","response":"absent","rt":1317.1000000015,"correct":true,"confidence":3},{"trial_n":125,"min":90,"max":165,"target":"absent","response":"absent","rt":1878.4000000022,"correct":true,"confidence":4},{"trial_n":126,"min":91,"max":164,"target":"present","response":"present","rt":1104.5,"correct":true,"confidence":4},{"trial_n":127,"min":91,"max":164,"target":"present","response":"absent","rt":2467.1000000015,"correct":false,"confidence":3},{"trial_n":128,"min":90,"max":165,"target":"absent","response":"present","rt":1522.3000000007,"correct":false,"confidence":2},{"trial_n":129,"min":89,"max":166,"target":"absent","response":"absent","rt":1233.1999999993,"correct":true,"confidence":2},{"trial_n":130,"min":89,"max":166,"target":"absent","response":"absent","rt":981.40000000224,"correct":true,"confidence":5},{"trial_n":131,"min":90,"max":165,"target":"present","response":"present","rt":2617.3999999985,"correct":true,"confidence":4},{"trial_n":132,"min":90,"max":165,"target":"absent","response":"absent","rt":2702.6999999993,"correct":true,"confidence":3},{"trial_n":133,"min":91,"max":164,"target":"present","response":"present","rt":637.59999999776,"correct":true,"confidence":4},{"trial_n":134,"min":91,"max":164,"target":"absent","response":"present","rt":2326.8000000007,"correct":false,"confidence":3},{"trial_n":135,"min":90,"max":165,"target":"absent","response":"absent","rt":1096.5,"correct":true,"confidence":2},{"trial_n":136,"min":90,"max":165,"target":"present","response":"present","rt":760.59999999776,"correct":true,"confidence":5},{"trial_n":137,"min":91,"max":164,"target":"present","response":"absent","rt":1288.8000000007,"correct":false,"confidence":3},{"trial_n":138,"min":90,"max":165,"target":"present","response":"present","rt":518.60000000149,"correct":true,"confidence":4},{"trial_n":139,"min":90,"max":165,"target":"absent","response":"absent","rt":1153.8000000007,"correct":true,"confidence":1},{"trial_n":140,"min":91,"max":164,"target":"present","response":"absent","rt":1110.6000000015,"correct":false,"confidence":1}]