[{"trial_n":1,"span":8,"encoder":"41581267","distractor":"41481267","target":"present","response":"present","rt":"10264.099999998","correct":true,"confidence":-1},{"trial_n":2,"span":8,"encoder":"01356703","distractor":"01356733","target":"present","response":"present","rt":"2647.0999999978","correct":true,"confidence":-1},{"trial_n":3,"span":10,"encoder":"3031144364","distractor":"3031148364","target":"absent","response":"present","rt":"2416.1999999993","correct":false,"confidence":-1},{"trial_n":4,"span":8,"encoder":"07448198","distractor":"07458198","target":"absent","response":"present","rt":"1730.3999999985","correct":false,"confidence":-1},{"trial_n":5,"span":6,"encoder":"872140","distractor":"872143","target":"present","response":"present","rt":"1579.5","correct":true,"confidence":-1},{"trial_n":6,"span":6,"encoder":"370780","distractor":"370782","target":"absent","response":"absent","rt":"1268.3999999985","correct":true,"confidence":-1},{"trial_n":7,"span":8,"encoder":"43446251","distractor":"43496251","target":"absent","response":"absent","rt":"1463","correct":true,"confidence":-1},{"trial_n":8,"span":8,"encoder":"07854594","distractor":"07853594","target":"present","response":"present","rt":"973.30000000075","correct":true,"confidence":-1},{"trial_n":9,"span":10,"encoder":"6982542779","distractor":"6982546779","target":"present","response":"absent","rt":"1130.8999999985","correct":false,"confidence":-1},{"trial_n":10,"span":8,"encoder":"57847277","distractor":"57837277","target":"absent","response":"present","rt":"753","correct":false,"confidence":-1},{"trial_n":11,"span":6,"encoder":"649917","distractor":"649912","target":"absent","response":"present","rt":"1293","correct":false,"confidence":-1},{"trial_n":12,"span":5,"encoder":"22203","distractor":"42203","target":"present","response":"present","rt":"975","correct":true,"confidence":-1},{"trial_n":13,"span":5,"encoder":"22383","distractor":"24383","target":"present","response":"absent","rt":"1878.3000000007","correct":false,"confidence":-1},{"trial_n":14,"span":4,"encoder":"7297","distractor":"6297","target":"present","response":"present","rt":"1371","correct":true,"confidence":-1},{"trial_n":15,"span":4,"encoder":"5666","distractor":"5663","target":"absent","response":"absent","rt":"1562.8000000007","correct":true,"confidence":-1},{"trial_n":16,"span":5,"encoder":"80585","distractor":"90585","target":"present","response":"present","rt":"1454.5","correct":true,"confidence":-1},{"trial_n":17,"span":5,"encoder":"52733","distractor":"82733","target":"present","response":"present","rt":"681.5","correct":true,"confidence":-1},{"trial_n":18,"span":6,"encoder":"118120","distractor":"113120","target":"present","response":"present","rt":"782.70000000298","correct":true,"confidence":-1},{"trial_n":19,"span":6,"encoder":"645681","distractor":"625681","target":"present","response":"present","rt":"726.40000000224","correct":true,"confidence":-1},{"trial_n":20,"span":7,"encoder":"8632363","distractor":"7632363","target":"present","response":"present","rt":"649.40000000224","correct":true,"confidence":-1},{"trial_n":21,"span":7,"encoder":"0987815","distractor":"3987815","target":"absent","response":"absent","rt":"1865.1000000015","correct":true,"confidence":4},{"trial_n":22,"span":8,"encoder":"50049283","distractor":"55049283","target":"present","response":"present","rt":"1208.9000000022","correct":true,"confidence":1},{"trial_n":23,"span":8,"encoder":"84593785","distractor":"44593785","target":"absent","response":"absent","rt":"1576.3000000007","correct":true,"confidence":4},{"trial_n":24,"span":9,"encoder":"023430826","distractor":"723430826","target":"absent","response":"absent","rt":"1457.6999999993","correct":true,"confidence":4},{"trial_n":25,"span":9,"encoder":"006300653","distractor":"006700653","target":"absent","response":"present","rt":"1509.8000000007","correct":false,"confidence":4},{"trial_n":26,"span":8,"encoder":"00822185","distractor":"80822185","target":"absent","response":"absent","rt":"2376.700000003","correct":true,"confidence":3},{"trial_n":27,"span":8,"encoder":"85752608","distractor":"85752208","target":"present","response":"present","rt":"2387.3999999985","correct":true,"confidence":4},{"trial_n":28,"span":9,"encoder":"312453418","distractor":"812453418","target":"absent","response":"absent","rt":"1721.8000000007","correct":true,"confidence":4},{"trial_n":29,"span":9,"encoder":"819945487","distractor":"819945187","target":"present","response":"present","rt":"2045.3999999985","correct":true,"confidence":4},{"trial_n":30,"span":10,"encoder":"0801654294","distractor":"0801659294","target":"absent","response":"present","rt":"2555.6999999993","correct":false,"confidence":3},{"trial_n":31,"span":9,"encoder":"639203636","distractor":"639003636","target":"present","response":"present","rt":"1366.3000000007","correct":true,"confidence":5},{"trial_n":32,"span":9,"encoder":"512954882","distractor":"512955882","target":"present","response":"present","rt":"949.40000000224","correct":true,"confidence":4},{"trial_n":33,"span":10,"encoder":"1288107327","distractor":"1288102327","target":"absent","response":"present","rt":"1975.6000000015","correct":false,"confidence":5},{"trial_n":34,"span":9,"encoder":"497341836","distractor":"497351836","target":"present","response":"present","rt":"2500.3000000007","correct":true,"confidence":1},{"trial_n":35,"span":9,"encoder":"756586694","distractor":"756583694","target":"present","response":"present","rt":"2082.3000000007","correct":true,"confidence":4},{"trial_n":36,"span":10,"encoder":"2942191062","distractor":"2942193062","target":"absent","response":"present","rt":"1934.5","correct":false,"confidence":3},{"trial_n":37,"span":9,"encoder":"246722932","distractor":"246722232","target":"present","response":"present","rt":"2339.3000000007","correct":true,"confidence":4},{"trial_n":38,"span":9,"encoder":"318048074","distractor":"318048054","target":"present","response":"present","rt":"1832.3999999985","correct":true,"confidence":5},{"trial_n":39,"span":10,"encoder":"1431680653","distractor":"1431580653","target":"present","response":"present","rt":"3143.6000000015","correct":true,"confidence":3},{"trial_n":40,"span":10,"encoder":"3350224068","distractor":"3350224668","target":"absent","response":"absent","rt":"4064.5","correct":true,"confidence":3},{"trial_n":41,"span":11,"encoder":"59806117172","distractor":"59806117122","target":"absent","response":"absent","rt":"4091.200000003","correct":true,"confidence":4},{"trial_n":42,"span":11,"encoder":"16608634816","distractor":"19608634816","target":"present","response":"present","rt":"2316.8000000007","correct":true,"confidence":5},{"trial_n":43,"span":12,"encoder":"339023709536","distractor":"339029709536","target":"absent","response":"present","rt":"2208.3000000007","correct":false,"confidence":4},{"trial_n":44,"span":11,"encoder":"22142014506","distractor":"22642014506","target":"absent","response":"present","rt":"5344.4000000022","correct":false,"confidence":3},{"trial_n":45,"span":10,"encoder":"7235306138","distractor":"7235376138","target":"absent","response":"present","rt":"1912.9000000022","correct":false,"confidence":5},{"trial_n":46,"span":9,"encoder":"103414791","distractor":"103414792","target":"absent","response":"present","rt":"3143.799999997","correct":false,"confidence":3},{"trial_n":47,"span":8,"encoder":"28905029","distractor":"28905129","target":"absent","response":"present","rt":"2285.6999999993","correct":false,"confidence":5},{"trial_n":48,"span":7,"encoder":"2447641","distractor":"2437641","target":"absent","response":"present","rt":"1231.3999999985","correct":false,"confidence":4},{"trial_n":49,"span":6,"encoder":"087561","distractor":"787561","target":"present","response":"present","rt":"2409.8000000007","correct":true,"confidence":5},{"trial_n":50,"span":6,"encoder":"993264","distractor":"995264","target":"present","response":"absent","rt":"1253.4000000022","correct":false,"confidence":2},{"trial_n":51,"span":5,"encoder":"95843","distractor":"95643","target":"absent","response":"absent","rt":"3880.4000000022","correct":true,"confidence":4},{"trial_n":52,"span":5,"encoder":"31740","distractor":"37740","target":"present","response":"present","rt":"1638.200000003","correct":true,"confidence":5},{"trial_n":53,"span":6,"encoder":"636437","distractor":"639437","target":"absent","response":"absent","rt":"2197","correct":true,"confidence":5},{"trial_n":54,"span":6,"encoder":"723717","distractor":"723718","target":"absent","response":"absent","rt":"2309.200000003","correct":true,"confidence":5},{"trial_n":55,"span":7,"encoder":"2841873","distractor":"2841473","target":"present","response":"present","rt":"1964.3999999985","correct":true,"confidence":4},{"trial_n":56,"span":7,"encoder":"4164577","distractor":"4164877","target":"absent","response":"absent","rt":"3999.5","correct":true,"confidence":4},{"trial_n":57,"span":8,"encoder":"85279012","distractor":"85279712","target":"absent","response":"present","rt":"2346","correct":false,"confidence":4},{"trial_n":58,"span":7,"encoder":"6766245","distractor":"6766745","target":"present","response":"present","rt":"1966.3999999985","correct":true,"confidence":5},{"trial_n":59,"span":7,"encoder":"5340732","distractor":"5340762","target":"absent","response":"present","rt":"1700.700000003","correct":false,"confidence":5},{"trial_n":60,"span":6,"encoder":"857007","distractor":"857001","target":"present","response":"present","rt":"1557.1999999993","correct":true,"confidence":5},{"trial_n":61,"span":6,"encoder":"855468","distractor":"895468","target":"present","response":"present","rt":"1150.1999999993","correct":true,"confidence":5},{"trial_n":62,"span":7,"encoder":"1996714","distractor":"1996794","target":"present","response":"present","rt":"2076.1999999993","correct":true,"confidence":4},{"trial_n":63,"span":7,"encoder":"0999747","distractor":"0991747","target":"absent","response":"present","rt":"4508.8000000007","correct":false,"confidence":4},{"trial_n":64,"span":6,"encoder":"352696","distractor":"322696","target":"absent","response":"absent","rt":"2543.3000000007","correct":true,"confidence":4},{"trial_n":65,"span":6,"encoder":"686546","distractor":"686542","target":"present","response":"present","rt":"1055.1000000015","correct":true,"confidence":4},{"trial_n":66,"span":7,"encoder":"5072435","distractor":"5872435","target":"present","response":"present","rt":"1715.8000000007","correct":true,"confidence":3},{"trial_n":67,"span":7,"encoder":"9124562","distractor":"9124560","target":"present","response":"present","rt":"2884.6999999993","correct":true,"confidence":4},{"trial_n":68,"span":8,"encoder":"07115901","distractor":"07115907","target":"absent","response":"present","rt":"2965.6000000015","correct":false,"confidence":1},{"trial_n":69,"span":7,"encoder":"3805442","distractor":"3875442","target":"absent","response":"absent","rt":"1769.8000000007","correct":true,"confidence":4},{"trial_n":70,"span":7,"encoder":"6246528","distractor":"6286528","target":"present","response":"present","rt":"1940.9000000022","correct":true,"confidence":5},{"trial_n":71,"span":8,"encoder":"61502860","distractor":"11502860","target":"present","response":"present","rt":"2658.0999999978","correct":true,"confidence":-1},{"trial_n":72,"span":8,"encoder":"29944650","distractor":"29944350","target":"present","response":"present","rt":"4288.8999999985","correct":true,"confidence":-1},{"trial_n":73,"span":9,"encoder":"806501819","distractor":"866501819","target":"absent","response":"present","rt":"2597.6999999993","correct":false,"confidence":-1},{"trial_n":74,"span":8,"encoder":"28245182","distractor":"28265182","target":"absent","response":"present","rt":"5579.6000000015","correct":false,"confidence":-1},{"trial_n":75,"span":7,"encoder":"9255305","distractor":"9555305","target":"present","response":"present","rt":"3042","correct":true,"confidence":-1},{"trial_n":76,"span":7,"encoder":"8583714","distractor":"8583914","target":"present","response":"present","rt":"2782.1000000015","correct":true,"confidence":-1},{"trial_n":77,"span":8,"encoder":"15593060","distractor":"15593960","target":"present","response":"present","rt":"2113.1000000015","correct":true,"confidence":-1},{"trial_n":78,"span":8,"encoder":"77573131","distractor":"77533131","target":"present","response":"absent","rt":"1966.6000000015","correct":false,"confidence":-1},{"trial_n":79,"span":7,"encoder":"8149595","distractor":"8147595","target":"present","response":"present","rt":"2713.200000003","correct":true,"confidence":-1},{"trial_n":80,"span":7,"encoder":"9180181","distractor":"7180181","target":"absent","response":"absent","rt":"1649.4000000022","correct":true,"confidence":-1},{"trial_n":81,"span":8,"encoder":"45461468","distractor":"45468468","target":"present","response":"absent","rt":"4612.200000003","correct":false,"confidence":-1},{"trial_n":82,"span":7,"encoder":"4526021","distractor":"4026021","target":"absent","response":"absent","rt":"3861.6000000015","correct":true,"confidence":-1},{"trial_n":83,"span":7,"encoder":"2049657","distractor":"2049653","target":"present","response":"present","rt":"1387.1999999993","correct":true,"confidence":-1},{"trial_n":84,"span":8,"encoder":"43669275","distractor":"43669273","target":"absent","response":"absent","rt":"4252.3999999985","correct":true,"confidence":-1},{"trial_n":85,"span":8,"encoder":"44308844","distractor":"44308846","target":"absent","response":"absent","rt":"2560.5","correct":true,"confidence":-1},{"trial_n":86,"span":9,"encoder":"783560783","distractor":"183560783","target":"absent","response":"absent","rt":"1892.8999999985","correct":true,"confidence":-1},{"trial_n":87,"span":9,"encoder":"658006797","distractor":"658006497","target":"present","response":"absent","rt":"5815.8999999985","correct":false,"confidence":-1},{"trial_n":88,"span":8,"encoder":"96941350","distractor":"16941350","target":"present","response":"present","rt":"2355.8999999985","correct":true,"confidence":-1},{"trial_n":89,"span":8,"encoder":"46814343","distractor":"46874343","target":"absent","response":"absent","rt":"2615.3999999985","correct":true,"confidence":-1},{"trial_n":90,"span":9,"encoder":"261347134","distractor":"261547134","target":"absent","response":"present","rt":"3051.1999999993","correct":false,"confidence":-1},{"trial_n":91,"span":8,"encoder":"37392201","distractor":"37395201","target":"present","response":"present","rt":"4081.1999999993","correct":true,"confidence":4},{"trial_n":92,"span":8,"encoder":"04092739","distractor":"04092539","target":"present","response":"present","rt":"2035","correct":true,"confidence":5},{"trial_n":93,"span":9,"encoder":"231294293","distractor":"231298293","target":"absent","response":"absent","rt":"3853.3999999985","correct":true,"confidence":2},{"trial_n":94,"span":9,"encoder":"306922445","distractor":"306122445","target":"present","response":"present","rt":"1892.6999999993","correct":true,"confidence":4},{"trial_n":95,"span":10,"encoder":"7755134350","distractor":"7755138350","target":"present","response":"present","rt":"1815.6000000015","correct":true,"confidence":4},{"trial_n":96,"span":10,"encoder":"2089121652","distractor":"2089521652","target":"present","response":"absent","rt":"3608.6000000015","correct":false,"confidence":3},{"trial_n":97,"span":9,"encoder":"347036691","distractor":"347036091","target":"absent","response":"absent","rt":"3648.6000000015","correct":true,"confidence":2},{"trial_n":98,"span":9,"encoder":"744853234","distractor":"744853238","target":"absent","response":"present","rt":"5871.1999999993","correct":false,"confidence":3},{"trial_n":99,"span":8,"encoder":"85110573","distractor":"85110575","target":"present","response":"absent","rt":"1852.5","correct":false,"confidence":4},{"trial_n":100,"span":7,"encoder":"9813689","distractor":"9813679","target":"absent","response":"present","rt":"5910.3999999985","correct":false,"confidence":3},{"trial_n":101,"span":6,"encoder":"083389","distractor":"683389","target":"present","response":"present","rt":"3298.8000000007","correct":true,"confidence":4},{"trial_n":102,"span":6,"encoder":"997537","distractor":"997837","target":"absent","response":"absent","rt":"3780.6000000015","correct":true,"confidence":4},{"trial_n":103,"span":7,"encoder":"0472135","distractor":"0472133","target":"present","response":"absent","rt":"5099.3000000007","correct":false,"confidence":4},{"trial_n":104,"span":6,"encoder":"843072","distractor":"143072","target":"present","response":"present","rt":"2034.5","correct":true,"confidence":5},{"trial_n":105,"span":6,"encoder":"896537","distractor":"596537","target":"absent","response":"absent","rt":"1562.3999999985","correct":true,"confidence":5},{"trial_n":106,"span":7,"encoder":"4171173","distractor":"4971173","target":"present","response":"absent","rt":"4106.8000000007","correct":false,"confidence":3},{"trial_n":107,"span":6,"encoder":"741888","distractor":"721888","target":"present","response":"present","rt":"1749.6000000015","correct":true,"confidence":5},{"trial_n":108,"span":6,"encoder":"630461","distractor":"630467","target":"absent","response":"absent","rt":"3506.8999999985","correct":true,"confidence":4},{"trial_n":109,"span":7,"encoder":"3128518","distractor":"3128528","target":"absent","response":"absent","rt":"4385.8999999985","correct":true,"confidence":3},{"trial_n":110,"span":7,"encoder":"7857247","distractor":"7856247","target":"present","response":"present","rt":"2292.6000000015","correct":true,"confidence":4},{"trial_n":111,"span":8,"encoder":"14136992","distractor":"14136792","target":"present","response":"present","rt":"3938.6000000015","correct":true,"confidence":3},{"trial_n":112,"span":8,"encoder":"41989980","distractor":"41984980","target":"present","response":"present","rt":"1871.5","correct":true,"confidence":4},{"trial_n":113,"span":9,"encoder":"192130573","distractor":"152130573","target":"absent","response":"absent","rt":"2423.3000000007","correct":true,"confidence":4},{"trial_n":114,"span":9,"encoder":"824546919","distractor":"834546919","target":"absent","response":"absent","rt":"2385.1999999993","correct":true,"confidence":4},{"trial_n":115,"span":10,"encoder":"4667327219","distractor":"4167327219","target":"absent","response":"absent","rt":"1605.8999999985","correct":true,"confidence":4},{"trial_n":116,"span":10,"encoder":"8274226293","distractor":"8274226493","target":"present","response":"absent","rt":"7038.6000000015","correct":false,"confidence":2},{"trial_n":117,"span":9,"encoder":"593233571","distractor":"593233271","target":"present","response":"present","rt":"8236.200000003","correct":true,"confidence":3},{"trial_n":118,"span":9,"encoder":"712498459","distractor":"712798459","target":"present","response":"absent","rt":"7376.0999999978","correct":false,"confidence":4},{"trial_n":119,"span":8,"encoder":"63203768","distractor":"63204768","target":"present","response":"present","rt":"1754.5","correct":true,"confidence":4},{"trial_n":120,"span":8,"encoder":"47495178","distractor":"67495178","target":"absent","response":"absent","rt":"1710.200000003","correct":true,"confidence":5},{"trial_n":121,"span":9,"encoder":"681618628","distractor":"688618628","target":"absent","response":"absent","rt":"5013.4000000022","correct":true,"confidence":4},{"trial_n":122,"span":9,"encoder":"767357157","distractor":"763357157","target":"absent","response":"absent","rt":"2775","correct":true,"confidence":4},{"trial_n":123,"span":10,"encoder":"0520716727","distractor":"0520716327","target":"present","response":"present","rt":"4468.8999999985","correct":true,"confidence":4},{"trial_n":124,"span":10,"encoder":"4643373748","distractor":"4623373748","target":"absent","response":"absent","rt":"4671.6999999993","correct":true,"confidence":1},{"trial_n":125,"span":11,"encoder":"25380390855","distractor":"25380390955","target":"absent","response":"absent","rt":"2287.1000000015","correct":true,"confidence":4},{"trial_n":126,"span":11,"encoder":"90769959310","distractor":"90769959410","target":"present","response":"absent","rt":"5285.8999999985","correct":false,"confidence":2},{"trial_n":127,"span":10,"encoder":"6398477309","distractor":"6388477309","target":"absent","response":"absent","rt":"2864.8000000007","correct":true,"confidence":5},{"trial_n":128,"span":10,"encoder":"3950881756","distractor":"3954881756","target":"present","response":"present","rt":"3674.1000000015","correct":true,"confidence":4},{"trial_n":129,"span":11,"encoder":"41972325225","distractor":"41982325225","target":"absent","response":"absent","rt":"2426.5","correct":true,"confidence":4},{"trial_n":130,"span":11,"encoder":"65714427082","distractor":"65714427002","target":"absent","response":"absent","rt":"6674","correct":true,"confidence":3},{"trial_n":131,"span":12,"encoder":"824860056318","distractor":"824860056319","target":"absent","response":"absent","rt":"4660.8999999985","correct":true,"confidence":2},{"trial_n":132,"span":12,"encoder":"349984663397","distractor":"849984663397","target":"present","response":"absent","rt":"4629.1000000015","correct":false,"confidence":4},{"trial_n":133,"span":11,"encoder":"99740520257","distractor":"90740520257","target":"absent","response":"absent","rt":"2432.9000000022","correct":true,"confidence":4},{"trial_n":134,"span":11,"encoder":"27897466278","distractor":"27897446278","target":"absent","response":"absent","rt":"13782.800000001","correct":true,"confidence":2},{"trial_n":135,"span":12,"encoder":"915272685686","distractor":"915272625686","target":"present","response":"absent","rt":"7725.6999999993","correct":false,"confidence":3},{"trial_n":136,"span":11,"encoder":"92612083262","distractor":"92612083062","target":"absent","response":"absent","rt":"5511.4000000022","correct":true,"confidence":2},{"trial_n":137,"span":11,"encoder":"97248435008","distractor":"97248455008","target":"absent","response":"absent","rt":"4752","correct":true,"confidence":3},{"trial_n":138,"span":12,"encoder":"337148385351","distractor":"337148385341","target":"present","response":"present","rt":"2922.200000003","correct":true,"confidence":3},{"trial_n":139,"span":12,"encoder":"557389087863","distractor":"557389087263","target":"absent","response":"absent","rt":"2663.6999999993","correct":true,"confidence":4},{"trial_n":140,"span":13,"encoder":"9328575425482","distractor":"9328575420482","target":"present","response":"present","rt":"14579.800000001","correct":true,"confidence":3}]