[{"trial_n":1,"n_dots":4.25,"target":"right","response":"right","rt":7155.400000006,"correct":true,"confidence":-1},{"trial_n":2,"n_dots":4.25,"target":"right","response":"left","rt":968.29999999702,"correct":false,"confidence":-1},{"trial_n":3,"n_dots":4.65,"target":"left","response":"left","rt":441.60000000894,"correct":true,"confidence":-1},{"trial_n":4,"n_dots":4.65,"target":"left","response":"left","rt":448.20000000298,"correct":true,"confidence":-1},{"trial_n":5,"n_dots":4.25,"target":"right","response":"right","rt":664.5,"correct":true,"confidence":-1},{"trial_n":6,"n_dots":4.25,"target":"left","response":"left","rt":407.70000000298,"correct":true,"confidence":-1},{"trial_n":7,"n_dots":3.85,"target":"left","response":"left","rt":427,"correct":true,"confidence":-1},{"trial_n":8,"n_dots":3.85,"target":"right","response":"right","rt":687.80000001192,"correct":true,"confidence":-1},{"trial_n":9,"n_dots":3.65,"target":"left","response":"left","rt":571.29999999702,"correct":true,"confidence":-1},{"trial_n":10,"n_dots":3.65,"target":"left","response":"left","rt":597.39999999106,"correct":true,"confidence":-1},{"trial_n":11,"n_dots":3.45,"target":"right","response":"left","rt":578.5,"correct":false,"confidence":-1},{"trial_n":12,"n_dots":3.65,"target":"right","response":"right","rt":640.20000000298,"correct":true,"confidence":-1},{"trial_n":13,"n_dots":3.65,"target":"left","response":"left","rt":322.29999999702,"correct":true,"confidence":-1},{"trial_n":14,"n_dots":3.55,"target":"left","response":"left","rt":458.5,"correct":true,"confidence":-1},{"trial_n":15,"n_dots":3.55,"target":"right","response":"left","rt":630.39999999106,"correct":false,"confidence":-1},{"trial_n":16,"n_dots":3.65,"target":"left","response":"left","rt":413.59999999404,"correct":true,"confidence":-1},{"trial_n":17,"n_dots":3.65,"target":"left","response":"left","rt":309,"correct":true,"confidence":-1},{"trial_n":18,"n_dots":3.55,"target":"right","response":"right","rt":305.59999999404,"correct":true,"confidence":-1},{"trial_n":19,"n_dots":3.55,"target":"left","response":"left","rt":457,"correct":true,"confidence":-1},{"trial_n":20,"n_dots":3.45,"target":"left","response":"right","rt":938.70000000298,"correct":false,"confidence":-1},{"trial_n":21,"n_dots":3.55,"target":"right","response":"left","rt":717.40000000596,"correct":false,"confidence":3},{"trial_n":22,"n_dots":3.65,"target":"right","response":"right","rt":824.20000000298,"correct":true,"confidence":2},{"trial_n":23,"n_dots":3.65,"target":"right","response":"right","rt":652.70000000298,"correct":true,"confidence":4},{"trial_n":24,"n_dots":3.55,"target":"left","response":"left","rt":1154.8999999911,"correct":true,"confidence":5},{"trial_n":25,"n_dots":3.55,"target":"left","response":"left","rt":433.69999998808,"correct":true,"confidence":4},{"trial_n":26,"n_dots":3.45,"target":"left","response":"left","rt":635.69999998808,"correct":true,"confidence":3},{"trial_n":27,"n_dots":3.45,"target":"left","response":"left","rt":475.10000000894,"correct":true,"confidence":3},{"trial_n":28,"n_dots":3.35,"target":"right","response":"right","rt":1406.6000000089,"correct":true,"confidence":3},{"trial_n":29,"n_dots":3.35,"target":"left","response":"left","rt":630.90000000596,"correct":true,"confidence":3},{"trial_n":30,"n_dots":3.25,"target":"left","response":"right","rt":3369.200000003,"correct":false,"confidence":2},{"trial_n":31,"n_dots":3.35,"target":"right","response":"left","rt":3371.400000006,"correct":false,"confidence":1},{"trial_n":32,"n_dots":3.45,"target":"right","response":"right","rt":2073.200000003,"correct":true,"confidence":3},{"trial_n":33,"n_dots":3.45,"target":"right","response":"right","rt":386.20000000298,"correct":true,"confidence":5},{"trial_n":34,"n_dots":3.35,"target":"left","response":"left","rt":1046.200000003,"correct":true,"confidence":4},{"trial_n":35,"n_dots":3.35,"target":"left","response":"left","rt":553,"correct":true,"confidence":3},{"trial_n":36,"n_dots":3.25,"target":"right","response":"left","rt":631.70000000298,"correct":false,"confidence":4},{"trial_n":37,"n_dots":3.35,"target":"right","response":"right","rt":1716.8000000119,"correct":true,"confidence":2},{"trial_n":38,"n_dots":3.35,"target":"left","response":"left","rt":1120.8000000119,"correct":true,"confidence":4},{"trial_n":39,"n_dots":3.25,"target":"right","response":"right","rt":1655.5,"correct":true,"confidence":4},{"trial_n":40,"n_dots":3.25,"target":"right","response":"right","rt":1583.1000000089,"correct":true,"confidence":4},{"trial_n":41,"n_dots":3.15,"target":"left","response":"left","rt":1250.799999997,"correct":true,"confidence":2},{"trial_n":42,"n_dots":3.15,"target":"right","response":"right","rt":827.80000001192,"correct":true,"confidence":3},{"trial_n":43,"n_dots":3.05,"target":"left","response":"left","rt":551.79999999702,"correct":true,"confidence":4},{"trial_n":44,"n_dots":3.05,"target":"left","response":"left","rt":900.5,"correct":true,"confidence":4},{"trial_n":45,"n_dots":2.95,"target":"right","response":"right","rt":1130.400000006,"correct":true,"confidence":3},{"trial_n":46,"n_dots":2.95,"target":"left","response":"right","rt":3232.5,"correct":false,"confidence":1},{"trial_n":47,"n_dots":3.05,"target":"right","response":"right","rt":1418.799999997,"correct":true,"confidence":4},{"trial_n":48,"n_dots":3.05,"target":"right","response":"right","rt":1172.599999994,"correct":true,"confidence":4},{"trial_n":49,"n_dots":2.95,"target":"right","response":"right","rt":1486,"correct":true,"confidence":3},{"trial_n":50,"n_dots":2.95,"target":"right","response":"right","rt":1013.299999997,"correct":true,"confidence":3},{"trial_n":51,"n_dots":2.85,"target":"right","response":"right","rt":1217.099999994,"correct":true,"confidence":3},{"trial_n":52,"n_dots":2.85,"target":"right","response":"left","rt":1421.200000003,"correct":false,"confidence":1},{"trial_n":53,"n_dots":2.95,"target":"right","response":"left","rt":1328.799999997,"correct":false,"confidence":2},{"trial_n":54,"n_dots":3.05,"target":"right","response":"right","rt":1037,"correct":true,"confidence":4},{"trial_n":55,"n_dots":3.05,"target":"right","response":"right","rt":1075.700000003,"correct":true,"confidence":3},{"trial_n":56,"n_dots":2.95,"target":"left","response":"left","rt":638.29999999702,"correct":true,"confidence":4},{"trial_n":57,"n_dots":2.95,"target":"left","response":"left","rt":758.20000000298,"correct":true,"confidence":4},{"trial_n":58,"n_dots":2.85,"target":"right","response":"right","rt":1132.900000006,"correct":true,"confidence":3},{"trial_n":59,"n_dots":2.85,"target":"left","response":"left","rt":705.29999999702,"correct":true,"confidence":4},{"trial_n":60,"n_dots":2.75,"target":"left","response":"left","rt":1911.799999997,"correct":true,"confidence":2},{"trial_n":61,"n_dots":2.75,"target":"right","response":"right","rt":884,"correct":true,"confidence":5},{"trial_n":62,"n_dots":2.65,"target":"left","response":"left","rt":1264,"correct":true,"confidence":3},{"trial_n":63,"n_dots":2.65,"target":"left","response":"left","rt":665.20000000298,"correct":true,"confidence":5},{"trial_n":64,"n_dots":2.55,"target":"left","response":"left","rt":1014.5,"correct":true,"confidence":3},{"trial_n":65,"n_dots":2.55,"target":"right","response":"left","rt":2110.8000000119,"correct":false,"confidence":2},{"trial_n":66,"n_dots":2.65,"target":"left","response":"left","rt":914.29999999702,"correct":true,"confidence":4},{"trial_n":67,"n_dots":2.65,"target":"left","response":"right","rt":1852.700000003,"correct":false,"confidence":2},{"trial_n":68,"n_dots":2.75,"target":"left","response":"left","rt":393.40000000596,"correct":true,"confidence":3},{"trial_n":69,"n_dots":2.75,"target":"left","response":"left","rt":631.29999999702,"correct":true,"confidence":5},{"trial_n":70,"n_dots":2.65,"target":"right","response":"left","rt":1274.3000000119,"correct":false,"confidence":2},{"trial_n":71,"n_dots":2.75,"target":"left","response":"left","rt":331.69999998808,"correct":true,"confidence":5},{"trial_n":72,"n_dots":2.75,"target":"right","response":"right","rt":1575,"correct":true,"confidence":3},{"trial_n":73,"n_dots":2.65,"target":"right","response":"left","rt":1097.8000000119,"correct":false,"confidence":3},{"trial_n":74,"n_dots":2.75,"target":"left","response":"left","rt":2707.299999997,"correct":true,"confidence":4},{"trial_n":75,"n_dots":2.75,"target":"right","response":"right","rt":883.5,"correct":true,"confidence":4},{"trial_n":76,"n_dots":2.65,"target":"right","response":"right","rt":961.29999999702,"correct":true,"confidence":3},{"trial_n":77,"n_dots":2.65,"target":"left","response":"right","rt":1233.6999999881,"correct":false,"confidence":3},{"trial_n":78,"n_dots":2.75,"target":"right","response":"left","rt":1132.400000006,"correct":false,"confidence":3},{"trial_n":79,"n_dots":2.85,"target":"right","response":"right","rt":738.60000000894,"correct":true,"confidence":5},{"trial_n":80,"n_dots":2.85,"target":"left","response":"left","rt":876.40000000596,"correct":true,"confidence":4},{"trial_n":81,"n_dots":2.75,"target":"left","response":"left","rt":960.29999999702,"correct":true,"confidence":3},{"trial_n":82,"n_dots":2.75,"target":"right","response":"left","rt":1657.8000000119,"correct":false,"confidence":3},{"trial_n":83,"n_dots":2.85,"target":"left","response":"left","rt":1547.900000006,"correct":true,"confidence":4},{"trial_n":84,"n_dots":2.85,"target":"left","response":"left","rt":1165,"correct":true,"confidence":2},{"trial_n":85,"n_dots":2.75,"target":"right","response":"right","rt":3015.5,"correct":true,"confidence":2},{"trial_n":86,"n_dots":2.75,"target":"left","response":"left","rt":782.20000000298,"correct":true,"confidence":3},{"trial_n":87,"n_dots":2.65,"target":"left","response":"left","rt":1205.1999999881,"correct":true,"confidence":3},{"trial_n":88,"n_dots":2.65,"target":"right","response":"left","rt":796.09999999404,"correct":false,"confidence":4},{"trial_n":89,"n_dots":2.75,"target":"right","response":"right","rt":1396,"correct":true,"confidence":2},{"trial_n":90,"n_dots":2.75,"target":"left","response":"left","rt":833.39999999106,"correct":true,"confidence":4},{"trial_n":91,"n_dots":2.65,"target":"right","response":"right","rt":1052.299999997,"correct":true,"confidence":4},{"trial_n":92,"n_dots":2.65,"target":"left","response":"left","rt":1105.200000003,"correct":true,"confidence":3},{"trial_n":93,"n_dots":2.55,"target":"right","response":"right","rt":1610.200000003,"correct":true,"confidence":3},{"trial_n":94,"n_dots":2.55,"target":"left","response":"left","rt":1031.8999999911,"correct":true,"confidence":2},{"trial_n":95,"n_dots":2.45,"target":"left","response":"left","rt":836.5,"correct":true,"confidence":3},{"trial_n":96,"n_dots":2.45,"target":"right","response":"left","rt":680.90000000596,"correct":false,"confidence":4},{"trial_n":97,"n_dots":2.55,"target":"left","response":"left","rt":4001.299999997,"correct":true,"confidence":2},{"trial_n":98,"n_dots":2.55,"target":"left","response":"right","rt":2976.200000003,"correct":false,"confidence":2},{"trial_n":99,"n_dots":2.65,"target":"left","response":"right","rt":5008.700000003,"correct":false,"confidence":2},{"trial_n":100,"n_dots":2.75,"target":"left","response":"right","rt":6578.200000003,"correct":false,"confidence":2},{"trial_n":101,"n_dots":2.85,"target":"left","response":"right","rt":2743.200000003,"correct":false,"confidence":3},{"trial_n":102,"n_dots":2.95,"target":"right","response":"right","rt":1053.5,"correct":true,"confidence":3},{"trial_n":103,"n_dots":2.95,"target":"right","response":"right","rt":1500.3999999911,"correct":true,"confidence":4},{"trial_n":104,"n_dots":2.85,"target":"right","response":"right","rt":3344.400000006,"correct":true,"confidence":4},{"trial_n":105,"n_dots":2.85,"target":"right","response":"left","rt":2765.200000003,"correct":false,"confidence":2},{"trial_n":106,"n_dots":2.95,"target":"right","response":"left","rt":2669.700000003,"correct":false,"confidence":2},{"trial_n":107,"n_dots":3.05,"target":"right","response":"left","rt":1462,"correct":false,"confidence":4},{"trial_n":108,"n_dots":3.15,"target":"right","response":"right","rt":909.20000000298,"correct":true,"confidence":4},{"trial_n":109,"n_dots":3.15,"target":"left","response":"left","rt":1049,"correct":true,"confidence":5},{"trial_n":110,"n_dots":3.05,"target":"right","response":"left","rt":1387,"correct":false,"confidence":3},{"trial_n":111,"n_dots":3.15,"target":"right","response":"left","rt":1667.5,"correct":false,"confidence":3},{"trial_n":112,"n_dots":3.25,"target":"left","response":"left","rt":582.19999998808,"correct":true,"confidence":5},{"trial_n":113,"n_dots":3.25,"target":"left","response":"left","rt":1218.200000003,"correct":true,"confidence":4},{"trial_n":114,"n_dots":3.15,"target":"left","response":"left","rt":2422.599999994,"correct":true,"confidence":2},{"trial_n":115,"n_dots":3.15,"target":"right","response":"right","rt":833.60000000894,"correct":true,"confidence":3},{"trial_n":116,"n_dots":3.05,"target":"right","response":"left","rt":1641.1000000089,"correct":false,"confidence":3},{"trial_n":117,"n_dots":3.15,"target":"right","response":"left","rt":3450.3000000119,"correct":false,"confidence":2},{"trial_n":118,"n_dots":3.25,"target":"left","response":"left","rt":707,"correct":true,"confidence":5},{"trial_n":119,"n_dots":3.25,"target":"left","response":"left","rt":1528.299999997,"correct":true,"confidence":3},{"trial_n":120,"n_dots":3.15,"target":"right","response":"right","rt":2893.5,"correct":true,"confidence":1}]