[{"trial_n":1,"n_dots":4.25,"target":"left","response":"left","rt":4945.700000003,"correct":true,"confidence":-1},{"trial_n":2,"n_dots":4.25,"target":"right","response":"right","rt":592.39999999851,"correct":true,"confidence":-1},{"trial_n":3,"n_dots":3.85,"target":"right","response":"left","rt":572.70000000298,"correct":false,"confidence":-1},{"trial_n":4,"n_dots":4.25,"target":"left","response":"left","rt":492.09999999404,"correct":true,"confidence":-1},{"trial_n":5,"n_dots":4.25,"target":"left","response":"left","rt":625.89999999851,"correct":true,"confidence":-1},{"trial_n":6,"n_dots":3.85,"target":"left","response":"right","rt":357.80000000447,"correct":false,"confidence":-1},{"trial_n":7,"n_dots":4.25,"target":"right","response":"right","rt":376.20000000298,"correct":true,"confidence":-1},{"trial_n":8,"n_dots":4.25,"target":"left","response":"left","rt":228,"correct":true,"confidence":-1},{"trial_n":9,"n_dots":4.05,"target":"left","response":"left","rt":310.30000000447,"correct":true,"confidence":-1},{"trial_n":10,"n_dots":4.05,"target":"right","response":"right","rt":158.59999999404,"correct":true,"confidence":-1},{"trial_n":11,"n_dots":3.85,"target":"left","response":"left","rt":227.20000000298,"correct":true,"confidence":-1},{"trial_n":12,"n_dots":3.85,"target":"left","response":"left","rt":1003.5,"correct":true,"confidence":-1},{"trial_n":13,"n_dots":3.75,"target":"right","response":"right","rt":61.19999999553,"correct":true,"confidence":-1},{"trial_n":14,"n_dots":3.75,"target":"left","response":"right","rt":893.09999999404,"correct":false,"confidence":-1},{"trial_n":15,"n_dots":3.85,"target":"right","response":"right","rt":447,"correct":true,"confidence":-1},{"trial_n":16,"n_dots":3.85,"target":"left","response":"left","rt":252.90000000596,"correct":true,"confidence":-1},{"trial_n":17,"n_dots":3.75,"target":"left","response":"left","rt":437.09999999404,"correct":true,"confidence":-1},{"trial_n":18,"n_dots":3.75,"target":"left","response":"right","rt":979.5,"correct":false,"confidence":-1},{"trial_n":19,"n_dots":3.85,"target":"left","response":"left","rt":289.80000000447,"correct":true,"confidence":-1},{"trial_n":20,"n_dots":3.85,"target":"right","response":"right","rt":664.20000000298,"correct":true,"confidence":-1},{"trial_n":21,"n_dots":3.75,"target":"right","response":"right","rt":357.39999999851,"correct":true,"confidence":3},{"trial_n":22,"n_dots":3.75,"target":"right","response":"right","rt":342.40000000596,"correct":true,"confidence":4},{"trial_n":23,"n_dots":3.65,"target":"right","response":"right","rt":483.39999999851,"correct":true,"confidence":3},{"trial_n":24,"n_dots":3.65,"target":"right","response":"left","rt":701.19999999553,"correct":false,"confidence":2},{"trial_n":25,"n_dots":3.75,"target":"right","response":"right","rt":312.09999999404,"correct":true,"confidence":4},{"trial_n":26,"n_dots":3.75,"target":"right","response":"right","rt":251.39999999851,"correct":true,"confidence":4},{"trial_n":27,"n_dots":3.65,"target":"right","response":"right","rt":650.89999999851,"correct":true,"confidence":3},{"trial_n":28,"n_dots":3.65,"target":"right","response":"right","rt":412.5,"correct":true,"confidence":3},{"trial_n":29,"n_dots":3.55,"target":"right","response":"right","rt":442,"correct":true,"confidence":3},{"trial_n":30,"n_dots":3.55,"target":"left","response":"left","rt":524.70000000298,"correct":true,"confidence":3},{"trial_n":31,"n_dots":3.45,"target":"right","response":"right","rt":392.39999999851,"correct":true,"confidence":2},{"trial_n":32,"n_dots":3.45,"target":"right","response":"right","rt":207.5,"correct":true,"confidence":3},{"trial_n":33,"n_dots":3.35,"target":"right","response":"right","rt":482.59999999404,"correct":true,"confidence":1},{"trial_n":34,"n_dots":3.35,"target":"right","response":"right","rt":1644.1999999955,"correct":true,"confidence":3},{"trial_n":35,"n_dots":3.25,"target":"left","response":"left","rt":645.59999999404,"correct":true,"confidence":2},{"trial_n":36,"n_dots":3.25,"target":"right","response":"left","rt":344.5,"correct":false,"confidence":2},{"trial_n":37,"n_dots":3.35,"target":"left","response":"right","rt":245.89999999851,"correct":false,"confidence":2},{"trial_n":38,"n_dots":3.45,"target":"right","response":"right","rt":341.10000000149,"correct":true,"confidence":3},{"trial_n":39,"n_dots":3.45,"target":"right","response":"right","rt":506,"correct":true,"confidence":3},{"trial_n":40,"n_dots":3.35,"target":"left","response":"left","rt":306.60000000149,"correct":true,"confidence":4},{"trial_n":41,"n_dots":3.35,"target":"left","response":"left","rt":2851,"correct":true,"confidence":3},{"trial_n":42,"n_dots":3.25,"target":"left","response":"left","rt":1052.200000003,"correct":true,"confidence":3},{"trial_n":43,"n_dots":3.25,"target":"right","response":"left","rt":856.60000000149,"correct":false,"confidence":2},{"trial_n":44,"n_dots":3.35,"target":"right","response":"right","rt":734.69999999553,"correct":true,"confidence":2},{"trial_n":45,"n_dots":3.35,"target":"left","response":"left","rt":466.5,"correct":true,"confidence":3},{"trial_n":46,"n_dots":3.25,"target":"right","response":"right","rt":783.09999999404,"correct":true,"confidence":3},{"trial_n":47,"n_dots":3.25,"target":"left","response":"left","rt":605.69999999553,"correct":true,"confidence":3},{"trial_n":48,"n_dots":3.15,"target":"left","response":"right","rt":1009.3999999985,"correct":false,"confidence":1},{"trial_n":49,"n_dots":3.25,"target":"right","response":"right","rt":682.79999999702,"correct":true,"confidence":3},{"trial_n":50,"n_dots":3.25,"target":"left","response":"left","rt":707.39999999851,"correct":true,"confidence":3},{"trial_n":51,"n_dots":3.15,"target":"right","response":"right","rt":550.20000000298,"correct":true,"confidence":3},{"trial_n":52,"n_dots":3.15,"target":"right","response":"left","rt":337.20000000298,"correct":false,"confidence":2},{"trial_n":53,"n_dots":3.25,"target":"right","response":"right","rt":1277.200000003,"correct":true,"confidence":2},{"trial_n":54,"n_dots":3.25,"target":"left","response":"left","rt":7351.200000003,"correct":true,"confidence":2},{"trial_n":55,"n_dots":3.15,"target":"left","response":"right","rt":1137,"correct":false,"confidence":1},{"trial_n":56,"n_dots":3.25,"target":"left","response":"right","rt":878.10000000149,"correct":false,"confidence":1},{"trial_n":57,"n_dots":3.35,"target":"right","response":"left","rt":755.90000000596,"correct":false,"confidence":2},{"trial_n":58,"n_dots":3.45,"target":"left","response":"left","rt":563.29999999702,"correct":true,"confidence":2},{"trial_n":59,"n_dots":3.45,"target":"left","response":"left","rt":743.10000000149,"correct":true,"confidence":4},{"trial_n":60,"n_dots":3.35,"target":"right","response":"left","rt":4889.799999997,"correct":false,"confidence":1},{"trial_n":61,"n_dots":3.45,"target":"left","response":"left","rt":1433.299999997,"correct":true,"confidence":1},{"trial_n":62,"n_dots":3.45,"target":"left","response":"left","rt":721.20000000298,"correct":true,"confidence":3},{"trial_n":63,"n_dots":3.35,"target":"left","response":"left","rt":997.59999999404,"correct":true,"confidence":1},{"trial_n":64,"n_dots":3.35,"target":"right","response":"right","rt":787.5,"correct":true,"confidence":3},{"trial_n":65,"n_dots":3.25,"target":"right","response":"left","rt":954.60000000149,"correct":false,"confidence":3},{"trial_n":66,"n_dots":3.35,"target":"left","response":"right","rt":352.60000000149,"correct":false,"confidence":3},{"trial_n":67,"n_dots":3.45,"target":"left","response":"left","rt":539.39999999851,"correct":true,"confidence":1},{"trial_n":68,"n_dots":3.45,"target":"left","response":"right","rt":2853.200000003,"correct":false,"confidence":2},{"trial_n":69,"n_dots":3.55,"target":"left","response":"right","rt":740.60000000149,"correct":false,"confidence":2},{"trial_n":70,"n_dots":3.65,"target":"right","response":"right","rt":1118.8000000045,"correct":true,"confidence":2},{"trial_n":71,"n_dots":3.65,"target":"right","response":"right","rt":609,"correct":true,"confidence":3},{"trial_n":72,"n_dots":3.55,"target":"right","response":"right","rt":618.29999999702,"correct":true,"confidence":3},{"trial_n":73,"n_dots":3.55,"target":"right","response":"right","rt":871.39999999851,"correct":true,"confidence":3},{"trial_n":74,"n_dots":3.45,"target":"left","response":"left","rt":652.5,"correct":true,"confidence":3},{"trial_n":75,"n_dots":3.45,"target":"left","response":"left","rt":1806.700000003,"correct":true,"confidence":3},{"trial_n":76,"n_dots":3.35,"target":"right","response":"right","rt":300.89999999851,"correct":true,"confidence":2},{"trial_n":77,"n_dots":3.35,"target":"left","response":"left","rt":424.30000000447,"correct":true,"confidence":4},{"trial_n":78,"n_dots":3.25,"target":"right","response":"right","rt":556.70000000298,"correct":true,"confidence":5},{"trial_n":79,"n_dots":3.25,"target":"right","response":"right","rt":1192.1999999955,"correct":true,"confidence":4},{"trial_n":80,"n_dots":3.15,"target":"right","response":"left","rt":8892.1000000015,"correct":false,"confidence":2},{"trial_n":81,"n_dots":3.25,"target":"right","response":"right","rt":552.79999999702,"correct":true,"confidence":3},{"trial_n":82,"n_dots":3.25,"target":"right","response":"right","rt":605,"correct":true,"confidence":4},{"trial_n":83,"n_dots":3.15,"target":"left","response":"left","rt":818.89999999851,"correct":true,"confidence":4},{"trial_n":84,"n_dots":3.15,"target":"left","response":"left","rt":1196.3999999985,"correct":true,"confidence":2},{"trial_n":85,"n_dots":3.05,"target":"left","response":"right","rt":952,"correct":false,"confidence":2},{"trial_n":86,"n_dots":3.15,"target":"left","response":"left","rt":371.20000000298,"correct":true,"confidence":4},{"trial_n":87,"n_dots":3.15,"target":"right","response":"right","rt":558.69999999553,"correct":true,"confidence":4},{"trial_n":88,"n_dots":3.05,"target":"left","response":"left","rt":934.5,"correct":true,"confidence":1},{"trial_n":89,"n_dots":3.05,"target":"left","response":"left","rt":639.60000000149,"correct":true,"confidence":1},{"trial_n":90,"n_dots":2.95,"target":"right","response":"right","rt":776.5,"correct":true,"confidence":3},{"trial_n":91,"n_dots":2.95,"target":"left","response":"right","rt":790.10000000149,"correct":false,"confidence":1},{"trial_n":92,"n_dots":3.05,"target":"right","response":"left","rt":1212.8000000045,"correct":false,"confidence":2},{"trial_n":93,"n_dots":3.15,"target":"right","response":"right","rt":637.80000000447,"correct":true,"confidence":1},{"trial_n":94,"n_dots":3.15,"target":"left","response":"left","rt":509.29999999702,"correct":true,"confidence":2},{"trial_n":95,"n_dots":3.05,"target":"left","response":"left","rt":292.89999999851,"correct":true,"confidence":4},{"trial_n":96,"n_dots":3.05,"target":"right","response":"right","rt":806,"correct":true,"confidence":3},{"trial_n":97,"n_dots":2.95,"target":"left","response":"left","rt":603.09999999404,"correct":true,"confidence":3},{"trial_n":98,"n_dots":2.95,"target":"left","response":"left","rt":386.09999999404,"correct":true,"confidence":3},{"trial_n":99,"n_dots":2.85,"target":"left","response":"right","rt":982,"correct":false,"confidence":1},{"trial_n":100,"n_dots":2.95,"target":"left","response":"right","rt":614.39999999851,"correct":false,"confidence":3},{"trial_n":101,"n_dots":3.05,"target":"right","response":"left","rt":358.20000000298,"correct":false,"confidence":1},{"trial_n":102,"n_dots":3.15,"target":"left","response":"left","rt":571.60000000149,"correct":true,"confidence":3},{"trial_n":103,"n_dots":3.15,"target":"right","response":"right","rt":552.10000000149,"correct":true,"confidence":2},{"trial_n":104,"n_dots":3.05,"target":"left","response":"left","rt":244.60000000149,"correct":true,"confidence":4},{"trial_n":105,"n_dots":3.05,"target":"left","response":"left","rt":2482.6000000015,"correct":true,"confidence":1},{"trial_n":106,"n_dots":2.95,"target":"left","response":"left","rt":888.60000000149,"correct":true,"confidence":2},{"trial_n":107,"n_dots":2.95,"target":"right","response":"right","rt":649.10000000149,"correct":true,"confidence":1},{"trial_n":108,"n_dots":2.85,"target":"right","response":"right","rt":958.69999999553,"correct":true,"confidence":2},{"trial_n":109,"n_dots":2.85,"target":"right","response":"right","rt":387.29999999702,"correct":true,"confidence":4},{"trial_n":110,"n_dots":2.75,"target":"left","response":"left","rt":572,"correct":true,"confidence":3},{"trial_n":111,"n_dots":2.75,"target":"right","response":"left","rt":592.70000000298,"correct":false,"confidence":1},{"trial_n":112,"n_dots":2.85,"target":"left","response":"left","rt":948.60000000149,"correct":true,"confidence":3},{"trial_n":113,"n_dots":2.85,"target":"right","response":"left","rt":1314.299999997,"correct":false,"confidence":1},{"trial_n":114,"n_dots":2.95,"target":"right","response":"right","rt":2586.3999999985,"correct":true,"confidence":2},{"trial_n":115,"n_dots":2.95,"target":"right","response":"right","rt":598.5,"correct":true,"confidence":4},{"trial_n":116,"n_dots":2.85,"target":"right","response":"right","rt":1062.5,"correct":true,"confidence":3},{"trial_n":117,"n_dots":2.85,"target":"left","response":"left","rt":524.30000000447,"correct":true,"confidence":1},{"trial_n":118,"n_dots":2.75,"target":"right","response":"right","rt":768.60000000149,"correct":true,"confidence":4},{"trial_n":119,"n_dots":2.75,"target":"left","response":"left","rt":743.89999999851,"correct":true,"confidence":1},{"trial_n":120,"n_dots":2.65,"target":"left","response":"left","rt":1142.299999997,"correct":true,"confidence":3}]