[{"trial_n":1,"n_dots":4.25,"target":"right","response":"right","rt":3150,"correct":true,"confidence":-1},{"trial_n":2,"n_dots":4.25,"target":"left","response":"right","rt":1578,"correct":false,"confidence":-1},{"trial_n":3,"n_dots":4.65,"target":"left","response":"left","rt":890,"correct":true,"confidence":-1},{"trial_n":4,"n_dots":4.65,"target":"right","response":"right","rt":780,"correct":true,"confidence":-1},{"trial_n":5,"n_dots":4.25,"target":"right","response":"right","rt":829,"correct":true,"confidence":-1},{"trial_n":6,"n_dots":4.25,"target":"left","response":"right","rt":816,"correct":false,"confidence":-1},{"trial_n":7,"n_dots":4.65,"target":"right","response":"right","rt":698,"correct":true,"confidence":-1},{"trial_n":8,"n_dots":4.65,"target":"left","response":"left","rt":434,"correct":true,"confidence":-1},{"trial_n":9,"n_dots":4.45,"target":"right","response":"right","rt":531,"correct":true,"confidence":-1},{"trial_n":10,"n_dots":4.45,"target":"right","response":"right","rt":873,"correct":true,"confidence":-1},{"trial_n":11,"n_dots":4.25,"target":"left","response":"left","rt":254,"correct":true,"confidence":-1},{"trial_n":12,"n_dots":4.25,"target":"right","response":"right","rt":351.99999999999,"correct":true,"confidence":-1},{"trial_n":13,"n_dots":4.15,"target":"right","response":"left","rt":402,"correct":false,"confidence":-1},{"trial_n":14,"n_dots":4.25,"target":"right","response":"right","rt":206,"correct":true,"confidence":-1},{"trial_n":15,"n_dots":4.25,"target":"left","response":"left","rt":292.00000000001,"correct":true,"confidence":-1},{"trial_n":16,"n_dots":4.15,"target":"right","response":"right","rt":128.99999999999,"correct":true,"confidence":-1},{"trial_n":17,"n_dots":4.15,"target":"right","response":"right","rt":139,"correct":true,"confidence":-1},{"trial_n":18,"n_dots":4.05,"target":"right","response":"right","rt":365,"correct":true,"confidence":-1},{"trial_n":19,"n_dots":4.05,"target":"right","response":"right","rt":304,"correct":true,"confidence":-1},{"trial_n":20,"n_dots":3.95,"target":"right","response":"right","rt":42,"correct":true,"confidence":-1},{"trial_n":21,"n_dots":3.95,"target":"right","response":"right","rt":688.00000000001,"correct":true,"confidence":3},{"trial_n":22,"n_dots":3.85,"target":"left","response":"left","rt":609,"correct":true,"confidence":3},{"trial_n":23,"n_dots":3.85,"target":"right","response":"right","rt":630,"correct":true,"confidence":3},{"trial_n":24,"n_dots":3.75,"target":"right","response":"right","rt":1458,"correct":true,"confidence":3},{"trial_n":25,"n_dots":3.75,"target":"left","response":"left","rt":521,"correct":true,"confidence":3},{"trial_n":26,"n_dots":3.65,"target":"left","response":"right","rt":567.00000000001,"correct":false,"confidence":3},{"trial_n":27,"n_dots":3.75,"target":"right","response":"right","rt":634,"correct":true,"confidence":3},{"trial_n":28,"n_dots":3.75,"target":"left","response":"left","rt":3934,"correct":true,"confidence":2},{"trial_n":29,"n_dots":3.65,"target":"right","response":"right","rt":1345,"correct":true,"confidence":3},{"trial_n":30,"n_dots":3.65,"target":"right","response":"right","rt":1687,"correct":true,"confidence":3},{"trial_n":31,"n_dots":3.55,"target":"right","response":"left","rt":1663,"correct":false,"confidence":2},{"trial_n":32,"n_dots":3.65,"target":"left","response":"left","rt":1210,"correct":true,"confidence":4},{"trial_n":33,"n_dots":3.65,"target":"right","response":"left","rt":1753,"correct":false,"confidence":3},{"trial_n":34,"n_dots":3.75,"target":"right","response":"right","rt":360,"correct":true,"confidence":3},{"trial_n":35,"n_dots":3.75,"target":"right","response":"right","rt":500,"correct":true,"confidence":3},{"trial_n":36,"n_dots":3.65,"target":"left","response":"left","rt":1100,"correct":true,"confidence":3},{"trial_n":37,"n_dots":3.65,"target":"left","response":"left","rt":925,"correct":true,"confidence":3},{"trial_n":38,"n_dots":3.55,"target":"left","response":"left","rt":479,"correct":true,"confidence":3},{"trial_n":39,"n_dots":3.55,"target":"left","response":"left","rt":467.99999999997,"correct":true,"confidence":3},{"trial_n":40,"n_dots":3.45,"target":"left","response":"left","rt":447.00000000003,"correct":true,"confidence":3},{"trial_n":41,"n_dots":3.45,"target":"left","response":"right","rt":1042,"correct":false,"confidence":3},{"trial_n":42,"n_dots":3.55,"target":"left","response":"left","rt":872,"correct":true,"confidence":2},{"trial_n":43,"n_dots":3.55,"target":"left","response":"left","rt":788.00000000003,"correct":true,"confidence":3},{"trial_n":44,"n_dots":3.45,"target":"right","response":"right","rt":1142,"correct":true,"confidence":3},{"trial_n":45,"n_dots":3.45,"target":"right","response":"right","rt":661,"correct":true,"confidence":3},{"trial_n":46,"n_dots":3.35,"target":"right","response":"right","rt":662.99999999997,"correct":true,"confidence":3},{"trial_n":47,"n_dots":3.35,"target":"right","response":"right","rt":928,"correct":true,"confidence":3},{"trial_n":48,"n_dots":3.25,"target":"right","response":"right","rt":826,"correct":true,"confidence":3},{"trial_n":49,"n_dots":3.25,"target":"right","response":"right","rt":1008,"correct":true,"confidence":3},{"trial_n":50,"n_dots":3.15,"target":"right","response":"right","rt":1367,"correct":true,"confidence":3},{"trial_n":51,"n_dots":3.15,"target":"left","response":"left","rt":820,"correct":true,"confidence":3},{"trial_n":52,"n_dots":3.05,"target":"right","response":"right","rt":533,"correct":true,"confidence":3},{"trial_n":53,"n_dots":3.05,"target":"left","response":"right","rt":1356,"correct":false,"confidence":3},{"trial_n":54,"n_dots":3.15,"target":"left","response":"right","rt":697.00000000003,"correct":false,"confidence":3},{"trial_n":55,"n_dots":3.25,"target":"right","response":"left","rt":752,"correct":false,"confidence":3},{"trial_n":56,"n_dots":3.35,"target":"left","response":"left","rt":917,"correct":true,"confidence":3},{"trial_n":57,"n_dots":3.35,"target":"left","response":"right","rt":660,"correct":false,"confidence":3},{"trial_n":58,"n_dots":3.45,"target":"left","response":"right","rt":694,"correct":false,"confidence":2},{"trial_n":59,"n_dots":3.55,"target":"right","response":"right","rt":454,"correct":true,"confidence":4},{"trial_n":60,"n_dots":3.55,"target":"left","response":"left","rt":1499,"correct":true,"confidence":3},{"trial_n":61,"n_dots":3.45,"target":"right","response":"right","rt":1016.0000000001,"correct":true,"confidence":3},{"trial_n":62,"n_dots":3.45,"target":"left","response":"right","rt":699,"correct":false,"confidence":3},{"trial_n":63,"n_dots":3.55,"target":"right","response":"right","rt":1457,"correct":true,"confidence":3},{"trial_n":64,"n_dots":3.55,"target":"right","response":"right","rt":1309,"correct":true,"confidence":3},{"trial_n":65,"n_dots":3.45,"target":"left","response":"left","rt":784,"correct":true,"confidence":3},{"trial_n":66,"n_dots":3.45,"target":"left","response":"right","rt":610,"correct":false,"confidence":3},{"trial_n":67,"n_dots":3.55,"target":"right","response":"right","rt":239,"correct":true,"confidence":3},{"trial_n":68,"n_dots":3.55,"target":"right","response":"right","rt":161,"correct":true,"confidence":2},{"trial_n":69,"n_dots":3.45,"target":"left","response":"left","rt":1137.0000000001,"correct":true,"confidence":4},{"trial_n":70,"n_dots":3.45,"target":"right","response":"right","rt":35,"correct":true,"confidence":3},{"trial_n":71,"n_dots":3.35,"target":"right","response":"right","rt":565,"correct":true,"confidence":1},{"trial_n":72,"n_dots":3.35,"target":"left","response":"left","rt":301,"correct":true,"confidence":3},{"trial_n":73,"n_dots":3.25,"target":"right","response":"right","rt":918,"correct":true,"confidence":1},{"trial_n":74,"n_dots":3.25,"target":"right","response":"right","rt":740.00000000006,"correct":true,"confidence":3},{"trial_n":75,"n_dots":3.15,"target":"left","response":"left","rt":498,"correct":true,"confidence":3},{"trial_n":76,"n_dots":3.15,"target":"left","response":"left","rt":322.99999999994,"correct":true,"confidence":3},{"trial_n":77,"n_dots":3.05,"target":"right","response":"left","rt":132.00000000006,"correct":false,"confidence":3},{"trial_n":78,"n_dots":3.15,"target":"left","response":"left","rt":886,"correct":true,"confidence":3},{"trial_n":79,"n_dots":3.15,"target":"left","response":"right","rt":429,"correct":false,"confidence":3},{"trial_n":80,"n_dots":3.25,"target":"left","response":"left","rt":176,"correct":true,"confidence":3},{"trial_n":81,"n_dots":3.25,"target":"right","response":"right","rt":728,"correct":true,"confidence":4},{"trial_n":82,"n_dots":3.15,"target":"left","response":"left","rt":625,"correct":true,"confidence":3},{"trial_n":83,"n_dots":3.15,"target":"left","response":"left","rt":467.00000000006,"correct":true,"confidence":3},{"trial_n":84,"n_dots":3.05,"target":"right","response":"right","rt":521,"correct":true,"confidence":3},{"trial_n":85,"n_dots":3.05,"target":"left","response":"left","rt":501,"correct":true,"confidence":3},{"trial_n":86,"n_dots":2.95,"target":"left","response":"right","rt":647,"correct":false,"confidence":3},{"trial_n":87,"n_dots":3.05,"target":"right","response":"right","rt":1064,"correct":true,"confidence":3},{"trial_n":88,"n_dots":3.05,"target":"left","response":"left","rt":852,"correct":true,"confidence":3},{"trial_n":89,"n_dots":2.95,"target":"right","response":"right","rt":101.99999999994,"correct":true,"confidence":3},{"trial_n":90,"n_dots":2.95,"target":"left","response":"left","rt":366,"correct":true,"confidence":3},{"trial_n":91,"n_dots":2.85,"target":"right","response":"right","rt":745,"correct":true,"confidence":3},{"trial_n":92,"n_dots":2.85,"target":"left","response":"left","rt":1050.0000000001,"correct":true,"confidence":3},{"trial_n":93,"n_dots":2.75,"target":"left","response":"right","rt":78.000000000058,"correct":false,"confidence":3},{"trial_n":94,"n_dots":2.85,"target":"right","response":"left","rt":876,"correct":false,"confidence":3},{"trial_n":95,"n_dots":2.95,"target":"left","response":"right","rt":2542,"correct":false,"confidence":2},{"trial_n":96,"n_dots":3.05,"target":"left","response":"left","rt":160,"correct":true,"confidence":2},{"trial_n":97,"n_dots":3.05,"target":"left","response":"left","rt":1356,"correct":true,"confidence":2},{"trial_n":98,"n_dots":2.95,"target":"right","response":"right","rt":1004,"correct":true,"confidence":3},{"trial_n":99,"n_dots":2.95,"target":"left","response":"left","rt":548,"correct":true,"confidence":3},{"trial_n":100,"n_dots":2.85,"target":"left","response":"left","rt":782.00000000006,"correct":true,"confidence":2},{"trial_n":101,"n_dots":2.85,"target":"right","response":"right","rt":472,"correct":true,"confidence":2},{"trial_n":102,"n_dots":2.75,"target":"left","response":"left","rt":612,"correct":true,"confidence":2},{"trial_n":103,"n_dots":2.75,"target":"right","response":"right","rt":81,"correct":true,"confidence":3},{"trial_n":104,"n_dots":2.65,"target":"left","response":"left","rt":497.00000000006,"correct":true,"confidence":3},{"trial_n":105,"n_dots":2.65,"target":"right","response":"right","rt":419.00000000006,"correct":true,"confidence":3},{"trial_n":106,"n_dots":2.55,"target":"left","response":"left","rt":149,"correct":true,"confidence":3},{"trial_n":107,"n_dots":2.55,"target":"left","response":"left","rt":791,"correct":true,"confidence":4},{"trial_n":108,"n_dots":2.45,"target":"left","response":"right","rt":2089,"correct":false,"confidence":2},{"trial_n":109,"n_dots":2.55,"target":"left","response":"left","rt":1020,"correct":true,"confidence":3},{"trial_n":110,"n_dots":2.55,"target":"right","response":"right","rt":327.99999999994,"correct":true,"confidence":3},{"trial_n":111,"n_dots":2.45,"target":"right","response":"left","rt":154,"correct":false,"confidence":1},{"trial_n":112,"n_dots":2.55,"target":"right","response":"left","rt":850,"correct":false,"confidence":3},{"trial_n":113,"n_dots":2.65,"target":"left","response":"left","rt":623,"correct":true,"confidence":2},{"trial_n":114,"n_dots":2.65,"target":"left","response":"left","rt":532,"correct":true,"confidence":3},{"trial_n":115,"n_dots":2.55,"target":"left","response":"right","rt":459.00000000006,"correct":false,"confidence":3},{"trial_n":116,"n_dots":2.65,"target":"right","response":"right","rt":242,"correct":true,"confidence":3},{"trial_n":117,"n_dots":2.65,"target":"right","response":"right","rt":1297,"correct":true,"confidence":3},{"trial_n":118,"n_dots":2.55,"target":"left","response":"left","rt":755,"correct":true,"confidence":3},{"trial_n":119,"n_dots":2.55,"target":"right","response":"left","rt":634.00000000006,"correct":false,"confidence":3},{"trial_n":120,"n_dots":2.65,"target":"left","response":"left","rt":917.00000000006,"correct":true,"confidence":3}]