[{"trial_n":1,"min":25,"max":230,"target":"present","response":"present","rt":4626,"correct":true,"confidence":-1},{"trial_n":2,"min":25,"max":230,"target":"present","response":"present","rt":2047,"correct":true,"confidence":-1},{"trial_n":3,"min":41,"max":214,"target":"absent","response":"absent","rt":1350,"correct":true,"confidence":-1},{"trial_n":4,"min":41,"max":214,"target":"absent","response":"absent","rt":1024,"correct":true,"confidence":-1},{"trial_n":5,"min":57,"max":198,"target":"present","response":"absent","rt":836,"correct":false,"confidence":-1},{"trial_n":6,"min":41,"max":214,"target":"present","response":"present","rt":1332,"correct":true,"confidence":-1},{"trial_n":7,"min":41,"max":214,"target":"present","response":"present","rt":743,"correct":true,"confidence":-1},{"trial_n":8,"min":57,"max":198,"target":"present","response":"present","rt":631,"correct":true,"confidence":-1},{"trial_n":9,"min":57,"max":198,"target":"absent","response":"absent","rt":1059,"correct":true,"confidence":-1},{"trial_n":10,"min":73,"max":182,"target":"present","response":"absent","rt":634,"correct":false,"confidence":-1},{"trial_n":11,"min":65,"max":190,"target":"present","response":"present","rt":1389,"correct":true,"confidence":-1},{"trial_n":12,"min":65,"max":190,"target":"absent","response":"absent","rt":1270,"correct":true,"confidence":-1},{"trial_n":13,"min":73,"max":182,"target":"present","response":"absent","rt":568.99999999999,"correct":false,"confidence":-1},{"trial_n":14,"min":65,"max":190,"target":"absent","response":"absent","rt":843,"correct":true,"confidence":-1},{"trial_n":15,"min":65,"max":190,"target":"present","response":"present","rt":1087,"correct":true,"confidence":-1},{"trial_n":16,"min":73,"max":182,"target":"absent","response":"absent","rt":1169,"correct":true,"confidence":-1},{"trial_n":17,"min":73,"max":182,"target":"absent","response":"present","rt":1085,"correct":false,"confidence":-1},{"trial_n":18,"min":65,"max":190,"target":"present","response":"absent","rt":1210,"correct":false,"confidence":-1},{"trial_n":19,"min":57,"max":198,"target":"present","response":"present","rt":1177,"correct":true,"confidence":-1},{"trial_n":20,"min":57,"max":198,"target":"present","response":"present","rt":1905,"correct":true,"confidence":-1},{"trial_n":21,"min":61,"max":194,"target":"absent","response":"present","rt":1899,"correct":false,"confidence":2},{"trial_n":22,"min":57,"max":198,"target":"absent","response":"absent","rt":5380,"correct":true,"confidence":3},{"trial_n":23,"min":57,"max":198,"target":"absent","response":"absent","rt":1958,"correct":true,"confidence":3},{"trial_n":24,"min":61,"max":194,"target":"present","response":"present","rt":1550,"correct":true,"confidence":2},{"trial_n":25,"min":61,"max":194,"target":"absent","response":"absent","rt":1666,"correct":true,"confidence":3},{"trial_n":26,"min":65,"max":190,"target":"absent","response":"present","rt":30563,"correct":false,"confidence":2},{"trial_n":27,"min":61,"max":194,"target":"present","response":"present","rt":1329,"correct":true,"confidence":4},{"trial_n":28,"min":61,"max":194,"target":"absent","response":"absent","rt":1245,"correct":true,"confidence":3},{"trial_n":29,"min":65,"max":190,"target":"present","response":"present","rt":943,"correct":true,"confidence":5},{"trial_n":30,"min":65,"max":190,"target":"present","response":"present","rt":1181,"correct":true,"confidence":5},{"trial_n":31,"min":67,"max":188,"target":"present","response":"absent","rt":2172,"correct":false,"confidence":3},{"trial_n":32,"min":65,"max":190,"target":"absent","response":"absent","rt":1140,"correct":true,"confidence":3},{"trial_n":33,"min":65,"max":190,"target":"present","response":"present","rt":1243,"correct":true,"confidence":3},{"trial_n":34,"min":67,"max":188,"target":"present","response":"present","rt":1318,"correct":true,"confidence":3},{"trial_n":35,"min":67,"max":188,"target":"absent","response":"present","rt":1385,"correct":false,"confidence":3},{"trial_n":36,"min":65,"max":190,"target":"present","response":"present","rt":973,"correct":true,"confidence":5},{"trial_n":37,"min":65,"max":190,"target":"present","response":"present","rt":743,"correct":true,"confidence":4},{"trial_n":38,"min":67,"max":188,"target":"absent","response":"absent","rt":2198,"correct":true,"confidence":4},{"trial_n":39,"min":67,"max":188,"target":"absent","response":"absent","rt":1718,"correct":true,"confidence":3},{"trial_n":40,"min":69,"max":186,"target":"absent","response":"absent","rt":1432,"correct":true,"confidence":3},{"trial_n":41,"min":69,"max":186,"target":"absent","response":"absent","rt":1162,"correct":true,"confidence":4},{"trial_n":42,"min":70,"max":185,"target":"absent","response":"absent","rt":827,"correct":true,"confidence":4},{"trial_n":43,"min":70,"max":185,"target":"present","response":"present","rt":1161,"correct":true,"confidence":5},{"trial_n":44,"min":71,"max":184,"target":"absent","response":"absent","rt":935,"correct":true,"confidence":4},{"trial_n":45,"min":71,"max":184,"target":"present","response":"present","rt":1037,"correct":true,"confidence":5},{"trial_n":46,"min":72,"max":183,"target":"present","response":"present","rt":1819,"correct":true,"confidence":5},{"trial_n":47,"min":72,"max":183,"target":"absent","response":"absent","rt":1466,"correct":true,"confidence":4},{"trial_n":48,"min":73,"max":182,"target":"present","response":"present","rt":738,"correct":true,"confidence":5},{"trial_n":49,"min":73,"max":182,"target":"absent","response":"absent","rt":925,"correct":true,"confidence":4},{"trial_n":50,"min":74,"max":181,"target":"present","response":"present","rt":765,"correct":true,"confidence":5},{"trial_n":51,"min":74,"max":181,"target":"absent","response":"absent","rt":1219,"correct":true,"confidence":3},{"trial_n":52,"min":75,"max":180,"target":"absent","response":"absent","rt":1105,"correct":true,"confidence":4},{"trial_n":53,"min":75,"max":180,"target":"present","response":"present","rt":714,"correct":true,"confidence":4},{"trial_n":54,"min":76,"max":179,"target":"absent","response":"absent","rt":773.00000000006,"correct":true,"confidence":4},{"trial_n":55,"min":76,"max":179,"target":"absent","response":"absent","rt":1300,"correct":true,"confidence":3},{"trial_n":56,"min":77,"max":178,"target":"present","response":"present","rt":973,"correct":true,"confidence":5},{"trial_n":57,"min":77,"max":178,"target":"present","response":"absent","rt":718,"correct":false,"confidence":3},{"trial_n":58,"min":76,"max":179,"target":"absent","response":"absent","rt":688,"correct":true,"confidence":3},{"trial_n":59,"min":76,"max":179,"target":"absent","response":"absent","rt":368,"correct":true,"confidence":3},{"trial_n":60,"min":77,"max":178,"target":"absent","response":"absent","rt":786,"correct":true,"confidence":3},{"trial_n":61,"min":77,"max":178,"target":"present","response":"present","rt":1070,"correct":true,"confidence":4},{"trial_n":62,"min":78,"max":177,"target":"absent","response":"present","rt":1299.0000000001,"correct":false,"confidence":4},{"trial_n":63,"min":77,"max":178,"target":"present","response":"present","rt":747,"correct":true,"confidence":1},{"trial_n":64,"min":77,"max":178,"target":"absent","response":"present","rt":3860,"correct":false,"confidence":4},{"trial_n":65,"min":76,"max":179,"target":"absent","response":"present","rt":587,"correct":false,"confidence":1},{"trial_n":66,"min":75,"max":180,"target":"present","response":"present","rt":1753.0000000001,"correct":true,"confidence":4},{"trial_n":67,"min":75,"max":180,"target":"present","response":"present","rt":417.00000000006,"correct":true,"confidence":4},{"trial_n":68,"min":76,"max":179,"target":"absent","response":"absent","rt":829,"correct":true,"confidence":4},{"trial_n":69,"min":76,"max":179,"target":"present","response":"present","rt":1057.9999999999,"correct":true,"confidence":4},{"trial_n":70,"min":77,"max":178,"target":"present","response":"present","rt":566,"correct":true,"confidence":4},{"trial_n":71,"min":41,"max":214,"target":"present","response":"present","rt":2261.0000000001,"correct":true,"confidence":-1},{"trial_n":72,"min":41,"max":214,"target":"present","response":"present","rt":499,"correct":true,"confidence":-1},{"trial_n":73,"min":57,"max":198,"target":"absent","response":"absent","rt":890,"correct":true,"confidence":-1},{"trial_n":74,"min":57,"max":198,"target":"absent","response":"present","rt":608,"correct":false,"confidence":-1},{"trial_n":75,"min":41,"max":214,"target":"present","response":"present","rt":471,"correct":true,"confidence":-1},{"trial_n":76,"min":41,"max":214,"target":"present","response":"present","rt":364,"correct":true,"confidence":-1},{"trial_n":77,"min":57,"max":198,"target":"absent","response":"absent","rt":385,"correct":true,"confidence":-1},{"trial_n":78,"min":57,"max":198,"target":"present","response":"present","rt":245,"correct":true,"confidence":-1},{"trial_n":79,"min":73,"max":182,"target":"absent","response":"present","rt":413,"correct":false,"confidence":-1},{"trial_n":80,"min":57,"max":198,"target":"present","response":"absent","rt":739.00000000006,"correct":false,"confidence":-1},{"trial_n":81,"min":49,"max":206,"target":"present","response":"present","rt":91.000000000058,"correct":true,"confidence":-1},{"trial_n":82,"min":49,"max":206,"target":"present","response":"present","rt":211.00000000006,"correct":true,"confidence":-1},{"trial_n":83,"min":57,"max":198,"target":"present","response":"present","rt":429,"correct":true,"confidence":-1},{"trial_n":84,"min":57,"max":198,"target":"present","response":"present","rt":353,"correct":true,"confidence":-1},{"trial_n":85,"min":65,"max":190,"target":"present","response":"present","rt":186,"correct":true,"confidence":-1},{"trial_n":86,"min":65,"max":190,"target":"absent","response":"present","rt":313,"correct":false,"confidence":-1},{"trial_n":87,"min":57,"max":198,"target":"present","response":"present","rt":352,"correct":true,"confidence":-1},{"trial_n":88,"min":57,"max":198,"target":"present","response":"present","rt":472,"correct":true,"confidence":-1},{"trial_n":89,"min":65,"max":190,"target":"present","response":"present","rt":521.99999999994,"correct":true,"confidence":-1},{"trial_n":90,"min":65,"max":190,"target":"absent","response":"absent","rt":273,"correct":true,"confidence":-1},{"trial_n":91,"min":69,"max":186,"target":"present","response":"present","rt":653,"correct":true,"confidence":3},{"trial_n":92,"min":69,"max":186,"target":"present","response":"present","rt":443.99999999994,"correct":true,"confidence":3},{"trial_n":93,"min":73,"max":182,"target":"absent","response":"present","rt":484,"correct":false,"confidence":3},{"trial_n":94,"min":69,"max":186,"target":"present","response":"present","rt":502.99999999994,"correct":true,"confidence":3},{"trial_n":95,"min":69,"max":186,"target":"present","response":"present","rt":346,"correct":true,"confidence":3},{"trial_n":96,"min":73,"max":182,"target":"present","response":"present","rt":387,"correct":true,"confidence":3},{"trial_n":97,"min":73,"max":182,"target":"absent","response":"absent","rt":745.99999999994,"correct":true,"confidence":1},{"trial_n":98,"min":77,"max":178,"target":"absent","response":"absent","rt":1214,"correct":true,"confidence":1},{"trial_n":99,"min":77,"max":178,"target":"present","response":"absent","rt":1222,"correct":false,"confidence":2},{"trial_n":100,"min":73,"max":182,"target":"absent","response":"absent","rt":1267.9999999999,"correct":true,"confidence":1},{"trial_n":101,"min":73,"max":182,"target":"absent","response":"present","rt":670,"correct":false,"confidence":2},{"trial_n":102,"min":71,"max":184,"target":"absent","response":"present","rt":912.00000000006,"correct":false,"confidence":1},{"trial_n":103,"min":69,"max":186,"target":"absent","response":"present","rt":43,"correct":false,"confidence":1},{"trial_n":104,"min":67,"max":188,"target":"present","response":"present","rt":459.00000000006,"correct":true,"confidence":1},{"trial_n":105,"min":67,"max":188,"target":"absent","response":"absent","rt":95.000000000058,"correct":true,"confidence":1},{"trial_n":106,"min":69,"max":186,"target":"absent","response":"absent","rt":48,"correct":true,"confidence":1},{"trial_n":107,"min":69,"max":186,"target":"present","response":"present","rt":540.99999999994,"correct":true,"confidence":1},{"trial_n":108,"min":71,"max":184,"target":"present","response":"present","rt":481,"correct":true,"confidence":2},{"trial_n":109,"min":71,"max":184,"target":"absent","response":"present","rt":951,"correct":false,"confidence":1},{"trial_n":110,"min":69,"max":186,"target":"absent","response":"present","rt":381.99999999988,"correct":false,"confidence":1},{"trial_n":111,"min":68,"max":187,"target":"absent","response":"absent","rt":578,"correct":true,"confidence":1},{"trial_n":112,"min":68,"max":187,"target":"present","response":"absent","rt":419,"correct":false,"confidence":1},{"trial_n":113,"min":67,"max":188,"target":"present","response":"absent","rt":653,"correct":false,"confidence":1},{"trial_n":114,"min":66,"max":189,"target":"absent","response":"absent","rt":1054,"correct":true,"confidence":1},{"trial_n":115,"min":66,"max":189,"target":"present","response":"absent","rt":669,"correct":false,"confidence":1},{"trial_n":116,"min":65,"max":190,"target":"absent","response":"absent","rt":713,"correct":true,"confidence":1},{"trial_n":117,"min":65,"max":190,"target":"present","response":"present","rt":441,"correct":true,"confidence":1},{"trial_n":118,"min":66,"max":189,"target":"absent","response":"present","rt":866,"correct":false,"confidence":1},{"trial_n":119,"min":65,"max":190,"target":"present","response":"present","rt":433,"correct":true,"confidence":1},{"trial_n":120,"min":65,"max":190,"target":"absent","response":"present","rt":514,"correct":false,"confidence":1},{"trial_n":121,"min":64,"max":191,"target":"present","response":"present","rt":570,"correct":true,"confidence":1},{"trial_n":122,"min":64,"max":191,"target":"absent","response":"absent","rt":792,"correct":true,"confidence":1},{"trial_n":123,"min":65,"max":190,"target":"absent","response":"absent","rt":415,"correct":true,"confidence":1},{"trial_n":124,"min":65,"max":190,"target":"present","response":"present","rt":351,"correct":true,"confidence":1},{"trial_n":125,"min":66,"max":189,"target":"absent","response":"present","rt":1626.9999999999,"correct":false,"confidence":1},{"trial_n":126,"min":65,"max":190,"target":"absent","response":"present","rt":749,"correct":false,"confidence":1},{"trial_n":127,"min":64,"max":191,"target":"present","response":"present","rt":660,"correct":true,"confidence":1},{"trial_n":128,"min":64,"max":191,"target":"absent","response":"present","rt":134,"correct":false,"confidence":1},{"trial_n":129,"min":63,"max":192,"target":"absent","response":"present","rt":543.99999999988,"correct":false,"confidence":1},{"trial_n":130,"min":62,"max":193,"target":"present","response":"present","rt":104,"correct":true,"confidence":1},{"trial_n":131,"min":62,"max":193,"target":"present","response":"present","rt":411,"correct":true,"confidence":3},{"trial_n":132,"min":63,"max":192,"target":"present","response":"present","rt":183,"correct":true,"confidence":1},{"trial_n":133,"min":63,"max":192,"target":"present","response":"present","rt":428,"correct":true,"confidence":1},{"trial_n":134,"min":64,"max":191,"target":"absent","response":"absent","rt":1156.9999999999,"correct":true,"confidence":1},{"trial_n":135,"min":64,"max":191,"target":"present","response":"present","rt":410,"correct":true,"confidence":2},{"trial_n":136,"min":65,"max":190,"target":"absent","response":"present","rt":1260,"correct":false,"confidence":2},{"trial_n":137,"min":64,"max":191,"target":"absent","response":"absent","rt":841,"correct":true,"confidence":3},{"trial_n":138,"min":64,"max":191,"target":"absent","response":"absent","rt":907.99999999988,"correct":true,"confidence":3},{"trial_n":139,"min":65,"max":190,"target":"absent","response":"absent","rt":1120,"correct":true,"confidence":2},{"trial_n":140,"min":65,"max":190,"target":"absent","response":"absent","rt":987,"correct":true,"confidence":3}]