[{"trial_n":1,"min":25,"max":230,"target":"present","response":"present","rt":7900.5,"correct":true,"confidence":-1},{"trial_n":2,"min":25,"max":230,"target":"present","response":"present","rt":2197.7000000179,"correct":true,"confidence":-1},{"trial_n":3,"min":41,"max":214,"target":"absent","response":"absent","rt":1224.6999999881,"correct":true,"confidence":-1},{"trial_n":4,"min":41,"max":214,"target":"absent","response":"absent","rt":1350.599999994,"correct":true,"confidence":-1},{"trial_n":5,"min":57,"max":198,"target":"present","response":"present","rt":1140.6000000238,"correct":true,"confidence":-1},{"trial_n":6,"min":57,"max":198,"target":"absent","response":"absent","rt":1471.7000000179,"correct":true,"confidence":-1},{"trial_n":7,"min":73,"max":182,"target":"present","response":"present","rt":1277.900000006,"correct":true,"confidence":-1},{"trial_n":8,"min":73,"max":182,"target":"present","response":"present","rt":901,"correct":true,"confidence":-1},{"trial_n":9,"min":89,"max":166,"target":"absent","response":"absent","rt":944,"correct":true,"confidence":-1},{"trial_n":10,"min":89,"max":166,"target":"absent","response":"absent","rt":1141.099999994,"correct":true,"confidence":-1},{"trial_n":11,"min":97,"max":158,"target":"present","response":"absent","rt":849.90000000596,"correct":false,"confidence":-1},{"trial_n":12,"min":89,"max":166,"target":"absent","response":"absent","rt":1529.400000006,"correct":true,"confidence":-1},{"trial_n":13,"min":89,"max":166,"target":"absent","response":"present","rt":1105,"correct":false,"confidence":-1},{"trial_n":14,"min":81,"max":174,"target":"absent","response":"absent","rt":3509.1999999881,"correct":true,"confidence":-1},{"trial_n":15,"min":81,"max":174,"target":"present","response":"present","rt":1178.2000000179,"correct":true,"confidence":-1},{"trial_n":16,"min":89,"max":166,"target":"absent","response":"present","rt":1138.6999999881,"correct":false,"confidence":-1},{"trial_n":17,"min":81,"max":174,"target":"present","response":"absent","rt":1498.5,"correct":false,"confidence":-1},{"trial_n":18,"min":73,"max":182,"target":"present","response":"present","rt":1011.3999999762,"correct":true,"confidence":-1},{"trial_n":19,"min":73,"max":182,"target":"present","response":"present","rt":1054,"correct":true,"confidence":-1},{"trial_n":20,"min":81,"max":174,"target":"present","response":"present","rt":771.90000000596,"correct":true,"confidence":-1},{"trial_n":21,"min":81,"max":174,"target":"present","response":"present","rt":1499.400000006,"correct":true,"confidence":2},{"trial_n":22,"min":85,"max":170,"target":"absent","response":"present","rt":1030.5,"correct":false,"confidence":3},{"trial_n":23,"min":81,"max":174,"target":"present","response":"present","rt":916,"correct":true,"confidence":3},{"trial_n":24,"min":81,"max":174,"target":"absent","response":"present","rt":902,"correct":false,"confidence":3},{"trial_n":25,"min":77,"max":178,"target":"absent","response":"present","rt":1744.1999999881,"correct":false,"confidence":2},{"trial_n":26,"min":73,"max":182,"target":"present","response":"present","rt":755.09999999404,"correct":true,"confidence":4},{"trial_n":27,"min":73,"max":182,"target":"absent","response":"absent","rt":2097.2999999821,"correct":true,"confidence":3},{"trial_n":28,"min":77,"max":178,"target":"present","response":"absent","rt":2245.900000006,"correct":false,"confidence":3},{"trial_n":29,"min":73,"max":182,"target":"absent","response":"present","rt":1188,"correct":false,"confidence":3},{"trial_n":30,"min":69,"max":186,"target":"absent","response":"present","rt":1080.400000006,"correct":false,"confidence":3},{"trial_n":31,"min":67,"max":188,"target":"present","response":"present","rt":956.29999998212,"correct":true,"confidence":4},{"trial_n":32,"min":67,"max":188,"target":"present","response":"present","rt":919.19999998808,"correct":true,"confidence":3},{"trial_n":33,"min":69,"max":186,"target":"present","response":"present","rt":852.20000001788,"correct":true,"confidence":4},{"trial_n":34,"min":69,"max":186,"target":"absent","response":"present","rt":1040.3000000119,"correct":false,"confidence":4},{"trial_n":35,"min":67,"max":188,"target":"present","response":"present","rt":1647.099999994,"correct":true,"confidence":4},{"trial_n":36,"min":67,"max":188,"target":"present","response":"present","rt":1108.400000006,"correct":true,"confidence":5},{"trial_n":37,"min":69,"max":186,"target":"present","response":"present","rt":795,"correct":true,"confidence":4},{"trial_n":38,"min":69,"max":186,"target":"present","response":"present","rt":898.09999999404,"correct":true,"confidence":4},{"trial_n":39,"min":71,"max":184,"target":"absent","response":"present","rt":874.5,"correct":false,"confidence":3},{"trial_n":40,"min":69,"max":186,"target":"absent","response":"present","rt":1158,"correct":false,"confidence":3},{"trial_n":41,"min":68,"max":187,"target":"absent","response":"present","rt":1538,"correct":false,"confidence":2},{"trial_n":42,"min":67,"max":188,"target":"absent","response":"absent","rt":1202.2000000179,"correct":true,"confidence":2},{"trial_n":43,"min":67,"max":188,"target":"present","response":"present","rt":766.90000000596,"correct":true,"confidence":3},{"trial_n":44,"min":68,"max":187,"target":"present","response":"present","rt":723.79999998212,"correct":true,"confidence":5},{"trial_n":45,"min":68,"max":187,"target":"absent","response":"present","rt":806.90000000596,"correct":false,"confidence":4},{"trial_n":46,"min":67,"max":188,"target":"absent","response":"present","rt":991.30000001192,"correct":false,"confidence":3},{"trial_n":47,"min":66,"max":189,"target":"absent","response":"present","rt":754.40000000596,"correct":false,"confidence":4},{"trial_n":48,"min":65,"max":190,"target":"present","response":"present","rt":744.69999998808,"correct":true,"confidence":4},{"trial_n":49,"min":65,"max":190,"target":"present","response":"present","rt":1590.6999999881,"correct":true,"confidence":3},{"trial_n":50,"min":66,"max":189,"target":"present","response":"present","rt":720.79999998212,"correct":true,"confidence":4},{"trial_n":51,"min":66,"max":189,"target":"absent","response":"present","rt":1127.2999999821,"correct":false,"confidence":2},{"trial_n":52,"min":65,"max":190,"target":"absent","response":"present","rt":861.70000001788,"correct":false,"confidence":3},{"trial_n":53,"min":64,"max":191,"target":"absent","response":"present","rt":1207.2999999821,"correct":false,"confidence":2},{"trial_n":54,"min":63,"max":192,"target":"present","response":"present","rt":752.90000000596,"correct":true,"confidence":4},{"trial_n":55,"min":63,"max":192,"target":"present","response":"present","rt":827.30000001192,"correct":true,"confidence":3},{"trial_n":56,"min":64,"max":191,"target":"absent","response":"present","rt":816.40000000596,"correct":false,"confidence":2},{"trial_n":57,"min":63,"max":192,"target":"absent","response":"present","rt":1093,"correct":false,"confidence":2},{"trial_n":58,"min":62,"max":193,"target":"present","response":"present","rt":876.90000000596,"correct":true,"confidence":5},{"trial_n":59,"min":62,"max":193,"target":"present","response":"present","rt":730.80000001192,"correct":true,"confidence":5},{"trial_n":60,"min":63,"max":192,"target":"present","response":"present","rt":633.40000000596,"correct":true,"confidence":5},{"trial_n":61,"min":63,"max":192,"target":"absent","response":"present","rt":1342.8999999762,"correct":false,"confidence":2},{"trial_n":62,"min":62,"max":193,"target":"absent","response":"present","rt":984.29999998212,"correct":false,"confidence":3},{"trial_n":63,"min":61,"max":194,"target":"present","response":"present","rt":638.60000002384,"correct":true,"confidence":4},{"trial_n":64,"min":61,"max":194,"target":"absent","response":"absent","rt":3582,"correct":true,"confidence":2},{"trial_n":65,"min":62,"max":193,"target":"present","response":"present","rt":889.29999998212,"correct":true,"confidence":5},{"trial_n":66,"min":62,"max":193,"target":"present","response":"present","rt":795.59999999404,"correct":true,"confidence":5},{"trial_n":67,"min":63,"max":192,"target":"absent","response":"absent","rt":1482.6999999881,"correct":true,"confidence":3},{"trial_n":68,"min":63,"max":192,"target":"absent","response":"absent","rt":1695.6000000238,"correct":true,"confidence":3},{"trial_n":69,"min":64,"max":191,"target":"absent","response":"present","rt":1882.2000000179,"correct":false,"confidence":3},{"trial_n":70,"min":63,"max":192,"target":"present","response":"present","rt":832,"correct":true,"confidence":4},{"trial_n":71,"min":41,"max":214,"target":"present","response":"present","rt":2118,"correct":true,"confidence":-1},{"trial_n":72,"min":41,"max":214,"target":"present","response":"present","rt":1131.099999994,"correct":true,"confidence":-1},{"trial_n":73,"min":57,"max":198,"target":"absent","response":"absent","rt":1235.599999994,"correct":true,"confidence":-1},{"trial_n":74,"min":57,"max":198,"target":"absent","response":"absent","rt":1137.599999994,"correct":true,"confidence":-1},{"trial_n":75,"min":73,"max":182,"target":"present","response":"present","rt":1484.8000000119,"correct":true,"confidence":-1},{"trial_n":76,"min":73,"max":182,"target":"present","response":"present","rt":839.40000000596,"correct":true,"confidence":-1},{"trial_n":77,"min":89,"max":166,"target":"present","response":"present","rt":2430.3000000119,"correct":true,"confidence":-1},{"trial_n":78,"min":89,"max":166,"target":"absent","response":"absent","rt":2385.900000006,"correct":true,"confidence":-1},{"trial_n":79,"min":105,"max":150,"target":"present","response":"present","rt":2472.5,"correct":true,"confidence":-1},{"trial_n":80,"min":105,"max":150,"target":"absent","response":"present","rt":1602.2999999821,"correct":false,"confidence":-1},{"trial_n":81,"min":97,"max":158,"target":"absent","response":"present","rt":1008,"correct":false,"confidence":-1},{"trial_n":82,"min":89,"max":166,"target":"absent","response":"present","rt":1353.900000006,"correct":false,"confidence":-1},{"trial_n":83,"min":81,"max":174,"target":"absent","response":"absent","rt":1132,"correct":true,"confidence":-1},{"trial_n":84,"min":81,"max":174,"target":"present","response":"present","rt":901.5,"correct":true,"confidence":-1},{"trial_n":85,"min":89,"max":166,"target":"absent","response":"absent","rt":979.19999998808,"correct":true,"confidence":-1},{"trial_n":86,"min":89,"max":166,"target":"present","response":"present","rt":717.70000001788,"correct":true,"confidence":-1},{"trial_n":87,"min":97,"max":158,"target":"present","response":"present","rt":1232.900000006,"correct":true,"confidence":-1},{"trial_n":88,"min":97,"max":158,"target":"absent","response":"absent","rt":1737.8000000119,"correct":true,"confidence":-1},{"trial_n":89,"min":105,"max":150,"target":"absent","response":"present","rt":1041.099999994,"correct":false,"confidence":-1},{"trial_n":90,"min":97,"max":158,"target":"present","response":"present","rt":667.30000001192,"correct":true,"confidence":-1},{"trial_n":91,"min":97,"max":158,"target":"absent","response":"present","rt":1060.5,"correct":false,"confidence":2},{"trial_n":92,"min":93,"max":162,"target":"present","response":"present","rt":1556.5,"correct":true,"confidence":3},{"trial_n":93,"min":93,"max":162,"target":"absent","response":"present","rt":1132.5,"correct":false,"confidence":3},{"trial_n":94,"min":89,"max":166,"target":"absent","response":"present","rt":1260.900000006,"correct":false,"confidence":2},{"trial_n":95,"min":85,"max":170,"target":"present","response":"present","rt":878.29999998212,"correct":true,"confidence":3},{"trial_n":96,"min":85,"max":170,"target":"absent","response":"absent","rt":1389.7000000179,"correct":true,"confidence":2},{"trial_n":97,"min":89,"max":166,"target":"present","response":"present","rt":744.40000000596,"correct":true,"confidence":4},{"trial_n":98,"min":89,"max":166,"target":"present","response":"present","rt":1569.400000006,"correct":true,"confidence":3},{"trial_n":99,"min":93,"max":162,"target":"present","response":"present","rt":1441.099999994,"correct":true,"confidence":4},{"trial_n":100,"min":93,"max":162,"target":"absent","response":"present","rt":1097.099999994,"correct":false,"confidence":2},{"trial_n":101,"min":91,"max":164,"target":"absent","response":"present","rt":997,"correct":false,"confidence":2},{"trial_n":102,"min":89,"max":166,"target":"present","response":"present","rt":1290.2999999821,"correct":true,"confidence":3},{"trial_n":103,"min":89,"max":166,"target":"absent","response":"present","rt":918,"correct":false,"confidence":3},{"trial_n":104,"min":87,"max":168,"target":"present","response":"present","rt":941.59999999404,"correct":true,"confidence":3},{"trial_n":105,"min":87,"max":168,"target":"absent","response":"present","rt":2283.400000006,"correct":false,"confidence":2},{"trial_n":106,"min":85,"max":170,"target":"present","response":"present","rt":771.90000000596,"correct":true,"confidence":3},{"trial_n":107,"min":85,"max":170,"target":"present","response":"present","rt":775,"correct":true,"confidence":4},{"trial_n":108,"min":87,"max":168,"target":"present","response":"present","rt":640.5,"correct":true,"confidence":4},{"trial_n":109,"min":87,"max":168,"target":"absent","response":"present","rt":1083.2000000179,"correct":false,"confidence":4},{"trial_n":110,"min":85,"max":170,"target":"absent","response":"absent","rt":1651.900000006,"correct":true,"confidence":2},{"trial_n":111,"min":85,"max":170,"target":"absent","response":"absent","rt":1007.6000000238,"correct":true,"confidence":2},{"trial_n":112,"min":86,"max":169,"target":"absent","response":"present","rt":995.90000000596,"correct":false,"confidence":2},{"trial_n":113,"min":85,"max":170,"target":"present","response":"present","rt":881.40000000596,"correct":true,"confidence":3},{"trial_n":114,"min":85,"max":170,"target":"present","response":"present","rt":853.79999998212,"correct":true,"confidence":3},{"trial_n":115,"min":86,"max":169,"target":"absent","response":"present","rt":954,"correct":false,"confidence":2},{"trial_n":116,"min":85,"max":170,"target":"present","response":"present","rt":594.09999999404,"correct":true,"confidence":4},{"trial_n":117,"min":85,"max":170,"target":"absent","response":"present","rt":949.39999997616,"correct":false,"confidence":3},{"trial_n":118,"min":84,"max":171,"target":"absent","response":"absent","rt":1407.7000000179,"correct":true,"confidence":2},{"trial_n":119,"min":84,"max":171,"target":"absent","response":"present","rt":2175.1999999881,"correct":false,"confidence":3},{"trial_n":120,"min":83,"max":172,"target":"present","response":"present","rt":930.5,"correct":true,"confidence":3},{"trial_n":121,"min":83,"max":172,"target":"present","response":"present","rt":833.69999998808,"correct":true,"confidence":4},{"trial_n":122,"min":84,"max":171,"target":"present","response":"present","rt":800.69999998808,"correct":true,"confidence":4},{"trial_n":123,"min":84,"max":171,"target":"absent","response":"present","rt":1058.900000006,"correct":false,"confidence":3},{"trial_n":124,"min":83,"max":172,"target":"absent","response":"absent","rt":951,"correct":true,"confidence":4},{"trial_n":125,"min":83,"max":172,"target":"absent","response":"absent","rt":1442.8999999762,"correct":true,"confidence":2},{"trial_n":126,"min":84,"max":171,"target":"present","response":"absent","rt":3428.2999999821,"correct":false,"confidence":2},{"trial_n":127,"min":83,"max":172,"target":"absent","response":"absent","rt":929,"correct":true,"confidence":3},{"trial_n":128,"min":83,"max":172,"target":"absent","response":"absent","rt":957.30000001192,"correct":true,"confidence":3},{"trial_n":129,"min":84,"max":171,"target":"present","response":"present","rt":997,"correct":true,"confidence":3},{"trial_n":130,"min":84,"max":171,"target":"present","response":"present","rt":902.09999999404,"correct":true,"confidence":3},{"trial_n":131,"min":85,"max":170,"target":"present","response":"present","rt":747.59999999404,"correct":true,"confidence":4},{"trial_n":132,"min":85,"max":170,"target":"present","response":"present","rt":821.5,"correct":true,"confidence":4},{"trial_n":133,"min":86,"max":169,"target":"absent","response":"present","rt":1103.2999999821,"correct":false,"confidence":2},{"trial_n":134,"min":85,"max":170,"target":"present","response":"present","rt":687.29999998212,"correct":true,"confidence":4},{"trial_n":135,"min":85,"max":170,"target":"absent","response":"absent","rt":1690.400000006,"correct":true,"confidence":2},{"trial_n":136,"min":86,"max":169,"target":"present","response":"present","rt":1069.7999999821,"correct":true,"confidence":2},{"trial_n":137,"min":86,"max":169,"target":"present","response":"present","rt":1169.7000000179,"correct":true,"confidence":3},{"trial_n":138,"min":87,"max":168,"target":"absent","response":"present","rt":14630.5,"correct":false,"confidence":2},{"trial_n":139,"min":86,"max":169,"target":"present","response":"present","rt":909.80000001192,"correct":true,"confidence":3},{"trial_n":140,"min":86,"max":169,"target":"present","response":"present","rt":780,"correct":true,"confidence":3}]