[{"trial_n":1,"span":8,"encoder":"56651241","distractor":"56651271","target":"present","response":"present","rt":"2639.099999994","correct":true,"confidence":-1},{"trial_n":2,"span":8,"encoder":"47449935","distractor":"47459935","target":"present","response":"present","rt":"2084.2999999821","correct":true,"confidence":-1},{"trial_n":3,"span":10,"encoder":"0668261856","distractor":"6668261856","target":"absent","response":"absent","rt":"3303.599999994","correct":true,"confidence":-1},{"trial_n":4,"span":10,"encoder":"3430328364","distractor":"3430328964","target":"absent","response":"present","rt":"5610.6000000238","correct":false,"confidence":-1},{"trial_n":5,"span":8,"encoder":"58559465","distractor":"58759465","target":"present","response":"present","rt":"2353","correct":true,"confidence":-1},{"trial_n":6,"span":8,"encoder":"21821760","distractor":"21826760","target":"absent","response":"present","rt":"1669.5","correct":false,"confidence":-1},{"trial_n":7,"span":6,"encoder":"076942","distractor":"076142","target":"absent","response":"present","rt":"4148.6000000238","correct":false,"confidence":-1},{"trial_n":8,"span":4,"encoder":"3210","distractor":"3220","target":"absent","response":"absent","rt":"4625.599999994","correct":true,"confidence":-1},{"trial_n":9,"span":4,"encoder":"3387","distractor":"0387","target":"present","response":"present","rt":"1570.2999999821","correct":true,"confidence":-1},{"trial_n":10,"span":6,"encoder":"861451","distractor":"861951","target":"absent","response":"absent","rt":"2504.1000000238","correct":true,"confidence":-1},{"trial_n":11,"span":6,"encoder":"155362","distractor":"156362","target":"present","response":"present","rt":"2649.1000000238","correct":true,"confidence":-1},{"trial_n":12,"span":7,"encoder":"7744161","distractor":"7744101","target":"absent","response":"absent","rt":"2473.6999999881","correct":true,"confidence":-1},{"trial_n":13,"span":7,"encoder":"4350800","distractor":"4350300","target":"present","response":"absent","rt":"3641.8999999762","correct":false,"confidence":-1},{"trial_n":14,"span":6,"encoder":"407253","distractor":"107253","target":"present","response":"present","rt":"1934.5","correct":true,"confidence":-1},{"trial_n":15,"span":6,"encoder":"211886","distractor":"211856","target":"present","response":"present","rt":"26516.299999982","correct":true,"confidence":-1},{"trial_n":16,"span":7,"encoder":"7540933","distractor":"2540933","target":"absent","response":"absent","rt":"2470.400000006","correct":true,"confidence":-1},{"trial_n":17,"span":7,"encoder":"6248123","distractor":"6242123","target":"absent","response":"absent","rt":"3081.2999999821","correct":true,"confidence":-1},{"trial_n":18,"span":8,"encoder":"75717840","distractor":"75767840","target":"absent","response":"absent","rt":"4139.7000000179","correct":true,"confidence":-1},{"trial_n":19,"span":8,"encoder":"29726563","distractor":"49726563","target":"absent","response":"absent","rt":"7757.400000006","correct":true,"confidence":-1},{"trial_n":20,"span":9,"encoder":"228608630","distractor":"228608660","target":"absent","response":"present","rt":"2703","correct":false,"confidence":-1},{"trial_n":21,"span":8,"encoder":"22283472","distractor":"22083472","target":"absent","response":"absent","rt":"3179.099999994","correct":true,"confidence":1},{"trial_n":22,"span":8,"encoder":"09936607","distractor":"09836607","target":"present","response":"present","rt":"2651.6999999881","correct":true,"confidence":3},{"trial_n":23,"span":9,"encoder":"030089418","distractor":"030089410","target":"present","response":"present","rt":"3477","correct":true,"confidence":3},{"trial_n":24,"span":9,"encoder":"190198537","distractor":"196198537","target":"present","response":"present","rt":"3750.099999994","correct":true,"confidence":4},{"trial_n":25,"span":10,"encoder":"1430873771","distractor":"0430873771","target":"present","response":"present","rt":"4640.3000000119","correct":true,"confidence":3},{"trial_n":26,"span":10,"encoder":"7143433177","distractor":"7143453177","target":"absent","response":"absent","rt":"3888","correct":true,"confidence":3},{"trial_n":27,"span":11,"encoder":"20632176283","distractor":"20632176213","target":"present","response":"present","rt":"6078.1999999881","correct":true,"confidence":3},{"trial_n":28,"span":11,"encoder":"28808977173","distractor":"58808977173","target":"present","response":"present","rt":"3467.8000000119","correct":true,"confidence":4},{"trial_n":29,"span":12,"encoder":"276899714143","distractor":"276869714143","target":"present","response":"absent","rt":"7268.400000006","correct":false,"confidence":3},{"trial_n":30,"span":11,"encoder":"24755689893","distractor":"24754689893","target":"present","response":"absent","rt":"5563.2999999821","correct":false,"confidence":3},{"trial_n":31,"span":10,"encoder":"5912026542","distractor":"5912026549","target":"absent","response":"absent","rt":"5254.2999999821","correct":true,"confidence":4},{"trial_n":32,"span":10,"encoder":"6412839916","distractor":"6412829916","target":"present","response":"absent","rt":"3274.5","correct":false,"confidence":3},{"trial_n":33,"span":9,"encoder":"328246025","distractor":"328241025","target":"absent","response":"absent","rt":"6707","correct":true,"confidence":3},{"trial_n":34,"span":9,"encoder":"842968834","distractor":"842966834","target":"absent","response":"present","rt":"3323.1999999881","correct":false,"confidence":4},{"trial_n":35,"span":8,"encoder":"99144666","distractor":"79144666","target":"present","response":"present","rt":"3042","correct":true,"confidence":4},{"trial_n":36,"span":8,"encoder":"06845648","distractor":"06885648","target":"present","response":"absent","rt":"5823.099999994","correct":false,"confidence":3},{"trial_n":37,"span":7,"encoder":"2937799","distractor":"2917799","target":"absent","response":"absent","rt":"3021.900000006","correct":true,"confidence":4},{"trial_n":38,"span":7,"encoder":"5637069","distractor":"5630069","target":"absent","response":"absent","rt":"2527","correct":true,"confidence":4},{"trial_n":39,"span":8,"encoder":"64090545","distractor":"64090145","target":"present","response":"absent","rt":"4253.099999994","correct":false,"confidence":3},{"trial_n":40,"span":7,"encoder":"2700623","distractor":"0700623","target":"absent","response":"absent","rt":"4145.7000000179","correct":true,"confidence":3},{"trial_n":41,"span":7,"encoder":"9277249","distractor":"9677249","target":"absent","response":"absent","rt":"1859.7000000179","correct":true,"confidence":4},{"trial_n":42,"span":8,"encoder":"00875374","distractor":"05875374","target":"present","response":"present","rt":"2793.1999999881","correct":true,"confidence":4},{"trial_n":43,"span":8,"encoder":"78671069","distractor":"78671065","target":"present","response":"present","rt":"2627.2999999821","correct":true,"confidence":4},{"trial_n":44,"span":9,"encoder":"701588183","distractor":"301588183","target":"present","response":"present","rt":"5453.6999999881","correct":true,"confidence":3},{"trial_n":45,"span":9,"encoder":"880523350","distractor":"810523350","target":"absent","response":"present","rt":"3805.6999999881","correct":false,"confidence":3},{"trial_n":46,"span":8,"encoder":"24216020","distractor":"24216420","target":"present","response":"present","rt":"2327.900000006","correct":true,"confidence":4},{"trial_n":47,"span":8,"encoder":"98296290","distractor":"98266290","target":"present","response":"present","rt":"2680.099999994","correct":true,"confidence":5},{"trial_n":48,"span":9,"encoder":"466107145","distractor":"466107142","target":"present","response":"present","rt":"2838.8000000119","correct":true,"confidence":4},{"trial_n":49,"span":9,"encoder":"128620505","distractor":"128600505","target":"absent","response":"absent","rt":"4537.099999994","correct":true,"confidence":3},{"trial_n":50,"span":10,"encoder":"4808063934","distractor":"4808063034","target":"present","response":"present","rt":"3271.900000006","correct":true,"confidence":3},{"trial_n":51,"span":10,"encoder":"5864739556","distractor":"5869739556","target":"present","response":"present","rt":"3449.6999999881","correct":true,"confidence":3},{"trial_n":52,"span":11,"encoder":"32804210456","distractor":"32804210156","target":"absent","response":"present","rt":"3912.1000000238","correct":false,"confidence":3},{"trial_n":53,"span":10,"encoder":"7345734204","distractor":"7348734204","target":"present","response":"absent","rt":"4761","correct":false,"confidence":2},{"trial_n":54,"span":9,"encoder":"963020634","distractor":"963320634","target":"present","response":"present","rt":"3518.5","correct":true,"confidence":4},{"trial_n":55,"span":9,"encoder":"209279492","distractor":"205279492","target":"absent","response":"absent","rt":"4421.599999994","correct":true,"confidence":3},{"trial_n":56,"span":10,"encoder":"2560472987","distractor":"2560472947","target":"present","response":"present","rt":"3364","correct":true,"confidence":3},{"trial_n":57,"span":10,"encoder":"4354858826","distractor":"4554858826","target":"absent","response":"absent","rt":"3588.099999994","correct":true,"confidence":3},{"trial_n":58,"span":11,"encoder":"66344690764","distractor":"16344690764","target":"present","response":"present","rt":"4468.5","correct":true,"confidence":3},{"trial_n":59,"span":11,"encoder":"40881144180","distractor":"40881140180","target":"absent","response":"present","rt":"3696.6999999881","correct":false,"confidence":3},{"trial_n":60,"span":10,"encoder":"9922534513","distractor":"9922564513","target":"present","response":"present","rt":"3405.1999999881","correct":true,"confidence":4},{"trial_n":61,"span":10,"encoder":"4255465797","distractor":"4258465797","target":"absent","response":"present","rt":"2488.3000000119","correct":false,"confidence":3},{"trial_n":62,"span":9,"encoder":"070629093","distractor":"270629093","target":"absent","response":"absent","rt":"3475.7000000179","correct":true,"confidence":3},{"trial_n":63,"span":9,"encoder":"079193142","distractor":"079113142","target":"present","response":"present","rt":"3001.400000006","correct":true,"confidence":3},{"trial_n":64,"span":10,"encoder":"9076469018","distractor":"0076469018","target":"absent","response":"absent","rt":"3166.2999999821","correct":true,"confidence":4},{"trial_n":65,"span":10,"encoder":"4120049037","distractor":"4120048037","target":"present","response":"present","rt":"3477.900000006","correct":true,"confidence":3},{"trial_n":66,"span":11,"encoder":"62626615091","distractor":"62623615091","target":"absent","response":"absent","rt":"4170.5","correct":true,"confidence":3},{"trial_n":67,"span":11,"encoder":"81398438336","distractor":"81398468336","target":"absent","response":"present","rt":"3495.8000000119","correct":false,"confidence":3},{"trial_n":68,"span":10,"encoder":"6848332784","distractor":"6849332784","target":"absent","response":"present","rt":"4245.2000000179","correct":false,"confidence":2},{"trial_n":69,"span":9,"encoder":"250065386","distractor":"950065386","target":"present","response":"present","rt":"2251.6999999881","correct":true,"confidence":4},{"trial_n":70,"span":9,"encoder":"144136843","distractor":"144436843","target":"absent","response":"absent","rt":"5569.3999999762","correct":true,"confidence":3},{"trial_n":71,"span":8,"encoder":"00686666","distractor":"00686696","target":"present","response":"present","rt":"4963.3000000119","correct":true,"confidence":-1},{"trial_n":72,"span":8,"encoder":"09670881","distractor":"09670889","target":"present","response":"present","rt":"3379.2999999821","correct":true,"confidence":-1},{"trial_n":73,"span":9,"encoder":"820306403","distractor":"820806403","target":"absent","response":"absent","rt":"4649.5","correct":true,"confidence":-1},{"trial_n":74,"span":9,"encoder":"549346753","distractor":"549376753","target":"absent","response":"absent","rt":"6091.8000000119","correct":true,"confidence":-1},{"trial_n":75,"span":10,"encoder":"0430233923","distractor":"0530233923","target":"present","response":"present","rt":"5526.8999999762","correct":true,"confidence":-1},{"trial_n":76,"span":10,"encoder":"1901862210","distractor":"8901862210","target":"present","response":"present","rt":"3714","correct":true,"confidence":-1},{"trial_n":77,"span":11,"encoder":"86273173382","distractor":"86275173382","target":"present","response":"present","rt":"6720.5","correct":true,"confidence":-1},{"trial_n":78,"span":11,"encoder":"55339859856","distractor":"55339059856","target":"absent","response":"present","rt":"7040.900000006","correct":false,"confidence":-1},{"trial_n":79,"span":10,"encoder":"5487728923","distractor":"5487723923","target":"absent","response":"absent","rt":"6103","correct":true,"confidence":-1},{"trial_n":80,"span":10,"encoder":"4981891433","distractor":"4981891533","target":"present","response":"present","rt":"4544.599999994","correct":true,"confidence":-1},{"trial_n":81,"span":11,"encoder":"14755497364","distractor":"24755497364","target":"absent","response":"absent","rt":"3197.099999994","correct":true,"confidence":-1},{"trial_n":82,"span":11,"encoder":"82630634083","distractor":"80630634083","target":"present","response":"present","rt":"2470.1999999881","correct":true,"confidence":-1},{"trial_n":83,"span":12,"encoder":"335253773360","distractor":"335453773360","target":"absent","response":"absent","rt":"4564.2999999821","correct":true,"confidence":-1},{"trial_n":84,"span":12,"encoder":"773630576857","distractor":"273630576857","target":"absent","response":"absent","rt":"2727.599999994","correct":true,"confidence":-1},{"trial_n":85,"span":13,"encoder":"2369724323023","distractor":"2369724723023","target":"absent","response":"present","rt":"13328.099999994","correct":false,"confidence":-1},{"trial_n":86,"span":12,"encoder":"941895686105","distractor":"741895686105","target":"absent","response":"absent","rt":"3276.2999999821","correct":true,"confidence":-1},{"trial_n":87,"span":12,"encoder":"819543290006","distractor":"811543290006","target":"present","response":"present","rt":"4084.400000006","correct":true,"confidence":-1},{"trial_n":88,"span":13,"encoder":"2821538193786","distractor":"2820538193786","target":"absent","response":"absent","rt":"4770.099999994","correct":true,"confidence":-1},{"trial_n":89,"span":13,"encoder":"7068313623308","distractor":"7068313623338","target":"present","response":"present","rt":"4109.599999994","correct":true,"confidence":-1},{"trial_n":90,"span":14,"encoder":"86050593325423","distractor":"86050593325420","target":"present","response":"present","rt":"13203.900000006","correct":true,"confidence":-1},{"trial_n":91,"span":14,"encoder":"15574253517930","distractor":"15574259517930","target":"absent","response":"present","rt":"6984.3000000119","correct":false,"confidence":3},{"trial_n":92,"span":13,"encoder":"7582747395083","distractor":"7584747395083","target":"present","response":"present","rt":"3863.599999994","correct":true,"confidence":3},{"trial_n":93,"span":13,"encoder":"4152062375719","distractor":"4162062375719","target":"present","response":"present","rt":"2590.8000000119","correct":true,"confidence":4},{"trial_n":94,"span":14,"encoder":"04835631244481","distractor":"04835631244491","target":"absent","response":"absent","rt":"9833.900000006","correct":true,"confidence":4},{"trial_n":95,"span":14,"encoder":"22969424308954","distractor":"22999424308954","target":"absent","response":"absent","rt":"9078","correct":true,"confidence":4},{"trial_n":96,"span":15,"encoder":"462591627584657","distractor":"462591627585657","target":"present","response":"present","rt":"17691.300000012","correct":true,"confidence":3},{"trial_n":97,"span":15,"encoder":"833457817688139","distractor":"733457817688139","target":"present","response":"present","rt":"5419.6999999881","correct":true,"confidence":4},{"trial_n":98,"span":16,"encoder":"8470945088678984","distractor":"8470945089678984","target":"present","response":"present","rt":"5884.099999994","correct":true,"confidence":3},{"trial_n":99,"span":16,"encoder":"6755053959465328","distractor":"6755053959469328","target":"absent","response":"absent","rt":"4752.900000006","correct":true,"confidence":2},{"trial_n":100,"span":17,"encoder":"18639684318046145","distractor":"18639684318046146","target":"present","response":"present","rt":"2067.2999999821","correct":true,"confidence":3},{"trial_n":101,"span":17,"encoder":"94572187075952060","distractor":"94582187075952060","target":"present","response":"present","rt":"8692.400000006","correct":true,"confidence":1},{"trial_n":102,"span":18,"encoder":"244428116961897461","distractor":"644428116961897461","target":"present","response":"present","rt":"3817.1999999881","correct":true,"confidence":2},{"trial_n":103,"span":18,"encoder":"308662297499883197","distractor":"308662297499883196","target":"present","response":"present","rt":"4418.400000006","correct":true,"confidence":3},{"trial_n":104,"span":19,"encoder":"9008529075300702536","distractor":"9008529075300752536","target":"absent","response":"absent","rt":"8918.2999999821","correct":true,"confidence":2},{"trial_n":105,"span":19,"encoder":"4232185000041071255","distractor":"4232185000071071255","target":"present","response":"present","rt":"5140.900000006","correct":true,"confidence":1},{"trial_n":106,"span":20,"encoder":"49962079378500563332","distractor":"49962079378500563330","target":"absent","response":"absent","rt":"2690.1999999881","correct":true,"confidence":3},{"trial_n":107,"span":20,"encoder":"62448232702613536193","distractor":"62448232702619536193","target":"present","response":"absent","rt":"4013.400000006","correct":false,"confidence":2},{"trial_n":108,"span":19,"encoder":"6089849177236913726","distractor":"6089549177236913726","target":"present","response":"present","rt":"7313","correct":true,"confidence":4},{"trial_n":109,"span":19,"encoder":"5625887449155219252","distractor":"5625882449155219252","target":"present","response":"present","rt":"3049.5","correct":true,"confidence":4},{"trial_n":110,"span":20,"encoder":"65272663589528679115","distractor":"65272663589528629115","target":"absent","response":"absent","rt":"7308.099999994","correct":true,"confidence":3},{"trial_n":111,"span":20,"encoder":"06244527341075297336","distractor":"06244527341079297336","target":"absent","response":"absent","rt":"10435.900000006","correct":true,"confidence":1},{"trial_n":112,"span":21,"encoder":"720509970579777152889","distractor":"520509970579777152889","target":"absent","response":"present","rt":"5737.900000006","correct":false,"confidence":2},{"trial_n":113,"span":20,"encoder":"21234561793014047805","distractor":"21234561793014447805","target":"absent","response":"absent","rt":"4729.400000006","correct":true,"confidence":3},{"trial_n":114,"span":20,"encoder":"28190496429773585394","distractor":"28190496429773585304","target":"present","response":"present","rt":"2924.1999999881","correct":true,"confidence":4},{"trial_n":115,"span":21,"encoder":"871825592809536926171","distractor":"871825592809536926671","target":"absent","response":"absent","rt":"2915.099999994","correct":true,"confidence":4},{"trial_n":116,"span":21,"encoder":"567607561494172356013","distractor":"567607561494172356513","target":"absent","response":"absent","rt":"2860.7999999821","correct":true,"confidence":5},{"trial_n":117,"span":22,"encoder":"3629748426814734707148","distractor":"3629744426814734707148","target":"present","response":"present","rt":"5280.900000006","correct":true,"confidence":3},{"trial_n":118,"span":22,"encoder":"4363431475815149542729","distractor":"4363431475815149545729","target":"absent","response":"absent","rt":"3957.8999999762","correct":true,"confidence":4},{"trial_n":119,"span":23,"encoder":"33272160431731383182093","distractor":"33272160431736383182093","target":"present","response":"absent","rt":"3978.099999994","correct":false,"confidence":1},{"trial_n":120,"span":22,"encoder":"7217753711682995620788","distractor":"7217953711682995620788","target":"absent","response":"present","rt":"7922.599999994","correct":false,"confidence":1},{"trial_n":121,"span":21,"encoder":"912120725047154230912","distractor":"912180725047154230912","target":"present","response":"present","rt":"4503.5","correct":true,"confidence":3},{"trial_n":122,"span":21,"encoder":"310592481493140507901","distractor":"310592481493140501901","target":"present","response":"present","rt":"7009.2999999821","correct":true,"confidence":3},{"trial_n":123,"span":22,"encoder":"1034711685910605599215","distractor":"1034711685910685599215","target":"absent","response":"absent","rt":"2171","correct":true,"confidence":1},{"trial_n":124,"span":22,"encoder":"1704215380188809082019","distractor":"1704215380188809082519","target":"present","response":"present","rt":"4139.3000000119","correct":true,"confidence":4},{"trial_n":125,"span":23,"encoder":"97973526769696706210852","distractor":"97973526069696706210852","target":"absent","response":"absent","rt":"9684.2999999821","correct":true,"confidence":2},{"trial_n":126,"span":23,"encoder":"61601058041590204202284","distractor":"61601058041590204202084","target":"absent","response":"absent","rt":"11644","correct":true,"confidence":1},{"trial_n":127,"span":24,"encoder":"928975235100127723046106","distractor":"928955235100127723046106","target":"present","response":"absent","rt":"7606.5","correct":false,"confidence":1},{"trial_n":128,"span":23,"encoder":"17613262723017942802884","distractor":"17613262723017942808884","target":"absent","response":"absent","rt":"2845.1999999881","correct":true,"confidence":1},{"trial_n":129,"span":23,"encoder":"06613256437670993045545","distractor":"06613256437670993945545","target":"absent","response":"absent","rt":"6186.7999999821","correct":true,"confidence":2},{"trial_n":130,"span":24,"encoder":"865974289371793264825566","distractor":"865974289371793264825536","target":"absent","response":"absent","rt":"5602.099999994","correct":true,"confidence":1},{"trial_n":131,"span":24,"encoder":"095537091796757234931117","distractor":"095537091796457234931117","target":"present","response":"present","rt":"7716.3999999762","correct":true,"confidence":3},{"trial_n":132,"span":25,"encoder":"3344381300739065734320396","distractor":"3344381300739065734330396","target":"present","response":"absent","rt":"3198.3999999762","correct":false,"confidence":1},{"trial_n":133,"span":24,"encoder":"911676627057042813129963","distractor":"911676627057042813129993","target":"absent","response":"absent","rt":"8855.8000000119","correct":true,"confidence":3},{"trial_n":134,"span":24,"encoder":"681643102103214721259615","distractor":"681640102103214721259615","target":"absent","response":"absent","rt":"4446.8000000119","correct":true,"confidence":1},{"trial_n":135,"span":25,"encoder":"8808612124275870255163507","distractor":"8808612124275870265163507","target":"absent","response":"present","rt":"696.20000001788","correct":false,"confidence":1},{"trial_n":136,"span":24,"encoder":"036669452283685135791034","distractor":"036669452283685735791034","target":"present","response":"absent","rt":"1980.1999999881","correct":false,"confidence":1},{"trial_n":137,"span":23,"encoder":"16506208166856295389281","distractor":"16506208166856295319281","target":"present","response":"absent","rt":"4268","correct":false,"confidence":2},{"trial_n":138,"span":22,"encoder":"9817635501515377956761","distractor":"9617635501515377956761","target":"present","response":"present","rt":"5421.6999999881","correct":true,"confidence":3},{"trial_n":139,"span":22,"encoder":"5368537156623463428739","distractor":"5368537156623463426739","target":"present","response":"absent","rt":"4040.7000000179","correct":false,"confidence":3},{"trial_n":140,"span":21,"encoder":"870405814405396748154","distractor":"870405814408396748154","target":"absent","response":"present","rt":"11062.099999994","correct":false,"confidence":3}]