[{"trial_n":1,"span":8,"encoder":"97667111","distractor":"97667191","target":"present","response":"present","rt":"3221.6000000015","correct":true,"confidence":-1},{"trial_n":2,"span":8,"encoder":"85605385","distractor":"85605585","target":"present","response":"present","rt":"2440.1999999955","correct":true,"confidence":-1},{"trial_n":3,"span":10,"encoder":"3102563704","distractor":"3102567704","target":"absent","response":"absent","rt":"2670.3999999985","correct":true,"confidence":-1},{"trial_n":4,"span":10,"encoder":"9344847451","distractor":"9544847451","target":"absent","response":"present","rt":"1900.3999999985","correct":false,"confidence":-1},{"trial_n":5,"span":8,"encoder":"63114914","distractor":"63114414","target":"present","response":"present","rt":"1022.8000000045","correct":true,"confidence":-1},{"trial_n":6,"span":8,"encoder":"18651824","distractor":"18641824","target":"absent","response":"present","rt":"2803.3000000045","correct":false,"confidence":-1},{"trial_n":7,"span":6,"encoder":"129203","distractor":"129803","target":"present","response":"present","rt":"1618.099999994","correct":true,"confidence":-1},{"trial_n":8,"span":6,"encoder":"963953","distractor":"663953","target":"absent","response":"absent","rt":"2822","correct":true,"confidence":-1},{"trial_n":9,"span":8,"encoder":"81311137","distractor":"81311131","target":"present","response":"present","rt":"2433.8999999985","correct":true,"confidence":-1},{"trial_n":10,"span":8,"encoder":"26706923","distractor":"26706933","target":"absent","response":"absent","rt":"2657.6000000015","correct":true,"confidence":-1},{"trial_n":11,"span":10,"encoder":"4292895101","distractor":"4892895101","target":"present","response":"present","rt":"2827.8000000045","correct":true,"confidence":-1},{"trial_n":12,"span":10,"encoder":"8959402523","distractor":"6959402523","target":"absent","response":"absent","rt":"1677.299999997","correct":true,"confidence":-1},{"trial_n":13,"span":11,"encoder":"53907992284","distractor":"53907992286","target":"absent","response":"present","rt":"1929.8000000045","correct":false,"confidence":-1},{"trial_n":14,"span":10,"encoder":"7777946755","distractor":"7777946765","target":"absent","response":"absent","rt":"2097.8000000045","correct":true,"confidence":-1},{"trial_n":15,"span":10,"encoder":"1220365301","distractor":"1220363301","target":"present","response":"present","rt":"1581.3999999985","correct":true,"confidence":-1},{"trial_n":16,"span":11,"encoder":"83647181951","distractor":"83647188951","target":"absent","response":"absent","rt":"1512.3999999985","correct":true,"confidence":-1},{"trial_n":17,"span":11,"encoder":"04606699302","distractor":"04206699302","target":"present","response":"present","rt":"1871.6000000015","correct":true,"confidence":-1},{"trial_n":18,"span":12,"encoder":"665678272436","distractor":"665678972436","target":"absent","response":"absent","rt":"2705.8999999985","correct":true,"confidence":-1},{"trial_n":19,"span":12,"encoder":"054021876362","distractor":"054021876369","target":"absent","response":"absent","rt":"1470.6999999955","correct":true,"confidence":-1},{"trial_n":20,"span":13,"encoder":"2936153746025","distractor":"2936159746025","target":"absent","response":"present","rt":"2012.8000000045","correct":false,"confidence":-1},{"trial_n":21,"span":12,"encoder":"737898164057","distractor":"737898114057","target":"present","response":"absent","rt":"2659.1000000015","correct":false,"confidence":3},{"trial_n":22,"span":11,"encoder":"45715040514","distractor":"55715040514","target":"absent","response":"absent","rt":"3404.400000006","correct":true,"confidence":5},{"trial_n":23,"span":11,"encoder":"90704834539","distractor":"30704834539","target":"present","response":"present","rt":"3568.599999994","correct":true,"confidence":3},{"trial_n":24,"span":12,"encoder":"408095476910","distractor":"408095176910","target":"present","response":"absent","rt":"2451.200000003","correct":false,"confidence":3},{"trial_n":25,"span":11,"encoder":"06969417034","distractor":"06969717034","target":"present","response":"present","rt":"2868.200000003","correct":true,"confidence":5},{"trial_n":26,"span":11,"encoder":"83456120376","distractor":"83456120346","target":"absent","response":"present","rt":"3499.400000006","correct":false,"confidence":3},{"trial_n":27,"span":10,"encoder":"5440834449","distractor":"5840834449","target":"present","response":"present","rt":"2517","correct":true,"confidence":3},{"trial_n":28,"span":10,"encoder":"0306356787","distractor":"0306366787","target":"absent","response":"present","rt":"2251.3999999985","correct":false,"confidence":4},{"trial_n":29,"span":9,"encoder":"927564026","distractor":"927564023","target":"present","response":"absent","rt":"3801","correct":false,"confidence":3},{"trial_n":30,"span":8,"encoder":"91135065","distractor":"91135060","target":"present","response":"absent","rt":"6832.8000000045","correct":false,"confidence":4},{"trial_n":31,"span":7,"encoder":"0440883","distractor":"8440883","target":"absent","response":"present","rt":"1779.599999994","correct":false,"confidence":5},{"trial_n":32,"span":6,"encoder":"644364","distractor":"644374","target":"present","response":"present","rt":"2382.599999994","correct":true,"confidence":5},{"trial_n":33,"span":6,"encoder":"675206","distractor":"075206","target":"present","response":"present","rt":"2611.3999999911","correct":true,"confidence":5},{"trial_n":34,"span":7,"encoder":"0967921","distractor":"5967921","target":"absent","response":"present","rt":"2828","correct":false,"confidence":5},{"trial_n":35,"span":6,"encoder":"116672","distractor":"116572","target":"absent","response":"absent","rt":"4624.3999999911","correct":true,"confidence":3},{"trial_n":36,"span":6,"encoder":"770426","distractor":"770476","target":"present","response":"present","rt":"1421.1999999881","correct":true,"confidence":5},{"trial_n":37,"span":7,"encoder":"7951710","distractor":"7951718","target":"absent","response":"absent","rt":"3272.5","correct":true,"confidence":5},{"trial_n":38,"span":7,"encoder":"1157239","distractor":"1157339","target":"present","response":"present","rt":"1859","correct":true,"confidence":5},{"trial_n":39,"span":8,"encoder":"76854488","distractor":"76854468","target":"absent","response":"absent","rt":"3208.200000003","correct":true,"confidence":4},{"trial_n":40,"span":8,"encoder":"56029949","distractor":"56029909","target":"present","response":"absent","rt":"3436.1000000089","correct":false,"confidence":3},{"trial_n":41,"span":7,"encoder":"9348833","distractor":"9308833","target":"absent","response":"absent","rt":"1732.5","correct":true,"confidence":5},{"trial_n":42,"span":7,"encoder":"0579088","distractor":"0574088","target":"present","response":"present","rt":"1588.200000003","correct":true,"confidence":4},{"trial_n":43,"span":8,"encoder":"99073573","distractor":"99073579","target":"present","response":"absent","rt":"3118.8999999911","correct":false,"confidence":2},{"trial_n":44,"span":7,"encoder":"5689892","distractor":"5686892","target":"present","response":"present","rt":"2196.5","correct":true,"confidence":5},{"trial_n":45,"span":7,"encoder":"9655892","distractor":"9655092","target":"absent","response":"absent","rt":"1505.700000003","correct":true,"confidence":5},{"trial_n":46,"span":8,"encoder":"88348626","distractor":"86348626","target":"absent","response":"present","rt":"2305.900000006","correct":false,"confidence":4},{"trial_n":47,"span":7,"encoder":"7829629","distractor":"7829129","target":"present","response":"present","rt":"1837.400000006","correct":true,"confidence":3},{"trial_n":48,"span":7,"encoder":"2425793","distractor":"2425733","target":"absent","response":"absent","rt":"2505.5","correct":true,"confidence":3},{"trial_n":49,"span":8,"encoder":"57297690","distractor":"27297690","target":"absent","response":"absent","rt":"5862.900000006","correct":true,"confidence":2},{"trial_n":50,"span":8,"encoder":"70195895","distractor":"10195895","target":"present","response":"absent","rt":"2041.1000000089","correct":false,"confidence":3},{"trial_n":51,"span":7,"encoder":"5104692","distractor":"5154692","target":"absent","response":"absent","rt":"1847.900000006","correct":true,"confidence":4},{"trial_n":52,"span":7,"encoder":"4244107","distractor":"4204107","target":"present","response":"present","rt":"2119.700000003","correct":true,"confidence":5},{"trial_n":53,"span":8,"encoder":"11380288","distractor":"11383288","target":"absent","response":"absent","rt":"1417.299999997","correct":true,"confidence":3},{"trial_n":54,"span":8,"encoder":"54194566","distractor":"74194566","target":"absent","response":"absent","rt":"1501.1999999881","correct":true,"confidence":4},{"trial_n":55,"span":9,"encoder":"618493130","distractor":"618493330","target":"present","response":"present","rt":"2324.299999997","correct":true,"confidence":3},{"trial_n":56,"span":9,"encoder":"897444190","distractor":"897444140","target":"present","response":"present","rt":"2695.1000000089","correct":true,"confidence":3},{"trial_n":57,"span":10,"encoder":"1301691734","distractor":"1321691734","target":"present","response":"absent","rt":"2913.799999997","correct":false,"confidence":2},{"trial_n":58,"span":9,"encoder":"114070143","distractor":"114070173","target":"absent","response":"present","rt":"2848.3000000119","correct":false,"confidence":2},{"trial_n":59,"span":8,"encoder":"07746575","distractor":"07726575","target":"absent","response":"absent","rt":"1921.700000003","correct":true,"confidence":4},{"trial_n":60,"span":8,"encoder":"59988243","distractor":"29988243","target":"present","response":"present","rt":"2389.200000003","correct":true,"confidence":5},{"trial_n":61,"span":9,"encoder":"558140536","distractor":"558140539","target":"absent","response":"present","rt":"3885.599999994","correct":false,"confidence":5},{"trial_n":62,"span":8,"encoder":"75089389","distractor":"55089389","target":"present","response":"absent","rt":"4154.799999997","correct":false,"confidence":3},{"trial_n":63,"span":7,"encoder":"9399426","distractor":"9399456","target":"present","response":"present","rt":"2049.900000006","correct":true,"confidence":4},{"trial_n":64,"span":7,"encoder":"9339458","distractor":"9539458","target":"present","response":"present","rt":"2286.400000006","correct":true,"confidence":5},{"trial_n":65,"span":8,"encoder":"12943584","distractor":"12993584","target":"absent","response":"absent","rt":"2708","correct":true,"confidence":3},{"trial_n":66,"span":8,"encoder":"19398949","distractor":"19398649","target":"absent","response":"absent","rt":"5091.099999994","correct":true,"confidence":4},{"trial_n":67,"span":9,"encoder":"860782173","distractor":"860782373","target":"present","response":"present","rt":"2902.900000006","correct":true,"confidence":3},{"trial_n":68,"span":9,"encoder":"549178809","distractor":"249178809","target":"absent","response":"absent","rt":"2466.200000003","correct":true,"confidence":3},{"trial_n":69,"span":10,"encoder":"5802187517","distractor":"5802117517","target":"present","response":"present","rt":"3566.8000000119","correct":true,"confidence":3},{"trial_n":70,"span":10,"encoder":"0376426668","distractor":"0376428668","target":"present","response":"absent","rt":"2864.099999994","correct":false,"confidence":3},{"trial_n":71,"span":8,"encoder":"78668993","distractor":"73668993","target":"present","response":"present","rt":"5753.299999997","correct":true,"confidence":-1},{"trial_n":72,"span":8,"encoder":"89493097","distractor":"89495097","target":"present","response":"present","rt":"3988.200000003","correct":true,"confidence":-1},{"trial_n":73,"span":9,"encoder":"865726198","distractor":"862726198","target":"absent","response":"present","rt":"4560.8999999911","correct":false,"confidence":-1},{"trial_n":74,"span":8,"encoder":"40282503","distractor":"40284503","target":"absent","response":"absent","rt":"3975.299999997","correct":true,"confidence":-1},{"trial_n":75,"span":8,"encoder":"66443418","distractor":"66440418","target":"present","response":"present","rt":"4161.700000003","correct":true,"confidence":-1},{"trial_n":76,"span":9,"encoder":"699480779","distractor":"699980779","target":"present","response":"absent","rt":"1438.599999994","correct":false,"confidence":-1},{"trial_n":77,"span":8,"encoder":"84571043","distractor":"84571013","target":"present","response":"present","rt":"397.20000000298","correct":true,"confidence":-1},{"trial_n":78,"span":8,"encoder":"18935663","distractor":"18985663","target":"absent","response":"absent","rt":"3689","correct":true,"confidence":-1},{"trial_n":79,"span":9,"encoder":"801401465","distractor":"800401465","target":"absent","response":"absent","rt":"4496.200000003","correct":true,"confidence":-1},{"trial_n":80,"span":9,"encoder":"048864487","distractor":"046864487","target":"absent","response":"absent","rt":"2816.700000003","correct":true,"confidence":-1},{"trial_n":81,"span":10,"encoder":"8075510765","distractor":"8045510765","target":"absent","response":"present","rt":"5554.6000000089","correct":false,"confidence":-1},{"trial_n":82,"span":9,"encoder":"251100111","distractor":"351100111","target":"present","response":"present","rt":"3152.299999997","correct":true,"confidence":-1},{"trial_n":83,"span":9,"encoder":"054123481","distractor":"054923481","target":"absent","response":"absent","rt":"66887.599999994","correct":true,"confidence":-1},{"trial_n":84,"span":10,"encoder":"6664921349","distractor":"6664921329","target":"absent","response":"absent","rt":"5445.6000000089","correct":true,"confidence":-1},{"trial_n":85,"span":10,"encoder":"7102594895","distractor":"4102594895","target":"absent","response":"present","rt":"3636.8999999911","correct":false,"confidence":-1},{"trial_n":86,"span":9,"encoder":"808118600","distractor":"808118690","target":"present","response":"absent","rt":"1344.099999994","correct":false,"confidence":-1},{"trial_n":87,"span":8,"encoder":"75184292","distractor":"55184292","target":"absent","response":"absent","rt":"2881.1000000089","correct":true,"confidence":-1},{"trial_n":88,"span":8,"encoder":"22579729","distractor":"22573729","target":"absent","response":"absent","rt":"4011.700000003","correct":true,"confidence":-1},{"trial_n":89,"span":9,"encoder":"180868739","distractor":"150868739","target":"present","response":"absent","rt":"3842.200000003","correct":false,"confidence":-1},{"trial_n":90,"span":8,"encoder":"58372867","distractor":"58332867","target":"absent","response":"absent","rt":"3178.8999999911","correct":true,"confidence":-1},{"trial_n":91,"span":8,"encoder":"26620614","distractor":"26620617","target":"present","response":"present","rt":"3728.799999997","correct":true,"confidence":5},{"trial_n":92,"span":9,"encoder":"638653142","distractor":"638653242","target":"absent","response":"absent","rt":"4451.5","correct":true,"confidence":5},{"trial_n":93,"span":9,"encoder":"856761567","distractor":"856761167","target":"absent","response":"absent","rt":"3603.400000006","correct":true,"confidence":5},{"trial_n":94,"span":10,"encoder":"3213283138","distractor":"3217283138","target":"absent","response":"absent","rt":"8733.900000006","correct":true,"confidence":4},{"trial_n":95,"span":10,"encoder":"6689063562","distractor":"6685063562","target":"absent","response":"absent","rt":"5552.299999997","correct":true,"confidence":4},{"trial_n":96,"span":11,"encoder":"37644754761","distractor":"37644774761","target":"absent","response":"present","rt":"4449.200000003","correct":false,"confidence":4},{"trial_n":97,"span":10,"encoder":"9502426218","distractor":"9502424218","target":"present","response":"present","rt":"5944.599999994","correct":true,"confidence":5},{"trial_n":98,"span":10,"encoder":"6864164419","distractor":"6864564419","target":"present","response":"present","rt":"4299.8999999911","correct":true,"confidence":4},{"trial_n":99,"span":11,"encoder":"18764733769","distractor":"88764733769","target":"absent","response":"absent","rt":"6178.8000000119","correct":true,"confidence":5},{"trial_n":100,"span":11,"encoder":"11335744546","distractor":"19335744546","target":"absent","response":"absent","rt":"5732.200000003","correct":true,"confidence":4},{"trial_n":101,"span":12,"encoder":"015370625361","distractor":"015379625361","target":"absent","response":"absent","rt":"8304.599999994","correct":true,"confidence":4},{"trial_n":102,"span":12,"encoder":"549604901389","distractor":"549604906389","target":"absent","response":"absent","rt":"6099.400000006","correct":true,"confidence":4},{"trial_n":103,"span":13,"encoder":"9147729642714","distractor":"9147729842714","target":"present","response":"present","rt":"7287.599999994","correct":true,"confidence":3},{"trial_n":104,"span":13,"encoder":"9916141557963","distractor":"9916171557963","target":"absent","response":"present","rt":"6893.8999999911","correct":false,"confidence":2},{"trial_n":105,"span":12,"encoder":"209962640042","distractor":"209961640042","target":"present","response":"absent","rt":"7069.299999997","correct":false,"confidence":3},{"trial_n":106,"span":11,"encoder":"22866202599","distractor":"22866202999","target":"present","response":"present","rt":"5973.700000003","correct":true,"confidence":3},{"trial_n":107,"span":11,"encoder":"54637665382","distractor":"54637605382","target":"absent","response":"absent","rt":"4209.799999997","correct":true,"confidence":5},{"trial_n":108,"span":12,"encoder":"918871105494","distractor":"912871105494","target":"present","response":"present","rt":"6647.599999994","correct":true,"confidence":3},{"trial_n":109,"span":12,"encoder":"051435330000","distractor":"051439330000","target":"absent","response":"absent","rt":"4960.200000003","correct":true,"confidence":3},{"trial_n":110,"span":13,"encoder":"6176120944487","distractor":"6174120944487","target":"present","response":"present","rt":"4985.099999994","correct":true,"confidence":2},{"trial_n":111,"span":13,"encoder":"2576053573345","distractor":"2576053573355","target":"present","response":"present","rt":"2260","correct":true,"confidence":5},{"trial_n":112,"span":14,"encoder":"37123916658420","distractor":"37183916658420","target":"present","response":"absent","rt":"6029.5","correct":false,"confidence":3},{"trial_n":113,"span":13,"encoder":"2927070624870","distractor":"2920070624870","target":"absent","response":"absent","rt":"3805.5","correct":true,"confidence":3},{"trial_n":114,"span":13,"encoder":"8732389473984","distractor":"8132389473984","target":"absent","response":"present","rt":"1390.200000003","correct":false,"confidence":2},{"trial_n":115,"span":12,"encoder":"291980204594","distractor":"281980204594","target":"present","response":"absent","rt":"2175.099999994","correct":false,"confidence":2},{"trial_n":116,"span":11,"encoder":"02595501060","distractor":"02595501064","target":"present","response":"absent","rt":"3639.099999994","correct":false,"confidence":3},{"trial_n":117,"span":10,"encoder":"2517699521","distractor":"2817699521","target":"absent","response":"present","rt":"3960.3000000119","correct":false,"confidence":2},{"trial_n":118,"span":9,"encoder":"375809560","distractor":"375804560","target":"present","response":"present","rt":"1603.700000003","correct":true,"confidence":3},{"trial_n":119,"span":9,"encoder":"215791167","distractor":"215771167","target":"absent","response":"absent","rt":"3598.8000000119","correct":true,"confidence":2},{"trial_n":120,"span":10,"encoder":"9433369602","distractor":"1433369602","target":"present","response":"present","rt":"5492.5","correct":true,"confidence":3},{"trial_n":121,"span":10,"encoder":"9476379794","distractor":"9476379798","target":"present","response":"absent","rt":"4022.700000003","correct":false,"confidence":3},{"trial_n":122,"span":9,"encoder":"867952275","distractor":"867952277","target":"present","response":"present","rt":"1775.8000000119","correct":true,"confidence":2},{"trial_n":123,"span":9,"encoder":"705076382","distractor":"709076382","target":"present","response":"present","rt":"4170.700000003","correct":true,"confidence":4},{"trial_n":124,"span":10,"encoder":"2301487012","distractor":"2301487512","target":"absent","response":"absent","rt":"1968.200000003","correct":true,"confidence":5},{"trial_n":125,"span":10,"encoder":"4285533316","distractor":"4285533616","target":"present","response":"present","rt":"2443.900000006","correct":true,"confidence":5},{"trial_n":126,"span":11,"encoder":"72839275689","distractor":"73839275689","target":"present","response":"present","rt":"7438.700000003","correct":true,"confidence":2},{"trial_n":127,"span":11,"encoder":"17680883949","distractor":"17680883945","target":"present","response":"present","rt":"5370.799999997","correct":true,"confidence":3},{"trial_n":128,"span":12,"encoder":"131201396729","distractor":"131201396769","target":"present","response":"absent","rt":"2379","correct":false,"confidence":3},{"trial_n":129,"span":11,"encoder":"12254979411","distractor":"12254979811","target":"absent","response":"absent","rt":"2194.5","correct":true,"confidence":5},{"trial_n":130,"span":11,"encoder":"77722077582","distractor":"77722077587","target":"absent","response":"present","rt":"6865.6000000089","correct":false,"confidence":4},{"trial_n":131,"span":10,"encoder":"2811392522","distractor":"2811312522","target":"present","response":"present","rt":"6762.900000006","correct":true,"confidence":3},{"trial_n":132,"span":10,"encoder":"7705862853","distractor":"7705862893","target":"absent","response":"absent","rt":"469.09999999404","correct":true,"confidence":2},{"trial_n":133,"span":11,"encoder":"58025364308","distractor":"52025364308","target":"present","response":"present","rt":"4346.599999994","correct":true,"confidence":3},{"trial_n":134,"span":11,"encoder":"03436123881","distractor":"03436123887","target":"present","response":"present","rt":"2714.900000006","correct":true,"confidence":4},{"trial_n":135,"span":12,"encoder":"834548673692","distractor":"834548673492","target":"present","response":"present","rt":"1927.900000006","correct":true,"confidence":5},{"trial_n":136,"span":12,"encoder":"554794918339","distractor":"574794918339","target":"present","response":"absent","rt":"14213.400000006","correct":false,"confidence":5},{"trial_n":137,"span":11,"encoder":"40864839775","distractor":"40664839775","target":"absent","response":"absent","rt":"4299.6999999881","correct":true,"confidence":4},{"trial_n":138,"span":11,"encoder":"42828418022","distractor":"02828418022","target":"absent","response":"present","rt":"2186","correct":false,"confidence":2},{"trial_n":139,"span":10,"encoder":"0255083266","distractor":"0255053266","target":"present","response":"present","rt":"2552.6000000089","correct":true,"confidence":2},{"trial_n":140,"span":10,"encoder":"9770048516","distractor":"9770044516","target":"present","response":"absent","rt":"3072.3000000119","correct":false,"confidence":4}]