[{"trial_n":1,"n_dots":4.25,"target":"right","response":"left","rt":6129.1999999993,"correct":false,"confidence":-1},{"trial_n":2,"n_dots":4.25,"target":"left","response":"left","rt":420.09999999776,"correct":true,"confidence":-1},{"trial_n":3,"n_dots":4.25,"target":"right","response":"right","rt":717.80000000075,"correct":true,"confidence":-1},{"trial_n":4,"n_dots":3.85,"target":"right","response":"right","rt":338,"correct":true,"confidence":-1},{"trial_n":5,"n_dots":3.85,"target":"left","response":"left","rt":173.80000000075,"correct":true,"confidence":-1},{"trial_n":6,"n_dots":3.45,"target":"left","response":"left","rt":298.69999999925,"correct":true,"confidence":-1},{"trial_n":7,"n_dots":3.45,"target":"right","response":"right","rt":418.40000000224,"correct":true,"confidence":-1},{"trial_n":8,"n_dots":3.25,"target":"left","response":"right","rt":608,"correct":false,"confidence":-1},{"trial_n":9,"n_dots":3.45,"target":"left","response":"left","rt":269.09999999776,"correct":true,"confidence":-1},{"trial_n":10,"n_dots":3.45,"target":"left","response":"right","rt":394.19999999925,"correct":false,"confidence":-1},{"trial_n":11,"n_dots":3.65,"target":"left","response":"left","rt":513,"correct":true,"confidence":-1},{"trial_n":12,"n_dots":3.65,"target":"right","response":"right","rt":373.10000000149,"correct":true,"confidence":-1},{"trial_n":13,"n_dots":3.55,"target":"left","response":"left","rt":231.39999999851,"correct":true,"confidence":-1},{"trial_n":14,"n_dots":3.55,"target":"right","response":"right","rt":303.5,"correct":true,"confidence":-1},{"trial_n":15,"n_dots":3.45,"target":"left","response":"left","rt":23.10000000149,"correct":true,"confidence":-1},{"trial_n":16,"n_dots":3.45,"target":"right","response":"right","rt":340.39999999851,"correct":true,"confidence":-1},{"trial_n":17,"n_dots":3.35,"target":"left","response":"left","rt":580.30000000075,"correct":true,"confidence":-1},{"trial_n":18,"n_dots":3.35,"target":"left","response":"right","rt":330.59999999776,"correct":false,"confidence":-1},{"trial_n":19,"n_dots":3.45,"target":"right","response":"right","rt":237.80000000075,"correct":true,"confidence":-1},{"trial_n":20,"n_dots":3.45,"target":"right","response":"right","rt":370.60000000149,"correct":true,"confidence":-1},{"trial_n":21,"n_dots":3.35,"target":"left","response":"right","rt":503.80000000075,"correct":false,"confidence":2},{"trial_n":22,"n_dots":3.45,"target":"left","response":"left","rt":574.89999999851,"correct":true,"confidence":3},{"trial_n":23,"n_dots":3.45,"target":"right","response":"right","rt":1312.5,"correct":true,"confidence":4},{"trial_n":24,"n_dots":3.35,"target":"right","response":"right","rt":263.69999999925,"correct":true,"confidence":3},{"trial_n":25,"n_dots":3.35,"target":"right","response":"right","rt":883.10000000149,"correct":true,"confidence":3},{"trial_n":26,"n_dots":3.25,"target":"left","response":"left","rt":289.80000000075,"correct":true,"confidence":2},{"trial_n":27,"n_dots":3.25,"target":"left","response":"right","rt":977.80000000075,"correct":false,"confidence":1},{"trial_n":28,"n_dots":3.35,"target":"right","response":"right","rt":766.10000000149,"correct":true,"confidence":4},{"trial_n":29,"n_dots":3.35,"target":"left","response":"left","rt":352.69999999925,"correct":true,"confidence":4},{"trial_n":30,"n_dots":3.25,"target":"right","response":"right","rt":600.19999999925,"correct":true,"confidence":3},{"trial_n":31,"n_dots":3.25,"target":"left","response":"right","rt":414.19999999925,"correct":false,"confidence":3},{"trial_n":32,"n_dots":3.35,"target":"right","response":"right","rt":268.19999999925,"correct":true,"confidence":4},{"trial_n":33,"n_dots":3.35,"target":"right","response":"right","rt":374.10000000149,"correct":true,"confidence":4},{"trial_n":34,"n_dots":3.25,"target":"right","response":"right","rt":650.60000000149,"correct":true,"confidence":4},{"trial_n":35,"n_dots":3.25,"target":"right","response":"right","rt":269.60000000149,"correct":true,"confidence":4},{"trial_n":36,"n_dots":3.15,"target":"right","response":"right","rt":343.80000000075,"correct":true,"confidence":4},{"trial_n":37,"n_dots":3.15,"target":"right","response":"left","rt":349.39999999851,"correct":false,"confidence":3},{"trial_n":38,"n_dots":3.25,"target":"left","response":"left","rt":256,"correct":true,"confidence":4},{"trial_n":39,"n_dots":3.25,"target":"right","response":"right","rt":95.800000000745,"correct":true,"confidence":3},{"trial_n":40,"n_dots":3.15,"target":"left","response":"left","rt":130,"correct":true,"confidence":3},{"trial_n":41,"n_dots":3.15,"target":"right","response":"right","rt":240.29999999702,"correct":true,"confidence":4},{"trial_n":42,"n_dots":3.05,"target":"left","response":"left","rt":205.19999999925,"correct":true,"confidence":4},{"trial_n":43,"n_dots":3.05,"target":"left","response":"left","rt":1056.200000003,"correct":true,"confidence":4},{"trial_n":44,"n_dots":2.95,"target":"left","response":"right","rt":471.10000000149,"correct":false,"confidence":3},{"trial_n":45,"n_dots":3.05,"target":"left","response":"left","rt":272.80000000075,"correct":true,"confidence":2},{"trial_n":46,"n_dots":3.05,"target":"right","response":"right","rt":385.90000000224,"correct":true,"confidence":3},{"trial_n":47,"n_dots":2.95,"target":"left","response":"left","rt":516.69999999925,"correct":true,"confidence":4},{"trial_n":48,"n_dots":2.95,"target":"left","response":"left","rt":360.80000000075,"correct":true,"confidence":3},{"trial_n":49,"n_dots":2.85,"target":"left","response":"right","rt":440.69999999925,"correct":false,"confidence":2},{"trial_n":50,"n_dots":2.95,"target":"right","response":"right","rt":403.5,"correct":true,"confidence":3},{"trial_n":51,"n_dots":2.95,"target":"right","response":"right","rt":1277.5,"correct":true,"confidence":3},{"trial_n":52,"n_dots":2.85,"target":"right","response":"right","rt":80.89999999851,"correct":true,"confidence":2},{"trial_n":53,"n_dots":2.85,"target":"left","response":"left","rt":433.19999999925,"correct":true,"confidence":2},{"trial_n":54,"n_dots":2.75,"target":"left","response":"right","rt":478.10000000149,"correct":false,"confidence":2},{"trial_n":55,"n_dots":2.85,"target":"left","response":"right","rt":359.39999999851,"correct":false,"confidence":2},{"trial_n":56,"n_dots":2.95,"target":"left","response":"left","rt":361.30000000075,"correct":true,"confidence":2},{"trial_n":57,"n_dots":2.95,"target":"left","response":"right","rt":635.80000000075,"correct":false,"confidence":3},{"trial_n":58,"n_dots":3.05,"target":"left","response":"left","rt":15.800000000745,"correct":true,"confidence":2},{"trial_n":59,"n_dots":3.05,"target":"left","response":"left","rt":808,"correct":true,"confidence":4},{"trial_n":60,"n_dots":2.95,"target":"right","response":"right","rt":113.09999999776,"correct":true,"confidence":2},{"trial_n":61,"n_dots":2.95,"target":"left","response":"right","rt":379.60000000149,"correct":false,"confidence":1},{"trial_n":62,"n_dots":3.05,"target":"right","response":"right","rt":772.60000000149,"correct":true,"confidence":2},{"trial_n":63,"n_dots":3.05,"target":"left","response":"left","rt":376.80000000075,"correct":true,"confidence":3},{"trial_n":64,"n_dots":2.95,"target":"right","response":"right","rt":183.19999999925,"correct":true,"confidence":3},{"trial_n":65,"n_dots":2.95,"target":"right","response":"right","rt":223.30000000075,"correct":true,"confidence":3},{"trial_n":66,"n_dots":2.85,"target":"right","response":"right","rt":415,"correct":true,"confidence":2},{"trial_n":67,"n_dots":2.85,"target":"left","response":"right","rt":661.70000000298,"correct":false,"confidence":3},{"trial_n":68,"n_dots":2.95,"target":"left","response":"left","rt":716.30000000075,"correct":true,"confidence":3},{"trial_n":69,"n_dots":2.95,"target":"left","response":"right","rt":370.80000000075,"correct":false,"confidence":3},{"trial_n":70,"n_dots":3.05,"target":"left","response":"left","rt":91.70000000298,"correct":true,"confidence":2},{"trial_n":71,"n_dots":3.05,"target":"right","response":"left","rt":424.80000000075,"correct":false,"confidence":2},{"trial_n":72,"n_dots":3.15,"target":"right","response":"right","rt":397.80000000075,"correct":true,"confidence":3},{"trial_n":73,"n_dots":3.15,"target":"right","response":"right","rt":415.39999999851,"correct":true,"confidence":3},{"trial_n":74,"n_dots":3.05,"target":"right","response":"right","rt":309.80000000075,"correct":true,"confidence":3},{"trial_n":75,"n_dots":3.05,"target":"right","response":"right","rt":167.20000000298,"correct":true,"confidence":3},{"trial_n":76,"n_dots":2.95,"target":"right","response":"right","rt":542.20000000298,"correct":true,"confidence":1},{"trial_n":77,"n_dots":2.95,"target":"left","response":"left","rt":146.60000000149,"correct":true,"confidence":3},{"trial_n":78,"n_dots":2.85,"target":"right","response":"left","rt":295.5,"correct":false,"confidence":2},{"trial_n":79,"n_dots":2.95,"target":"right","response":"left","rt":238,"correct":false,"confidence":2},{"trial_n":80,"n_dots":3.05,"target":"right","response":"right","rt":92.300000000745,"correct":true,"confidence":2},{"trial_n":81,"n_dots":3.05,"target":"left","response":"left","rt":569.89999999851,"correct":true,"confidence":3},{"trial_n":82,"n_dots":2.95,"target":"right","response":"right","rt":540.39999999851,"correct":true,"confidence":4},{"trial_n":83,"n_dots":2.95,"target":"right","response":"right","rt":343.69999999925,"correct":true,"confidence":3},{"trial_n":84,"n_dots":2.85,"target":"left","response":"left","rt":245.59999999776,"correct":true,"confidence":4},{"trial_n":85,"n_dots":2.85,"target":"right","response":"left","rt":260.40000000224,"correct":false,"confidence":3},{"trial_n":86,"n_dots":2.95,"target":"left","response":"left","rt":166.79999999702,"correct":true,"confidence":3},{"trial_n":87,"n_dots":2.95,"target":"right","response":"right","rt":421.10000000149,"correct":true,"confidence":2},{"trial_n":88,"n_dots":2.85,"target":"right","response":"right","rt":357.10000000149,"correct":true,"confidence":2},{"trial_n":89,"n_dots":2.85,"target":"left","response":"left","rt":423.69999999925,"correct":true,"confidence":4},{"trial_n":90,"n_dots":2.75,"target":"left","response":"right","rt":333.69999999925,"correct":false,"confidence":2},{"trial_n":91,"n_dots":2.85,"target":"right","response":"left","rt":347.69999999925,"correct":false,"confidence":1},{"trial_n":92,"n_dots":2.95,"target":"right","response":"left","rt":303.89999999851,"correct":false,"confidence":1},{"trial_n":93,"n_dots":3.05,"target":"right","response":"right","rt":195.69999999925,"correct":true,"confidence":3},{"trial_n":94,"n_dots":3.05,"target":"left","response":"left","rt":268.80000000075,"correct":true,"confidence":4},{"trial_n":95,"n_dots":2.95,"target":"left","response":"left","rt":289.79999999702,"correct":true,"confidence":1},{"trial_n":96,"n_dots":2.95,"target":"left","response":"left","rt":393.10000000149,"correct":true,"confidence":3},{"trial_n":97,"n_dots":2.85,"target":"right","response":"left","rt":298.60000000149,"correct":false,"confidence":2},{"trial_n":98,"n_dots":2.95,"target":"right","response":"left","rt":299.19999999925,"correct":false,"confidence":3},{"trial_n":99,"n_dots":3.05,"target":"right","response":"left","rt":455.19999999925,"correct":false,"confidence":2},{"trial_n":100,"n_dots":3.15,"target":"left","response":"left","rt":285.39999999851,"correct":true,"confidence":3},{"trial_n":101,"n_dots":3.15,"target":"left","response":"left","rt":230.69999999925,"correct":true,"confidence":3},{"trial_n":102,"n_dots":3.05,"target":"right","response":"left","rt":294.10000000149,"correct":false,"confidence":2},{"trial_n":103,"n_dots":3.15,"target":"left","response":"right","rt":87.699999999255,"correct":false,"confidence":1},{"trial_n":104,"n_dots":3.25,"target":"right","response":"right","rt":303.80000000075,"correct":true,"confidence":2},{"trial_n":105,"n_dots":3.25,"target":"right","response":"right","rt":315.10000000149,"correct":true,"confidence":4},{"trial_n":106,"n_dots":3.15,"target":"left","response":"left","rt":534.89999999851,"correct":true,"confidence":1},{"trial_n":107,"n_dots":3.15,"target":"right","response":"right","rt":623.69999999925,"correct":true,"confidence":1},{"trial_n":108,"n_dots":3.05,"target":"right","response":"right","rt":390,"correct":true,"confidence":2},{"trial_n":109,"n_dots":3.05,"target":"left","response":"right","rt":344,"correct":false,"confidence":1},{"trial_n":110,"n_dots":3.15,"target":"left","response":"right","rt":447.59999999776,"correct":false,"confidence":1},{"trial_n":111,"n_dots":3.25,"target":"right","response":"right","rt":810.69999999925,"correct":true,"confidence":1},{"trial_n":112,"n_dots":3.25,"target":"left","response":"left","rt":414.19999999925,"correct":true,"confidence":1},{"trial_n":113,"n_dots":3.15,"target":"right","response":"right","rt":298.60000000149,"correct":true,"confidence":1},{"trial_n":114,"n_dots":3.15,"target":"left","response":"left","rt":128.09999999776,"correct":true,"confidence":3},{"trial_n":115,"n_dots":3.05,"target":"right","response":"right","rt":1488.5999999978,"correct":true,"confidence":1},{"trial_n":116,"n_dots":3.05,"target":"left","response":"left","rt":314.5,"correct":true,"confidence":1},{"trial_n":117,"n_dots":2.95,"target":"left","response":"left","rt":394.80000000075,"correct":true,"confidence":3},{"trial_n":118,"n_dots":2.95,"target":"left","response":"left","rt":299.80000000075,"correct":true,"confidence":3},{"trial_n":119,"n_dots":2.85,"target":"left","response":"left","rt":292.59999999776,"correct":true,"confidence":3},{"trial_n":120,"n_dots":2.85,"target":"right","response":"left","rt":359,"correct":false,"confidence":2}]