[{"trial_n":1,"n_dots":4.25,"target":"left","response":"left","rt":4225.8000001907,"correct":true,"confidence":-1},{"trial_n":2,"n_dots":4.25,"target":"right","response":"right","rt":323.90000009537,"correct":true,"confidence":-1},{"trial_n":3,"n_dots":3.85,"target":"right","response":"right","rt":70.699999809265,"correct":true,"confidence":-1},{"trial_n":4,"n_dots":3.85,"target":"left","response":"left","rt":108.5,"correct":true,"confidence":-1},{"trial_n":5,"n_dots":3.45,"target":"left","response":"right","rt":1224.1999998093,"correct":false,"confidence":-1},{"trial_n":6,"n_dots":3.85,"target":"left","response":"left","rt":383.40000009537,"correct":true,"confidence":-1},{"trial_n":7,"n_dots":3.85,"target":"left","response":"left","rt":323.59999990463,"correct":true,"confidence":-1},{"trial_n":8,"n_dots":3.65,"target":"right","response":"left","rt":296,"correct":false,"confidence":-1},{"trial_n":9,"n_dots":3.85,"target":"left","response":"left","rt":166.2000002861,"correct":true,"confidence":-1},{"trial_n":10,"n_dots":3.85,"target":"right","response":"left","rt":146.7000002861,"correct":false,"confidence":-1},{"trial_n":11,"n_dots":4.05,"target":"right","response":"right","rt":21.300000190735,"correct":true,"confidence":-1},{"trial_n":12,"n_dots":4.05,"target":"right","response":"right","rt":536.80000019073,"correct":true,"confidence":-1},{"trial_n":13,"n_dots":3.95,"target":"left","response":"right","rt":816.40000009537,"correct":false,"confidence":-1},{"trial_n":14,"n_dots":4.05,"target":"right","response":"right","rt":63.10000038147,"correct":true,"confidence":-1},{"trial_n":15,"n_dots":4.05,"target":"right","response":"right","rt":186.30000019073,"correct":true,"confidence":-1},{"trial_n":16,"n_dots":3.95,"target":"right","response":"right","rt":237.7000002861,"correct":true,"confidence":-1},{"trial_n":17,"n_dots":3.95,"target":"right","response":"right","rt":373.30000019073,"correct":true,"confidence":-1},{"trial_n":18,"n_dots":3.85,"target":"right","response":"right","rt":188.90000009537,"correct":true,"confidence":-1},{"trial_n":19,"n_dots":3.85,"target":"right","response":"right","rt":167.60000038147,"correct":true,"confidence":-1},{"trial_n":20,"n_dots":3.75,"target":"left","response":"left","rt":89.89999961853,"correct":true,"confidence":-1},{"trial_n":21,"n_dots":3.75,"target":"right","response":"right","rt":529.30000019073,"correct":true,"confidence":3},{"trial_n":22,"n_dots":3.65,"target":"left","response":"left","rt":301.2999997139,"correct":true,"confidence":4},{"trial_n":23,"n_dots":3.65,"target":"left","response":"left","rt":331.89999961853,"correct":true,"confidence":5},{"trial_n":24,"n_dots":3.55,"target":"left","response":"right","rt":2821.6000003815,"correct":false,"confidence":2},{"trial_n":25,"n_dots":3.65,"target":"right","response":"right","rt":263.40000009537,"correct":true,"confidence":4},{"trial_n":26,"n_dots":3.65,"target":"right","response":"right","rt":414.09999990463,"correct":true,"confidence":4},{"trial_n":27,"n_dots":3.55,"target":"left","response":"left","rt":296.7999997139,"correct":true,"confidence":4},{"trial_n":28,"n_dots":3.55,"target":"left","response":"left","rt":159.5,"correct":true,"confidence":5},{"trial_n":29,"n_dots":3.45,"target":"left","response":"left","rt":75.099999904633,"correct":true,"confidence":4},{"trial_n":30,"n_dots":3.45,"target":"left","response":"left","rt":378.5,"correct":true,"confidence":4},{"trial_n":31,"n_dots":3.35,"target":"left","response":"left","rt":330.60000038147,"correct":true,"confidence":4},{"trial_n":32,"n_dots":3.35,"target":"right","response":"right","rt":502.59999990463,"correct":true,"confidence":2},{"trial_n":33,"n_dots":3.25,"target":"right","response":"left","rt":277.2000002861,"correct":false,"confidence":2},{"trial_n":34,"n_dots":3.35,"target":"left","response":"right","rt":2150.6000003815,"correct":false,"confidence":2},{"trial_n":35,"n_dots":3.45,"target":"left","response":"left","rt":321.5,"correct":true,"confidence":5},{"trial_n":36,"n_dots":3.45,"target":"right","response":"right","rt":311.19999980927,"correct":true,"confidence":4},{"trial_n":37,"n_dots":3.35,"target":"left","response":"left","rt":1581,"correct":true,"confidence":1},{"trial_n":38,"n_dots":3.35,"target":"right","response":"right","rt":538.80000019073,"correct":true,"confidence":3},{"trial_n":39,"n_dots":3.25,"target":"right","response":"right","rt":1670.2999997139,"correct":true,"confidence":1},{"trial_n":40,"n_dots":3.25,"target":"left","response":"left","rt":298,"correct":true,"confidence":4},{"trial_n":41,"n_dots":3.15,"target":"left","response":"right","rt":2009,"correct":false,"confidence":3},{"trial_n":42,"n_dots":3.25,"target":"left","response":"left","rt":651.40000009537,"correct":true,"confidence":4},{"trial_n":43,"n_dots":3.25,"target":"left","response":"right","rt":328.5,"correct":false,"confidence":1},{"trial_n":44,"n_dots":3.35,"target":"left","response":"left","rt":810.09999990463,"correct":true,"confidence":4},{"trial_n":45,"n_dots":3.35,"target":"right","response":"right","rt":1288.5,"correct":true,"confidence":2},{"trial_n":46,"n_dots":3.25,"target":"left","response":"left","rt":265.59999990463,"correct":true,"confidence":5},{"trial_n":47,"n_dots":3.25,"target":"right","response":"right","rt":510.19999980927,"correct":true,"confidence":3},{"trial_n":48,"n_dots":3.15,"target":"left","response":"left","rt":632.80000019073,"correct":true,"confidence":5},{"trial_n":49,"n_dots":3.15,"target":"right","response":"right","rt":361.2000002861,"correct":true,"confidence":2},{"trial_n":50,"n_dots":3.05,"target":"left","response":"left","rt":551.90000009537,"correct":true,"confidence":3},{"trial_n":51,"n_dots":3.05,"target":"left","response":"left","rt":454.40000009537,"correct":true,"confidence":1},{"trial_n":52,"n_dots":2.95,"target":"right","response":"right","rt":575.90000009537,"correct":true,"confidence":1},{"trial_n":53,"n_dots":2.95,"target":"right","response":"right","rt":491,"correct":true,"confidence":3},{"trial_n":54,"n_dots":2.85,"target":"left","response":"left","rt":345.10000038147,"correct":true,"confidence":3},{"trial_n":55,"n_dots":2.85,"target":"right","response":"right","rt":495.09999990463,"correct":true,"confidence":1},{"trial_n":56,"n_dots":2.75,"target":"left","response":"left","rt":1199.9000000954,"correct":true,"confidence":1},{"trial_n":57,"n_dots":2.75,"target":"right","response":"right","rt":1191.5,"correct":true,"confidence":1},{"trial_n":58,"n_dots":2.65,"target":"left","response":"right","rt":1182.1999998093,"correct":false,"confidence":2},{"trial_n":59,"n_dots":2.75,"target":"right","response":"left","rt":672.09999990463,"correct":false,"confidence":3},{"trial_n":60,"n_dots":2.85,"target":"left","response":"left","rt":1463.2999997139,"correct":true,"confidence":2},{"trial_n":61,"n_dots":2.85,"target":"right","response":"left","rt":1051.5,"correct":false,"confidence":3},{"trial_n":62,"n_dots":2.95,"target":"left","response":"left","rt":280.90000009537,"correct":true,"confidence":3},{"trial_n":63,"n_dots":2.95,"target":"right","response":"left","rt":933.30000019073,"correct":false,"confidence":3},{"trial_n":64,"n_dots":3.05,"target":"right","response":"right","rt":372.7000002861,"correct":true,"confidence":3},{"trial_n":65,"n_dots":3.05,"target":"left","response":"left","rt":558.5,"correct":true,"confidence":3},{"trial_n":66,"n_dots":2.95,"target":"left","response":"left","rt":845.5,"correct":true,"confidence":2},{"trial_n":67,"n_dots":2.95,"target":"left","response":"left","rt":683.30000019073,"correct":true,"confidence":2},{"trial_n":68,"n_dots":2.85,"target":"right","response":"right","rt":1759.1999998093,"correct":true,"confidence":1},{"trial_n":69,"n_dots":2.85,"target":"right","response":"left","rt":706,"correct":false,"confidence":3},{"trial_n":70,"n_dots":2.95,"target":"right","response":"right","rt":332.09999990463,"correct":true,"confidence":3},{"trial_n":71,"n_dots":2.95,"target":"right","response":"right","rt":1163.2999997139,"correct":true,"confidence":1},{"trial_n":72,"n_dots":2.85,"target":"left","response":"left","rt":826.40000009537,"correct":true,"confidence":2},{"trial_n":73,"n_dots":2.85,"target":"left","response":"left","rt":2447.8000001907,"correct":true,"confidence":2},{"trial_n":74,"n_dots":2.75,"target":"left","response":"left","rt":880.30000019073,"correct":true,"confidence":1},{"trial_n":75,"n_dots":2.75,"target":"right","response":"right","rt":337.7999997139,"correct":true,"confidence":4},{"trial_n":76,"n_dots":2.65,"target":"right","response":"left","rt":879,"correct":false,"confidence":1},{"trial_n":77,"n_dots":2.75,"target":"right","response":"right","rt":307.19999980927,"correct":true,"confidence":2},{"trial_n":78,"n_dots":2.75,"target":"left","response":"left","rt":735.09999990463,"correct":true,"confidence":4},{"trial_n":79,"n_dots":2.65,"target":"right","response":"right","rt":313.2000002861,"correct":true,"confidence":4},{"trial_n":80,"n_dots":2.65,"target":"right","response":"right","rt":288.19999980927,"correct":true,"confidence":3},{"trial_n":81,"n_dots":2.55,"target":"left","response":"left","rt":2668.9000000954,"correct":true,"confidence":1},{"trial_n":82,"n_dots":2.55,"target":"right","response":"right","rt":264.39999961853,"correct":true,"confidence":5},{"trial_n":83,"n_dots":2.45,"target":"left","response":"left","rt":516.80000019073,"correct":true,"confidence":3},{"trial_n":84,"n_dots":2.45,"target":"right","response":"right","rt":452.69999980927,"correct":true,"confidence":2},{"trial_n":85,"n_dots":2.35,"target":"left","response":"left","rt":1253.6999998093,"correct":true,"confidence":1},{"trial_n":86,"n_dots":2.35,"target":"left","response":"left","rt":2415.1999998093,"correct":true,"confidence":1},{"trial_n":87,"n_dots":2.25,"target":"right","response":"right","rt":740.7000002861,"correct":true,"confidence":1},{"trial_n":88,"n_dots":2.25,"target":"left","response":"right","rt":1321.5,"correct":false,"confidence":1},{"trial_n":89,"n_dots":2.35,"target":"right","response":"right","rt":1864.4000000954,"correct":true,"confidence":2},{"trial_n":90,"n_dots":2.35,"target":"left","response":"left","rt":468.09999990463,"correct":true,"confidence":3},{"trial_n":91,"n_dots":2.25,"target":"left","response":"left","rt":393.5,"correct":true,"confidence":2},{"trial_n":92,"n_dots":2.25,"target":"left","response":"right","rt":2449,"correct":false,"confidence":1},{"trial_n":93,"n_dots":2.35,"target":"left","response":"left","rt":325.7000002861,"correct":true,"confidence":2},{"trial_n":94,"n_dots":2.35,"target":"right","response":"right","rt":1854.3000001907,"correct":true,"confidence":1},{"trial_n":95,"n_dots":2.25,"target":"right","response":"left","rt":1207.8000001907,"correct":false,"confidence":2},{"trial_n":96,"n_dots":2.35,"target":"left","response":"left","rt":819.40000009537,"correct":true,"confidence":3},{"trial_n":97,"n_dots":2.35,"target":"right","response":"left","rt":1031.9000000954,"correct":false,"confidence":2},{"trial_n":98,"n_dots":2.45,"target":"left","response":"right","rt":787.59999990463,"correct":false,"confidence":1},{"trial_n":99,"n_dots":2.55,"target":"left","response":"left","rt":325.40000009537,"correct":true,"confidence":2},{"trial_n":100,"n_dots":2.55,"target":"right","response":"right","rt":1567.1999998093,"correct":true,"confidence":1},{"trial_n":101,"n_dots":2.45,"target":"right","response":"left","rt":541,"correct":false,"confidence":1},{"trial_n":102,"n_dots":2.55,"target":"right","response":"right","rt":503.5,"correct":true,"confidence":3},{"trial_n":103,"n_dots":2.55,"target":"left","response":"left","rt":1860.0999999046,"correct":true,"confidence":3},{"trial_n":104,"n_dots":2.45,"target":"left","response":"left","rt":687,"correct":true,"confidence":2},{"trial_n":105,"n_dots":2.45,"target":"right","response":"left","rt":442.69999980927,"correct":false,"confidence":3},{"trial_n":106,"n_dots":2.55,"target":"right","response":"right","rt":335.90000009537,"correct":true,"confidence":3},{"trial_n":107,"n_dots":2.55,"target":"left","response":"left","rt":518.09999990463,"correct":true,"confidence":4},{"trial_n":108,"n_dots":2.45,"target":"left","response":"right","rt":402.19999980927,"correct":false,"confidence":2},{"trial_n":109,"n_dots":2.55,"target":"right","response":"left","rt":827.90000009537,"correct":false,"confidence":3},{"trial_n":110,"n_dots":2.65,"target":"right","response":"right","rt":271.2000002861,"correct":true,"confidence":2},{"trial_n":111,"n_dots":2.65,"target":"right","response":"right","rt":168.59999990463,"correct":true,"confidence":4},{"trial_n":112,"n_dots":2.55,"target":"right","response":"left","rt":398.2999997139,"correct":false,"confidence":3},{"trial_n":113,"n_dots":2.65,"target":"right","response":"right","rt":616.40000009537,"correct":true,"confidence":3},{"trial_n":114,"n_dots":2.65,"target":"right","response":"left","rt":913.09999990463,"correct":false,"confidence":1},{"trial_n":115,"n_dots":2.75,"target":"left","response":"right","rt":1151.8000001907,"correct":false,"confidence":2},{"trial_n":116,"n_dots":2.85,"target":"left","response":"left","rt":1562.5,"correct":true,"confidence":2},{"trial_n":117,"n_dots":2.85,"target":"left","response":"right","rt":1624.6999998093,"correct":false,"confidence":1},{"trial_n":118,"n_dots":2.95,"target":"right","response":"right","rt":1606.4000000954,"correct":true,"confidence":1},{"trial_n":119,"n_dots":2.95,"target":"left","response":"left","rt":621.80000019073,"correct":true,"confidence":2},{"trial_n":120,"n_dots":2.85,"target":"right","response":"right","rt":879.19999980927,"correct":true,"confidence":2}]