[{"trial_n":1,"min":25,"max":230,"target":"present","response":"present","rt":8363.3000000045,"correct":true,"confidence":-1},{"trial_n":2,"min":25,"max":230,"target":"present","response":"present","rt":794,"correct":true,"confidence":-1},{"trial_n":3,"min":41,"max":214,"target":"absent","response":"absent","rt":1340.1000000015,"correct":true,"confidence":-1},{"trial_n":4,"min":41,"max":214,"target":"absent","response":"absent","rt":966.89999999851,"correct":true,"confidence":-1},{"trial_n":5,"min":57,"max":198,"target":"present","response":"present","rt":583.29999999702,"correct":true,"confidence":-1},{"trial_n":6,"min":57,"max":198,"target":"absent","response":"present","rt":775.20000000298,"correct":false,"confidence":-1},{"trial_n":7,"min":41,"max":214,"target":"present","response":"present","rt":614.20000000298,"correct":true,"confidence":-1},{"trial_n":8,"min":41,"max":214,"target":"absent","response":"absent","rt":488.80000000447,"correct":true,"confidence":-1},{"trial_n":9,"min":57,"max":198,"target":"present","response":"present","rt":529.10000000149,"correct":true,"confidence":-1},{"trial_n":10,"min":57,"max":198,"target":"present","response":"present","rt":770.20000000298,"correct":true,"confidence":-1},{"trial_n":11,"min":65,"max":190,"target":"absent","response":"absent","rt":573.89999999851,"correct":true,"confidence":-1},{"trial_n":12,"min":65,"max":190,"target":"absent","response":"absent","rt":572.20000000298,"correct":true,"confidence":-1},{"trial_n":13,"min":73,"max":182,"target":"present","response":"present","rt":533.5,"correct":true,"confidence":-1},{"trial_n":14,"min":73,"max":182,"target":"present","response":"present","rt":545.70000000298,"correct":true,"confidence":-1},{"trial_n":15,"min":81,"max":174,"target":"absent","response":"absent","rt":458.39999999851,"correct":true,"confidence":-1},{"trial_n":16,"min":81,"max":174,"target":"absent","response":"absent","rt":500.10000000149,"correct":true,"confidence":-1},{"trial_n":17,"min":89,"max":166,"target":"present","response":"absent","rt":606.59999999404,"correct":false,"confidence":-1},{"trial_n":18,"min":81,"max":174,"target":"absent","response":"absent","rt":472.29999999702,"correct":true,"confidence":-1},{"trial_n":19,"min":81,"max":174,"target":"absent","response":"absent","rt":494.39999999851,"correct":true,"confidence":-1},{"trial_n":20,"min":89,"max":166,"target":"present","response":"present","rt":467.5,"correct":true,"confidence":-1},{"trial_n":21,"min":89,"max":166,"target":"present","response":"absent","rt":514.39999999851,"correct":false,"confidence":2},{"trial_n":22,"min":85,"max":170,"target":"absent","response":"absent","rt":3417.3999999985,"correct":true,"confidence":3},{"trial_n":23,"min":85,"max":170,"target":"absent","response":"absent","rt":1426,"correct":true,"confidence":4},{"trial_n":24,"min":89,"max":166,"target":"present","response":"absent","rt":875.90000000596,"correct":false,"confidence":3},{"trial_n":25,"min":85,"max":170,"target":"present","response":"present","rt":1988.200000003,"correct":true,"confidence":3},{"trial_n":26,"min":85,"max":170,"target":"absent","response":"absent","rt":567.5,"correct":true,"confidence":4},{"trial_n":27,"min":89,"max":166,"target":"absent","response":"present","rt":1871.200000003,"correct":false,"confidence":3},{"trial_n":28,"min":85,"max":170,"target":"present","response":"absent","rt":861.29999999702,"correct":false,"confidence":3},{"trial_n":29,"min":81,"max":174,"target":"absent","response":"absent","rt":587.69999999553,"correct":true,"confidence":4},{"trial_n":30,"min":81,"max":174,"target":"absent","response":"absent","rt":533.19999999553,"correct":true,"confidence":4},{"trial_n":31,"min":83,"max":172,"target":"present","response":"present","rt":507.60000000149,"correct":true,"confidence":4},{"trial_n":32,"min":83,"max":172,"target":"present","response":"present","rt":542.39999999851,"correct":true,"confidence":4},{"trial_n":33,"min":85,"max":170,"target":"present","response":"present","rt":528.5,"correct":true,"confidence":3},{"trial_n":34,"min":85,"max":170,"target":"absent","response":"absent","rt":926.40000000596,"correct":true,"confidence":3},{"trial_n":35,"min":87,"max":168,"target":"absent","response":"absent","rt":528.10000000149,"correct":true,"confidence":5},{"trial_n":36,"min":87,"max":168,"target":"present","response":"present","rt":1270,"correct":true,"confidence":3},{"trial_n":37,"min":89,"max":166,"target":"present","response":"absent","rt":718.39999999851,"correct":false,"confidence":3},{"trial_n":38,"min":87,"max":168,"target":"present","response":"absent","rt":1120,"correct":false,"confidence":3},{"trial_n":39,"min":85,"max":170,"target":"present","response":"present","rt":1226.1000000015,"correct":true,"confidence":2},{"trial_n":40,"min":85,"max":170,"target":"present","response":"absent","rt":747.70000000298,"correct":false,"confidence":4},{"trial_n":41,"min":84,"max":171,"target":"present","response":"absent","rt":599.30000000447,"correct":false,"confidence":5},{"trial_n":42,"min":83,"max":172,"target":"absent","response":"absent","rt":534.69999999553,"correct":true,"confidence":5},{"trial_n":43,"min":83,"max":172,"target":"absent","response":"absent","rt":1394.6000000015,"correct":true,"confidence":5},{"trial_n":44,"min":84,"max":171,"target":"absent","response":"absent","rt":1121.8999999985,"correct":true,"confidence":4},{"trial_n":45,"min":84,"max":171,"target":"present","response":"present","rt":1590.6000000015,"correct":true,"confidence":3},{"trial_n":46,"min":85,"max":170,"target":"absent","response":"absent","rt":1098.799999997,"correct":true,"confidence":3},{"trial_n":47,"min":85,"max":170,"target":"absent","response":"absent","rt":1289.1000000015,"correct":true,"confidence":3},{"trial_n":48,"min":86,"max":169,"target":"absent","response":"absent","rt":1144.700000003,"correct":true,"confidence":4},{"trial_n":49,"min":86,"max":169,"target":"absent","response":"absent","rt":1463.700000003,"correct":true,"confidence":3},{"trial_n":50,"min":87,"max":168,"target":"absent","response":"present","rt":2287.700000003,"correct":false,"confidence":3},{"trial_n":51,"min":86,"max":169,"target":"present","response":"absent","rt":1972.299999997,"correct":false,"confidence":2},{"trial_n":52,"min":85,"max":170,"target":"present","response":"absent","rt":1104.6000000015,"correct":false,"confidence":3},{"trial_n":53,"min":84,"max":171,"target":"absent","response":"absent","rt":1196.8999999985,"correct":true,"confidence":4},{"trial_n":54,"min":84,"max":171,"target":"present","response":"present","rt":1246.200000003,"correct":true,"confidence":4},{"trial_n":55,"min":85,"max":170,"target":"absent","response":"absent","rt":1181.200000003,"correct":true,"confidence":3},{"trial_n":56,"min":85,"max":170,"target":"present","response":"present","rt":1342,"correct":true,"confidence":3},{"trial_n":57,"min":86,"max":169,"target":"absent","response":"absent","rt":1435.5,"correct":true,"confidence":5},{"trial_n":58,"min":86,"max":169,"target":"absent","response":"absent","rt":1478,"correct":true,"confidence":3},{"trial_n":59,"min":87,"max":168,"target":"present","response":"present","rt":1102.400000006,"correct":true,"confidence":4},{"trial_n":60,"min":87,"max":168,"target":"present","response":"present","rt":1403.200000003,"correct":true,"confidence":3},{"trial_n":61,"min":88,"max":167,"target":"absent","response":"absent","rt":1080.200000003,"correct":true,"confidence":3},{"trial_n":62,"min":88,"max":167,"target":"present","response":"absent","rt":1088.200000003,"correct":false,"confidence":4},{"trial_n":63,"min":87,"max":168,"target":"absent","response":"absent","rt":1401.700000003,"correct":true,"confidence":4},{"trial_n":64,"min":87,"max":168,"target":"absent","response":"present","rt":1304.3999999985,"correct":false,"confidence":3},{"trial_n":65,"min":86,"max":169,"target":"present","response":"absent","rt":1018.6000000015,"correct":false,"confidence":4},{"trial_n":66,"min":85,"max":170,"target":"present","response":"present","rt":1807.8999999985,"correct":true,"confidence":3},{"trial_n":67,"min":85,"max":170,"target":"present","response":"absent","rt":1440.5,"correct":false,"confidence":4},{"trial_n":68,"min":84,"max":171,"target":"present","response":"present","rt":1572.299999997,"correct":true,"confidence":4},{"trial_n":69,"min":84,"max":171,"target":"present","response":"absent","rt":1169.599999994,"correct":false,"confidence":3},{"trial_n":70,"min":83,"max":172,"target":"absent","response":"absent","rt":976.30000000447,"correct":true,"confidence":4},{"trial_n":71,"min":41,"max":214,"target":"present","response":"present","rt":5366.8999999985,"correct":true,"confidence":-1},{"trial_n":72,"min":41,"max":214,"target":"present","response":"present","rt":2305.299999997,"correct":true,"confidence":-1},{"trial_n":73,"min":57,"max":198,"target":"absent","response":"absent","rt":606.20000000298,"correct":true,"confidence":-1},{"trial_n":74,"min":57,"max":198,"target":"absent","response":"present","rt":519.29999999702,"correct":false,"confidence":-1},{"trial_n":75,"min":41,"max":214,"target":"present","response":"present","rt":1186.6999999955,"correct":true,"confidence":-1},{"trial_n":76,"min":41,"max":214,"target":"present","response":"present","rt":501.30000000447,"correct":true,"confidence":-1},{"trial_n":77,"min":57,"max":198,"target":"absent","response":"absent","rt":533.39999999851,"correct":true,"confidence":-1},{"trial_n":78,"min":57,"max":198,"target":"present","response":"present","rt":747,"correct":true,"confidence":-1},{"trial_n":79,"min":73,"max":182,"target":"present","response":"present","rt":450.10000000149,"correct":true,"confidence":-1},{"trial_n":80,"min":73,"max":182,"target":"present","response":"present","rt":569,"correct":true,"confidence":-1},{"trial_n":81,"min":81,"max":174,"target":"absent","response":"absent","rt":494.20000000298,"correct":true,"confidence":-1},{"trial_n":82,"min":81,"max":174,"target":"present","response":"present","rt":732.5,"correct":true,"confidence":-1},{"trial_n":83,"min":89,"max":166,"target":"present","response":"present","rt":677.10000000149,"correct":true,"confidence":-1},{"trial_n":84,"min":89,"max":166,"target":"absent","response":"absent","rt":822.39999999851,"correct":true,"confidence":-1},{"trial_n":85,"min":97,"max":158,"target":"absent","response":"absent","rt":1045.1000000015,"correct":true,"confidence":-1},{"trial_n":86,"min":97,"max":158,"target":"present","response":"present","rt":927.80000000447,"correct":true,"confidence":-1},{"trial_n":87,"min":105,"max":150,"target":"absent","response":"present","rt":557.39999999851,"correct":false,"confidence":-1},{"trial_n":88,"min":97,"max":158,"target":"present","response":"absent","rt":1645.299999997,"correct":false,"confidence":-1},{"trial_n":89,"min":89,"max":166,"target":"absent","response":"present","rt":650.20000000298,"correct":false,"confidence":-1},{"trial_n":90,"min":81,"max":174,"target":"present","response":"present","rt":1141,"correct":true,"confidence":-1},{"trial_n":91,"min":81,"max":174,"target":"absent","response":"present","rt":613.69999999553,"correct":false,"confidence":3},{"trial_n":92,"min":77,"max":178,"target":"absent","response":"absent","rt":547.70000000298,"correct":true,"confidence":4},{"trial_n":93,"min":77,"max":178,"target":"present","response":"present","rt":1634.8999999985,"correct":true,"confidence":4},{"trial_n":94,"min":81,"max":174,"target":"present","response":"present","rt":380.80000000447,"correct":true,"confidence":4},{"trial_n":95,"min":81,"max":174,"target":"absent","response":"absent","rt":1523.8999999985,"correct":true,"confidence":3},{"trial_n":96,"min":85,"max":170,"target":"absent","response":"present","rt":2472.3000000045,"correct":false,"confidence":2},{"trial_n":97,"min":81,"max":174,"target":"absent","response":"present","rt":1476.3999999985,"correct":false,"confidence":2},{"trial_n":98,"min":77,"max":178,"target":"present","response":"present","rt":420.20000000298,"correct":true,"confidence":4},{"trial_n":99,"min":77,"max":178,"target":"absent","response":"absent","rt":754,"correct":true,"confidence":5},{"trial_n":100,"min":81,"max":174,"target":"absent","response":"present","rt":1496.599999994,"correct":false,"confidence":3},{"trial_n":101,"min":79,"max":176,"target":"absent","response":"present","rt":656,"correct":false,"confidence":2},{"trial_n":102,"min":77,"max":178,"target":"absent","response":"present","rt":1346.1999999955,"correct":false,"confidence":2},{"trial_n":103,"min":75,"max":180,"target":"absent","response":"absent","rt":2166.5,"correct":true,"confidence":3},{"trial_n":104,"min":75,"max":180,"target":"absent","response":"absent","rt":797.59999999404,"correct":true,"confidence":3},{"trial_n":105,"min":77,"max":178,"target":"absent","response":"present","rt":1846.200000003,"correct":false,"confidence":3},{"trial_n":106,"min":75,"max":180,"target":"present","response":"present","rt":473.5,"correct":true,"confidence":4},{"trial_n":107,"min":75,"max":180,"target":"absent","response":"absent","rt":567.20000000298,"correct":true,"confidence":4},{"trial_n":108,"min":77,"max":178,"target":"absent","response":"present","rt":1308.3999999985,"correct":false,"confidence":1},{"trial_n":109,"min":75,"max":180,"target":"absent","response":"absent","rt":797,"correct":true,"confidence":3},{"trial_n":110,"min":75,"max":180,"target":"absent","response":"absent","rt":640.69999999553,"correct":true,"confidence":3},{"trial_n":111,"min":76,"max":179,"target":"present","response":"present","rt":228,"correct":true,"confidence":3},{"trial_n":112,"min":76,"max":179,"target":"present","response":"present","rt":379.5,"correct":true,"confidence":3},{"trial_n":113,"min":77,"max":178,"target":"present","response":"present","rt":1118.3999999985,"correct":true,"confidence":1},{"trial_n":114,"min":77,"max":178,"target":"present","response":"present","rt":529.5,"correct":true,"confidence":5},{"trial_n":115,"min":78,"max":177,"target":"present","response":"present","rt":706.89999999851,"correct":true,"confidence":4},{"trial_n":116,"min":78,"max":177,"target":"absent","response":"absent","rt":1027.6000000015,"correct":true,"confidence":1},{"trial_n":117,"min":79,"max":176,"target":"present","response":"present","rt":282.30000000447,"correct":true,"confidence":3},{"trial_n":118,"min":79,"max":176,"target":"present","response":"present","rt":122.30000000447,"correct":true,"confidence":5},{"trial_n":119,"min":80,"max":175,"target":"present","response":"present","rt":286.10000000149,"correct":true,"confidence":4},{"trial_n":120,"min":80,"max":175,"target":"present","response":"present","rt":463,"correct":true,"confidence":3},{"trial_n":121,"min":81,"max":174,"target":"absent","response":"absent","rt":1155.799999997,"correct":true,"confidence":1},{"trial_n":122,"min":81,"max":174,"target":"present","response":"present","rt":1519,"correct":true,"confidence":1},{"trial_n":123,"min":82,"max":173,"target":"absent","response":"present","rt":1366.200000003,"correct":false,"confidence":2},{"trial_n":124,"min":81,"max":174,"target":"absent","response":"present","rt":982.39999999851,"correct":false,"confidence":1},{"trial_n":125,"min":80,"max":175,"target":"present","response":"present","rt":487.60000000149,"correct":true,"confidence":4},{"trial_n":126,"min":80,"max":175,"target":"absent","response":"absent","rt":907.5,"correct":true,"confidence":2},{"trial_n":127,"min":81,"max":174,"target":"absent","response":"absent","rt":1626.700000003,"correct":true,"confidence":2},{"trial_n":128,"min":81,"max":174,"target":"present","response":"present","rt":1186,"correct":true,"confidence":3},{"trial_n":129,"min":82,"max":173,"target":"present","response":"present","rt":1123.3000000045,"correct":true,"confidence":5},{"trial_n":130,"min":82,"max":173,"target":"absent","response":"present","rt":1946.8999999985,"correct":false,"confidence":2},{"trial_n":131,"min":81,"max":174,"target":"present","response":"present","rt":363.40000000596,"correct":true,"confidence":4},{"trial_n":132,"min":81,"max":174,"target":"absent","response":"absent","rt":760,"correct":true,"confidence":1},{"trial_n":133,"min":82,"max":173,"target":"present","response":"present","rt":120.5,"correct":true,"confidence":4},{"trial_n":134,"min":82,"max":173,"target":"present","response":"absent","rt":893.20000000298,"correct":false,"confidence":3},{"trial_n":135,"min":81,"max":174,"target":"present","response":"present","rt":322.20000000298,"correct":true,"confidence":4},{"trial_n":136,"min":81,"max":174,"target":"absent","response":"absent","rt":366.60000000149,"correct":true,"confidence":4},{"trial_n":137,"min":82,"max":173,"target":"absent","response":"present","rt":711.5,"correct":false,"confidence":2},{"trial_n":138,"min":81,"max":174,"target":"present","response":"present","rt":1280.5,"correct":true,"confidence":1},{"trial_n":139,"min":81,"max":174,"target":"present","response":"present","rt":341.30000000447,"correct":true,"confidence":4},{"trial_n":140,"min":82,"max":173,"target":"present","response":"present","rt":339.39999999851,"correct":true,"confidence":5}]