[{"trial_n":1,"span":8,"encoder":"18104779","distractor":"78104779","target":"present","response":"present","rt":"4161","correct":true,"confidence":-1},{"trial_n":2,"span":8,"encoder":"92161863","distractor":"92161163","target":"present","response":"absent","rt":"3398","correct":false,"confidence":-1},{"trial_n":3,"span":6,"encoder":"845475","distractor":"045475","target":"absent","response":"absent","rt":"1787","correct":true,"confidence":-1},{"trial_n":4,"span":6,"encoder":"137995","distractor":"537995","target":"absent","response":"absent","rt":"1219","correct":true,"confidence":-1},{"trial_n":5,"span":8,"encoder":"42525164","distractor":"42525564","target":"present","response":"present","rt":"2638","correct":true,"confidence":-1},{"trial_n":6,"span":8,"encoder":"86040703","distractor":"86040713","target":"absent","response":"present","rt":"3049","correct":false,"confidence":-1},{"trial_n":7,"span":6,"encoder":"332237","distractor":"332837","target":"present","response":"present","rt":"1312","correct":true,"confidence":-1},{"trial_n":8,"span":6,"encoder":"493495","distractor":"443495","target":"absent","response":"present","rt":"993","correct":false,"confidence":-1},{"trial_n":9,"span":4,"encoder":"9036","distractor":"9436","target":"present","response":"present","rt":"1646","correct":true,"confidence":-1},{"trial_n":10,"span":4,"encoder":"1606","distractor":"1603","target":"present","response":"absent","rt":"1784","correct":false,"confidence":-1},{"trial_n":11,"span":2,"encoder":"54","distractor":"52","target":"present","response":"present","rt":"780","correct":true,"confidence":-1},{"trial_n":12,"span":2,"encoder":"05","distractor":"95","target":"absent","response":"absent","rt":"1515","correct":true,"confidence":-1},{"trial_n":13,"span":3,"encoder":"737","distractor":"787","target":"present","response":"present","rt":"1034","correct":true,"confidence":-1},{"trial_n":14,"span":3,"encoder":"540","distractor":"543","target":"present","response":"present","rt":"848","correct":true,"confidence":-1},{"trial_n":15,"span":4,"encoder":"6564","distractor":"7564","target":"present","response":"present","rt":"1311","correct":true,"confidence":-1},{"trial_n":16,"span":4,"encoder":"3041","distractor":"6041","target":"present","response":"present","rt":"743","correct":true,"confidence":-1},{"trial_n":17,"span":5,"encoder":"30861","distractor":"30841","target":"absent","response":"absent","rt":"1213","correct":true,"confidence":-1},{"trial_n":18,"span":5,"encoder":"20047","distractor":"30047","target":"present","response":"absent","rt":"1878","correct":false,"confidence":-1},{"trial_n":19,"span":4,"encoder":"7672","distractor":"9672","target":"absent","response":"absent","rt":"1151","correct":true,"confidence":-1},{"trial_n":20,"span":4,"encoder":"1823","distractor":"1833","target":"present","response":"present","rt":"786","correct":true,"confidence":-1},{"trial_n":21,"span":5,"encoder":"71468","distractor":"71498","target":"present","response":"present","rt":"2579","correct":true,"confidence":3},{"trial_n":22,"span":5,"encoder":"93269","distractor":"03269","target":"present","response":"present","rt":"3214","correct":true,"confidence":4},{"trial_n":23,"span":6,"encoder":"742544","distractor":"742540","target":"present","response":"present","rt":"2165","correct":true,"confidence":3},{"trial_n":24,"span":6,"encoder":"300842","distractor":"300846","target":"absent","response":"absent","rt":"2149","correct":true,"confidence":4},{"trial_n":25,"span":7,"encoder":"6594572","distractor":"6594552","target":"absent","response":"absent","rt":"3116","correct":true,"confidence":1},{"trial_n":26,"span":7,"encoder":"9162794","distractor":"8162794","target":"absent","response":"absent","rt":"2183.0000000001","correct":true,"confidence":4},{"trial_n":27,"span":8,"encoder":"81317398","distractor":"88317398","target":"absent","response":"absent","rt":"2700","correct":true,"confidence":3},{"trial_n":28,"span":8,"encoder":"14194638","distractor":"14194658","target":"absent","response":"present","rt":"3342","correct":false,"confidence":2},{"trial_n":29,"span":7,"encoder":"3553531","distractor":"3551531","target":"present","response":"absent","rt":"1768","correct":false,"confidence":4},{"trial_n":30,"span":6,"encoder":"045742","distractor":"245742","target":"present","response":"present","rt":"1755.9999999999","correct":true,"confidence":3},{"trial_n":31,"span":6,"encoder":"511733","distractor":"511793","target":"present","response":"present","rt":"2864","correct":true,"confidence":3},{"trial_n":32,"span":7,"encoder":"1428675","distractor":"1426675","target":"present","response":"present","rt":"2250","correct":true,"confidence":3},{"trial_n":33,"span":7,"encoder":"9299160","distractor":"9298160","target":"present","response":"absent","rt":"3493.9999999999","correct":false,"confidence":3},{"trial_n":34,"span":6,"encoder":"104955","distractor":"104995","target":"absent","response":"absent","rt":"1560","correct":true,"confidence":5},{"trial_n":35,"span":6,"encoder":"725936","distractor":"728936","target":"absent","response":"absent","rt":"2057","correct":true,"confidence":5},{"trial_n":36,"span":7,"encoder":"4532578","distractor":"4536578","target":"absent","response":"absent","rt":"4982.9999999999","correct":true,"confidence":4},{"trial_n":37,"span":7,"encoder":"9914574","distractor":"9974574","target":"present","response":"present","rt":"3539","correct":true,"confidence":3},{"trial_n":38,"span":8,"encoder":"35328752","distractor":"36328752","target":"absent","response":"absent","rt":"2414","correct":true,"confidence":4},{"trial_n":39,"span":8,"encoder":"90125870","distractor":"90125871","target":"absent","response":"present","rt":"2100","correct":false,"confidence":3},{"trial_n":40,"span":7,"encoder":"7465768","distractor":"0465768","target":"present","response":"present","rt":"1817","correct":true,"confidence":3},{"trial_n":41,"span":7,"encoder":"2088165","distractor":"2088135","target":"absent","response":"absent","rt":"3377","correct":true,"confidence":4},{"trial_n":42,"span":8,"encoder":"45197072","distractor":"45117072","target":"present","response":"absent","rt":"2886.0000000001","correct":false,"confidence":2},{"trial_n":43,"span":7,"encoder":"1501946","distractor":"1501986","target":"present","response":"present","rt":"3858","correct":true,"confidence":3},{"trial_n":44,"span":7,"encoder":"4509770","distractor":"6509770","target":"absent","response":"absent","rt":"1512","correct":true,"confidence":3},{"trial_n":45,"span":8,"encoder":"68714632","distractor":"68714638","target":"present","response":"present","rt":"2812","correct":true,"confidence":3},{"trial_n":46,"span":8,"encoder":"27642397","distractor":"23642397","target":"present","response":"absent","rt":"2222","correct":false,"confidence":3},{"trial_n":47,"span":7,"encoder":"4270524","distractor":"4270224","target":"absent","response":"present","rt":"2215.0000000001","correct":false,"confidence":3},{"trial_n":48,"span":6,"encoder":"028782","distractor":"026782","target":"absent","response":"absent","rt":"2701","correct":true,"confidence":3},{"trial_n":49,"span":6,"encoder":"687624","distractor":"667624","target":"present","response":"absent","rt":"1462","correct":false,"confidence":3},{"trial_n":50,"span":5,"encoder":"72305","distractor":"76305","target":"absent","response":"absent","rt":"1419.0000000001","correct":true,"confidence":1},{"trial_n":51,"span":5,"encoder":"61004","distractor":"61054","target":"absent","response":"absent","rt":"1569.9999999999","correct":true,"confidence":3},{"trial_n":52,"span":6,"encoder":"278363","distractor":"275363","target":"present","response":"absent","rt":"326","correct":false,"confidence":4},{"trial_n":53,"span":5,"encoder":"05162","distractor":"05662","target":"absent","response":"absent","rt":"1337","correct":true,"confidence":3},{"trial_n":54,"span":5,"encoder":"55924","distractor":"56924","target":"present","response":"present","rt":"1873","correct":true,"confidence":3},{"trial_n":55,"span":6,"encoder":"113396","distractor":"113346","target":"absent","response":"absent","rt":"2875","correct":true,"confidence":4},{"trial_n":56,"span":6,"encoder":"089874","distractor":"089879","target":"absent","response":"absent","rt":"1688","correct":true,"confidence":1},{"trial_n":57,"span":7,"encoder":"7236821","distractor":"7236825","target":"present","response":"absent","rt":"415.00000000012","correct":false,"confidence":4},{"trial_n":58,"span":6,"encoder":"237406","distractor":"236406","target":"absent","response":"absent","rt":"1333","correct":true,"confidence":3},{"trial_n":59,"span":6,"encoder":"919438","distractor":"919408","target":"present","response":"present","rt":"1524","correct":true,"confidence":3},{"trial_n":60,"span":7,"encoder":"8041770","distractor":"8041775","target":"present","response":"present","rt":"1758.0000000001","correct":true,"confidence":3},{"trial_n":61,"span":7,"encoder":"0792367","distractor":"0792361","target":"absent","response":"present","rt":"3337.9999999999","correct":false,"confidence":3},{"trial_n":62,"span":6,"encoder":"560401","distractor":"560400","target":"absent","response":"absent","rt":"3043","correct":true,"confidence":3},{"trial_n":63,"span":6,"encoder":"331439","distractor":"332439","target":"absent","response":"present","rt":"1757","correct":false,"confidence":3},{"trial_n":64,"span":5,"encoder":"72608","distractor":"92608","target":"absent","response":"present","rt":"1157","correct":false,"confidence":3},{"trial_n":65,"span":4,"encoder":"3683","distractor":"3688","target":"absent","response":"absent","rt":"1828","correct":true,"confidence":3},{"trial_n":66,"span":4,"encoder":"7302","distractor":"7372","target":"present","response":"absent","rt":"1739","correct":false,"confidence":3},{"trial_n":67,"span":3,"encoder":"988","distractor":"488","target":"present","response":"present","rt":"1076.9999999999","correct":true,"confidence":4},{"trial_n":68,"span":3,"encoder":"587","distractor":"187","target":"absent","response":"absent","rt":"1003.0000000001","correct":true,"confidence":3},{"trial_n":69,"span":4,"encoder":"7315","distractor":"7311","target":"present","response":"present","rt":"1089","correct":true,"confidence":3},{"trial_n":70,"span":4,"encoder":"6179","distractor":"6171","target":"absent","response":"absent","rt":"1105.9999999999","correct":true,"confidence":3},{"trial_n":71,"span":8,"encoder":"35058519","distractor":"35058119","target":"present","response":"present","rt":"11707","correct":true,"confidence":-1},{"trial_n":72,"span":8,"encoder":"73847921","distractor":"93847921","target":"present","response":"present","rt":"3649","correct":true,"confidence":-1},{"trial_n":73,"span":9,"encoder":"042586509","distractor":"062586509","target":"absent","response":"absent","rt":"5235","correct":true,"confidence":-1},{"trial_n":74,"span":9,"encoder":"134446384","distractor":"134846384","target":"absent","response":"absent","rt":"4179","correct":true,"confidence":-1},{"trial_n":75,"span":10,"encoder":"2688987080","distractor":"2681987080","target":"present","response":"present","rt":"3414.0000000001","correct":true,"confidence":-1},{"trial_n":76,"span":10,"encoder":"0359854784","distractor":"0359854984","target":"absent","response":"absent","rt":"1192","correct":true,"confidence":-1},{"trial_n":77,"span":11,"encoder":"20882718079","distractor":"20882719079","target":"present","response":"present","rt":"453","correct":true,"confidence":-1},{"trial_n":78,"span":11,"encoder":"71518055146","distractor":"71518855146","target":"present","response":"absent","rt":"466","correct":false,"confidence":-1},{"trial_n":79,"span":10,"encoder":"2599767000","distractor":"2599761000","target":"absent","response":"absent","rt":"4592.0000000001","correct":true,"confidence":-1},{"trial_n":80,"span":10,"encoder":"1154425471","distractor":"1154425421","target":"absent","response":"absent","rt":"2555.0000000001","correct":true,"confidence":-1},{"trial_n":81,"span":11,"encoder":"98999462789","distractor":"98969462789","target":"present","response":"present","rt":"391.99999999977","correct":true,"confidence":-1},{"trial_n":82,"span":11,"encoder":"64462293795","distractor":"64462203795","target":"present","response":"absent","rt":"1529","correct":false,"confidence":-1},{"trial_n":83,"span":10,"encoder":"1811018690","distractor":"1811218690","target":"absent","response":"present","rt":"674.00000000023","correct":false,"confidence":-1},{"trial_n":84,"span":9,"encoder":"830619855","distractor":"830619858","target":"present","response":"present","rt":"1604.0000000002","correct":true,"confidence":-1},{"trial_n":85,"span":9,"encoder":"012088583","distractor":"212088583","target":"present","response":"present","rt":"5258.0000000002","correct":true,"confidence":-1},{"trial_n":86,"span":10,"encoder":"5377039345","distractor":"5377039349","target":"absent","response":"absent","rt":"2449","correct":true,"confidence":-1},{"trial_n":87,"span":10,"encoder":"8185773795","distractor":"8085773795","target":"present","response":"present","rt":"6865","correct":true,"confidence":-1},{"trial_n":88,"span":11,"encoder":"11421663749","distractor":"11421963749","target":"absent","response":"present","rt":"817","correct":false,"confidence":-1},{"trial_n":89,"span":10,"encoder":"8346000429","distractor":"8346000409","target":"present","response":"present","rt":"1170","correct":true,"confidence":-1},{"trial_n":90,"span":10,"encoder":"9888159225","distractor":"9888119225","target":"absent","response":"absent","rt":"612","correct":true,"confidence":-1},{"trial_n":91,"span":11,"encoder":"54634376357","distractor":"54639376357","target":"present","response":"present","rt":"5438","correct":true,"confidence":3},{"trial_n":92,"span":11,"encoder":"29394514457","distractor":"29394514459","target":"present","response":"present","rt":"4543","correct":true,"confidence":3},{"trial_n":93,"span":12,"encoder":"446976250520","distractor":"446976260520","target":"absent","response":"absent","rt":"7357","correct":true,"confidence":3},{"trial_n":94,"span":12,"encoder":"423936056262","distractor":"423936056268","target":"absent","response":"absent","rt":"2076","correct":true,"confidence":3},{"trial_n":95,"span":13,"encoder":"9059590864242","distractor":"9059590844242","target":"present","response":"present","rt":"2511","correct":true,"confidence":2},{"trial_n":96,"span":13,"encoder":"7898643606346","distractor":"7898649606346","target":"present","response":"absent","rt":"1646","correct":false,"confidence":2},{"trial_n":97,"span":12,"encoder":"001010751463","distractor":"001010791463","target":"absent","response":"present","rt":"3061","correct":false,"confidence":2},{"trial_n":98,"span":11,"encoder":"48829082477","distractor":"48829082577","target":"absent","response":"absent","rt":"4154","correct":true,"confidence":4},{"trial_n":99,"span":11,"encoder":"79381063285","distractor":"79381063245","target":"present","response":"present","rt":"2873","correct":true,"confidence":2},{"trial_n":100,"span":12,"encoder":"842902565615","distractor":"842902565115","target":"absent","response":"absent","rt":"1714","correct":true,"confidence":3},{"trial_n":101,"span":12,"encoder":"348661012872","distractor":"318661012872","target":"absent","response":"absent","rt":"4457","correct":true,"confidence":2},{"trial_n":102,"span":13,"encoder":"1170713371241","distractor":"1170713371240","target":"absent","response":"present","rt":"1862","correct":false,"confidence":1},{"trial_n":103,"span":12,"encoder":"050100991083","distractor":"053100991083","target":"absent","response":"present","rt":"6319","correct":false,"confidence":3},{"trial_n":104,"span":11,"encoder":"59441351480","distractor":"59441351487","target":"present","response":"absent","rt":"9032","correct":false,"confidence":3},{"trial_n":105,"span":10,"encoder":"5401310739","distractor":"5401410739","target":"present","response":"present","rt":"1127","correct":true,"confidence":3},{"trial_n":106,"span":10,"encoder":"1832179327","distractor":"1332179327","target":"absent","response":"absent","rt":"3026","correct":true,"confidence":3},{"trial_n":107,"span":11,"encoder":"64318596626","distractor":"64388596626","target":"absent","response":"present","rt":"740","correct":false,"confidence":3},{"trial_n":108,"span":10,"encoder":"0803392000","distractor":"0873392000","target":"absent","response":"absent","rt":"597","correct":true,"confidence":3},{"trial_n":109,"span":10,"encoder":"2767104994","distractor":"2767134994","target":"present","response":"present","rt":"816.99999999977","correct":true,"confidence":3},{"trial_n":110,"span":11,"encoder":"63067633981","distractor":"63067635981","target":"present","response":"absent","rt":"1856","correct":false,"confidence":2},{"trial_n":111,"span":10,"encoder":"0712591831","distractor":"9712591831","target":"absent","response":"absent","rt":"2259","correct":true,"confidence":4},{"trial_n":112,"span":10,"encoder":"9014991898","distractor":"9014991891","target":"absent","response":"absent","rt":"3840","correct":true,"confidence":3},{"trial_n":113,"span":11,"encoder":"79234319636","distractor":"79234359636","target":"present","response":"present","rt":"1366","correct":true,"confidence":3},{"trial_n":114,"span":11,"encoder":"89460722543","distractor":"89460722443","target":"present","response":"present","rt":"787","correct":true,"confidence":3},{"trial_n":115,"span":12,"encoder":"699025335124","distractor":"699025335624","target":"present","response":"absent","rt":"1448","correct":false,"confidence":2},{"trial_n":116,"span":11,"encoder":"51735170278","distractor":"51735170878","target":"absent","response":"present","rt":"1894.9999999998","correct":false,"confidence":2},{"trial_n":117,"span":10,"encoder":"1784948539","distractor":"1184948539","target":"absent","response":"present","rt":"3019","correct":false,"confidence":3},{"trial_n":118,"span":9,"encoder":"104362465","distractor":"104362468","target":"absent","response":"absent","rt":"3170.0000000002","correct":true,"confidence":3},{"trial_n":119,"span":9,"encoder":"200976090","distractor":"200976990","target":"present","response":"present","rt":"3213","correct":true,"confidence":3},{"trial_n":120,"span":10,"encoder":"1179799644","distractor":"1179799645","target":"present","response":"absent","rt":"3565.0000000002","correct":false,"confidence":2},{"trial_n":121,"span":9,"encoder":"176040906","distractor":"176010906","target":"present","response":"present","rt":"4183","correct":true,"confidence":4},{"trial_n":122,"span":9,"encoder":"660457213","distractor":"660357213","target":"present","response":"absent","rt":"14704","correct":false,"confidence":3},{"trial_n":123,"span":8,"encoder":"80562684","distractor":"80562694","target":"absent","response":"present","rt":"2846","correct":false,"confidence":4},{"trial_n":124,"span":7,"encoder":"9166208","distractor":"9166408","target":"absent","response":"present","rt":"5096","correct":false,"confidence":4},{"trial_n":125,"span":6,"encoder":"889543","distractor":"589543","target":"present","response":"absent","rt":"3522.0000000002","correct":false,"confidence":3},{"trial_n":126,"span":5,"encoder":"22642","distractor":"24642","target":"absent","response":"absent","rt":"3175.9999999998","correct":true,"confidence":1},{"trial_n":127,"span":5,"encoder":"58271","distractor":"58291","target":"absent","response":"absent","rt":"2999","correct":true,"confidence":3},{"trial_n":128,"span":6,"encoder":"875301","distractor":"875309","target":"present","response":"present","rt":"3709.0000000002","correct":true,"confidence":3},{"trial_n":129,"span":6,"encoder":"110178","distractor":"119178","target":"present","response":"present","rt":"2496","correct":true,"confidence":1},{"trial_n":130,"span":7,"encoder":"1759072","distractor":"1759076","target":"absent","response":"present","rt":"1067","correct":false,"confidence":3},{"trial_n":131,"span":6,"encoder":"161118","distractor":"169118","target":"absent","response":"absent","rt":"5371","correct":true,"confidence":3},{"trial_n":132,"span":6,"encoder":"192183","distractor":"192173","target":"present","response":"present","rt":"3471","correct":true,"confidence":3},{"trial_n":133,"span":7,"encoder":"6885736","distractor":"1885736","target":"present","response":"present","rt":"2453","correct":true,"confidence":3},{"trial_n":134,"span":7,"encoder":"7211492","distractor":"7215492","target":"absent","response":"present","rt":"4368.0000000002","correct":false,"confidence":3},{"trial_n":135,"span":6,"encoder":"033960","distractor":"833960","target":"present","response":"present","rt":"1601.9999999998","correct":true,"confidence":3},{"trial_n":136,"span":6,"encoder":"521806","distractor":"121806","target":"present","response":"present","rt":"2777.0000000002","correct":true,"confidence":3},{"trial_n":137,"span":7,"encoder":"1465426","distractor":"1465476","target":"present","response":"present","rt":"2515","correct":true,"confidence":3},{"trial_n":138,"span":7,"encoder":"3160352","distractor":"9160352","target":"absent","response":"absent","rt":"2968","correct":true,"confidence":3},{"trial_n":139,"span":8,"encoder":"81968689","distractor":"81988689","target":"present","response":"present","rt":"7065.0000000002","correct":true,"confidence":3},{"trial_n":140,"span":8,"encoder":"10620925","distractor":"10120925","target":"absent","response":"absent","rt":"2287.0000000002","correct":true,"confidence":3}]