[{"trial_n":1,"span":8,"encoder":"31233223","distractor":"31237223","target":"present","response":"present","rt":"7114","correct":true,"confidence":-1},{"trial_n":2,"span":8,"encoder":"25864311","distractor":"75864311","target":"present","response":"present","rt":"1493.5","correct":true,"confidence":-1},{"trial_n":3,"span":10,"encoder":"2076472287","distractor":"2076172287","target":"absent","response":"absent","rt":"3619.5","correct":true,"confidence":-1},{"trial_n":4,"span":10,"encoder":"6963475714","distractor":"6963475614","target":"absent","response":"absent","rt":"5827.3999996185","correct":true,"confidence":-1},{"trial_n":5,"span":12,"encoder":"448691636163","distractor":"448691676163","target":"present","response":"absent","rt":"3747.6000003815","correct":false,"confidence":-1},{"trial_n":6,"span":10,"encoder":"4013544035","distractor":"4013544005","target":"present","response":"absent","rt":"5666.5","correct":false,"confidence":-1},{"trial_n":7,"span":8,"encoder":"72730086","distractor":"76730086","target":"present","response":"present","rt":"3529.8000001907","correct":true,"confidence":-1},{"trial_n":8,"span":8,"encoder":"25415765","distractor":"28415765","target":"present","response":"present","rt":"4668.8000001907","correct":true,"confidence":-1},{"trial_n":9,"span":10,"encoder":"8407043848","distractor":"8407043828","target":"present","response":"absent","rt":"3888.5999999046","correct":false,"confidence":-1},{"trial_n":10,"span":8,"encoder":"38249372","distractor":"38349372","target":"absent","response":"absent","rt":"3771.3999996185","correct":true,"confidence":-1},{"trial_n":11,"span":8,"encoder":"15749238","distractor":"15749228","target":"absent","response":"present","rt":"3862.4000000954","correct":false,"confidence":-1},{"trial_n":12,"span":7,"encoder":"9530881","distractor":"9230881","target":"present","response":"absent","rt":"2528.6999998093","correct":false,"confidence":-1},{"trial_n":13,"span":6,"encoder":"510753","distractor":"510653","target":"present","response":"present","rt":"1758.2000002861","correct":true,"confidence":-1},{"trial_n":14,"span":6,"encoder":"398565","distractor":"698565","target":"absent","response":"present","rt":"1491.2999997139","correct":false,"confidence":-1},{"trial_n":15,"span":5,"encoder":"20857","distractor":"20957","target":"present","response":"present","rt":"1706.1999998093","correct":true,"confidence":-1},{"trial_n":16,"span":5,"encoder":"63148","distractor":"63188","target":"absent","response":"absent","rt":"3455.2999997139","correct":true,"confidence":-1},{"trial_n":17,"span":6,"encoder":"416091","distractor":"416391","target":"present","response":"present","rt":"3116.8000001907","correct":true,"confidence":-1},{"trial_n":18,"span":6,"encoder":"609827","distractor":"609427","target":"present","response":"present","rt":"1366.2000002861","correct":true,"confidence":-1},{"trial_n":19,"span":7,"encoder":"8251894","distractor":"8251094","target":"absent","response":"present","rt":"1716.5","correct":false,"confidence":-1},{"trial_n":20,"span":6,"encoder":"613385","distractor":"613685","target":"absent","response":"absent","rt":"2196.0999999046","correct":true,"confidence":-1},{"trial_n":21,"span":6,"encoder":"592741","distractor":"592771","target":"present","response":"present","rt":"4293","correct":true,"confidence":5},{"trial_n":22,"span":7,"encoder":"8371225","distractor":"9371225","target":"present","response":"present","rt":"2507.9000000954","correct":true,"confidence":5},{"trial_n":23,"span":7,"encoder":"0118872","distractor":"0117872","target":"absent","response":"present","rt":"4121.9000000954","correct":false,"confidence":3},{"trial_n":24,"span":6,"encoder":"448054","distractor":"448754","target":"present","response":"present","rt":"2284","correct":true,"confidence":5},{"trial_n":25,"span":6,"encoder":"670507","distractor":"673507","target":"absent","response":"absent","rt":"2611.5","correct":true,"confidence":4},{"trial_n":26,"span":7,"encoder":"2402768","distractor":"2422768","target":"present","response":"present","rt":"3151.3000001907","correct":true,"confidence":3},{"trial_n":27,"span":7,"encoder":"2253691","distractor":"2259691","target":"absent","response":"absent","rt":"2837.5","correct":true,"confidence":5},{"trial_n":28,"span":8,"encoder":"24786994","distractor":"24781994","target":"absent","response":"absent","rt":"9440.4000000954","correct":true,"confidence":5},{"trial_n":29,"span":8,"encoder":"10016260","distractor":"10716260","target":"present","response":"present","rt":"3602","correct":true,"confidence":4},{"trial_n":30,"span":9,"encoder":"877834282","distractor":"877834272","target":"absent","response":"absent","rt":"4745.5","correct":true,"confidence":4},{"trial_n":31,"span":9,"encoder":"405633289","distractor":"405333289","target":"absent","response":"absent","rt":"4166.6999998093","correct":true,"confidence":3},{"trial_n":32,"span":10,"encoder":"5940845820","distractor":"5140845820","target":"present","response":"absent","rt":"4871","correct":false,"confidence":4},{"trial_n":33,"span":9,"encoder":"165222438","distractor":"165220438","target":"absent","response":"present","rt":"3379.1999998093","correct":false,"confidence":2},{"trial_n":34,"span":8,"encoder":"17660999","distractor":"87660999","target":"absent","response":"present","rt":"4337.9000000954","correct":false,"confidence":4},{"trial_n":35,"span":7,"encoder":"6492532","distractor":"6402532","target":"present","response":"present","rt":"2143.4000000954","correct":true,"confidence":3},{"trial_n":36,"span":7,"encoder":"1528251","distractor":"1028251","target":"absent","response":"absent","rt":"2053.2999997139","correct":true,"confidence":5},{"trial_n":37,"span":8,"encoder":"93476124","distractor":"93476104","target":"present","response":"present","rt":"4810","correct":true,"confidence":4},{"trial_n":38,"span":8,"encoder":"54466953","distractor":"14466953","target":"absent","response":"absent","rt":"3043.5","correct":true,"confidence":5},{"trial_n":39,"span":9,"encoder":"580131352","distractor":"580130352","target":"present","response":"present","rt":"4421.8000001907","correct":true,"confidence":5},{"trial_n":40,"span":9,"encoder":"006480211","distractor":"006480311","target":"present","response":"present","rt":"4116.5999999046","correct":true,"confidence":4},{"trial_n":41,"span":10,"encoder":"1515584698","distractor":"1215584698","target":"absent","response":"absent","rt":"2793.3000001907","correct":true,"confidence":4},{"trial_n":42,"span":10,"encoder":"0405314258","distractor":"0405314257","target":"present","response":"present","rt":"7326.9000000954","correct":true,"confidence":4},{"trial_n":43,"span":11,"encoder":"96603636608","distractor":"96603636688","target":"absent","response":"present","rt":"7849.3000001907","correct":false,"confidence":3},{"trial_n":44,"span":10,"encoder":"2126599829","distractor":"2326599829","target":"present","response":"present","rt":"4555.1000003815","correct":true,"confidence":4},{"trial_n":45,"span":10,"encoder":"1914155998","distractor":"1914155398","target":"absent","response":"absent","rt":"2562.7999997139","correct":true,"confidence":3},{"trial_n":46,"span":11,"encoder":"38121438748","distractor":"38121238748","target":"absent","response":"absent","rt":"2989.4000000954","correct":true,"confidence":4},{"trial_n":47,"span":11,"encoder":"77780899759","distractor":"57780899759","target":"present","response":"present","rt":"4448.0999999046","correct":true,"confidence":5},{"trial_n":48,"span":12,"encoder":"342537401998","distractor":"342637401998","target":"absent","response":"absent","rt":"4648.2000002861","correct":true,"confidence":4},{"trial_n":49,"span":12,"encoder":"603277310339","distractor":"603277310359","target":"present","response":"absent","rt":"6237.0999999046","correct":false,"confidence":4},{"trial_n":50,"span":11,"encoder":"30298025673","distractor":"30598025673","target":"present","response":"absent","rt":"3240.8000001907","correct":false,"confidence":2},{"trial_n":51,"span":10,"encoder":"4750149436","distractor":"4750129436","target":"present","response":"present","rt":"6405.2999997139","correct":true,"confidence":2},{"trial_n":52,"span":10,"encoder":"6706933463","distractor":"6706933263","target":"present","response":"absent","rt":"2402.1000003815","correct":false,"confidence":1},{"trial_n":53,"span":9,"encoder":"068207544","distractor":"068207574","target":"present","response":"present","rt":"5540.3000001907","correct":true,"confidence":3},{"trial_n":54,"span":9,"encoder":"627239138","distractor":"626239138","target":"absent","response":"absent","rt":"5401.1000003815","correct":true,"confidence":3},{"trial_n":55,"span":10,"encoder":"9301996481","distractor":"9701996481","target":"present","response":"absent","rt":"9815.4000000954","correct":false,"confidence":3},{"trial_n":56,"span":9,"encoder":"115221949","distractor":"111221949","target":"present","response":"present","rt":"4605","correct":true,"confidence":5},{"trial_n":57,"span":9,"encoder":"615812014","distractor":"615802014","target":"absent","response":"absent","rt":"4953.1999998093","correct":true,"confidence":4},{"trial_n":58,"span":10,"encoder":"0322774673","distractor":"0322774273","target":"absent","response":"absent","rt":"7516.5","correct":true,"confidence":4},{"trial_n":59,"span":10,"encoder":"9638402419","distractor":"9238402419","target":"absent","response":"absent","rt":"4011.3999996185","correct":true,"confidence":5},{"trial_n":60,"span":11,"encoder":"87495962056","distractor":"87496962056","target":"absent","response":"absent","rt":"8442.2999997139","correct":true,"confidence":4},{"trial_n":61,"span":11,"encoder":"56123195817","distractor":"56183195817","target":"present","response":"present","rt":"4593","correct":true,"confidence":1},{"trial_n":62,"span":12,"encoder":"888641533647","distractor":"886641533647","target":"present","response":"present","rt":"5640.0999999046","correct":true,"confidence":3},{"trial_n":63,"span":12,"encoder":"834549990186","distractor":"834649990186","target":"absent","response":"absent","rt":"3015","correct":true,"confidence":2},{"trial_n":64,"span":13,"encoder":"1552579122307","distractor":"1522579122307","target":"present","response":"present","rt":"2822.5","correct":true,"confidence":1},{"trial_n":65,"span":13,"encoder":"6998858272945","distractor":"6998858278945","target":"absent","response":"absent","rt":"3814.7000002861","correct":true,"confidence":3},{"trial_n":66,"span":14,"encoder":"86872603249795","distractor":"86874603249795","target":"absent","response":"absent","rt":"4886.2999997139","correct":true,"confidence":3},{"trial_n":67,"span":14,"encoder":"04123817207497","distractor":"04123814207497","target":"absent","response":"absent","rt":"6030.0999999046","correct":true,"confidence":3},{"trial_n":68,"span":15,"encoder":"735148934720171","distractor":"735148934720871","target":"absent","response":"absent","rt":"4818.5","correct":true,"confidence":3},{"trial_n":69,"span":15,"encoder":"377562185289202","distractor":"377562185289102","target":"absent","response":"absent","rt":"4487.1999998093","correct":true,"confidence":4},{"trial_n":70,"span":16,"encoder":"7582416598552793","distractor":"9582416598552793","target":"present","response":"present","rt":"9045.1999998093","correct":true,"confidence":2},{"trial_n":71,"span":8,"encoder":"65225183","distractor":"45225183","target":"present","response":"present","rt":"5637.1999998093","correct":true,"confidence":-1},{"trial_n":72,"span":8,"encoder":"58020052","distractor":"58030052","target":"present","response":"present","rt":"978.5","correct":true,"confidence":-1},{"trial_n":73,"span":9,"encoder":"723635562","distractor":"723635567","target":"absent","response":"absent","rt":"2361.8000001907","correct":true,"confidence":-1},{"trial_n":74,"span":9,"encoder":"032257253","distractor":"052257253","target":"absent","response":"present","rt":"3243.0999999046","correct":false,"confidence":-1},{"trial_n":75,"span":8,"encoder":"98261417","distractor":"90261417","target":"present","response":"absent","rt":"1119.8999996185","correct":false,"confidence":-1},{"trial_n":76,"span":7,"encoder":"2213261","distractor":"2210261","target":"present","response":"absent","rt":"981.5","correct":false,"confidence":-1},{"trial_n":77,"span":6,"encoder":"468374","distractor":"498374","target":"present","response":"present","rt":"3234.9000000954","correct":true,"confidence":-1},{"trial_n":78,"span":6,"encoder":"441169","distractor":"440169","target":"present","response":"present","rt":"2774","correct":true,"confidence":-1},{"trial_n":79,"span":7,"encoder":"2099562","distractor":"2099566","target":"present","response":"present","rt":"2095.7000002861","correct":true,"confidence":-1},{"trial_n":80,"span":7,"encoder":"2762929","distractor":"2760929","target":"present","response":"present","rt":"2281.7999997139","correct":true,"confidence":-1},{"trial_n":81,"span":8,"encoder":"36374962","distractor":"36374982","target":"absent","response":"absent","rt":"3113.8999996185","correct":true,"confidence":-1},{"trial_n":82,"span":8,"encoder":"94372828","distractor":"94377828","target":"absent","response":"absent","rt":"3423.5999999046","correct":true,"confidence":-1},{"trial_n":83,"span":9,"encoder":"080285547","distractor":"080285542","target":"present","response":"present","rt":"1657.2999997139","correct":true,"confidence":-1},{"trial_n":84,"span":9,"encoder":"622926812","distractor":"622936812","target":"present","response":"present","rt":"2547.4000000954","correct":true,"confidence":-1},{"trial_n":85,"span":10,"encoder":"7488690543","distractor":"7488660543","target":"absent","response":"present","rt":"1081.7999997139","correct":false,"confidence":-1},{"trial_n":86,"span":9,"encoder":"360442798","distractor":"380442798","target":"present","response":"absent","rt":"1155.3999996185","correct":false,"confidence":-1},{"trial_n":87,"span":8,"encoder":"79820083","distractor":"74820083","target":"present","response":"absent","rt":"3836.7999997139","correct":false,"confidence":-1},{"trial_n":88,"span":7,"encoder":"0363147","distractor":"0363447","target":"present","response":"present","rt":"2189.5999999046","correct":true,"confidence":-1},{"trial_n":89,"span":7,"encoder":"0999935","distractor":"0919935","target":"present","response":"present","rt":"1579.2999997139","correct":true,"confidence":-1},{"trial_n":90,"span":8,"encoder":"96186569","distractor":"96181569","target":"present","response":"present","rt":"1478.6999998093","correct":true,"confidence":-1},{"trial_n":91,"span":8,"encoder":"04551717","distractor":"04551710","target":"present","response":"present","rt":"4156.9000000954","correct":true,"confidence":3},{"trial_n":92,"span":9,"encoder":"449273300","distractor":"349273300","target":"absent","response":"absent","rt":"7954.5","correct":true,"confidence":5},{"trial_n":93,"span":9,"encoder":"243747448","distractor":"243741448","target":"absent","response":"absent","rt":"6197.2999997139","correct":true,"confidence":5},{"trial_n":94,"span":10,"encoder":"2775568229","distractor":"2775568729","target":"present","response":"absent","rt":"3670.9000000954","correct":false,"confidence":5},{"trial_n":95,"span":9,"encoder":"459788828","distractor":"459788838","target":"absent","response":"absent","rt":"2520.1000003815","correct":true,"confidence":5},{"trial_n":96,"span":9,"encoder":"731273780","distractor":"731273730","target":"absent","response":"present","rt":"7569.5999999046","correct":false,"confidence":3},{"trial_n":97,"span":8,"encoder":"35029552","distractor":"35029502","target":"absent","response":"absent","rt":"4232.9000000954","correct":true,"confidence":5},{"trial_n":98,"span":8,"encoder":"87800632","distractor":"87850632","target":"absent","response":"absent","rt":"8207.3000001907","correct":true,"confidence":2},{"trial_n":99,"span":9,"encoder":"807906823","distractor":"809906823","target":"absent","response":"absent","rt":"3704.5","correct":true,"confidence":2},{"trial_n":100,"span":9,"encoder":"731113776","distractor":"731115776","target":"present","response":"present","rt":"8546","correct":true,"confidence":3},{"trial_n":101,"span":10,"encoder":"9380722136","distractor":"9380722336","target":"absent","response":"absent","rt":"5050.5","correct":true,"confidence":4},{"trial_n":102,"span":10,"encoder":"1892180484","distractor":"1895180484","target":"absent","response":"absent","rt":"9629.6999998093","correct":true,"confidence":4},{"trial_n":103,"span":11,"encoder":"01753938252","distractor":"01353938252","target":"present","response":"present","rt":"6963.9000000954","correct":true,"confidence":4},{"trial_n":104,"span":11,"encoder":"14541819023","distractor":"14541809023","target":"absent","response":"present","rt":"10932.5","correct":false,"confidence":1},{"trial_n":105,"span":10,"encoder":"0189479958","distractor":"0189479951","target":"absent","response":"absent","rt":"3542.5999999046","correct":true,"confidence":5},{"trial_n":106,"span":10,"encoder":"0138134303","distractor":"0138134313","target":"present","response":"present","rt":"2757.8000001907","correct":true,"confidence":5},{"trial_n":107,"span":11,"encoder":"92241226371","distractor":"92241246371","target":"absent","response":"absent","rt":"4893.8000001907","correct":true,"confidence":4},{"trial_n":108,"span":11,"encoder":"86541203158","distractor":"86541203258","target":"absent","response":"absent","rt":"2654.6999998093","correct":true,"confidence":5},{"trial_n":109,"span":12,"encoder":"407561838791","distractor":"497561838791","target":"absent","response":"absent","rt":"7159.4000000954","correct":true,"confidence":4},{"trial_n":110,"span":12,"encoder":"058330751587","distractor":"258330751587","target":"absent","response":"absent","rt":"4026.1000003815","correct":true,"confidence":3},{"trial_n":111,"span":13,"encoder":"3631093932209","distractor":"1631093932209","target":"absent","response":"present","rt":"7980.5","correct":false,"confidence":1},{"trial_n":112,"span":12,"encoder":"457098309725","distractor":"457038309725","target":"present","response":"present","rt":"4104.3000001907","correct":true,"confidence":4},{"trial_n":113,"span":12,"encoder":"450664048685","distractor":"450664548685","target":"present","response":"absent","rt":"6040.6000003815","correct":false,"confidence":3},{"trial_n":114,"span":11,"encoder":"71325985546","distractor":"71325985446","target":"present","response":"present","rt":"15269","correct":true,"confidence":2},{"trial_n":115,"span":11,"encoder":"61101387484","distractor":"61101387444","target":"present","response":"present","rt":"4667.9000000954","correct":true,"confidence":5},{"trial_n":116,"span":12,"encoder":"585994616649","distractor":"585994216649","target":"absent","response":"absent","rt":"5133.6999998093","correct":true,"confidence":5},{"trial_n":117,"span":12,"encoder":"830652209401","distractor":"840652209401","target":"absent","response":"absent","rt":"4910.2000002861","correct":true,"confidence":4},{"trial_n":118,"span":13,"encoder":"1034465310442","distractor":"3034465310442","target":"absent","response":"absent","rt":"2363.6999998093","correct":true,"confidence":5},{"trial_n":119,"span":13,"encoder":"6254293528910","distractor":"6254293528510","target":"present","response":"present","rt":"9929.5999999046","correct":true,"confidence":3},{"trial_n":120,"span":14,"encoder":"80534421588718","distractor":"80534421588710","target":"absent","response":"present","rt":"4043.8000001907","correct":false,"confidence":1},{"trial_n":121,"span":13,"encoder":"5109370741931","distractor":"5109370441931","target":"absent","response":"absent","rt":"9937.1999998093","correct":true,"confidence":1},{"trial_n":122,"span":13,"encoder":"3526062069127","distractor":"3526064069127","target":"absent","response":"absent","rt":"13562.800000191","correct":true,"confidence":2},{"trial_n":123,"span":14,"encoder":"97981550055108","distractor":"97981450055108","target":"present","response":"present","rt":"8553.3000001907","correct":true,"confidence":3},{"trial_n":124,"span":14,"encoder":"60081942682292","distractor":"60081042682292","target":"present","response":"absent","rt":"6273.3000001907","correct":false,"confidence":2},{"trial_n":125,"span":13,"encoder":"3374579016569","distractor":"3374579516569","target":"present","response":"present","rt":"6315.8000001907","correct":true,"confidence":2},{"trial_n":126,"span":13,"encoder":"1146911629650","distractor":"1146911529650","target":"absent","response":"absent","rt":"5134","correct":true,"confidence":3},{"trial_n":127,"span":14,"encoder":"29443708819553","distractor":"29443708815553","target":"absent","response":"absent","rt":"7257.6000003815","correct":true,"confidence":4},{"trial_n":128,"span":14,"encoder":"94709089464045","distractor":"94709689464045","target":"present","response":"present","rt":"7132.6999998093","correct":true,"confidence":4},{"trial_n":129,"span":15,"encoder":"554846376992261","distractor":"554846376982261","target":"absent","response":"present","rt":"5517.4000000954","correct":false,"confidence":2},{"trial_n":130,"span":14,"encoder":"74467157617897","distractor":"74467117617897","target":"present","response":"absent","rt":"6461.7999997139","correct":false,"confidence":2},{"trial_n":131,"span":13,"encoder":"8548584005616","distractor":"8549584005616","target":"present","response":"present","rt":"10334.5","correct":true,"confidence":5},{"trial_n":132,"span":13,"encoder":"2298300750649","distractor":"2292300750649","target":"absent","response":"absent","rt":"12014.300000191","correct":true,"confidence":1},{"trial_n":133,"span":14,"encoder":"98641610497910","distractor":"98641617497910","target":"present","response":"absent","rt":"11382.599999905","correct":false,"confidence":2},{"trial_n":134,"span":13,"encoder":"2683641019056","distractor":"2683644019056","target":"absent","response":"absent","rt":"10891.5","correct":true,"confidence":5},{"trial_n":135,"span":13,"encoder":"0680585495782","distractor":"0670585495782","target":"present","response":"present","rt":"4368.5999999046","correct":true,"confidence":5},{"trial_n":136,"span":14,"encoder":"54508824827846","distractor":"54501824827846","target":"present","response":"present","rt":"13317.200000286","correct":true,"confidence":4},{"trial_n":137,"span":14,"encoder":"84767787235716","distractor":"84767987235716","target":"present","response":"present","rt":"20203.5","correct":true,"confidence":2},{"trial_n":138,"span":15,"encoder":"970557027390009","distractor":"970857027390009","target":"present","response":"absent","rt":"6323.0999999046","correct":false,"confidence":2},{"trial_n":139,"span":14,"encoder":"11940461922401","distractor":"11940361922401","target":"absent","response":"absent","rt":"9726.7999997139","correct":true,"confidence":2},{"trial_n":140,"span":14,"encoder":"96188074580262","distractor":"96188074530262","target":"absent","response":"absent","rt":"8752.9000000954","correct":true,"confidence":3}]