[{"trial_n":1,"n_dots":4.25,"target":"left","response":"left","rt":6098,"correct":true,"confidence":-1},{"trial_n":2,"n_dots":4.25,"target":"right","response":"right","rt":1121.2999999821,"correct":true,"confidence":-1},{"trial_n":3,"n_dots":3.85,"target":"left","response":"left","rt":861.90000000596,"correct":true,"confidence":-1},{"trial_n":4,"n_dots":3.85,"target":"left","response":"left","rt":905.80000001192,"correct":true,"confidence":-1},{"trial_n":5,"n_dots":3.45,"target":"right","response":"right","rt":752,"correct":true,"confidence":-1},{"trial_n":6,"n_dots":3.45,"target":"left","response":"left","rt":801.30000001192,"correct":true,"confidence":-1},{"trial_n":7,"n_dots":3.05,"target":"right","response":"right","rt":507.69999998808,"correct":true,"confidence":-1},{"trial_n":8,"n_dots":3.05,"target":"left","response":"left","rt":878.59999999404,"correct":true,"confidence":-1},{"trial_n":9,"n_dots":2.85,"target":"right","response":"left","rt":797.29999998212,"correct":false,"confidence":-1},{"trial_n":10,"n_dots":3.05,"target":"left","response":"right","rt":597.60000002384,"correct":false,"confidence":-1},{"trial_n":11,"n_dots":3.25,"target":"left","response":"left","rt":550.30000001192,"correct":true,"confidence":-1},{"trial_n":12,"n_dots":3.25,"target":"left","response":"left","rt":649.19999998808,"correct":true,"confidence":-1},{"trial_n":13,"n_dots":3.15,"target":"left","response":"left","rt":615.80000001192,"correct":true,"confidence":-1},{"trial_n":14,"n_dots":3.15,"target":"right","response":"right","rt":643,"correct":true,"confidence":-1},{"trial_n":15,"n_dots":3.05,"target":"right","response":"right","rt":1079.900000006,"correct":true,"confidence":-1},{"trial_n":16,"n_dots":3.05,"target":"right","response":"left","rt":626.40000000596,"correct":false,"confidence":-1},{"trial_n":17,"n_dots":3.15,"target":"right","response":"left","rt":1300.5,"correct":false,"confidence":-1},{"trial_n":18,"n_dots":3.25,"target":"left","response":"left","rt":676.09999999404,"correct":true,"confidence":-1},{"trial_n":19,"n_dots":3.25,"target":"left","response":"right","rt":784.30000001192,"correct":false,"confidence":-1},{"trial_n":20,"n_dots":3.35,"target":"right","response":"right","rt":416.19999998808,"correct":true,"confidence":-1},{"trial_n":21,"n_dots":3.35,"target":"left","response":"left","rt":218.59999999404,"correct":true,"confidence":3},{"trial_n":22,"n_dots":3.25,"target":"left","response":"left","rt":549.09999999404,"correct":true,"confidence":3},{"trial_n":23,"n_dots":3.25,"target":"right","response":"left","rt":1244.5,"correct":false,"confidence":3},{"trial_n":24,"n_dots":3.35,"target":"left","response":"left","rt":488.40000000596,"correct":true,"confidence":3},{"trial_n":25,"n_dots":3.35,"target":"right","response":"right","rt":588.5,"correct":true,"confidence":3},{"trial_n":26,"n_dots":3.25,"target":"left","response":"right","rt":898.30000001192,"correct":false,"confidence":2},{"trial_n":27,"n_dots":3.35,"target":"left","response":"left","rt":681.5,"correct":true,"confidence":2},{"trial_n":28,"n_dots":3.35,"target":"right","response":"right","rt":833.19999998808,"correct":true,"confidence":2},{"trial_n":29,"n_dots":3.25,"target":"right","response":"right","rt":793.40000000596,"correct":true,"confidence":2},{"trial_n":30,"n_dots":3.25,"target":"left","response":"left","rt":786.09999999404,"correct":true,"confidence":2},{"trial_n":31,"n_dots":3.15,"target":"right","response":"left","rt":1249.400000006,"correct":false,"confidence":3},{"trial_n":32,"n_dots":3.25,"target":"left","response":"left","rt":678.90000000596,"correct":true,"confidence":3},{"trial_n":33,"n_dots":3.25,"target":"left","response":"left","rt":1199.900000006,"correct":true,"confidence":3},{"trial_n":34,"n_dots":3.15,"target":"right","response":"left","rt":586.09999999404,"correct":false,"confidence":2},{"trial_n":35,"n_dots":3.25,"target":"left","response":"left","rt":573.70000001788,"correct":true,"confidence":2},{"trial_n":36,"n_dots":3.25,"target":"right","response":"right","rt":1038.599999994,"correct":true,"confidence":2},{"trial_n":37,"n_dots":3.15,"target":"left","response":"left","rt":660.29999998212,"correct":true,"confidence":2},{"trial_n":38,"n_dots":3.15,"target":"right","response":"left","rt":1063.8000000119,"correct":false,"confidence":3},{"trial_n":39,"n_dots":3.25,"target":"left","response":"left","rt":505,"correct":true,"confidence":4},{"trial_n":40,"n_dots":3.25,"target":"left","response":"left","rt":841.5,"correct":true,"confidence":3},{"trial_n":41,"n_dots":3.15,"target":"right","response":"left","rt":1691.5,"correct":false,"confidence":2},{"trial_n":42,"n_dots":3.25,"target":"left","response":"left","rt":712.5,"correct":true,"confidence":3},{"trial_n":43,"n_dots":3.25,"target":"left","response":"left","rt":929.59999999404,"correct":true,"confidence":3},{"trial_n":44,"n_dots":3.15,"target":"right","response":"left","rt":662.90000000596,"correct":false,"confidence":3},{"trial_n":45,"n_dots":3.25,"target":"right","response":"left","rt":700,"correct":false,"confidence":3},{"trial_n":46,"n_dots":3.35,"target":"right","response":"left","rt":587.40000000596,"correct":false,"confidence":3},{"trial_n":47,"n_dots":3.45,"target":"right","response":"left","rt":794.20000001788,"correct":false,"confidence":3},{"trial_n":48,"n_dots":3.55,"target":"right","response":"left","rt":745.69999998808,"correct":false,"confidence":3},{"trial_n":49,"n_dots":3.65,"target":"left","response":"left","rt":420.70000001788,"correct":true,"confidence":3},{"trial_n":50,"n_dots":3.65,"target":"right","response":"left","rt":896.39999997616,"correct":false,"confidence":2},{"trial_n":51,"n_dots":3.75,"target":"left","response":"left","rt":505.69999998808,"correct":true,"confidence":3},{"trial_n":52,"n_dots":3.75,"target":"right","response":"left","rt":942.90000000596,"correct":false,"confidence":3},{"trial_n":53,"n_dots":3.85,"target":"right","response":"left","rt":1558.599999994,"correct":false,"confidence":2},{"trial_n":54,"n_dots":3.95,"target":"left","response":"left","rt":447,"correct":true,"confidence":2},{"trial_n":55,"n_dots":3.95,"target":"right","response":"right","rt":531,"correct":true,"confidence":3},{"trial_n":56,"n_dots":3.85,"target":"right","response":"right","rt":708.90000000596,"correct":true,"confidence":3},{"trial_n":57,"n_dots":3.85,"target":"left","response":"left","rt":644.10000002384,"correct":true,"confidence":2},{"trial_n":58,"n_dots":3.75,"target":"right","response":"right","rt":510.20000001788,"correct":true,"confidence":3},{"trial_n":59,"n_dots":3.75,"target":"left","response":"left","rt":768,"correct":true,"confidence":4},{"trial_n":60,"n_dots":3.65,"target":"right","response":"right","rt":822.80000001192,"correct":true,"confidence":3},{"trial_n":61,"n_dots":3.65,"target":"right","response":"left","rt":1139.400000006,"correct":false,"confidence":2},{"trial_n":62,"n_dots":3.75,"target":"right","response":"left","rt":1324.400000006,"correct":false,"confidence":3},{"trial_n":63,"n_dots":3.85,"target":"right","response":"right","rt":1294.5,"correct":true,"confidence":3},{"trial_n":64,"n_dots":3.85,"target":"right","response":"right","rt":1042,"correct":true,"confidence":4},{"trial_n":65,"n_dots":3.75,"target":"left","response":"left","rt":589.40000000596,"correct":true,"confidence":3},{"trial_n":66,"n_dots":3.75,"target":"left","response":"left","rt":509.60000002384,"correct":true,"confidence":3},{"trial_n":67,"n_dots":3.65,"target":"left","response":"left","rt":446.30000001192,"correct":true,"confidence":4},{"trial_n":68,"n_dots":3.65,"target":"left","response":"left","rt":1003.599999994,"correct":true,"confidence":4},{"trial_n":69,"n_dots":3.55,"target":"left","response":"left","rt":406.19999998808,"correct":true,"confidence":4},{"trial_n":70,"n_dots":3.55,"target":"right","response":"right","rt":819.39999997616,"correct":true,"confidence":3},{"trial_n":71,"n_dots":3.45,"target":"left","response":"left","rt":641.89999997616,"correct":true,"confidence":3},{"trial_n":72,"n_dots":3.45,"target":"right","response":"right","rt":1203,"correct":true,"confidence":2},{"trial_n":73,"n_dots":3.35,"target":"left","response":"right","rt":1705.8000000119,"correct":false,"confidence":3},{"trial_n":74,"n_dots":3.45,"target":"left","response":"left","rt":966.70000001788,"correct":true,"confidence":1},{"trial_n":75,"n_dots":3.45,"target":"right","response":"right","rt":1638.8000000119,"correct":true,"confidence":3},{"trial_n":76,"n_dots":3.35,"target":"right","response":"right","rt":601.79999998212,"correct":true,"confidence":3},{"trial_n":77,"n_dots":3.35,"target":"right","response":"right","rt":605.5,"correct":true,"confidence":3},{"trial_n":78,"n_dots":3.25,"target":"right","response":"left","rt":849.30000001192,"correct":false,"confidence":3},{"trial_n":79,"n_dots":3.35,"target":"left","response":"left","rt":880.69999998808,"correct":true,"confidence":3},{"trial_n":80,"n_dots":3.35,"target":"left","response":"left","rt":916.5,"correct":true,"confidence":3},{"trial_n":81,"n_dots":3.25,"target":"right","response":"right","rt":710.59999999404,"correct":true,"confidence":2},{"trial_n":82,"n_dots":3.25,"target":"left","response":"left","rt":693.09999999404,"correct":true,"confidence":2},{"trial_n":83,"n_dots":3.15,"target":"left","response":"left","rt":838.30000001192,"correct":true,"confidence":3},{"trial_n":84,"n_dots":3.15,"target":"right","response":"left","rt":785.79999998212,"correct":false,"confidence":2},{"trial_n":85,"n_dots":3.25,"target":"left","response":"left","rt":860.30000001192,"correct":true,"confidence":3},{"trial_n":86,"n_dots":3.25,"target":"right","response":"right","rt":1724.400000006,"correct":true,"confidence":2},{"trial_n":87,"n_dots":3.15,"target":"left","response":"left","rt":637.20000001788,"correct":true,"confidence":3},{"trial_n":88,"n_dots":3.15,"target":"left","response":"left","rt":799,"correct":true,"confidence":1},{"trial_n":89,"n_dots":3.05,"target":"right","response":"left","rt":961.70000001788,"correct":false,"confidence":2},{"trial_n":90,"n_dots":3.15,"target":"left","response":"left","rt":556.5,"correct":true,"confidence":3},{"trial_n":91,"n_dots":3.15,"target":"left","response":"left","rt":936.5,"correct":true,"confidence":3},{"trial_n":92,"n_dots":3.05,"target":"left","response":"left","rt":935.89999997616,"correct":true,"confidence":3},{"trial_n":93,"n_dots":3.05,"target":"left","response":"left","rt":970.40000000596,"correct":true,"confidence":3},{"trial_n":94,"n_dots":2.95,"target":"left","response":"right","rt":734.09999999404,"correct":false,"confidence":2},{"trial_n":95,"n_dots":3.05,"target":"right","response":"right","rt":1303.099999994,"correct":true,"confidence":3},{"trial_n":96,"n_dots":3.05,"target":"left","response":"left","rt":855.90000000596,"correct":true,"confidence":3},{"trial_n":97,"n_dots":2.95,"target":"right","response":"right","rt":736.90000000596,"correct":true,"confidence":2},{"trial_n":98,"n_dots":2.95,"target":"right","response":"right","rt":396.09999999404,"correct":true,"confidence":3},{"trial_n":99,"n_dots":2.85,"target":"left","response":"left","rt":756.90000000596,"correct":true,"confidence":3},{"trial_n":100,"n_dots":2.85,"target":"left","response":"right","rt":1016.3000000119,"correct":false,"confidence":2},{"trial_n":101,"n_dots":2.95,"target":"right","response":"right","rt":781.79999998212,"correct":true,"confidence":3},{"trial_n":102,"n_dots":2.95,"target":"right","response":"left","rt":496.40000000596,"correct":false,"confidence":2},{"trial_n":103,"n_dots":3.05,"target":"right","response":"right","rt":408.70000001788,"correct":true,"confidence":4},{"trial_n":104,"n_dots":3.05,"target":"right","response":"left","rt":533.89999997616,"correct":false,"confidence":4},{"trial_n":105,"n_dots":3.15,"target":"left","response":"left","rt":435.80000001192,"correct":true,"confidence":4},{"trial_n":106,"n_dots":3.15,"target":"left","response":"left","rt":629.5,"correct":true,"confidence":3},{"trial_n":107,"n_dots":3.05,"target":"left","response":"left","rt":675,"correct":true,"confidence":3},{"trial_n":108,"n_dots":3.05,"target":"right","response":"left","rt":3170.3000000119,"correct":false,"confidence":3},{"trial_n":109,"n_dots":3.15,"target":"left","response":"left","rt":514.70000001788,"correct":true,"confidence":2},{"trial_n":110,"n_dots":3.15,"target":"left","response":"left","rt":944.40000000596,"correct":true,"confidence":2},{"trial_n":111,"n_dots":3.05,"target":"right","response":"right","rt":588.40000000596,"correct":true,"confidence":3},{"trial_n":112,"n_dots":3.05,"target":"left","response":"left","rt":682.19999998808,"correct":true,"confidence":2},{"trial_n":113,"n_dots":2.95,"target":"right","response":"right","rt":692.09999999404,"correct":true,"confidence":2},{"trial_n":114,"n_dots":2.95,"target":"right","response":"left","rt":1810.599999994,"correct":false,"confidence":2},{"trial_n":115,"n_dots":3.05,"target":"right","response":"right","rt":779.5,"correct":true,"confidence":2},{"trial_n":116,"n_dots":3.05,"target":"right","response":"right","rt":279.79999998212,"correct":true,"confidence":3},{"trial_n":117,"n_dots":2.95,"target":"left","response":"left","rt":539.20000001788,"correct":true,"confidence":3},{"trial_n":118,"n_dots":2.95,"target":"right","response":"left","rt":597,"correct":false,"confidence":2},{"trial_n":119,"n_dots":3.05,"target":"right","response":"right","rt":1028.5,"correct":true,"confidence":2},{"trial_n":120,"n_dots":3.05,"target":"right","response":"left","rt":580,"correct":false,"confidence":2}]