[{"trial_n":1,"min":25,"max":230,"target":"present","response":"present","rt":4109.4000000004,"correct":true,"confidence":-1},{"trial_n":2,"min":25,"max":230,"target":"present","response":"present","rt":882.79999999888,"correct":true,"confidence":-1},{"trial_n":3,"min":41,"max":214,"target":"absent","response":"absent","rt":949.09999999963,"correct":true,"confidence":-1},{"trial_n":4,"min":41,"max":214,"target":"absent","response":"absent","rt":332.60000000149,"correct":true,"confidence":-1},{"trial_n":5,"min":57,"max":198,"target":"present","response":"present","rt":681.69999999925,"correct":true,"confidence":-1},{"trial_n":6,"min":57,"max":198,"target":"absent","response":"absent","rt":1009.5999999996,"correct":true,"confidence":-1},{"trial_n":7,"min":73,"max":182,"target":"absent","response":"absent","rt":274.30000000075,"correct":true,"confidence":-1},{"trial_n":8,"min":73,"max":182,"target":"present","response":"present","rt":481.90000000037,"correct":true,"confidence":-1},{"trial_n":9,"min":89,"max":166,"target":"absent","response":"absent","rt":258.5,"correct":true,"confidence":-1},{"trial_n":10,"min":89,"max":166,"target":"absent","response":"absent","rt":282.20000000112,"correct":true,"confidence":-1},{"trial_n":11,"min":97,"max":158,"target":"absent","response":"absent","rt":156.5,"correct":true,"confidence":-1},{"trial_n":12,"min":97,"max":158,"target":"present","response":"absent","rt":215.79999999888,"correct":false,"confidence":-1},{"trial_n":13,"min":89,"max":166,"target":"absent","response":"absent","rt":509.69999999925,"correct":true,"confidence":-1},{"trial_n":14,"min":89,"max":166,"target":"present","response":"present","rt":790.90000000037,"correct":true,"confidence":-1},{"trial_n":15,"min":97,"max":158,"target":"present","response":"absent","rt":705.09999999963,"correct":false,"confidence":-1},{"trial_n":16,"min":89,"max":166,"target":"present","response":"present","rt":374.09999999963,"correct":true,"confidence":-1},{"trial_n":17,"min":89,"max":166,"target":"absent","response":"absent","rt":791.69999999925,"correct":true,"confidence":-1},{"trial_n":18,"min":97,"max":158,"target":"absent","response":"present","rt":622.09999999963,"correct":false,"confidence":-1},{"trial_n":19,"min":89,"max":166,"target":"present","response":"absent","rt":449.10000000149,"correct":false,"confidence":-1},{"trial_n":20,"min":81,"max":174,"target":"present","response":"absent","rt":459.69999999925,"correct":false,"confidence":-1},{"trial_n":21,"min":77,"max":178,"target":"present","response":"present","rt":842.79999999888,"correct":true,"confidence":3},{"trial_n":22,"min":77,"max":178,"target":"absent","response":"absent","rt":759.39999999851,"correct":true,"confidence":3},{"trial_n":23,"min":81,"max":174,"target":"absent","response":"absent","rt":942.10000000149,"correct":true,"confidence":2},{"trial_n":24,"min":81,"max":174,"target":"present","response":"present","rt":2315.1999999993,"correct":true,"confidence":2},{"trial_n":25,"min":85,"max":170,"target":"present","response":"present","rt":2790.5,"correct":true,"confidence":4},{"trial_n":26,"min":85,"max":170,"target":"absent","response":"present","rt":5310.8000000007,"correct":false,"confidence":3},{"trial_n":27,"min":81,"max":174,"target":"absent","response":"present","rt":759.5,"correct":false,"confidence":4},{"trial_n":28,"min":77,"max":178,"target":"absent","response":"absent","rt":1437.8000000007,"correct":true,"confidence":4},{"trial_n":29,"min":77,"max":178,"target":"present","response":"present","rt":1457.9000000004,"correct":true,"confidence":3},{"trial_n":30,"min":81,"max":174,"target":"present","response":"present","rt":1859.6999999993,"correct":true,"confidence":3},{"trial_n":31,"min":81,"max":174,"target":"present","response":"absent","rt":1049.1999999993,"correct":false,"confidence":3},{"trial_n":32,"min":79,"max":176,"target":"absent","response":"present","rt":1941.7000000011,"correct":false,"confidence":2},{"trial_n":33,"min":77,"max":178,"target":"absent","response":"absent","rt":1238.6999999993,"correct":true,"confidence":4},{"trial_n":34,"min":77,"max":178,"target":"absent","response":"present","rt":1066.5,"correct":false,"confidence":2},{"trial_n":35,"min":75,"max":180,"target":"absent","response":"absent","rt":1178.3000000007,"correct":true,"confidence":4},{"trial_n":36,"min":75,"max":180,"target":"present","response":"present","rt":1008.4000000004,"correct":true,"confidence":5},{"trial_n":37,"min":77,"max":178,"target":"present","response":"present","rt":1390.6000000015,"correct":true,"confidence":3},{"trial_n":38,"min":77,"max":178,"target":"absent","response":"absent","rt":1895.0999999996,"correct":true,"confidence":3},{"trial_n":39,"min":79,"max":176,"target":"present","response":"absent","rt":1336.3000000007,"correct":false,"confidence":2},{"trial_n":40,"min":77,"max":178,"target":"present","response":"present","rt":1228.6999999993,"correct":true,"confidence":5},{"trial_n":41,"min":77,"max":178,"target":"absent","response":"present","rt":1382,"correct":false,"confidence":4},{"trial_n":42,"min":76,"max":179,"target":"absent","response":"absent","rt":1080.8000000007,"correct":true,"confidence":5},{"trial_n":43,"min":76,"max":179,"target":"absent","response":"absent","rt":1329.4000000004,"correct":true,"confidence":3},{"trial_n":44,"min":77,"max":178,"target":"absent","response":"absent","rt":1793.9000000004,"correct":true,"confidence":2},{"trial_n":45,"min":77,"max":178,"target":"absent","response":"present","rt":889.5,"correct":false,"confidence":1},{"trial_n":46,"min":76,"max":179,"target":"absent","response":"present","rt":2806.9000000004,"correct":false,"confidence":2},{"trial_n":47,"min":75,"max":180,"target":"present","response":"present","rt":383.20000000112,"correct":true,"confidence":1},{"trial_n":48,"min":75,"max":180,"target":"present","response":"absent","rt":3380.2000000011,"correct":false,"confidence":3},{"trial_n":49,"min":74,"max":181,"target":"absent","response":"absent","rt":977.09999999963,"correct":true,"confidence":2},{"trial_n":50,"min":74,"max":181,"target":"present","response":"present","rt":1629.0999999996,"correct":true,"confidence":3},{"trial_n":51,"min":75,"max":180,"target":"present","response":"present","rt":1949.9000000004,"correct":true,"confidence":4},{"trial_n":52,"min":75,"max":180,"target":"present","response":"absent","rt":313.5,"correct":false,"confidence":2},{"trial_n":53,"min":74,"max":181,"target":"absent","response":"present","rt":666.30000000075,"correct":false,"confidence":3},{"trial_n":54,"min":73,"max":182,"target":"present","response":"absent","rt":1199.2000000011,"correct":false,"confidence":1},{"trial_n":55,"min":72,"max":183,"target":"present","response":"absent","rt":1371.5999999996,"correct":false,"confidence":4},{"trial_n":56,"min":71,"max":184,"target":"present","response":"present","rt":1228.1999999993,"correct":true,"confidence":4},{"trial_n":57,"min":71,"max":184,"target":"present","response":"present","rt":944.5,"correct":true,"confidence":5},{"trial_n":58,"min":72,"max":183,"target":"present","response":"present","rt":878.70000000112,"correct":true,"confidence":5},{"trial_n":59,"min":72,"max":183,"target":"absent","response":"absent","rt":688,"correct":true,"confidence":4},{"trial_n":60,"min":73,"max":182,"target":"absent","response":"absent","rt":2021.7000000011,"correct":true,"confidence":4},{"trial_n":61,"min":73,"max":182,"target":"absent","response":"absent","rt":746.09999999963,"correct":true,"confidence":5},{"trial_n":62,"min":74,"max":181,"target":"present","response":"present","rt":1616.5999999996,"correct":true,"confidence":5},{"trial_n":63,"min":74,"max":181,"target":"present","response":"absent","rt":1485.0999999996,"correct":false,"confidence":4},{"trial_n":64,"min":73,"max":182,"target":"present","response":"present","rt":1546.5999999996,"correct":true,"confidence":4},{"trial_n":65,"min":73,"max":182,"target":"absent","response":"absent","rt":1142.9000000004,"correct":true,"confidence":4},{"trial_n":66,"min":74,"max":181,"target":"present","response":"absent","rt":897.19999999925,"correct":false,"confidence":3},{"trial_n":67,"min":73,"max":182,"target":"absent","response":"absent","rt":529.19999999925,"correct":true,"confidence":1},{"trial_n":68,"min":73,"max":182,"target":"absent","response":"absent","rt":1303,"correct":true,"confidence":5},{"trial_n":69,"min":74,"max":181,"target":"present","response":"absent","rt":719.09999999963,"correct":false,"confidence":3},{"trial_n":70,"min":73,"max":182,"target":"present","response":"absent","rt":934,"correct":false,"confidence":4},{"trial_n":71,"min":41,"max":214,"target":"present","response":"present","rt":1137,"correct":true,"confidence":-1},{"trial_n":72,"min":41,"max":214,"target":"present","response":"present","rt":386.09999999963,"correct":true,"confidence":-1},{"trial_n":73,"min":57,"max":198,"target":"absent","response":"absent","rt":290.30000000075,"correct":true,"confidence":-1},{"trial_n":74,"min":57,"max":198,"target":"absent","response":"absent","rt":196.69999999925,"correct":true,"confidence":-1},{"trial_n":75,"min":73,"max":182,"target":"present","response":"absent","rt":446.5,"correct":false,"confidence":-1},{"trial_n":76,"min":57,"max":198,"target":"absent","response":"absent","rt":1040.3000000007,"correct":true,"confidence":-1},{"trial_n":77,"min":57,"max":198,"target":"absent","response":"absent","rt":483.09999999963,"correct":true,"confidence":-1},{"trial_n":78,"min":73,"max":182,"target":"absent","response":"absent","rt":168,"correct":true,"confidence":-1},{"trial_n":79,"min":73,"max":182,"target":"absent","response":"present","rt":326.5,"correct":false,"confidence":-1},{"trial_n":80,"min":57,"max":198,"target":"absent","response":"absent","rt":722.70000000112,"correct":true,"confidence":-1},{"trial_n":81,"min":57,"max":198,"target":"present","response":"absent","rt":1593.6000000015,"correct":false,"confidence":-1},{"trial_n":82,"min":49,"max":206,"target":"present","response":"present","rt":186.30000000075,"correct":true,"confidence":-1},{"trial_n":83,"min":49,"max":206,"target":"absent","response":"absent","rt":508.80000000075,"correct":true,"confidence":-1},{"trial_n":84,"min":57,"max":198,"target":"present","response":"present","rt":190.40000000037,"correct":true,"confidence":-1},{"trial_n":85,"min":57,"max":198,"target":"present","response":"absent","rt":192.80000000075,"correct":false,"confidence":-1},{"trial_n":86,"min":49,"max":206,"target":"absent","response":"present","rt":434.79999999888,"correct":false,"confidence":-1},{"trial_n":87,"min":41,"max":214,"target":"present","response":"present","rt":346.29999999888,"correct":true,"confidence":-1},{"trial_n":88,"min":41,"max":214,"target":"absent","response":"absent","rt":270.5,"correct":true,"confidence":-1},{"trial_n":89,"min":49,"max":206,"target":"present","response":"absent","rt":413.70000000112,"correct":false,"confidence":-1},{"trial_n":90,"min":41,"max":214,"target":"absent","response":"absent","rt":595.40000000037,"correct":true,"confidence":-1},{"trial_n":91,"min":41,"max":214,"target":"absent","response":"absent","rt":480.90000000037,"correct":true,"confidence":3},{"trial_n":92,"min":45,"max":210,"target":"absent","response":"absent","rt":1428.7000000011,"correct":true,"confidence":5},{"trial_n":93,"min":45,"max":210,"target":"absent","response":"absent","rt":1828.9000000004,"correct":true,"confidence":5},{"trial_n":94,"min":49,"max":206,"target":"present","response":"present","rt":406.59999999963,"correct":true,"confidence":5},{"trial_n":95,"min":49,"max":206,"target":"present","response":"present","rt":291.70000000112,"correct":true,"confidence":1},{"trial_n":96,"min":53,"max":202,"target":"present","response":"present","rt":482.60000000149,"correct":true,"confidence":5},{"trial_n":97,"min":53,"max":202,"target":"present","response":"present","rt":417.30000000075,"correct":true,"confidence":5},{"trial_n":98,"min":57,"max":198,"target":"present","response":"present","rt":1090.6999999993,"correct":true,"confidence":4},{"trial_n":99,"min":57,"max":198,"target":"present","response":"present","rt":978,"correct":true,"confidence":3},{"trial_n":100,"min":61,"max":194,"target":"absent","response":"absent","rt":1065,"correct":true,"confidence":5},{"trial_n":101,"min":61,"max":194,"target":"present","response":"present","rt":810.30000000075,"correct":true,"confidence":4},{"trial_n":102,"min":63,"max":192,"target":"absent","response":"absent","rt":1103.3000000007,"correct":true,"confidence":4},{"trial_n":103,"min":63,"max":192,"target":"absent","response":"absent","rt":1275.7000000011,"correct":true,"confidence":3},{"trial_n":104,"min":65,"max":190,"target":"absent","response":"absent","rt":835.79999999888,"correct":true,"confidence":4},{"trial_n":105,"min":65,"max":190,"target":"present","response":"present","rt":500,"correct":true,"confidence":4},{"trial_n":106,"min":67,"max":188,"target":"present","response":"present","rt":971.79999999888,"correct":true,"confidence":4},{"trial_n":107,"min":67,"max":188,"target":"present","response":"present","rt":1490,"correct":true,"confidence":3},{"trial_n":108,"min":69,"max":186,"target":"absent","response":"present","rt":1783.5999999996,"correct":false,"confidence":2},{"trial_n":109,"min":67,"max":188,"target":"present","response":"present","rt":1206.5999999996,"correct":true,"confidence":3},{"trial_n":110,"min":67,"max":188,"target":"absent","response":"absent","rt":871.40000000037,"correct":true,"confidence":3},{"trial_n":111,"min":68,"max":187,"target":"absent","response":"absent","rt":1120.6999999993,"correct":true,"confidence":4},{"trial_n":112,"min":68,"max":187,"target":"present","response":"present","rt":468.59999999963,"correct":true,"confidence":3},{"trial_n":113,"min":69,"max":186,"target":"present","response":"present","rt":382.39999999851,"correct":true,"confidence":3},{"trial_n":114,"min":69,"max":186,"target":"absent","response":"absent","rt":824.19999999925,"correct":true,"confidence":3},{"trial_n":115,"min":70,"max":185,"target":"present","response":"present","rt":361.59999999963,"correct":true,"confidence":2},{"trial_n":116,"min":70,"max":185,"target":"absent","response":"absent","rt":615.59999999963,"correct":true,"confidence":3},{"trial_n":117,"min":71,"max":184,"target":"present","response":"present","rt":377,"correct":true,"confidence":3},{"trial_n":118,"min":71,"max":184,"target":"absent","response":"absent","rt":1594.8000000007,"correct":true,"confidence":1},{"trial_n":119,"min":72,"max":183,"target":"absent","response":"present","rt":1069.6999999993,"correct":false,"confidence":2},{"trial_n":120,"min":71,"max":184,"target":"present","response":"absent","rt":1637.7999999989,"correct":false,"confidence":2},{"trial_n":121,"min":70,"max":185,"target":"present","response":"present","rt":174.69999999925,"correct":true,"confidence":3},{"trial_n":122,"min":70,"max":185,"target":"present","response":"present","rt":302.80000000075,"correct":true,"confidence":3},{"trial_n":123,"min":71,"max":184,"target":"absent","response":"absent","rt":693,"correct":true,"confidence":4},{"trial_n":124,"min":71,"max":184,"target":"absent","response":"absent","rt":503.29999999888,"correct":true,"confidence":3},{"trial_n":125,"min":72,"max":183,"target":"absent","response":"absent","rt":630.79999999888,"correct":true,"confidence":2},{"trial_n":126,"min":72,"max":183,"target":"absent","response":"absent","rt":591.30000000075,"correct":true,"confidence":2},{"trial_n":127,"min":73,"max":182,"target":"absent","response":"absent","rt":1594.1000000015,"correct":true,"confidence":4},{"trial_n":128,"min":73,"max":182,"target":"present","response":"absent","rt":1764.9000000004,"correct":false,"confidence":1},{"trial_n":129,"min":72,"max":183,"target":"present","response":"present","rt":934.40000000037,"correct":true,"confidence":3},{"trial_n":130,"min":72,"max":183,"target":"present","response":"present","rt":887.40000000037,"correct":true,"confidence":3},{"trial_n":131,"min":73,"max":182,"target":"absent","response":"absent","rt":1093.3000000007,"correct":true,"confidence":3},{"trial_n":132,"min":73,"max":182,"target":"present","response":"present","rt":599.60000000149,"correct":true,"confidence":4},{"trial_n":133,"min":74,"max":181,"target":"present","response":"present","rt":585,"correct":true,"confidence":1},{"trial_n":134,"min":74,"max":181,"target":"present","response":"present","rt":431.40000000037,"correct":true,"confidence":3},{"trial_n":135,"min":75,"max":180,"target":"present","response":"present","rt":192.5,"correct":true,"confidence":5},{"trial_n":136,"min":75,"max":180,"target":"present","response":"present","rt":595.40000000037,"correct":true,"confidence":4},{"trial_n":137,"min":76,"max":179,"target":"absent","response":"absent","rt":762.40000000037,"correct":true,"confidence":3},{"trial_n":138,"min":76,"max":179,"target":"absent","response":"absent","rt":734.70000000112,"correct":true,"confidence":1},{"trial_n":139,"min":77,"max":178,"target":"absent","response":"absent","rt":1382.5999999996,"correct":true,"confidence":2},{"trial_n":140,"min":77,"max":178,"target":"present","response":"present","rt":240.40000000037,"correct":true,"confidence":3}]