[{"trial_n":1,"span":8,"encoder":"73862089","distractor":"76862089","target":"present","response":"present","rt":"3276.7999999989","correct":true,"confidence":-1},{"trial_n":2,"span":8,"encoder":"23213363","distractor":"63213363","target":"present","response":"present","rt":"1790.7999999989","correct":true,"confidence":-1},{"trial_n":3,"span":10,"encoder":"0760261466","distractor":"0760261406","target":"absent","response":"absent","rt":"1954.4000000004","correct":true,"confidence":-1},{"trial_n":4,"span":10,"encoder":"0117563540","distractor":"0117563544","target":"absent","response":"absent","rt":"2084","correct":true,"confidence":-1},{"trial_n":5,"span":12,"encoder":"336089582548","distractor":"376089582548","target":"present","response":"present","rt":"2012.5999999996","correct":true,"confidence":-1},{"trial_n":6,"span":12,"encoder":"747840056641","distractor":"740840056641","target":"present","response":"absent","rt":"6020.9000000004","correct":false,"confidence":-1},{"trial_n":7,"span":10,"encoder":"5735318492","distractor":"5735358492","target":"present","response":"present","rt":"1821.7000000011","correct":true,"confidence":-1},{"trial_n":8,"span":10,"encoder":"3714536863","distractor":"0714536863","target":"present","response":"present","rt":"1408.9000000004","correct":true,"confidence":-1},{"trial_n":9,"span":12,"encoder":"467783855864","distractor":"467983855864","target":"absent","response":"absent","rt":"808.39999999851","correct":true,"confidence":-1},{"trial_n":10,"span":12,"encoder":"648901274288","distractor":"648901274281","target":"absent","response":"absent","rt":"1019.4000000004","correct":true,"confidence":-1},{"trial_n":11,"span":14,"encoder":"57152722391632","distractor":"55152722391632","target":"absent","response":"absent","rt":"849.5","correct":true,"confidence":-1},{"trial_n":12,"span":14,"encoder":"10587145787956","distractor":"10587145782956","target":"absent","response":"absent","rt":"6839","correct":true,"confidence":-1},{"trial_n":13,"span":15,"encoder":"653397160354215","distractor":"653337160354215","target":"present","response":"present","rt":"1184.2999999989","correct":true,"confidence":-1},{"trial_n":14,"span":15,"encoder":"869606571050894","distractor":"869606571053894","target":"absent","response":"absent","rt":"6334.5","correct":true,"confidence":-1},{"trial_n":15,"span":16,"encoder":"6054033859696623","distractor":"6054033859698623","target":"present","response":"absent","rt":"1049.6000000015","correct":false,"confidence":-1},{"trial_n":16,"span":15,"encoder":"639875806530847","distractor":"639875809530847","target":"present","response":"present","rt":"1010","correct":true,"confidence":-1},{"trial_n":17,"span":15,"encoder":"051556531133882","distractor":"051356531133882","target":"absent","response":"present","rt":"1090.4000000004","correct":false,"confidence":-1},{"trial_n":18,"span":14,"encoder":"13398370668682","distractor":"13398370668687","target":"present","response":"absent","rt":"7398.8000000007","correct":false,"confidence":-1},{"trial_n":19,"span":13,"encoder":"5698650458998","distractor":"5698350458998","target":"present","response":"absent","rt":"1531","correct":false,"confidence":-1},{"trial_n":20,"span":12,"encoder":"306519226917","distractor":"336519226917","target":"present","response":"present","rt":"453.29999999888","correct":true,"confidence":-1},{"trial_n":21,"span":12,"encoder":"122045865980","distractor":"122045866980","target":"present","response":"present","rt":"1259.7000000011","correct":true,"confidence":5},{"trial_n":22,"span":13,"encoder":"6121401536590","distractor":"6127401536590","target":"present","response":"absent","rt":"1018.0999999996","correct":false,"confidence":1},{"trial_n":23,"span":12,"encoder":"700664314251","distractor":"700664914251","target":"absent","response":"present","rt":"1868.4000000004","correct":false,"confidence":2},{"trial_n":24,"span":11,"encoder":"05401539987","distractor":"05401539988","target":"present","response":"present","rt":"3902","correct":true,"confidence":3},{"trial_n":25,"span":11,"encoder":"87798928327","distractor":"87798922327","target":"absent","response":"absent","rt":"7847.7000000011","correct":true,"confidence":3},{"trial_n":26,"span":12,"encoder":"598676715461","distractor":"598576715461","target":"absent","response":"absent","rt":"1221.6999999993","correct":true,"confidence":2},{"trial_n":27,"span":12,"encoder":"181230471428","distractor":"181830471428","target":"present","response":"absent","rt":"4533","correct":false,"confidence":1},{"trial_n":28,"span":11,"encoder":"02637600955","distractor":"02637600155","target":"present","response":"absent","rt":"3597.4000000004","correct":false,"confidence":2},{"trial_n":29,"span":10,"encoder":"8558897480","distractor":"8550897480","target":"absent","response":"present","rt":"544154","correct":false,"confidence":2},{"trial_n":30,"span":9,"encoder":"285233147","distractor":"275233147","target":"present","response":"present","rt":"2283.3999999985","correct":true,"confidence":4},{"trial_n":31,"span":9,"encoder":"298443569","distractor":"598443569","target":"absent","response":"present","rt":"1841.5999999996","correct":false,"confidence":4},{"trial_n":32,"span":8,"encoder":"82827842","distractor":"72827842","target":"present","response":"present","rt":"2336.5999999996","correct":true,"confidence":2},{"trial_n":33,"span":8,"encoder":"12836432","distractor":"12236432","target":"absent","response":"present","rt":"5575.5999999996","correct":false,"confidence":2},{"trial_n":34,"span":7,"encoder":"2137226","distractor":"2131226","target":"absent","response":"present","rt":"2475.3000000007","correct":false,"confidence":4},{"trial_n":35,"span":6,"encoder":"599019","distractor":"569019","target":"absent","response":"present","rt":"1958.7000000011","correct":false,"confidence":5},{"trial_n":36,"span":5,"encoder":"66641","distractor":"66941","target":"absent","response":"present","rt":"2018.5999999996","correct":false,"confidence":5},{"trial_n":37,"span":4,"encoder":"7024","distractor":"7029","target":"present","response":"present","rt":"1573.2999999989","correct":true,"confidence":5},{"trial_n":38,"span":4,"encoder":"4902","distractor":"4904","target":"present","response":"present","rt":"1328.6999999993","correct":true,"confidence":5},{"trial_n":39,"span":5,"encoder":"63523","distractor":"63573","target":"present","response":"present","rt":"1705.1999999993","correct":true,"confidence":4},{"trial_n":40,"span":5,"encoder":"72374","distractor":"72372","target":"absent","response":"absent","rt":"2780.1999999993","correct":true,"confidence":5},{"trial_n":41,"span":6,"encoder":"023219","distractor":"023919","target":"absent","response":"present","rt":"1576","correct":false,"confidence":4},{"trial_n":42,"span":5,"encoder":"54904","distractor":"58904","target":"absent","response":"absent","rt":"4655.6000000015","correct":true,"confidence":2},{"trial_n":43,"span":5,"encoder":"57686","distractor":"27686","target":"absent","response":"present","rt":"2123.5","correct":false,"confidence":4},{"trial_n":44,"span":4,"encoder":"2880","distractor":"1880","target":"present","response":"present","rt":"1474.3999999985","correct":true,"confidence":3},{"trial_n":45,"span":4,"encoder":"5863","distractor":"9863","target":"absent","response":"absent","rt":"1330.700000003","correct":true,"confidence":5},{"trial_n":46,"span":5,"encoder":"16469","distractor":"19469","target":"absent","response":"absent","rt":"2342.200000003","correct":true,"confidence":2},{"trial_n":47,"span":5,"encoder":"83054","distractor":"83050","target":"absent","response":"absent","rt":"2165.700000003","correct":true,"confidence":1},{"trial_n":48,"span":6,"encoder":"348433","distractor":"648433","target":"present","response":"absent","rt":"14179.300000001","correct":false,"confidence":1},{"trial_n":49,"span":5,"encoder":"87918","distractor":"47918","target":"absent","response":"absent","rt":"1121.5","correct":true,"confidence":5},{"trial_n":50,"span":5,"encoder":"01967","distractor":"01957","target":"absent","response":"absent","rt":"3197.799999997","correct":true,"confidence":1},{"trial_n":51,"span":6,"encoder":"037609","distractor":"037689","target":"present","response":"absent","rt":"2291.1000000015","correct":false,"confidence":1},{"trial_n":52,"span":5,"encoder":"99313","distractor":"99393","target":"present","response":"absent","rt":"1322.3000000007","correct":false,"confidence":3},{"trial_n":53,"span":4,"encoder":"8639","distractor":"8239","target":"absent","response":"present","rt":"2742.6999999993","correct":false,"confidence":4},{"trial_n":54,"span":3,"encoder":"859","distractor":"259","target":"present","response":"present","rt":"2565.799999997","correct":true,"confidence":5},{"trial_n":55,"span":3,"encoder":"785","distractor":"385","target":"present","response":"present","rt":"1325.3999999985","correct":true,"confidence":5},{"trial_n":56,"span":4,"encoder":"7112","distractor":"7192","target":"present","response":"present","rt":"1203.8000000007","correct":true,"confidence":5},{"trial_n":57,"span":4,"encoder":"7503","distractor":"7583","target":"present","response":"present","rt":"1163","correct":true,"confidence":5},{"trial_n":58,"span":5,"encoder":"27428","distractor":"27421","target":"present","response":"present","rt":"2046.200000003","correct":true,"confidence":4},{"trial_n":59,"span":5,"encoder":"52813","distractor":"52883","target":"absent","response":"absent","rt":"1613.1999999993","correct":true,"confidence":3},{"trial_n":60,"span":6,"encoder":"376551","distractor":"316551","target":"absent","response":"absent","rt":"1717.5","correct":true,"confidence":1},{"trial_n":61,"span":6,"encoder":"487604","distractor":"480604","target":"present","response":"absent","rt":"2331.0999999978","correct":false,"confidence":2},{"trial_n":62,"span":5,"encoder":"84516","distractor":"84416","target":"absent","response":"present","rt":"2753.1999999993","correct":false,"confidence":3},{"trial_n":63,"span":4,"encoder":"2848","distractor":"2842","target":"present","response":"present","rt":"1477.5999999978","correct":true,"confidence":4},{"trial_n":64,"span":4,"encoder":"5858","distractor":"5058","target":"absent","response":"absent","rt":"1193.6000000015","correct":true,"confidence":5},{"trial_n":65,"span":5,"encoder":"32200","distractor":"32000","target":"absent","response":"absent","rt":"1779.5","correct":true,"confidence":5},{"trial_n":66,"span":5,"encoder":"41184","distractor":"49184","target":"present","response":"present","rt":"1802.4000000022","correct":true,"confidence":4},{"trial_n":67,"span":6,"encoder":"658415","distractor":"558415","target":"absent","response":"absent","rt":"2109.8000000007","correct":true,"confidence":2},{"trial_n":68,"span":6,"encoder":"974113","distractor":"974613","target":"present","response":"absent","rt":"1304.6999999993","correct":false,"confidence":2},{"trial_n":69,"span":5,"encoder":"02528","distractor":"09528","target":"absent","response":"absent","rt":"1867.5","correct":true,"confidence":4},{"trial_n":70,"span":5,"encoder":"17342","distractor":"87342","target":"present","response":"present","rt":"1403.700000003","correct":true,"confidence":4},{"trial_n":71,"span":8,"encoder":"45425265","distractor":"45445265","target":"present","response":"present","rt":"1623.3999999985","correct":true,"confidence":-1},{"trial_n":72,"span":8,"encoder":"08754759","distractor":"78754759","target":"present","response":"absent","rt":"466","correct":false,"confidence":-1},{"trial_n":73,"span":7,"encoder":"7122451","distractor":"7722451","target":"absent","response":"present","rt":"844.89999999851","correct":false,"confidence":-1},{"trial_n":74,"span":6,"encoder":"470382","distractor":"470282","target":"absent","response":"present","rt":"295.59999999776","correct":false,"confidence":-1},{"trial_n":75,"span":5,"encoder":"85380","distractor":"05380","target":"present","response":"present","rt":"2325.1999999993","correct":true,"confidence":-1},{"trial_n":76,"span":5,"encoder":"79973","distractor":"79073","target":"present","response":"present","rt":"1045.9000000022","correct":true,"confidence":-1},{"trial_n":77,"span":6,"encoder":"690186","distractor":"190186","target":"present","response":"present","rt":"1176.0999999978","correct":true,"confidence":-1},{"trial_n":78,"span":6,"encoder":"114244","distractor":"114744","target":"absent","response":"absent","rt":"309.5","correct":true,"confidence":-1},{"trial_n":79,"span":7,"encoder":"2920105","distractor":"2910105","target":"present","response":"absent","rt":"192.89999999851","correct":false,"confidence":-1},{"trial_n":80,"span":6,"encoder":"396558","distractor":"346558","target":"absent","response":"present","rt":"790.69999999925","correct":false,"confidence":-1},{"trial_n":81,"span":5,"encoder":"24223","distractor":"24823","target":"absent","response":"absent","rt":"3179","correct":true,"confidence":-1},{"trial_n":82,"span":5,"encoder":"68047","distractor":"68049","target":"absent","response":"absent","rt":"2426.5999999978","correct":true,"confidence":-1},{"trial_n":83,"span":6,"encoder":"618374","distractor":"618377","target":"present","response":"present","rt":"2199.8000000007","correct":true,"confidence":-1},{"trial_n":84,"span":6,"encoder":"468960","distractor":"468930","target":"absent","response":"absent","rt":"14021.199999999","correct":true,"confidence":-1},{"trial_n":85,"span":7,"encoder":"6109169","distractor":"6109869","target":"absent","response":"present","rt":"1663.6999999993","correct":false,"confidence":-1},{"trial_n":86,"span":6,"encoder":"170023","distractor":"170028","target":"present","response":"present","rt":"3361.1000000015","correct":true,"confidence":-1},{"trial_n":87,"span":6,"encoder":"647413","distractor":"647453","target":"present","response":"absent","rt":"2022.5999999978","correct":false,"confidence":-1},{"trial_n":88,"span":5,"encoder":"03667","distractor":"03660","target":"present","response":"absent","rt":"10578.5","correct":false,"confidence":-1},{"trial_n":89,"span":4,"encoder":"7227","distractor":"7223","target":"absent","response":"absent","rt":"1338","correct":true,"confidence":-1},{"trial_n":90,"span":4,"encoder":"9864","distractor":"9764","target":"absent","response":"present","rt":"1201.1999999993","correct":false,"confidence":-1},{"trial_n":91,"span":3,"encoder":"201","distractor":"501","target":"present","response":"present","rt":"2299.5","correct":true,"confidence":5},{"trial_n":92,"span":3,"encoder":"378","distractor":"348","target":"present","response":"present","rt":"2144.1000000015","correct":true,"confidence":4},{"trial_n":93,"span":4,"encoder":"4812","distractor":"8812","target":"present","response":"absent","rt":"3704.1000000015","correct":false,"confidence":2},{"trial_n":94,"span":3,"encoder":"769","distractor":"761","target":"absent","response":"absent","rt":"3923.8000000007","correct":true,"confidence":4},{"trial_n":95,"span":3,"encoder":"060","distractor":"020","target":"absent","response":"absent","rt":"3117.3000000007","correct":true,"confidence":4},{"trial_n":96,"span":4,"encoder":"2634","distractor":"2654","target":"absent","response":"absent","rt":"1957","correct":true,"confidence":4},{"trial_n":97,"span":4,"encoder":"8373","distractor":"6373","target":"absent","response":"absent","rt":"1769.299999997","correct":true,"confidence":4},{"trial_n":98,"span":5,"encoder":"13935","distractor":"13938","target":"absent","response":"present","rt":"2745.3000000007","correct":false,"confidence":3},{"trial_n":99,"span":4,"encoder":"3688","distractor":"3686","target":"present","response":"present","rt":"7445.8999999985","correct":true,"confidence":1},{"trial_n":100,"span":4,"encoder":"5071","distractor":"5070","target":"absent","response":"absent","rt":"1742.3000000007","correct":true,"confidence":4},{"trial_n":101,"span":5,"encoder":"53296","distractor":"53596","target":"present","response":"present","rt":"3752.8000000007","correct":true,"confidence":4},{"trial_n":102,"span":5,"encoder":"76981","distractor":"76971","target":"absent","response":"absent","rt":"5888.5","correct":true,"confidence":2},{"trial_n":103,"span":6,"encoder":"962320","distractor":"962120","target":"absent","response":"absent","rt":"2400.9000000022","correct":true,"confidence":3},{"trial_n":104,"span":6,"encoder":"175326","distractor":"175356","target":"present","response":"present","rt":"7376.6999999993","correct":true,"confidence":1},{"trial_n":105,"span":7,"encoder":"7284300","distractor":"7294300","target":"present","response":"absent","rt":"3397.5999999978","correct":false,"confidence":2},{"trial_n":106,"span":6,"encoder":"886778","distractor":"886770","target":"present","response":"present","rt":"1907","correct":true,"confidence":4},{"trial_n":107,"span":6,"encoder":"974208","distractor":"984208","target":"present","response":"present","rt":"2988.3000000007","correct":true,"confidence":3},{"trial_n":108,"span":7,"encoder":"0547369","distractor":"0597369","target":"present","response":"present","rt":"3113.1000000015","correct":true,"confidence":2},{"trial_n":109,"span":7,"encoder":"4925287","distractor":"4905287","target":"absent","response":"absent","rt":"2786.3999999985","correct":true,"confidence":1},{"trial_n":110,"span":8,"encoder":"39182499","distractor":"39182299","target":"present","response":"present","rt":"4207.1000000015","correct":true,"confidence":3},{"trial_n":111,"span":8,"encoder":"80039217","distractor":"80039214","target":"absent","response":"absent","rt":"3020","correct":true,"confidence":3},{"trial_n":112,"span":9,"encoder":"169545242","distractor":"169525242","target":"absent","response":"absent","rt":"1598.8999999985","correct":true,"confidence":3},{"trial_n":113,"span":9,"encoder":"435363845","distractor":"435363825","target":"present","response":"absent","rt":"2687.1000000015","correct":false,"confidence":3},{"trial_n":114,"span":8,"encoder":"67535614","distractor":"67535214","target":"present","response":"present","rt":"2203.0999999978","correct":true,"confidence":2},{"trial_n":115,"span":8,"encoder":"00659680","distractor":"00659650","target":"absent","response":"absent","rt":"2965.6000000015","correct":true,"confidence":5},{"trial_n":116,"span":9,"encoder":"626121596","distractor":"626121598","target":"present","response":"present","rt":"3925.1000000015","correct":true,"confidence":3},{"trial_n":117,"span":9,"encoder":"399082585","distractor":"599082585","target":"present","response":"absent","rt":"3784.6000000015","correct":false,"confidence":2},{"trial_n":118,"span":8,"encoder":"17246561","distractor":"17240561","target":"absent","response":"present","rt":"10088.599999998","correct":false,"confidence":3},{"trial_n":119,"span":7,"encoder":"8450019","distractor":"8150019","target":"absent","response":"absent","rt":"12225.600000001","correct":true,"confidence":1},{"trial_n":120,"span":7,"encoder":"5540095","distractor":"5590095","target":"present","response":"absent","rt":"4248","correct":false,"confidence":2},{"trial_n":121,"span":6,"encoder":"344033","distractor":"344031","target":"present","response":"present","rt":"2237.1000000015","correct":true,"confidence":4},{"trial_n":122,"span":6,"encoder":"352449","distractor":"352441","target":"absent","response":"present","rt":"1811.1999999993","correct":false,"confidence":2},{"trial_n":123,"span":5,"encoder":"50569","distractor":"50564","target":"present","response":"present","rt":"2977.8999999985","correct":true,"confidence":5},{"trial_n":124,"span":5,"encoder":"52901","distractor":"52971","target":"absent","response":"absent","rt":"1664.6000000015","correct":true,"confidence":5},{"trial_n":125,"span":6,"encoder":"078385","distractor":"075385","target":"absent","response":"absent","rt":"5855.6999999993","correct":true,"confidence":3},{"trial_n":126,"span":6,"encoder":"024995","distractor":"424995","target":"present","response":"present","rt":"4514.700000003","correct":true,"confidence":2},{"trial_n":127,"span":7,"encoder":"4162039","distractor":"4162009","target":"absent","response":"present","rt":"4291.700000003","correct":false,"confidence":2},{"trial_n":128,"span":6,"encoder":"248554","distractor":"248954","target":"present","response":"absent","rt":"2910.5","correct":false,"confidence":4},{"trial_n":129,"span":5,"encoder":"55046","distractor":"54046","target":"absent","response":"absent","rt":"1767.0999999978","correct":true,"confidence":5},{"trial_n":130,"span":5,"encoder":"24029","distractor":"24026","target":"present","response":"present","rt":"2873.1000000015","correct":true,"confidence":4},{"trial_n":131,"span":6,"encoder":"356358","distractor":"356958","target":"present","response":"present","rt":"4243.700000003","correct":true,"confidence":4},{"trial_n":132,"span":6,"encoder":"798053","distractor":"798033","target":"absent","response":"present","rt":"1696.8000000007","correct":false,"confidence":3},{"trial_n":133,"span":5,"encoder":"81040","distractor":"01040","target":"absent","response":"absent","rt":"2441.8999999985","correct":true,"confidence":4},{"trial_n":134,"span":5,"encoder":"64659","distractor":"64651","target":"present","response":"present","rt":"2223.6000000015","correct":true,"confidence":5},{"trial_n":135,"span":6,"encoder":"740552","distractor":"440552","target":"absent","response":"absent","rt":"2416.200000003","correct":true,"confidence":5},{"trial_n":136,"span":6,"encoder":"801905","distractor":"901905","target":"present","response":"present","rt":"3065.8000000007","correct":true,"confidence":4},{"trial_n":137,"span":7,"encoder":"3878675","distractor":"3878635","target":"absent","response":"absent","rt":"3191.5","correct":true,"confidence":4},{"trial_n":138,"span":7,"encoder":"9077936","distractor":"9017936","target":"present","response":"absent","rt":"12151.300000001","correct":false,"confidence":1},{"trial_n":139,"span":6,"encoder":"646659","distractor":"642659","target":"present","response":"present","rt":"2389.5999999978","correct":true,"confidence":4},{"trial_n":140,"span":6,"encoder":"553228","distractor":"556228","target":"absent","response":"present","rt":"3319.8000000007","correct":false,"confidence":3}]