[{"trial_n":1,"n_dots":4.25,"target":"right","response":"right","rt":4936.5,"correct":true,"confidence":-1},{"trial_n":2,"n_dots":4.25,"target":"right","response":"right","rt":1422.8000000119,"correct":true,"confidence":-1},{"trial_n":3,"n_dots":3.85,"target":"left","response":"left","rt":1837.6999999881,"correct":true,"confidence":-1},{"trial_n":4,"n_dots":3.85,"target":"left","response":"left","rt":1600.6000000238,"correct":true,"confidence":-1},{"trial_n":5,"n_dots":3.45,"target":"right","response":"left","rt":1030.8000000119,"correct":false,"confidence":-1},{"trial_n":6,"n_dots":3.85,"target":"right","response":"right","rt":1408.599999994,"correct":true,"confidence":-1},{"trial_n":7,"n_dots":3.85,"target":"left","response":"left","rt":853.09999999404,"correct":true,"confidence":-1},{"trial_n":8,"n_dots":3.65,"target":"left","response":"left","rt":915.10000002384,"correct":true,"confidence":-1},{"trial_n":9,"n_dots":3.65,"target":"left","response":"left","rt":574.90000000596,"correct":true,"confidence":-1},{"trial_n":10,"n_dots":3.45,"target":"right","response":"right","rt":615.40000000596,"correct":true,"confidence":-1},{"trial_n":11,"n_dots":3.45,"target":"left","response":"right","rt":844.40000000596,"correct":false,"confidence":-1},{"trial_n":12,"n_dots":3.65,"target":"left","response":"left","rt":424.20000001788,"correct":true,"confidence":-1},{"trial_n":13,"n_dots":3.65,"target":"right","response":"right","rt":646.80000001192,"correct":true,"confidence":-1},{"trial_n":14,"n_dots":3.55,"target":"right","response":"right","rt":584,"correct":true,"confidence":-1},{"trial_n":15,"n_dots":3.55,"target":"right","response":"right","rt":244.60000002384,"correct":true,"confidence":-1},{"trial_n":16,"n_dots":3.45,"target":"right","response":"right","rt":775.60000002384,"correct":true,"confidence":-1},{"trial_n":17,"n_dots":3.45,"target":"left","response":"left","rt":481.69999998808,"correct":true,"confidence":-1},{"trial_n":18,"n_dots":3.35,"target":"left","response":"left","rt":766.59999999404,"correct":true,"confidence":-1},{"trial_n":19,"n_dots":3.35,"target":"right","response":"right","rt":426.10000002384,"correct":true,"confidence":-1},{"trial_n":20,"n_dots":3.25,"target":"left","response":"left","rt":679.29999998212,"correct":true,"confidence":-1},{"trial_n":21,"n_dots":3.25,"target":"left","response":"left","rt":564.70000001788,"correct":true,"confidence":2},{"trial_n":22,"n_dots":3.15,"target":"right","response":"right","rt":787.80000001192,"correct":true,"confidence":3},{"trial_n":23,"n_dots":3.15,"target":"left","response":"right","rt":928.59999999404,"correct":false,"confidence":3},{"trial_n":24,"n_dots":3.25,"target":"left","response":"left","rt":909.5,"correct":true,"confidence":3},{"trial_n":25,"n_dots":3.25,"target":"left","response":"left","rt":813.20000001788,"correct":true,"confidence":3},{"trial_n":26,"n_dots":3.15,"target":"right","response":"right","rt":798,"correct":true,"confidence":4},{"trial_n":27,"n_dots":3.15,"target":"right","response":"right","rt":782.90000000596,"correct":true,"confidence":3},{"trial_n":28,"n_dots":3.05,"target":"left","response":"right","rt":875.09999999404,"correct":false,"confidence":2},{"trial_n":29,"n_dots":3.15,"target":"left","response":"left","rt":942.40000000596,"correct":true,"confidence":3},{"trial_n":30,"n_dots":3.15,"target":"left","response":"left","rt":751.5,"correct":true,"confidence":2},{"trial_n":31,"n_dots":3.05,"target":"left","response":"left","rt":720.09999999404,"correct":true,"confidence":3},{"trial_n":32,"n_dots":3.05,"target":"right","response":"right","rt":599.39999997616,"correct":true,"confidence":3},{"trial_n":33,"n_dots":2.95,"target":"left","response":"left","rt":1219.900000006,"correct":true,"confidence":2},{"trial_n":34,"n_dots":2.95,"target":"right","response":"right","rt":447.5,"correct":true,"confidence":4},{"trial_n":35,"n_dots":2.85,"target":"left","response":"right","rt":959.20000001788,"correct":false,"confidence":2},{"trial_n":36,"n_dots":2.95,"target":"right","response":"right","rt":843.70000001788,"correct":true,"confidence":2},{"trial_n":37,"n_dots":2.95,"target":"left","response":"left","rt":685.40000000596,"correct":true,"confidence":3},{"trial_n":38,"n_dots":2.85,"target":"left","response":"right","rt":573.69999998808,"correct":false,"confidence":2},{"trial_n":39,"n_dots":2.95,"target":"right","response":"right","rt":772.90000000596,"correct":true,"confidence":2},{"trial_n":40,"n_dots":2.95,"target":"right","response":"right","rt":952.69999998808,"correct":true,"confidence":2},{"trial_n":41,"n_dots":2.85,"target":"right","response":"right","rt":255.89999997616,"correct":true,"confidence":4},{"trial_n":42,"n_dots":2.85,"target":"left","response":"right","rt":924,"correct":false,"confidence":3},{"trial_n":43,"n_dots":2.95,"target":"left","response":"left","rt":426.10000002384,"correct":true,"confidence":4},{"trial_n":44,"n_dots":2.95,"target":"left","response":"right","rt":725.20000001788,"correct":false,"confidence":3},{"trial_n":45,"n_dots":3.05,"target":"right","response":"right","rt":738.5,"correct":true,"confidence":3},{"trial_n":46,"n_dots":3.05,"target":"right","response":"right","rt":665.5,"correct":true,"confidence":3},{"trial_n":47,"n_dots":2.95,"target":"right","response":"right","rt":701.19999998808,"correct":true,"confidence":2},{"trial_n":48,"n_dots":2.95,"target":"right","response":"right","rt":681,"correct":true,"confidence":3},{"trial_n":49,"n_dots":2.85,"target":"right","response":"right","rt":773.60000002384,"correct":true,"confidence":2},{"trial_n":50,"n_dots":2.85,"target":"left","response":"right","rt":2507.2999999821,"correct":false,"confidence":1},{"trial_n":51,"n_dots":2.95,"target":"left","response":"left","rt":543.90000000596,"correct":true,"confidence":3},{"trial_n":52,"n_dots":2.95,"target":"left","response":"right","rt":1163.6000000238,"correct":false,"confidence":2},{"trial_n":53,"n_dots":3.05,"target":"left","response":"left","rt":3046.900000006,"correct":true,"confidence":2},{"trial_n":54,"n_dots":3.05,"target":"right","response":"right","rt":1256.099999994,"correct":true,"confidence":4},{"trial_n":55,"n_dots":2.95,"target":"right","response":"right","rt":963.29999998212,"correct":true,"confidence":4},{"trial_n":56,"n_dots":2.95,"target":"left","response":"left","rt":1108.7999999821,"correct":true,"confidence":2},{"trial_n":57,"n_dots":2.85,"target":"right","response":"right","rt":1035.6999999881,"correct":true,"confidence":3},{"trial_n":58,"n_dots":2.85,"target":"right","response":"right","rt":577.39999997616,"correct":true,"confidence":4},{"trial_n":59,"n_dots":2.75,"target":"left","response":"left","rt":854.59999999404,"correct":true,"confidence":4},{"trial_n":60,"n_dots":2.75,"target":"right","response":"right","rt":665.19999998808,"correct":true,"confidence":3},{"trial_n":61,"n_dots":2.65,"target":"right","response":"right","rt":603.30000001192,"correct":true,"confidence":3},{"trial_n":62,"n_dots":2.65,"target":"left","response":"right","rt":653.90000000596,"correct":false,"confidence":3},{"trial_n":63,"n_dots":2.75,"target":"right","response":"right","rt":666.70000001788,"correct":true,"confidence":2},{"trial_n":64,"n_dots":2.75,"target":"right","response":"right","rt":449.59999999404,"correct":true,"confidence":3},{"trial_n":65,"n_dots":2.65,"target":"right","response":"right","rt":658.40000000596,"correct":true,"confidence":4},{"trial_n":66,"n_dots":2.65,"target":"left","response":"right","rt":941.09999999404,"correct":false,"confidence":4},{"trial_n":67,"n_dots":2.75,"target":"left","response":"left","rt":679.79999998212,"correct":true,"confidence":3},{"trial_n":68,"n_dots":2.75,"target":"right","response":"right","rt":717.70000001788,"correct":true,"confidence":2},{"trial_n":69,"n_dots":2.65,"target":"right","response":"right","rt":601.69999998808,"correct":true,"confidence":2},{"trial_n":70,"n_dots":2.65,"target":"left","response":"left","rt":458.59999999404,"correct":true,"confidence":1},{"trial_n":71,"n_dots":2.55,"target":"left","response":"left","rt":647.5,"correct":true,"confidence":3},{"trial_n":72,"n_dots":2.55,"target":"left","response":"left","rt":598.10000002384,"correct":true,"confidence":2},{"trial_n":73,"n_dots":2.45,"target":"left","response":"right","rt":884.29999998212,"correct":false,"confidence":1},{"trial_n":74,"n_dots":2.55,"target":"right","response":"right","rt":726.09999999404,"correct":true,"confidence":2},{"trial_n":75,"n_dots":2.55,"target":"right","response":"left","rt":671.20000001788,"correct":false,"confidence":1},{"trial_n":76,"n_dots":2.65,"target":"right","response":"right","rt":449.80000001192,"correct":true,"confidence":3},{"trial_n":77,"n_dots":2.65,"target":"left","response":"right","rt":609,"correct":false,"confidence":3},{"trial_n":78,"n_dots":2.75,"target":"left","response":"left","rt":487.59999999404,"correct":true,"confidence":4},{"trial_n":79,"n_dots":2.75,"target":"left","response":"right","rt":480.90000000596,"correct":false,"confidence":3},{"trial_n":80,"n_dots":2.85,"target":"right","response":"right","rt":438.40000000596,"correct":true,"confidence":4},{"trial_n":81,"n_dots":2.85,"target":"right","response":"right","rt":420.69999998808,"correct":true,"confidence":3},{"trial_n":82,"n_dots":2.75,"target":"right","response":"left","rt":815.70000001788,"correct":false,"confidence":1},{"trial_n":83,"n_dots":2.85,"target":"right","response":"right","rt":337.70000001788,"correct":true,"confidence":3},{"trial_n":84,"n_dots":2.85,"target":"right","response":"right","rt":299.60000002384,"correct":true,"confidence":4},{"trial_n":85,"n_dots":2.75,"target":"left","response":"left","rt":494.59999999404,"correct":true,"confidence":4},{"trial_n":86,"n_dots":2.75,"target":"right","response":"right","rt":709.09999999404,"correct":true,"confidence":3},{"trial_n":87,"n_dots":2.65,"target":"left","response":"left","rt":310.80000001192,"correct":true,"confidence":4},{"trial_n":88,"n_dots":2.65,"target":"left","response":"right","rt":320.59999999404,"correct":false,"confidence":3},{"trial_n":89,"n_dots":2.75,"target":"left","response":"right","rt":629.5,"correct":false,"confidence":2},{"trial_n":90,"n_dots":2.85,"target":"left","response":"left","rt":319.09999999404,"correct":true,"confidence":4},{"trial_n":91,"n_dots":2.85,"target":"right","response":"left","rt":537,"correct":false,"confidence":1},{"trial_n":92,"n_dots":2.95,"target":"right","response":"right","rt":735.90000000596,"correct":true,"confidence":2},{"trial_n":93,"n_dots":2.95,"target":"left","response":"right","rt":979.19999998808,"correct":false,"confidence":3},{"trial_n":94,"n_dots":3.05,"target":"right","response":"right","rt":166.69999998808,"correct":true,"confidence":4},{"trial_n":95,"n_dots":3.05,"target":"right","response":"right","rt":538,"correct":true,"confidence":4},{"trial_n":96,"n_dots":2.95,"target":"right","response":"right","rt":605.90000000596,"correct":true,"confidence":4},{"trial_n":97,"n_dots":2.95,"target":"right","response":"right","rt":860,"correct":true,"confidence":2},{"trial_n":98,"n_dots":2.85,"target":"right","response":"right","rt":577.80000001192,"correct":true,"confidence":4},{"trial_n":99,"n_dots":2.85,"target":"right","response":"right","rt":415.29999998212,"correct":true,"confidence":4},{"trial_n":100,"n_dots":2.75,"target":"left","response":"left","rt":699.5,"correct":true,"confidence":3},{"trial_n":101,"n_dots":2.75,"target":"left","response":"left","rt":424.09999999404,"correct":true,"confidence":3},{"trial_n":102,"n_dots":2.65,"target":"left","response":"left","rt":580.09999999404,"correct":true,"confidence":2},{"trial_n":103,"n_dots":2.65,"target":"left","response":"left","rt":766.09999999404,"correct":true,"confidence":3},{"trial_n":104,"n_dots":2.55,"target":"right","response":"right","rt":1029,"correct":true,"confidence":3},{"trial_n":105,"n_dots":2.55,"target":"right","response":"left","rt":1088.5,"correct":false,"confidence":2},{"trial_n":106,"n_dots":2.65,"target":"left","response":"left","rt":544,"correct":true,"confidence":2},{"trial_n":107,"n_dots":2.65,"target":"left","response":"left","rt":704.80000001192,"correct":true,"confidence":1},{"trial_n":108,"n_dots":2.55,"target":"right","response":"right","rt":739.30000001192,"correct":true,"confidence":3},{"trial_n":109,"n_dots":2.55,"target":"right","response":"right","rt":574.70000001788,"correct":true,"confidence":4},{"trial_n":110,"n_dots":2.45,"target":"left","response":"left","rt":558.5,"correct":true,"confidence":3},{"trial_n":111,"n_dots":2.45,"target":"left","response":"right","rt":936.69999998808,"correct":false,"confidence":3},{"trial_n":112,"n_dots":2.55,"target":"left","response":"left","rt":660.29999998212,"correct":true,"confidence":2},{"trial_n":113,"n_dots":2.55,"target":"left","response":"left","rt":805,"correct":true,"confidence":1},{"trial_n":114,"n_dots":2.45,"target":"left","response":"left","rt":566,"correct":true,"confidence":2},{"trial_n":115,"n_dots":2.45,"target":"right","response":"right","rt":867,"correct":true,"confidence":4},{"trial_n":116,"n_dots":2.35,"target":"left","response":"right","rt":1032,"correct":false,"confidence":1},{"trial_n":117,"n_dots":2.45,"target":"right","response":"left","rt":858.40000000596,"correct":false,"confidence":1},{"trial_n":118,"n_dots":2.55,"target":"right","response":"right","rt":973,"correct":true,"confidence":3},{"trial_n":119,"n_dots":2.55,"target":"left","response":"right","rt":651.40000000596,"correct":false,"confidence":2},{"trial_n":120,"n_dots":2.65,"target":"right","response":"right","rt":540,"correct":true,"confidence":3}]