[{"trial_n":1,"span":8,"encoder":"71017081","distractor":"71017086","target":"present","response":"present","rt":"14381.900000036","correct":true,"confidence":-1},{"trial_n":2,"span":8,"encoder":"49585630","distractor":"49575630","target":"present","response":"present","rt":"3636.8000000119","correct":true,"confidence":-1},{"trial_n":3,"span":10,"encoder":"2103933409","distractor":"2103933499","target":"absent","response":"absent","rt":"6200.3000000119","correct":true,"confidence":-1},{"trial_n":4,"span":10,"encoder":"7552488093","distractor":"7552483093","target":"absent","response":"absent","rt":"4928.9000000358","correct":true,"confidence":-1},{"trial_n":5,"span":12,"encoder":"759527985993","distractor":"759577985993","target":"present","response":"present","rt":"3143.7999999523","correct":true,"confidence":-1},{"trial_n":6,"span":12,"encoder":"353586440078","distractor":"354586440078","target":"present","response":"present","rt":"2222.0999999642","correct":true,"confidence":-1},{"trial_n":7,"span":14,"encoder":"66197996212756","distractor":"66197936212756","target":"absent","response":"present","rt":"4367.6999999881","correct":false,"confidence":-1},{"trial_n":8,"span":12,"encoder":"205469916949","distractor":"205669916949","target":"present","response":"present","rt":"2749.2000000477","correct":true,"confidence":-1},{"trial_n":9,"span":12,"encoder":"880656503716","distractor":"880656503516","target":"absent","response":"absent","rt":"3510.4000000358","correct":true,"confidence":-1},{"trial_n":10,"span":14,"encoder":"34689147255432","distractor":"34689147255430","target":"present","response":"absent","rt":"6893.6999999881","correct":false,"confidence":-1},{"trial_n":11,"span":12,"encoder":"956793253829","distractor":"936793253829","target":"present","response":"present","rt":"2516.0999999642","correct":true,"confidence":-1},{"trial_n":12,"span":12,"encoder":"436038069651","distractor":"436098069651","target":"present","response":"present","rt":"3982.5","correct":true,"confidence":-1},{"trial_n":13,"span":13,"encoder":"3860339725265","distractor":"3860339725065","target":"absent","response":"absent","rt":"5631.6999999881","correct":true,"confidence":-1},{"trial_n":14,"span":13,"encoder":"1305735751207","distractor":"1309735751207","target":"absent","response":"present","rt":"3186.3000000119","correct":false,"confidence":-1},{"trial_n":15,"span":12,"encoder":"382285225606","distractor":"382285225806","target":"absent","response":"absent","rt":"2515.9000000358","correct":true,"confidence":-1},{"trial_n":16,"span":12,"encoder":"468479335799","distractor":"468479635799","target":"absent","response":"present","rt":"3830.1000000238","correct":false,"confidence":-1},{"trial_n":17,"span":11,"encoder":"35019100521","distractor":"35819100521","target":"absent","response":"present","rt":"3313.5","correct":false,"confidence":-1},{"trial_n":18,"span":10,"encoder":"6834639497","distractor":"6837639497","target":"present","response":"present","rt":"2991.6000000238","correct":true,"confidence":-1},{"trial_n":19,"span":10,"encoder":"3099584739","distractor":"3091584739","target":"present","response":"present","rt":"3426.8999999762","correct":true,"confidence":-1},{"trial_n":20,"span":11,"encoder":"82477381058","distractor":"82477381358","target":"absent","response":"present","rt":"2053.6999999881","correct":false,"confidence":-1},{"trial_n":21,"span":10,"encoder":"2094925745","distractor":"2093925745","target":"present","response":"present","rt":"2013.7999999523","correct":true,"confidence":5},{"trial_n":22,"span":10,"encoder":"4677698918","distractor":"4677298918","target":"present","response":"present","rt":"5245.3000000119","correct":true,"confidence":4},{"trial_n":23,"span":11,"encoder":"05457101223","distractor":"05453101223","target":"absent","response":"present","rt":"2373.8000000119","correct":false,"confidence":5},{"trial_n":24,"span":10,"encoder":"1722418337","distractor":"1729418337","target":"present","response":"present","rt":"3526.8000000119","correct":true,"confidence":5},{"trial_n":25,"span":10,"encoder":"9646668487","distractor":"4646668487","target":"present","response":"present","rt":"4023.8000000119","correct":true,"confidence":4},{"trial_n":26,"span":11,"encoder":"56744555305","distractor":"06744555305","target":"present","response":"present","rt":"1991.7999999523","correct":true,"confidence":5},{"trial_n":27,"span":11,"encoder":"76025581613","distractor":"26025581613","target":"absent","response":"present","rt":"2159","correct":false,"confidence":4},{"trial_n":28,"span":10,"encoder":"1145124629","distractor":"1145124622","target":"present","response":"present","rt":"4231.5999999642","correct":true,"confidence":5},{"trial_n":29,"span":10,"encoder":"9678643313","distractor":"9678643333","target":"present","response":"present","rt":"2711.8000000119","correct":true,"confidence":5},{"trial_n":30,"span":11,"encoder":"63993192332","distractor":"63993192362","target":"present","response":"present","rt":"3279.8999999762","correct":true,"confidence":3},{"trial_n":31,"span":11,"encoder":"76361525962","distractor":"76367525962","target":"absent","response":"present","rt":"3000.3999999762","correct":false,"confidence":5},{"trial_n":32,"span":10,"encoder":"8825347541","distractor":"8825347521","target":"absent","response":"absent","rt":"5569.1000000238","correct":true,"confidence":5},{"trial_n":33,"span":10,"encoder":"4762053516","distractor":"4762753516","target":"absent","response":"present","rt":"3150.8999999762","correct":false,"confidence":3},{"trial_n":34,"span":9,"encoder":"371722574","distractor":"371722524","target":"present","response":"present","rt":"5157.6000000238","correct":true,"confidence":5},{"trial_n":35,"span":9,"encoder":"277706982","distractor":"278706982","target":"absent","response":"present","rt":"4895.2999999523","correct":false,"confidence":4},{"trial_n":36,"span":8,"encoder":"47351291","distractor":"47351296","target":"present","response":"present","rt":"3135.8000000119","correct":true,"confidence":4},{"trial_n":37,"span":8,"encoder":"31827002","distractor":"31827082","target":"present","response":"present","rt":"2655.1999999881","correct":true,"confidence":3},{"trial_n":38,"span":9,"encoder":"612769622","distractor":"612769628","target":"present","response":"present","rt":"6626.6000000238","correct":true,"confidence":3},{"trial_n":39,"span":9,"encoder":"126812128","distractor":"226812128","target":"absent","response":"present","rt":"2235.7999999523","correct":false,"confidence":5},{"trial_n":40,"span":8,"encoder":"25960025","distractor":"25960725","target":"present","response":"present","rt":"2058.1999999881","correct":true,"confidence":4},{"trial_n":41,"span":8,"encoder":"54534760","distractor":"54544760","target":"absent","response":"present","rt":"3087.0999999642","correct":false,"confidence":3},{"trial_n":42,"span":7,"encoder":"3631741","distractor":"3331741","target":"present","response":"present","rt":"3977.6999999881","correct":true,"confidence":3},{"trial_n":43,"span":7,"encoder":"2251178","distractor":"2251175","target":"present","response":"present","rt":"11885.699999988","correct":true,"confidence":3},{"trial_n":44,"span":8,"encoder":"56436115","distractor":"56436118","target":"absent","response":"absent","rt":"2694.8999999762","correct":true,"confidence":5},{"trial_n":45,"span":8,"encoder":"44307810","distractor":"74307810","target":"absent","response":"present","rt":"3112.6999999881","correct":false,"confidence":4},{"trial_n":46,"span":7,"encoder":"1204898","distractor":"1274898","target":"absent","response":"absent","rt":"5988.9000000358","correct":true,"confidence":5},{"trial_n":47,"span":7,"encoder":"4532369","distractor":"4512369","target":"present","response":"present","rt":"3003.1999999881","correct":true,"confidence":5},{"trial_n":48,"span":8,"encoder":"52451025","distractor":"02451025","target":"present","response":"present","rt":"2142.5","correct":true,"confidence":4},{"trial_n":49,"span":8,"encoder":"34085719","distractor":"34785719","target":"present","response":"absent","rt":"6202.5","correct":false,"confidence":3},{"trial_n":50,"span":7,"encoder":"6680615","distractor":"6660615","target":"absent","response":"absent","rt":"3421.5","correct":true,"confidence":5},{"trial_n":51,"span":7,"encoder":"1566138","distractor":"1566238","target":"present","response":"absent","rt":"3398.3999999762","correct":false,"confidence":5},{"trial_n":52,"span":6,"encoder":"177545","distractor":"157545","target":"present","response":"present","rt":"6295.8000000119","correct":true,"confidence":3},{"trial_n":53,"span":6,"encoder":"025091","distractor":"029091","target":"present","response":"absent","rt":"8227","correct":false,"confidence":4},{"trial_n":54,"span":5,"encoder":"66281","distractor":"66282","target":"absent","response":"present","rt":"2688.1000000238","correct":false,"confidence":4},{"trial_n":55,"span":4,"encoder":"6799","distractor":"6791","target":"absent","response":"absent","rt":"3845.8000000119","correct":true,"confidence":5},{"trial_n":56,"span":4,"encoder":"8009","distractor":"4009","target":"present","response":"present","rt":"2334.8000000119","correct":true,"confidence":3},{"trial_n":57,"span":5,"encoder":"99974","distractor":"99978","target":"absent","response":"absent","rt":"3950.3999999762","correct":true,"confidence":5},{"trial_n":58,"span":5,"encoder":"73484","distractor":"03484","target":"absent","response":"absent","rt":"3175.3999999762","correct":true,"confidence":5},{"trial_n":59,"span":6,"encoder":"388419","distractor":"388414","target":"absent","response":"absent","rt":"2401.6000000238","correct":true,"confidence":5},{"trial_n":60,"span":6,"encoder":"688255","distractor":"788255","target":"present","response":"present","rt":"2600.8000000119","correct":true,"confidence":3},{"trial_n":61,"span":7,"encoder":"5817157","distractor":"5817127","target":"absent","response":"present","rt":"8065.3000000119","correct":false,"confidence":3},{"trial_n":62,"span":6,"encoder":"494073","distractor":"494273","target":"absent","response":"absent","rt":"5507.9000000358","correct":true,"confidence":4},{"trial_n":63,"span":6,"encoder":"410956","distractor":"410958","target":"present","response":"present","rt":"3418","correct":true,"confidence":5},{"trial_n":64,"span":7,"encoder":"4984854","distractor":"4988854","target":"absent","response":"absent","rt":"6180.7000000477","correct":true,"confidence":5},{"trial_n":65,"span":7,"encoder":"6409271","distractor":"6439271","target":"absent","response":"present","rt":"2656.4000000358","correct":false,"confidence":5},{"trial_n":66,"span":6,"encoder":"585077","distractor":"585070","target":"absent","response":"absent","rt":"3081.8999999762","correct":true,"confidence":4},{"trial_n":67,"span":6,"encoder":"884164","distractor":"824164","target":"present","response":"present","rt":"2195.5","correct":true,"confidence":3},{"trial_n":68,"span":7,"encoder":"5447058","distractor":"5447048","target":"present","response":"present","rt":"2761.1999999881","correct":true,"confidence":3},{"trial_n":69,"span":7,"encoder":"4232956","distractor":"4632956","target":"absent","response":"present","rt":"3932.6999999881","correct":false,"confidence":3},{"trial_n":70,"span":6,"encoder":"126282","distractor":"120282","target":"absent","response":"absent","rt":"9294.6999999881","correct":true,"confidence":3},{"trial_n":71,"span":8,"encoder":"54830532","distractor":"54831532","target":"present","response":"present","rt":"9364.3999999762","correct":true,"confidence":-1},{"trial_n":72,"span":8,"encoder":"47939719","distractor":"67939719","target":"present","response":"present","rt":"5515","correct":true,"confidence":-1},{"trial_n":73,"span":9,"encoder":"623297203","distractor":"623297003","target":"absent","response":"absent","rt":"2950.8000000119","correct":true,"confidence":-1},{"trial_n":74,"span":9,"encoder":"747215352","distractor":"747217352","target":"absent","response":"absent","rt":"7128.5","correct":true,"confidence":-1},{"trial_n":75,"span":10,"encoder":"8765209347","distractor":"8765209344","target":"present","response":"present","rt":"1586.8999999762","correct":true,"confidence":-1},{"trial_n":76,"span":10,"encoder":"5820526395","distractor":"1820526395","target":"absent","response":"absent","rt":"5011.8000000119","correct":true,"confidence":-1},{"trial_n":77,"span":11,"encoder":"64394157072","distractor":"64394157042","target":"absent","response":"absent","rt":"2135.3000000119","correct":true,"confidence":-1},{"trial_n":78,"span":11,"encoder":"97844982137","distractor":"96844982137","target":"absent","response":"absent","rt":"9008.8000000119","correct":true,"confidence":-1},{"trial_n":79,"span":12,"encoder":"528385847937","distractor":"728385847937","target":"absent","response":"absent","rt":"13623.100000024","correct":true,"confidence":-1},{"trial_n":80,"span":12,"encoder":"648010795284","distractor":"648210795284","target":"present","response":"absent","rt":"9119.3999999762","correct":false,"confidence":-1},{"trial_n":81,"span":11,"encoder":"36865708191","distractor":"34865708191","target":"absent","response":"present","rt":"10774.100000024","correct":false,"confidence":-1},{"trial_n":82,"span":10,"encoder":"2676500078","distractor":"2676500028","target":"present","response":"present","rt":"2643.6999999881","correct":true,"confidence":-1},{"trial_n":83,"span":10,"encoder":"2402401168","distractor":"2402401164","target":"absent","response":"absent","rt":"2701.5999999642","correct":true,"confidence":-1},{"trial_n":84,"span":11,"encoder":"03669441100","distractor":"03669441110","target":"present","response":"present","rt":"2805.9000000358","correct":true,"confidence":-1},{"trial_n":85,"span":11,"encoder":"14252366132","distractor":"14152366132","target":"absent","response":"absent","rt":"2026.8999999762","correct":true,"confidence":-1},{"trial_n":86,"span":12,"encoder":"110788772153","distractor":"110688772153","target":"present","response":"present","rt":"13578.599999964","correct":true,"confidence":-1},{"trial_n":87,"span":12,"encoder":"379011270179","distractor":"379111270179","target":"present","response":"present","rt":"6928.7000000477","correct":true,"confidence":-1},{"trial_n":88,"span":13,"encoder":"9068228635266","distractor":"9068228635261","target":"absent","response":"absent","rt":"1716.3000000119","correct":true,"confidence":-1},{"trial_n":89,"span":13,"encoder":"4839928124504","distractor":"4839928134504","target":"present","response":"present","rt":"5243.6999999881","correct":true,"confidence":-1},{"trial_n":90,"span":14,"encoder":"23087192347875","distractor":"23087192947875","target":"present","response":"present","rt":"8234.1999999881","correct":true,"confidence":-1},{"trial_n":91,"span":14,"encoder":"62980509178399","distractor":"62940509178399","target":"present","response":"absent","rt":"5308.4000000358","correct":false,"confidence":4},{"trial_n":92,"span":13,"encoder":"3058521713683","distractor":"3058521713673","target":"present","response":"present","rt":"21769.5","correct":true,"confidence":5},{"trial_n":93,"span":13,"encoder":"5462179485054","distractor":"5462179445054","target":"absent","response":"absent","rt":"3928.5","correct":true,"confidence":5},{"trial_n":94,"span":14,"encoder":"77120533408097","distractor":"77120533404097","target":"absent","response":"absent","rt":"8546.6000000238","correct":true,"confidence":4},{"trial_n":95,"span":14,"encoder":"97654959186282","distractor":"97654359186282","target":"absent","response":"absent","rt":"8064.5","correct":true,"confidence":2},{"trial_n":96,"span":15,"encoder":"627788792776827","distractor":"627788792776857","target":"present","response":"present","rt":"3475.8999999762","correct":true,"confidence":5},{"trial_n":97,"span":15,"encoder":"866205096193336","distractor":"866605096193336","target":"absent","response":"absent","rt":"4426.6999999881","correct":true,"confidence":4},{"trial_n":98,"span":16,"encoder":"3586859204886636","distractor":"3586859204886536","target":"present","response":"present","rt":"4245.1999999881","correct":true,"confidence":5},{"trial_n":99,"span":16,"encoder":"5363499682099465","distractor":"5368499682099465","target":"absent","response":"present","rt":"14903.299999952","correct":false,"confidence":4},{"trial_n":100,"span":15,"encoder":"416053906987461","distractor":"416053306987461","target":"present","response":"present","rt":"12567","correct":true,"confidence":3},{"trial_n":101,"span":15,"encoder":"579426168258341","distractor":"579426188258341","target":"absent","response":"absent","rt":"9298.3999999762","correct":true,"confidence":5},{"trial_n":102,"span":16,"encoder":"5780817076482365","distractor":"5780817076982365","target":"absent","response":"absent","rt":"9232","correct":true,"confidence":5},{"trial_n":103,"span":16,"encoder":"0907877596925389","distractor":"0907857596925389","target":"present","response":"absent","rt":"11279.800000012","correct":false,"confidence":3},{"trial_n":104,"span":15,"encoder":"437432637863942","distractor":"437432637813942","target":"present","response":"present","rt":"6572","correct":true,"confidence":3},{"trial_n":105,"span":15,"encoder":"525034723738849","distractor":"525034723738845","target":"present","response":"present","rt":"18891.199999988","correct":true,"confidence":5},{"trial_n":106,"span":16,"encoder":"6315152175621185","distractor":"6315152775621185","target":"absent","response":"present","rt":"5266.5","correct":false,"confidence":3},{"trial_n":107,"span":15,"encoder":"508984605432125","distractor":"500984605432125","target":"present","response":"present","rt":"7895","correct":true,"confidence":4},{"trial_n":108,"span":15,"encoder":"084123971250796","distractor":"084123971230796","target":"absent","response":"absent","rt":"5013.3999999762","correct":true,"confidence":5},{"trial_n":109,"span":16,"encoder":"9197796805416688","distractor":"9197796805416388","target":"absent","response":"absent","rt":"40336.100000024","correct":true,"confidence":5},{"trial_n":110,"span":16,"encoder":"9207641318032237","distractor":"9507641318032237","target":"absent","response":"present","rt":"8896.9000000358","correct":false,"confidence":3},{"trial_n":111,"span":15,"encoder":"631681867273435","distractor":"631981867273435","target":"present","response":"present","rt":"6599.2999999523","correct":true,"confidence":2},{"trial_n":112,"span":15,"encoder":"727562781152685","distractor":"727562781152684","target":"absent","response":"absent","rt":"17624.100000024","correct":true,"confidence":5},{"trial_n":113,"span":16,"encoder":"5406687142575844","distractor":"5406687142575894","target":"absent","response":"absent","rt":"6855.3999999762","correct":true,"confidence":5},{"trial_n":114,"span":16,"encoder":"7694508758410038","distractor":"7694508858410038","target":"absent","response":"absent","rt":"9069.6999999881","correct":true,"confidence":5},{"trial_n":115,"span":17,"encoder":"99328754745782403","distractor":"99328754845782403","target":"present","response":"absent","rt":"11259.5","correct":false,"confidence":3},{"trial_n":116,"span":16,"encoder":"2742277195343447","distractor":"2742277195363447","target":"present","response":"present","rt":"5972.6000000238","correct":true,"confidence":3},{"trial_n":117,"span":16,"encoder":"7460362028628402","distractor":"7460362028638402","target":"present","response":"present","rt":"5913.4000000358","correct":true,"confidence":5},{"trial_n":118,"span":17,"encoder":"14068314328895473","distractor":"14068314328885473","target":"present","response":"present","rt":"6054.8999999762","correct":true,"confidence":3},{"trial_n":119,"span":17,"encoder":"53682952033311583","distractor":"53682652033311583","target":"present","response":"present","rt":"6088.8000000119","correct":true,"confidence":3},{"trial_n":120,"span":18,"encoder":"369395807401547835","distractor":"369305807401547835","target":"present","response":"absent","rt":"16324.199999988","correct":false,"confidence":3},{"trial_n":121,"span":17,"encoder":"68674205732746263","distractor":"68674305732746263","target":"present","response":"present","rt":"4149.4000000358","correct":true,"confidence":2},{"trial_n":122,"span":17,"encoder":"99177401186667925","distractor":"99177401180667925","target":"present","response":"present","rt":"5083.8999999762","correct":true,"confidence":5},{"trial_n":123,"span":18,"encoder":"765349727020271391","distractor":"767349727020271391","target":"absent","response":"present","rt":"3978.1999999881","correct":false,"confidence":4},{"trial_n":124,"span":17,"encoder":"79350340709682917","distractor":"79350340719682917","target":"absent","response":"present","rt":"7529.0999999642","correct":false,"confidence":3},{"trial_n":125,"span":16,"encoder":"5198366942700743","distractor":"5298366942700743","target":"present","response":"present","rt":"36200.300000012","correct":true,"confidence":3},{"trial_n":126,"span":16,"encoder":"5216623923596490","distractor":"5216623523596490","target":"present","response":"present","rt":"9708.5999999642","correct":true,"confidence":3},{"trial_n":127,"span":17,"encoder":"31969779724581847","distractor":"31969779714581847","target":"absent","response":"present","rt":"5687.8000000119","correct":false,"confidence":5},{"trial_n":128,"span":16,"encoder":"3800154341492730","distractor":"3800154341492770","target":"present","response":"present","rt":"2449.6999999881","correct":true,"confidence":3},{"trial_n":129,"span":16,"encoder":"9838481688026392","distractor":"9838481688036392","target":"present","response":"absent","rt":"4706","correct":false,"confidence":3},{"trial_n":130,"span":15,"encoder":"498495071725028","distractor":"498495071725027","target":"absent","response":"absent","rt":"2603.8000000119","correct":true,"confidence":5},{"trial_n":131,"span":15,"encoder":"886892957148712","distractor":"886892957198712","target":"absent","response":"absent","rt":"6523.7999999523","correct":true,"confidence":3},{"trial_n":132,"span":16,"encoder":"0648957679071453","distractor":"0448957679071453","target":"present","response":"present","rt":"4148.6000000238","correct":true,"confidence":5},{"trial_n":133,"span":16,"encoder":"4081078815497078","distractor":"4081578815497078","target":"absent","response":"present","rt":"4933.6000000238","correct":false,"confidence":3},{"trial_n":134,"span":15,"encoder":"838339871309484","distractor":"238339871309484","target":"present","response":"present","rt":"4958.0999999642","correct":true,"confidence":4},{"trial_n":135,"span":15,"encoder":"212498527757964","distractor":"212498527657964","target":"absent","response":"absent","rt":"3757.1000000238","correct":true,"confidence":3},{"trial_n":136,"span":16,"encoder":"5187217648265236","distractor":"5187217648265237","target":"absent","response":"absent","rt":"2681.1999999881","correct":true,"confidence":5},{"trial_n":137,"span":16,"encoder":"7534554158906330","distractor":"7534554158906390","target":"present","response":"present","rt":"4493.8999999762","correct":true,"confidence":5},{"trial_n":138,"span":17,"encoder":"97507135447446333","distractor":"97507135447446373","target":"absent","response":"absent","rt":"7102.7999999523","correct":true,"confidence":5},{"trial_n":139,"span":17,"encoder":"13910662961697882","distractor":"13010662961697882","target":"present","response":"present","rt":"12750.300000012","correct":true,"confidence":3},{"trial_n":140,"span":18,"encoder":"725042802523928758","distractor":"728042802523928758","target":"absent","response":"absent","rt":"5290.1999999881","correct":true,"confidence":3}]