[{"trial_n":1,"n_dots":4.25,"target":"right","response":"right","rt":4778.1000000238,"correct":true,"confidence":-1},{"trial_n":2,"n_dots":4.25,"target":"left","response":"right","rt":1588.3999999762,"correct":false,"confidence":-1},{"trial_n":3,"n_dots":4.65,"target":"right","response":"right","rt":905.10000002384,"correct":true,"confidence":-1},{"trial_n":4,"n_dots":4.65,"target":"right","response":"right","rt":526.80000001192,"correct":true,"confidence":-1},{"trial_n":5,"n_dots":4.25,"target":"right","response":"right","rt":700.80000001192,"correct":true,"confidence":-1},{"trial_n":6,"n_dots":4.25,"target":"right","response":"right","rt":801.69999998808,"correct":true,"confidence":-1},{"trial_n":7,"n_dots":3.85,"target":"left","response":"right","rt":977.5,"correct":false,"confidence":-1},{"trial_n":8,"n_dots":4.05,"target":"right","response":"right","rt":584.09999996424,"correct":true,"confidence":-1},{"trial_n":9,"n_dots":4.05,"target":"right","response":"right","rt":714.89999997616,"correct":true,"confidence":-1},{"trial_n":10,"n_dots":3.85,"target":"right","response":"right","rt":934.89999997616,"correct":true,"confidence":-1},{"trial_n":11,"n_dots":3.85,"target":"left","response":"left","rt":861.39999997616,"correct":true,"confidence":-1},{"trial_n":12,"n_dots":3.65,"target":"left","response":"left","rt":674.30000001192,"correct":true,"confidence":-1},{"trial_n":13,"n_dots":3.65,"target":"right","response":"right","rt":1017.8000000119,"correct":true,"confidence":-1},{"trial_n":14,"n_dots":3.55,"target":"left","response":"left","rt":571.80000001192,"correct":true,"confidence":-1},{"trial_n":15,"n_dots":3.55,"target":"left","response":"left","rt":1107.1999999881,"correct":true,"confidence":-1},{"trial_n":16,"n_dots":3.45,"target":"right","response":"right","rt":1047.2999999523,"correct":true,"confidence":-1},{"trial_n":17,"n_dots":3.45,"target":"left","response":"left","rt":645.89999997616,"correct":true,"confidence":-1},{"trial_n":18,"n_dots":3.35,"target":"right","response":"right","rt":411.19999998808,"correct":true,"confidence":-1},{"trial_n":19,"n_dots":3.35,"target":"left","response":"left","rt":508,"correct":true,"confidence":-1},{"trial_n":20,"n_dots":3.25,"target":"right","response":"left","rt":1880.3000000119,"correct":false,"confidence":-1},{"trial_n":21,"n_dots":3.35,"target":"left","response":"right","rt":1664.4000000358,"correct":false,"confidence":4},{"trial_n":22,"n_dots":3.45,"target":"left","response":"left","rt":488.60000002384,"correct":true,"confidence":5},{"trial_n":23,"n_dots":3.45,"target":"right","response":"right","rt":262.30000001192,"correct":true,"confidence":3},{"trial_n":24,"n_dots":3.35,"target":"left","response":"left","rt":909.5,"correct":true,"confidence":3},{"trial_n":25,"n_dots":3.35,"target":"left","response":"left","rt":635.60000002384,"correct":true,"confidence":5},{"trial_n":26,"n_dots":3.25,"target":"left","response":"right","rt":871,"correct":false,"confidence":5},{"trial_n":27,"n_dots":3.35,"target":"right","response":"left","rt":780.30000001192,"correct":false,"confidence":4},{"trial_n":28,"n_dots":3.45,"target":"left","response":"right","rt":936,"correct":false,"confidence":4},{"trial_n":29,"n_dots":3.55,"target":"left","response":"left","rt":232,"correct":true,"confidence":4},{"trial_n":30,"n_dots":3.55,"target":"left","response":"left","rt":383.39999997616,"correct":true,"confidence":4},{"trial_n":31,"n_dots":3.45,"target":"right","response":"left","rt":329.80000001192,"correct":false,"confidence":4},{"trial_n":32,"n_dots":3.55,"target":"right","response":"right","rt":694.5,"correct":true,"confidence":4},{"trial_n":33,"n_dots":3.55,"target":"left","response":"left","rt":170.19999998808,"correct":true,"confidence":4},{"trial_n":34,"n_dots":3.45,"target":"right","response":"right","rt":365.10000002384,"correct":true,"confidence":4},{"trial_n":35,"n_dots":3.45,"target":"right","response":"left","rt":698.40000003576,"correct":false,"confidence":4},{"trial_n":36,"n_dots":3.55,"target":"left","response":"left","rt":1074.9000000358,"correct":true,"confidence":4},{"trial_n":37,"n_dots":3.55,"target":"right","response":"right","rt":236.79999995232,"correct":true,"confidence":5},{"trial_n":38,"n_dots":3.45,"target":"left","response":"left","rt":338.19999998808,"correct":true,"confidence":4},{"trial_n":39,"n_dots":3.45,"target":"left","response":"right","rt":656.60000002384,"correct":false,"confidence":4},{"trial_n":40,"n_dots":3.55,"target":"right","response":"right","rt":635.80000001192,"correct":true,"confidence":4},{"trial_n":41,"n_dots":3.55,"target":"right","response":"right","rt":538.10000002384,"correct":true,"confidence":4},{"trial_n":42,"n_dots":3.45,"target":"right","response":"right","rt":955.5,"correct":true,"confidence":4},{"trial_n":43,"n_dots":3.45,"target":"left","response":"left","rt":298.10000002384,"correct":true,"confidence":4},{"trial_n":44,"n_dots":3.35,"target":"right","response":"right","rt":239.90000003576,"correct":true,"confidence":4},{"trial_n":45,"n_dots":3.35,"target":"left","response":"right","rt":474.89999997616,"correct":false,"confidence":4},{"trial_n":46,"n_dots":3.45,"target":"right","response":"left","rt":214.60000002384,"correct":false,"confidence":4},{"trial_n":47,"n_dots":3.55,"target":"left","response":"left","rt":553.09999996424,"correct":true,"confidence":4},{"trial_n":48,"n_dots":3.55,"target":"left","response":"left","rt":241.30000001192,"correct":true,"confidence":5},{"trial_n":49,"n_dots":3.45,"target":"left","response":"left","rt":508.80000001192,"correct":true,"confidence":5},{"trial_n":50,"n_dots":3.45,"target":"left","response":"left","rt":403.10000002384,"correct":true,"confidence":5},{"trial_n":51,"n_dots":3.35,"target":"right","response":"right","rt":682.69999998808,"correct":true,"confidence":5},{"trial_n":52,"n_dots":3.35,"target":"right","response":"right","rt":766.89999997616,"correct":true,"confidence":5},{"trial_n":53,"n_dots":3.25,"target":"left","response":"right","rt":992.10000002384,"correct":false,"confidence":5},{"trial_n":54,"n_dots":3.35,"target":"left","response":"left","rt":499.60000002384,"correct":true,"confidence":5},{"trial_n":55,"n_dots":3.35,"target":"right","response":"right","rt":491.89999997616,"correct":true,"confidence":5},{"trial_n":56,"n_dots":3.25,"target":"left","response":"left","rt":1112.0999999642,"correct":true,"confidence":5},{"trial_n":57,"n_dots":3.25,"target":"right","response":"right","rt":495.89999997616,"correct":true,"confidence":5},{"trial_n":58,"n_dots":3.15,"target":"right","response":"left","rt":1881.5,"correct":false,"confidence":5},{"trial_n":59,"n_dots":3.25,"target":"left","response":"right","rt":4048.6999999881,"correct":false,"confidence":5},{"trial_n":60,"n_dots":3.35,"target":"left","response":"right","rt":616.19999998808,"correct":false,"confidence":5},{"trial_n":61,"n_dots":3.45,"target":"right","response":"right","rt":402.69999998808,"correct":true,"confidence":5},{"trial_n":62,"n_dots":3.45,"target":"left","response":"left","rt":254.40000003576,"correct":true,"confidence":5},{"trial_n":63,"n_dots":3.35,"target":"left","response":"right","rt":894.09999996424,"correct":false,"confidence":5},{"trial_n":64,"n_dots":3.45,"target":"left","response":"left","rt":402.30000001192,"correct":true,"confidence":5},{"trial_n":65,"n_dots":3.45,"target":"right","response":"right","rt":153.19999998808,"correct":true,"confidence":5},{"trial_n":66,"n_dots":3.35,"target":"left","response":"right","rt":724.69999998808,"correct":false,"confidence":5},{"trial_n":67,"n_dots":3.45,"target":"left","response":"right","rt":780,"correct":false,"confidence":5},{"trial_n":68,"n_dots":3.55,"target":"left","response":"left","rt":290.80000001192,"correct":true,"confidence":5},{"trial_n":69,"n_dots":3.55,"target":"right","response":"right","rt":392.89999997616,"correct":true,"confidence":3},{"trial_n":70,"n_dots":3.45,"target":"left","response":"left","rt":275.69999998808,"correct":true,"confidence":4},{"trial_n":71,"n_dots":3.45,"target":"left","response":"left","rt":146.39999997616,"correct":true,"confidence":5},{"trial_n":72,"n_dots":3.35,"target":"left","response":"left","rt":508.89999997616,"correct":true,"confidence":5},{"trial_n":73,"n_dots":3.35,"target":"right","response":"right","rt":661.19999998808,"correct":true,"confidence":4},{"trial_n":74,"n_dots":3.25,"target":"right","response":"right","rt":404.80000001192,"correct":true,"confidence":3},{"trial_n":75,"n_dots":3.25,"target":"left","response":"left","rt":1668.1000000238,"correct":true,"confidence":3},{"trial_n":76,"n_dots":3.15,"target":"left","response":"left","rt":690.69999998808,"correct":true,"confidence":3},{"trial_n":77,"n_dots":3.15,"target":"left","response":"left","rt":962.39999997616,"correct":true,"confidence":3},{"trial_n":78,"n_dots":3.05,"target":"right","response":"right","rt":677.09999996424,"correct":true,"confidence":3},{"trial_n":79,"n_dots":3.05,"target":"left","response":"right","rt":969.80000001192,"correct":false,"confidence":3},{"trial_n":80,"n_dots":3.15,"target":"left","response":"left","rt":221.40000003576,"correct":true,"confidence":4},{"trial_n":81,"n_dots":3.15,"target":"right","response":"right","rt":179.60000002384,"correct":true,"confidence":3},{"trial_n":82,"n_dots":3.05,"target":"left","response":"left","rt":401,"correct":true,"confidence":4},{"trial_n":83,"n_dots":3.05,"target":"right","response":"right","rt":341.19999998808,"correct":true,"confidence":4},{"trial_n":84,"n_dots":2.95,"target":"right","response":"right","rt":695.10000002384,"correct":true,"confidence":5},{"trial_n":85,"n_dots":2.95,"target":"right","response":"right","rt":317.60000002384,"correct":true,"confidence":4},{"trial_n":86,"n_dots":2.85,"target":"right","response":"left","rt":3280.1999999881,"correct":false,"confidence":3},{"trial_n":87,"n_dots":2.95,"target":"right","response":"right","rt":1375.8000000119,"correct":true,"confidence":4},{"trial_n":88,"n_dots":2.95,"target":"right","response":"right","rt":348.60000002384,"correct":true,"confidence":4},{"trial_n":89,"n_dots":2.85,"target":"right","response":"right","rt":748.80000001192,"correct":true,"confidence":4},{"trial_n":90,"n_dots":2.85,"target":"right","response":"right","rt":1096.1000000238,"correct":true,"confidence":4},{"trial_n":91,"n_dots":2.75,"target":"right","response":"right","rt":1135.1000000238,"correct":true,"confidence":4},{"trial_n":92,"n_dots":2.75,"target":"left","response":"left","rt":712.10000002384,"correct":true,"confidence":4},{"trial_n":93,"n_dots":2.65,"target":"right","response":"right","rt":685.80000001192,"correct":true,"confidence":4},{"trial_n":94,"n_dots":2.65,"target":"right","response":"right","rt":728.30000001192,"correct":true,"confidence":5},{"trial_n":95,"n_dots":2.55,"target":"left","response":"right","rt":972.79999995232,"correct":false,"confidence":5},{"trial_n":96,"n_dots":2.65,"target":"right","response":"right","rt":429.5,"correct":true,"confidence":5},{"trial_n":97,"n_dots":2.65,"target":"left","response":"right","rt":1039.6999999881,"correct":false,"confidence":4},{"trial_n":98,"n_dots":2.75,"target":"right","response":"right","rt":101.39999997616,"correct":true,"confidence":3},{"trial_n":99,"n_dots":2.75,"target":"right","response":"right","rt":514.40000003576,"correct":true,"confidence":4},{"trial_n":100,"n_dots":2.65,"target":"left","response":"right","rt":466,"correct":false,"confidence":4},{"trial_n":101,"n_dots":2.75,"target":"right","response":"right","rt":182.19999998808,"correct":true,"confidence":4},{"trial_n":102,"n_dots":2.75,"target":"left","response":"right","rt":382.80000001192,"correct":false,"confidence":4},{"trial_n":103,"n_dots":2.85,"target":"right","response":"right","rt":1478.9000000358,"correct":true,"confidence":3},{"trial_n":104,"n_dots":2.85,"target":"right","response":"right","rt":8.8000000119209,"correct":true,"confidence":4},{"trial_n":105,"n_dots":2.75,"target":"left","response":"right","rt":314.90000003576,"correct":false,"confidence":4},{"trial_n":106,"n_dots":2.85,"target":"left","response":"left","rt":557.89999997616,"correct":true,"confidence":3},{"trial_n":107,"n_dots":2.85,"target":"right","response":"right","rt":210.89999997616,"correct":true,"confidence":5},{"trial_n":108,"n_dots":2.75,"target":"left","response":"left","rt":594.80000001192,"correct":true,"confidence":4},{"trial_n":109,"n_dots":2.75,"target":"left","response":"right","rt":486.5,"correct":false,"confidence":4},{"trial_n":110,"n_dots":2.85,"target":"right","response":"right","rt":627.19999998808,"correct":true,"confidence":3},{"trial_n":111,"n_dots":2.85,"target":"left","response":"right","rt":531.59999996424,"correct":false,"confidence":3},{"trial_n":112,"n_dots":2.95,"target":"right","response":"right","rt":632.09999996424,"correct":true,"confidence":4},{"trial_n":113,"n_dots":2.95,"target":"right","response":"right","rt":598.10000002384,"correct":true,"confidence":4},{"trial_n":114,"n_dots":2.85,"target":"left","response":"left","rt":446.10000002384,"correct":true,"confidence":3},{"trial_n":115,"n_dots":2.85,"target":"left","response":"right","rt":406.30000001192,"correct":false,"confidence":4},{"trial_n":116,"n_dots":2.95,"target":"right","response":"right","rt":566.09999996424,"correct":true,"confidence":4},{"trial_n":117,"n_dots":2.95,"target":"right","response":"right","rt":153.39999997616,"correct":true,"confidence":4},{"trial_n":118,"n_dots":2.85,"target":"right","response":"right","rt":165,"correct":true,"confidence":4},{"trial_n":119,"n_dots":2.85,"target":"left","response":"right","rt":317.60000002384,"correct":false,"confidence":4},{"trial_n":120,"n_dots":2.95,"target":"left","response":"right","rt":389,"correct":false,"confidence":4}]