[{"trial_n":1,"span":8,"encoder":"74624651","distractor":"74124651","target":"present","response":"present","rt":"6506","correct":true,"confidence":-1},{"trial_n":2,"span":8,"encoder":"79795204","distractor":"79795209","target":"present","response":"present","rt":"2453.5999999996","correct":true,"confidence":-1},{"trial_n":3,"span":10,"encoder":"5730264734","distractor":"4730264734","target":"absent","response":"present","rt":"1366.3999999994","correct":false,"confidence":-1},{"trial_n":4,"span":8,"encoder":"18477249","distractor":"18477649","target":"absent","response":"absent","rt":"3606.8999999994","correct":true,"confidence":-1},{"trial_n":5,"span":8,"encoder":"82132525","distractor":"82131525","target":"present","response":"present","rt":"2791.5","correct":true,"confidence":-1},{"trial_n":6,"span":10,"encoder":"1486574847","distractor":"1486594847","target":"present","response":"present","rt":"4021.5999999996","correct":true,"confidence":-1},{"trial_n":7,"span":10,"encoder":"5502834107","distractor":"5502834147","target":"present","response":"absent","rt":"3817.1999999993","correct":false,"confidence":-1},{"trial_n":8,"span":8,"encoder":"34220197","distractor":"54220197","target":"absent","response":"present","rt":"2618.9000000004","correct":false,"confidence":-1},{"trial_n":9,"span":6,"encoder":"679295","distractor":"679225","target":"absent","response":"present","rt":"2586","correct":false,"confidence":-1},{"trial_n":10,"span":4,"encoder":"7016","distractor":"7013","target":"absent","response":"absent","rt":"1357.5","correct":true,"confidence":-1},{"trial_n":11,"span":4,"encoder":"5633","distractor":"5673","target":"absent","response":"absent","rt":"2472.0999999996","correct":true,"confidence":-1},{"trial_n":12,"span":5,"encoder":"29345","distractor":"25345","target":"absent","response":"absent","rt":"1616.5","correct":true,"confidence":-1},{"trial_n":13,"span":5,"encoder":"17044","distractor":"17074","target":"present","response":"present","rt":"2526.8999999994","correct":true,"confidence":-1},{"trial_n":14,"span":6,"encoder":"199778","distractor":"199772","target":"absent","response":"absent","rt":"2646.3000000007","correct":true,"confidence":-1},{"trial_n":15,"span":6,"encoder":"936075","distractor":"936070","target":"absent","response":"absent","rt":"3226.2999999998","correct":true,"confidence":-1},{"trial_n":16,"span":7,"encoder":"4135567","distractor":"9135567","target":"absent","response":"absent","rt":"1560.5999999996","correct":true,"confidence":-1},{"trial_n":17,"span":7,"encoder":"8879949","distractor":"8879942","target":"absent","response":"absent","rt":"2677.5999999996","correct":true,"confidence":-1},{"trial_n":18,"span":8,"encoder":"59275240","distractor":"59275245","target":"present","response":"present","rt":"2437.7999999998","correct":true,"confidence":-1},{"trial_n":19,"span":8,"encoder":"38716411","distractor":"38716811","target":"absent","response":"absent","rt":"3069.6000000006","correct":true,"confidence":-1},{"trial_n":20,"span":9,"encoder":"471975639","distractor":"471965639","target":"absent","response":"present","rt":"4133.4000000004","correct":false,"confidence":-1},{"trial_n":21,"span":8,"encoder":"42161652","distractor":"42161654","target":"absent","response":"absent","rt":"3108.8999999994","correct":true,"confidence":3},{"trial_n":22,"span":8,"encoder":"58203022","distractor":"58203032","target":"present","response":"present","rt":"2982.0999999996","correct":true,"confidence":3},{"trial_n":23,"span":9,"encoder":"549205489","distractor":"549235489","target":"present","response":"present","rt":"3962.7999999998","correct":true,"confidence":3},{"trial_n":24,"span":9,"encoder":"513225928","distractor":"213225928","target":"present","response":"present","rt":"3326.0999999996","correct":true,"confidence":3},{"trial_n":25,"span":10,"encoder":"9095016652","distractor":"9095016602","target":"present","response":"present","rt":"3269.5","correct":true,"confidence":3},{"trial_n":26,"span":10,"encoder":"9616853442","distractor":"9616813442","target":"present","response":"present","rt":"4234.7999999998","correct":true,"confidence":3},{"trial_n":27,"span":11,"encoder":"21982162801","distractor":"21982262801","target":"present","response":"present","rt":"4689.4000000004","correct":true,"confidence":3},{"trial_n":28,"span":11,"encoder":"30701103148","distractor":"30701103648","target":"absent","response":"absent","rt":"4937","correct":true,"confidence":3},{"trial_n":29,"span":12,"encoder":"262615753790","distractor":"282615753790","target":"absent","response":"absent","rt":"2607.9000000004","correct":true,"confidence":3},{"trial_n":30,"span":12,"encoder":"226901002750","distractor":"226901002150","target":"present","response":"present","rt":"3424.2999999998","correct":true,"confidence":3},{"trial_n":31,"span":13,"encoder":"1256685962322","distractor":"1256685962352","target":"present","response":"absent","rt":"1980.7999999998","correct":false,"confidence":3},{"trial_n":32,"span":12,"encoder":"360228252820","distractor":"360218252820","target":"present","response":"present","rt":"2956.7000000002","correct":true,"confidence":3},{"trial_n":33,"span":12,"encoder":"129569746516","distractor":"129569246516","target":"present","response":"present","rt":"2582","correct":true,"confidence":3},{"trial_n":34,"span":13,"encoder":"0246051195246","distractor":"0246051192246","target":"present","response":"present","rt":"3291.5","correct":true,"confidence":3},{"trial_n":35,"span":13,"encoder":"4474253532762","distractor":"4474253532662","target":"present","response":"present","rt":"2190.2999999998","correct":true,"confidence":3},{"trial_n":36,"span":14,"encoder":"32238917796156","distractor":"32238917296156","target":"present","response":"present","rt":"2742.8999999994","correct":true,"confidence":3},{"trial_n":37,"span":14,"encoder":"48411570893826","distractor":"48411570893876","target":"present","response":"present","rt":"1415.3000000007","correct":true,"confidence":3},{"trial_n":38,"span":15,"encoder":"324817604297327","distractor":"324817704297327","target":"absent","response":"absent","rt":"2201.5","correct":true,"confidence":3},{"trial_n":39,"span":15,"encoder":"111160215392025","distractor":"111160215382025","target":"present","response":"present","rt":"2403.7000000002","correct":true,"confidence":3},{"trial_n":40,"span":16,"encoder":"6821106388907433","distractor":"6821106388917433","target":"absent","response":"present","rt":"3611.7000000002","correct":false,"confidence":3},{"trial_n":41,"span":15,"encoder":"988992760517003","distractor":"988992860517003","target":"present","response":"present","rt":"2384.6000000006","correct":true,"confidence":3},{"trial_n":42,"span":15,"encoder":"465606030291276","distractor":"465603030291276","target":"absent","response":"present","rt":"3850.7000000002","correct":false,"confidence":3},{"trial_n":43,"span":14,"encoder":"19885901684640","distractor":"39885901684640","target":"absent","response":"present","rt":"1839.5999999996","correct":false,"confidence":3},{"trial_n":44,"span":13,"encoder":"8982240553583","distractor":"8982940553583","target":"absent","response":"absent","rt":"2971.5","correct":true,"confidence":3},{"trial_n":45,"span":13,"encoder":"0761758928706","distractor":"0761158928706","target":"absent","response":"absent","rt":"2305.2999999998","correct":true,"confidence":3},{"trial_n":46,"span":14,"encoder":"40495879561078","distractor":"40495879541078","target":"present","response":"present","rt":"2654.2999999998","correct":true,"confidence":3},{"trial_n":47,"span":14,"encoder":"31254050976520","distractor":"31254050974520","target":"absent","response":"present","rt":"1551.5","correct":false,"confidence":3},{"trial_n":48,"span":13,"encoder":"7489857667829","distractor":"7489857667229","target":"present","response":"absent","rt":"2076.2999999998","correct":false,"confidence":3},{"trial_n":49,"span":12,"encoder":"466384994117","distractor":"466384994107","target":"present","response":"present","rt":"1595.8000000007","correct":true,"confidence":3},{"trial_n":50,"span":12,"encoder":"694176645298","distractor":"694176648298","target":"present","response":"absent","rt":"1949.7999999998","correct":false,"confidence":3},{"trial_n":51,"span":11,"encoder":"10377233217","distractor":"10377233117","target":"absent","response":"present","rt":"1123.9000000004","correct":false,"confidence":3},{"trial_n":52,"span":10,"encoder":"4594460906","distractor":"4594420906","target":"present","response":"absent","rt":"2717.7000000002","correct":false,"confidence":2},{"trial_n":53,"span":9,"encoder":"174873821","distractor":"174873828","target":"absent","response":"absent","rt":"1703.1000000006","correct":true,"confidence":2},{"trial_n":54,"span":9,"encoder":"227757611","distractor":"227752611","target":"present","response":"present","rt":"3756.8999999994","correct":true,"confidence":3},{"trial_n":55,"span":10,"encoder":"5846762295","distractor":"5846762395","target":"present","response":"present","rt":"2988.0999999996","correct":true,"confidence":3},{"trial_n":56,"span":10,"encoder":"9193556893","distractor":"9195556893","target":"absent","response":"absent","rt":"2715","correct":true,"confidence":3},{"trial_n":57,"span":11,"encoder":"93925803607","distractor":"93925843607","target":"absent","response":"present","rt":"1709.4000000004","correct":false,"confidence":3},{"trial_n":58,"span":10,"encoder":"5710885402","distractor":"5720885402","target":"present","response":"present","rt":"1712.4000000004","correct":true,"confidence":2},{"trial_n":59,"span":10,"encoder":"9997655959","distractor":"9995655959","target":"absent","response":"present","rt":"1631.1000000006","correct":false,"confidence":3},{"trial_n":60,"span":9,"encoder":"698947156","distractor":"698947456","target":"present","response":"absent","rt":"2355.1000000006","correct":false,"confidence":3},{"trial_n":61,"span":8,"encoder":"36687138","distractor":"56687138","target":"present","response":"absent","rt":"1089.5999999996","correct":false,"confidence":3},{"trial_n":62,"span":7,"encoder":"4862561","distractor":"4862591","target":"absent","response":"absent","rt":"1107.2999999998","correct":true,"confidence":3},{"trial_n":63,"span":7,"encoder":"9447287","distractor":"9447487","target":"absent","response":"present","rt":"1434","correct":false,"confidence":3},{"trial_n":64,"span":6,"encoder":"292244","distractor":"992244","target":"absent","response":"absent","rt":"2225.3999999994","correct":true,"confidence":3},{"trial_n":65,"span":6,"encoder":"316959","distractor":"316958","target":"absent","response":"absent","rt":"1521.1999999993","correct":true,"confidence":3},{"trial_n":66,"span":7,"encoder":"9800415","distractor":"9600415","target":"absent","response":"present","rt":"2047.7000000002","correct":false,"confidence":3},{"trial_n":67,"span":6,"encoder":"726946","distractor":"726941","target":"absent","response":"present","rt":"2048.6000000006","correct":false,"confidence":3},{"trial_n":68,"span":5,"encoder":"86292","distractor":"86892","target":"present","response":"present","rt":"2064.5999999996","correct":true,"confidence":3},{"trial_n":69,"span":5,"encoder":"09714","distractor":"09314","target":"present","response":"present","rt":"1783.2999999998","correct":true,"confidence":3},{"trial_n":70,"span":6,"encoder":"499214","distractor":"499216","target":"present","response":"present","rt":"1631.4000000004","correct":true,"confidence":3},{"trial_n":71,"span":8,"encoder":"35358149","distractor":"35388149","target":"present","response":"present","rt":"4275.3999999994","correct":true,"confidence":-1},{"trial_n":72,"span":8,"encoder":"19224317","distractor":"19224117","target":"present","response":"present","rt":"2829.2000000002","correct":true,"confidence":-1},{"trial_n":73,"span":9,"encoder":"696778075","distractor":"496778075","target":"absent","response":"absent","rt":"2344.8999999994","correct":true,"confidence":-1},{"trial_n":74,"span":9,"encoder":"225242251","distractor":"224242251","target":"absent","response":"present","rt":"6837.7000000002","correct":false,"confidence":-1},{"trial_n":75,"span":8,"encoder":"97576077","distractor":"91576077","target":"present","response":"present","rt":"3584.9000000004","correct":true,"confidence":-1},{"trial_n":76,"span":8,"encoder":"99352041","distractor":"96352041","target":"present","response":"present","rt":"2238.3999999994","correct":true,"confidence":-1},{"trial_n":77,"span":9,"encoder":"411457581","distractor":"411427581","target":"absent","response":"absent","rt":"3751","correct":true,"confidence":-1},{"trial_n":78,"span":9,"encoder":"554931627","distractor":"554971627","target":"present","response":"present","rt":"4722.2000000002","correct":true,"confidence":-1},{"trial_n":79,"span":10,"encoder":"7241943783","distractor":"7281943783","target":"present","response":"present","rt":"10489.3","correct":true,"confidence":-1},{"trial_n":80,"span":10,"encoder":"0663919250","distractor":"0663719250","target":"absent","response":"present","rt":"1494.8999999994","correct":false,"confidence":-1},{"trial_n":81,"span":9,"encoder":"431656167","distractor":"431656177","target":"present","response":"present","rt":"4263.7000000002","correct":true,"confidence":-1},{"trial_n":82,"span":9,"encoder":"367206738","distractor":"367207738","target":"absent","response":"absent","rt":"3490.4000000004","correct":true,"confidence":-1},{"trial_n":83,"span":10,"encoder":"4500330370","distractor":"4500330970","target":"present","response":"present","rt":"1830.7000000002","correct":true,"confidence":-1},{"trial_n":84,"span":10,"encoder":"9163572120","distractor":"9163576120","target":"present","response":"present","rt":"2365.5","correct":true,"confidence":-1},{"trial_n":85,"span":11,"encoder":"19216067016","distractor":"19206067016","target":"absent","response":"absent","rt":"26115.2","correct":true,"confidence":-1},{"trial_n":86,"span":11,"encoder":"55715365646","distractor":"05715365646","target":"absent","response":"absent","rt":"878","correct":true,"confidence":-1},{"trial_n":87,"span":12,"encoder":"527816305754","distractor":"527816303754","target":"present","response":"present","rt":"1153.2000000002","correct":true,"confidence":-1},{"trial_n":88,"span":12,"encoder":"615294189864","distractor":"625294189864","target":"absent","response":"present","rt":"2303.6999999993","correct":false,"confidence":-1},{"trial_n":89,"span":11,"encoder":"26486619237","distractor":"22486619237","target":"absent","response":"present","rt":"2032.2999999998","correct":false,"confidence":-1},{"trial_n":90,"span":10,"encoder":"6160930520","distractor":"6160930120","target":"present","response":"present","rt":"1878.5","correct":true,"confidence":-1},{"trial_n":91,"span":10,"encoder":"0179916749","distractor":"0149916749","target":"present","response":"present","rt":"1405.5","correct":true,"confidence":3},{"trial_n":92,"span":11,"encoder":"31328225501","distractor":"31328225508","target":"absent","response":"absent","rt":"1892.2999999998","correct":true,"confidence":3},{"trial_n":93,"span":11,"encoder":"35161409185","distractor":"35168409185","target":"absent","response":"present","rt":"2412.7000000002","correct":false,"confidence":3},{"trial_n":94,"span":10,"encoder":"6278546808","distractor":"6271546808","target":"present","response":"present","rt":"6323","correct":true,"confidence":2},{"trial_n":95,"span":10,"encoder":"0779738700","distractor":"0779718700","target":"absent","response":"absent","rt":"1949.5999999996","correct":true,"confidence":3},{"trial_n":96,"span":11,"encoder":"44541202248","distractor":"74541202248","target":"present","response":"present","rt":"3360.0999999996","correct":true,"confidence":3},{"trial_n":97,"span":11,"encoder":"19023734571","distractor":"19023794571","target":"present","response":"present","rt":"1419.8999999994","correct":true,"confidence":3},{"trial_n":98,"span":12,"encoder":"686758904406","distractor":"683758904406","target":"present","response":"present","rt":"974.80000000075","correct":true,"confidence":2},{"trial_n":99,"span":12,"encoder":"227807497821","distractor":"267807497821","target":"present","response":"present","rt":"1165.7000000002","correct":true,"confidence":2},{"trial_n":100,"span":13,"encoder":"6826053628009","distractor":"6826053628029","target":"absent","response":"present","rt":"943.10000000056","correct":false,"confidence":1},{"trial_n":101,"span":12,"encoder":"195483851905","distractor":"193483851905","target":"absent","response":"present","rt":"1898.7000000002","correct":false,"confidence":2},{"trial_n":102,"span":11,"encoder":"98735815470","distractor":"98735813470","target":"absent","response":"present","rt":"5005.7000000002","correct":false,"confidence":2},{"trial_n":103,"span":10,"encoder":"0370257342","distractor":"0379257342","target":"present","response":"present","rt":"2711.1999999993","correct":true,"confidence":2},{"trial_n":104,"span":10,"encoder":"7782245334","distractor":"7732245334","target":"present","response":"present","rt":"3624.2000000002","correct":true,"confidence":1},{"trial_n":105,"span":11,"encoder":"28797467278","distractor":"28797467208","target":"absent","response":"present","rt":"5511.3999999994","correct":false,"confidence":2},{"trial_n":106,"span":10,"encoder":"3378873688","distractor":"3378843688","target":"absent","response":"present","rt":"1215","correct":false,"confidence":3},{"trial_n":107,"span":9,"encoder":"661107247","distractor":"661107847","target":"present","response":"present","rt":"1953.2000000002","correct":true,"confidence":4},{"trial_n":108,"span":9,"encoder":"510214468","distractor":"510214448","target":"present","response":"present","rt":"3514.5999999996","correct":true,"confidence":2},{"trial_n":109,"span":10,"encoder":"1711436152","distractor":"1711466152","target":"present","response":"present","rt":"2403.7999999998","correct":true,"confidence":2},{"trial_n":110,"span":10,"encoder":"9369396384","distractor":"3369396384","target":"absent","response":"absent","rt":"5831.8999999994","correct":true,"confidence":4},{"trial_n":111,"span":11,"encoder":"12438501544","distractor":"12438501554","target":"present","response":"present","rt":"801.20000000019","correct":true,"confidence":3},{"trial_n":112,"span":11,"encoder":"95865388385","distractor":"95865388785","target":"absent","response":"present","rt":"688.29999999981","correct":false,"confidence":3},{"trial_n":113,"span":10,"encoder":"1142285253","distractor":"1143285253","target":"absent","response":"present","rt":"881.70000000019","correct":false,"confidence":3},{"trial_n":114,"span":9,"encoder":"261977317","distractor":"261977312","target":"present","response":"absent","rt":"6540","correct":false,"confidence":3},{"trial_n":115,"span":8,"encoder":"57336417","distractor":"57336416","target":"absent","response":"present","rt":"2117","correct":false,"confidence":3},{"trial_n":116,"span":7,"encoder":"5578133","distractor":"5518133","target":"present","response":"present","rt":"3322.9000000004","correct":true,"confidence":1},{"trial_n":117,"span":7,"encoder":"1551029","distractor":"0551029","target":"absent","response":"present","rt":"1780.4000000004","correct":false,"confidence":3},{"trial_n":118,"span":6,"encoder":"255475","distractor":"257475","target":"present","response":"present","rt":"4836.5","correct":true,"confidence":3},{"trial_n":119,"span":6,"encoder":"451183","distractor":"451180","target":"present","response":"present","rt":"2793.2999999998","correct":true,"confidence":3},{"trial_n":120,"span":7,"encoder":"0475722","distractor":"0475122","target":"absent","response":"absent","rt":"1384.6000000006","correct":true,"confidence":3},{"trial_n":121,"span":7,"encoder":"2882685","distractor":"2889685","target":"present","response":"present","rt":"1217.6000000006","correct":true,"confidence":3},{"trial_n":122,"span":8,"encoder":"34353373","distractor":"44353373","target":"present","response":"present","rt":"5054.7999999998","correct":true,"confidence":2},{"trial_n":123,"span":8,"encoder":"54613189","distractor":"54613289","target":"absent","response":"present","rt":"2436.1000000006","correct":false,"confidence":3},{"trial_n":124,"span":7,"encoder":"7094576","distractor":"7094376","target":"present","response":"present","rt":"3384.7000000002","correct":true,"confidence":3},{"trial_n":125,"span":7,"encoder":"2470901","distractor":"2070901","target":"present","response":"present","rt":"2466.1000000006","correct":true,"confidence":3},{"trial_n":126,"span":8,"encoder":"88873723","distractor":"81873723","target":"present","response":"absent","rt":"1100","correct":false,"confidence":3},{"trial_n":127,"span":7,"encoder":"2756300","distractor":"2766300","target":"absent","response":"absent","rt":"1014.2999999998","correct":true,"confidence":3},{"trial_n":128,"span":7,"encoder":"3569059","distractor":"6569059","target":"present","response":"present","rt":"3135.2000000002","correct":true,"confidence":2},{"trial_n":129,"span":8,"encoder":"52065482","distractor":"92065482","target":"absent","response":"absent","rt":"8821.5","correct":true,"confidence":3},{"trial_n":130,"span":8,"encoder":"03294451","distractor":"03294454","target":"absent","response":"present","rt":"1523.2999999998","correct":false,"confidence":1},{"trial_n":131,"span":7,"encoder":"3346651","distractor":"3846651","target":"absent","response":"present","rt":"3416.2000000002","correct":false,"confidence":3},{"trial_n":132,"span":6,"encoder":"360546","distractor":"364546","target":"present","response":"present","rt":"2419","correct":true,"confidence":2},{"trial_n":133,"span":6,"encoder":"955172","distractor":"955182","target":"absent","response":"absent","rt":"1660.8999999994","correct":true,"confidence":3},{"trial_n":134,"span":7,"encoder":"4927959","distractor":"4927969","target":"present","response":"present","rt":"1375.5","correct":true,"confidence":1},{"trial_n":135,"span":7,"encoder":"3479936","distractor":"3469936","target":"absent","response":"present","rt":"1487.5","correct":false,"confidence":1},{"trial_n":136,"span":6,"encoder":"079239","distractor":"074239","target":"absent","response":"present","rt":"2756.5999999996","correct":false,"confidence":1},{"trial_n":137,"span":5,"encoder":"85759","distractor":"80759","target":"absent","response":"absent","rt":"1682","correct":true,"confidence":1},{"trial_n":138,"span":5,"encoder":"68216","distractor":"68516","target":"present","response":"absent","rt":"1781.4000000004","correct":false,"confidence":1},{"trial_n":139,"span":4,"encoder":"3217","distractor":"3227","target":"absent","response":"absent","rt":"1620.2000000002","correct":true,"confidence":1},{"trial_n":140,"span":4,"encoder":"7826","distractor":"7886","target":"absent","response":"absent","rt":"1557.5999999996","correct":true,"confidence":1}]