[{"trial_n":1,"min":25,"max":230,"target":"present","response":"absent","rt":9425.2999999998,"correct":false,"confidence":-1},{"trial_n":2,"min":25,"max":230,"target":"present","response":"absent","rt":3014.4000000004,"correct":false,"confidence":-1},{"trial_n":3,"min":9,"max":246,"target":"absent","response":"present","rt":652.10000000056,"correct":false,"confidence":-1},{"trial_n":4,"min":0,"max":255,"target":"absent","response":"absent","rt":454.79999999981,"correct":true,"confidence":-1},{"trial_n":5,"min":0,"max":255,"target":"present","response":"present","rt":440,"correct":true,"confidence":-1},{"trial_n":6,"min":16,"max":239,"target":"present","response":"present","rt":337.10000000056,"correct":true,"confidence":-1},{"trial_n":7,"min":16,"max":239,"target":"present","response":"present","rt":182.09999999963,"correct":true,"confidence":-1},{"trial_n":8,"min":32,"max":223,"target":"absent","response":"absent","rt":371.90000000037,"correct":true,"confidence":-1},{"trial_n":9,"min":32,"max":223,"target":"absent","response":"absent","rt":374.29999999981,"correct":true,"confidence":-1},{"trial_n":10,"min":48,"max":207,"target":"absent","response":"absent","rt":106.09999999963,"correct":true,"confidence":-1},{"trial_n":11,"min":48,"max":207,"target":"present","response":"absent","rt":62.200000000186,"correct":false,"confidence":-1},{"trial_n":12,"min":40,"max":215,"target":"present","response":"present","rt":210.70000000019,"correct":true,"confidence":-1},{"trial_n":13,"min":40,"max":215,"target":"absent","response":"absent","rt":385.70000000019,"correct":true,"confidence":-1},{"trial_n":14,"min":48,"max":207,"target":"present","response":"present","rt":139.69999999925,"correct":true,"confidence":-1},{"trial_n":15,"min":48,"max":207,"target":"absent","response":"absent","rt":293.69999999925,"correct":true,"confidence":-1},{"trial_n":16,"min":56,"max":199,"target":"absent","response":"absent","rt":245.09999999963,"correct":true,"confidence":-1},{"trial_n":17,"min":56,"max":199,"target":"present","response":"present","rt":258,"correct":true,"confidence":-1},{"trial_n":18,"min":64,"max":191,"target":"absent","response":"absent","rt":361.29999999981,"correct":true,"confidence":-1},{"trial_n":19,"min":64,"max":191,"target":"absent","response":"absent","rt":103.60000000056,"correct":true,"confidence":-1},{"trial_n":20,"min":72,"max":183,"target":"absent","response":"absent","rt":27.099999999627,"correct":true,"confidence":-1},{"trial_n":21,"min":72,"max":183,"target":"present","response":"absent","rt":396.20000000019,"correct":false,"confidence":3},{"trial_n":22,"min":68,"max":187,"target":"present","response":"absent","rt":590,"correct":false,"confidence":3},{"trial_n":23,"min":64,"max":191,"target":"present","response":"present","rt":1049.5,"correct":true,"confidence":3},{"trial_n":24,"min":64,"max":191,"target":"absent","response":"absent","rt":672.79999999981,"correct":true,"confidence":1},{"trial_n":25,"min":68,"max":187,"target":"present","response":"present","rt":945.5,"correct":true,"confidence":3},{"trial_n":26,"min":68,"max":187,"target":"present","response":"present","rt":595.20000000019,"correct":true,"confidence":3},{"trial_n":27,"min":72,"max":183,"target":"present","response":"present","rt":1127.8999999994,"correct":true,"confidence":3},{"trial_n":28,"min":72,"max":183,"target":"present","response":"present","rt":1033.7999999998,"correct":true,"confidence":3},{"trial_n":29,"min":76,"max":179,"target":"absent","response":"absent","rt":1130.5,"correct":true,"confidence":3},{"trial_n":30,"min":76,"max":179,"target":"absent","response":"absent","rt":738.39999999944,"correct":true,"confidence":3},{"trial_n":31,"min":78,"max":177,"target":"present","response":"absent","rt":1566.0999999996,"correct":false,"confidence":3},{"trial_n":32,"min":76,"max":179,"target":"absent","response":"absent","rt":1158.1999999993,"correct":true,"confidence":3},{"trial_n":33,"min":76,"max":179,"target":"absent","response":"absent","rt":616.79999999981,"correct":true,"confidence":5},{"trial_n":34,"min":78,"max":177,"target":"present","response":"present","rt":1889.7999999998,"correct":true,"confidence":3},{"trial_n":35,"min":78,"max":177,"target":"present","response":"present","rt":1260.0999999996,"correct":true,"confidence":3},{"trial_n":36,"min":80,"max":175,"target":"present","response":"present","rt":1120.1000000006,"correct":true,"confidence":3},{"trial_n":37,"min":80,"max":175,"target":"present","response":"present","rt":758.20000000019,"correct":true,"confidence":3},{"trial_n":38,"min":82,"max":173,"target":"absent","response":"absent","rt":880.59999999963,"correct":true,"confidence":4},{"trial_n":39,"min":82,"max":173,"target":"present","response":"absent","rt":1002.3000000007,"correct":false,"confidence":3},{"trial_n":40,"min":80,"max":175,"target":"absent","response":"absent","rt":887.90000000037,"correct":true,"confidence":5},{"trial_n":41,"min":80,"max":175,"target":"absent","response":"absent","rt":699.5,"correct":true,"confidence":4},{"trial_n":42,"min":81,"max":174,"target":"absent","response":"absent","rt":806.79999999981,"correct":true,"confidence":5},{"trial_n":43,"min":81,"max":174,"target":"absent","response":"absent","rt":776.5,"correct":true,"confidence":5},{"trial_n":44,"min":82,"max":173,"target":"present","response":"present","rt":1010.2000000002,"correct":true,"confidence":3},{"trial_n":45,"min":82,"max":173,"target":"absent","response":"absent","rt":659.5,"correct":true,"confidence":5},{"trial_n":46,"min":83,"max":172,"target":"absent","response":"absent","rt":574.29999999981,"correct":true,"confidence":5},{"trial_n":47,"min":83,"max":172,"target":"absent","response":"absent","rt":500.70000000019,"correct":true,"confidence":5},{"trial_n":48,"min":84,"max":171,"target":"absent","response":"absent","rt":457,"correct":true,"confidence":5},{"trial_n":49,"min":84,"max":171,"target":"present","response":"absent","rt":622.90000000037,"correct":false,"confidence":5},{"trial_n":50,"min":83,"max":172,"target":"present","response":"absent","rt":624,"correct":false,"confidence":5},{"trial_n":51,"min":82,"max":173,"target":"present","response":"absent","rt":515.90000000037,"correct":false,"confidence":5},{"trial_n":52,"min":81,"max":174,"target":"absent","response":"absent","rt":456,"correct":true,"confidence":5},{"trial_n":53,"min":81,"max":174,"target":"present","response":"absent","rt":479.29999999981,"correct":false,"confidence":4},{"trial_n":54,"min":80,"max":175,"target":"present","response":"present","rt":1094.0999999996,"correct":true,"confidence":3},{"trial_n":55,"min":80,"max":175,"target":"present","response":"present","rt":1023.7000000002,"correct":true,"confidence":3},{"trial_n":56,"min":81,"max":174,"target":"absent","response":"absent","rt":614.5,"correct":true,"confidence":5},{"trial_n":57,"min":81,"max":174,"target":"absent","response":"absent","rt":562.10000000056,"correct":true,"confidence":5},{"trial_n":58,"min":82,"max":173,"target":"absent","response":"absent","rt":2059.8999999994,"correct":true,"confidence":5},{"trial_n":59,"min":82,"max":173,"target":"absent","response":"absent","rt":495.79999999981,"correct":true,"confidence":5},{"trial_n":60,"min":83,"max":172,"target":"absent","response":"absent","rt":442,"correct":true,"confidence":5},{"trial_n":61,"min":83,"max":172,"target":"absent","response":"absent","rt":763.70000000019,"correct":true,"confidence":5},{"trial_n":62,"min":84,"max":171,"target":"present","response":"absent","rt":467,"correct":false,"confidence":5},{"trial_n":63,"min":83,"max":172,"target":"present","response":"absent","rt":536.79999999981,"correct":false,"confidence":4},{"trial_n":64,"min":82,"max":173,"target":"present","response":"absent","rt":598.69999999925,"correct":false,"confidence":3},{"trial_n":65,"min":81,"max":174,"target":"present","response":"present","rt":798,"correct":true,"confidence":3},{"trial_n":66,"min":81,"max":174,"target":"absent","response":"absent","rt":945.5,"correct":true,"confidence":4},{"trial_n":67,"min":82,"max":173,"target":"present","response":"present","rt":1129.2000000002,"correct":true,"confidence":4},{"trial_n":68,"min":82,"max":173,"target":"present","response":"present","rt":2589.4000000004,"correct":true,"confidence":4},{"trial_n":69,"min":83,"max":172,"target":"absent","response":"absent","rt":681.59999999963,"correct":true,"confidence":5},{"trial_n":70,"min":83,"max":172,"target":"present","response":"present","rt":2297.2999999998,"correct":true,"confidence":4},{"trial_n":71,"min":41,"max":214,"target":"present","response":"present","rt":7862.7000000002,"correct":true,"confidence":-1},{"trial_n":72,"min":41,"max":214,"target":"present","response":"present","rt":1634,"correct":true,"confidence":-1},{"trial_n":73,"min":57,"max":198,"target":"absent","response":"absent","rt":563,"correct":true,"confidence":-1},{"trial_n":74,"min":57,"max":198,"target":"absent","response":"absent","rt":507.40000000037,"correct":true,"confidence":-1},{"trial_n":75,"min":73,"max":182,"target":"present","response":"present","rt":1509,"correct":true,"confidence":-1},{"trial_n":76,"min":73,"max":182,"target":"absent","response":"absent","rt":710.20000000019,"correct":true,"confidence":-1},{"trial_n":77,"min":89,"max":166,"target":"absent","response":"present","rt":837.10000000056,"correct":false,"confidence":-1},{"trial_n":78,"min":73,"max":182,"target":"absent","response":"absent","rt":524.5,"correct":true,"confidence":-1},{"trial_n":79,"min":73,"max":182,"target":"present","response":"present","rt":458,"correct":true,"confidence":-1},{"trial_n":80,"min":89,"max":166,"target":"present","response":"present","rt":1740.4000000004,"correct":true,"confidence":-1},{"trial_n":81,"min":89,"max":166,"target":"absent","response":"present","rt":763.60000000056,"correct":false,"confidence":-1},{"trial_n":82,"min":81,"max":174,"target":"absent","response":"absent","rt":548.70000000019,"correct":true,"confidence":-1},{"trial_n":83,"min":81,"max":174,"target":"absent","response":"absent","rt":722.70000000019,"correct":true,"confidence":-1},{"trial_n":84,"min":89,"max":166,"target":"present","response":"absent","rt":660.20000000019,"correct":false,"confidence":-1},{"trial_n":85,"min":81,"max":174,"target":"absent","response":"present","rt":571.29999999981,"correct":false,"confidence":-1},{"trial_n":86,"min":73,"max":182,"target":"present","response":"present","rt":791.30000000075,"correct":true,"confidence":-1},{"trial_n":87,"min":73,"max":182,"target":"present","response":"present","rt":378.80000000075,"correct":true,"confidence":-1},{"trial_n":88,"min":81,"max":174,"target":"present","response":"absent","rt":669,"correct":false,"confidence":-1},{"trial_n":89,"min":73,"max":182,"target":"present","response":"present","rt":83.700000000186,"correct":true,"confidence":-1},{"trial_n":90,"min":73,"max":182,"target":"present","response":"present","rt":662.40000000037,"correct":true,"confidence":-1},{"trial_n":91,"min":77,"max":178,"target":"present","response":"absent","rt":547.20000000019,"correct":false,"confidence":3},{"trial_n":92,"min":73,"max":182,"target":"absent","response":"absent","rt":824.90000000037,"correct":true,"confidence":3},{"trial_n":93,"min":73,"max":182,"target":"absent","response":"absent","rt":1277.6000000006,"correct":true,"confidence":3},{"trial_n":94,"min":77,"max":178,"target":"absent","response":"absent","rt":651.5,"correct":true,"confidence":3},{"trial_n":95,"min":77,"max":178,"target":"absent","response":"absent","rt":449.59999999963,"correct":true,"confidence":3},{"trial_n":96,"min":81,"max":174,"target":"present","response":"present","rt":1198.9000000004,"correct":true,"confidence":3},{"trial_n":97,"min":81,"max":174,"target":"absent","response":"present","rt":1047,"correct":false,"confidence":3},{"trial_n":98,"min":77,"max":178,"target":"present","response":"present","rt":397.60000000056,"correct":true,"confidence":3},{"trial_n":99,"min":77,"max":178,"target":"absent","response":"present","rt":589.79999999981,"correct":false,"confidence":2},{"trial_n":100,"min":73,"max":182,"target":"present","response":"present","rt":490.79999999981,"correct":true,"confidence":2},{"trial_n":101,"min":73,"max":182,"target":"present","response":"present","rt":170.5,"correct":true,"confidence":2},{"trial_n":102,"min":75,"max":180,"target":"present","response":"present","rt":249.79999999981,"correct":true,"confidence":2},{"trial_n":103,"min":75,"max":180,"target":"absent","response":"absent","rt":458.60000000056,"correct":true,"confidence":3},{"trial_n":104,"min":77,"max":178,"target":"present","response":"present","rt":766.70000000019,"correct":true,"confidence":3},{"trial_n":105,"min":77,"max":178,"target":"present","response":"present","rt":681.80000000075,"correct":true,"confidence":3},{"trial_n":106,"min":79,"max":176,"target":"present","response":"present","rt":320.90000000037,"correct":true,"confidence":3},{"trial_n":107,"min":79,"max":176,"target":"present","response":"present","rt":374.19999999925,"correct":true,"confidence":3},{"trial_n":108,"min":81,"max":174,"target":"present","response":"present","rt":440.5,"correct":true,"confidence":3},{"trial_n":109,"min":81,"max":174,"target":"present","response":"present","rt":887.59999999963,"correct":true,"confidence":3},{"trial_n":110,"min":83,"max":172,"target":"absent","response":"absent","rt":1194.4000000004,"correct":true,"confidence":3},{"trial_n":111,"min":83,"max":172,"target":"present","response":"present","rt":179,"correct":true,"confidence":3},{"trial_n":112,"min":84,"max":171,"target":"present","response":"present","rt":191.40000000037,"correct":true,"confidence":3},{"trial_n":113,"min":84,"max":171,"target":"present","response":"present","rt":347.80000000075,"correct":true,"confidence":3},{"trial_n":114,"min":85,"max":170,"target":"absent","response":"absent","rt":669.10000000056,"correct":true,"confidence":3},{"trial_n":115,"min":85,"max":170,"target":"absent","response":"absent","rt":2088.0999999996,"correct":true,"confidence":1},{"trial_n":116,"min":86,"max":169,"target":"absent","response":"present","rt":1813.0999999996,"correct":false,"confidence":1},{"trial_n":117,"min":85,"max":170,"target":"present","response":"present","rt":1042.0999999996,"correct":true,"confidence":1},{"trial_n":118,"min":85,"max":170,"target":"absent","response":"absent","rt":578,"correct":true,"confidence":2},{"trial_n":119,"min":86,"max":169,"target":"present","response":"present","rt":492.10000000056,"correct":true,"confidence":2},{"trial_n":120,"min":86,"max":169,"target":"present","response":"present","rt":457.20000000019,"correct":true,"confidence":2},{"trial_n":121,"min":87,"max":168,"target":"present","response":"present","rt":284.40000000037,"correct":true,"confidence":2},{"trial_n":122,"min":87,"max":168,"target":"absent","response":"absent","rt":570.39999999944,"correct":true,"confidence":2},{"trial_n":123,"min":88,"max":167,"target":"present","response":"present","rt":442.79999999981,"correct":true,"confidence":2},{"trial_n":124,"min":88,"max":167,"target":"absent","response":"present","rt":1148.3999999994,"correct":false,"confidence":1},{"trial_n":125,"min":87,"max":168,"target":"absent","response":"present","rt":916.29999999981,"correct":false,"confidence":1},{"trial_n":126,"min":86,"max":169,"target":"absent","response":"absent","rt":853.29999999981,"correct":true,"confidence":1},{"trial_n":127,"min":86,"max":169,"target":"absent","response":"present","rt":1292.2000000002,"correct":false,"confidence":1},{"trial_n":128,"min":85,"max":170,"target":"absent","response":"absent","rt":716.70000000019,"correct":true,"confidence":2},{"trial_n":129,"min":85,"max":170,"target":"present","response":"present","rt":904.10000000056,"correct":true,"confidence":2},{"trial_n":130,"min":86,"max":169,"target":"absent","response":"present","rt":878.40000000037,"correct":false,"confidence":1},{"trial_n":131,"min":85,"max":170,"target":"present","response":"present","rt":361.5,"correct":true,"confidence":2},{"trial_n":132,"min":85,"max":170,"target":"absent","response":"present","rt":526.39999999944,"correct":false,"confidence":2},{"trial_n":133,"min":84,"max":171,"target":"present","response":"present","rt":585.5,"correct":true,"confidence":1},{"trial_n":134,"min":84,"max":171,"target":"present","response":"present","rt":709.20000000019,"correct":true,"confidence":2},{"trial_n":135,"min":85,"max":170,"target":"absent","response":"present","rt":645.20000000019,"correct":false,"confidence":2},{"trial_n":136,"min":84,"max":171,"target":"absent","response":"absent","rt":532.29999999981,"correct":true,"confidence":2},{"trial_n":137,"min":84,"max":171,"target":"absent","response":"absent","rt":506.40000000037,"correct":true,"confidence":2},{"trial_n":138,"min":85,"max":170,"target":"absent","response":"absent","rt":492.5,"correct":true,"confidence":2},{"trial_n":139,"min":85,"max":170,"target":"absent","response":"absent","rt":479.80000000075,"correct":true,"confidence":1},{"trial_n":140,"min":86,"max":169,"target":"present","response":"present","rt":917.20000000019,"correct":true,"confidence":2}]