[{"trial_n":1,"n_dots":4.25,"target":"left","response":"right","rt":5961.7999999998,"correct":false,"confidence":-1},{"trial_n":2,"n_dots":4.25,"target":"right","response":"right","rt":744,"correct":true,"confidence":-1},{"trial_n":3,"n_dots":4.25,"target":"left","response":"left","rt":280.79999999981,"correct":true,"confidence":-1},{"trial_n":4,"n_dots":3.85,"target":"left","response":"left","rt":395.89999999991,"correct":true,"confidence":-1},{"trial_n":5,"n_dots":3.85,"target":"right","response":"right","rt":28,"correct":true,"confidence":-1},{"trial_n":6,"n_dots":3.45,"target":"right","response":"right","rt":481.10000000009,"correct":true,"confidence":-1},{"trial_n":7,"n_dots":3.45,"target":"left","response":"left","rt":27.799999999814,"correct":true,"confidence":-1},{"trial_n":8,"n_dots":3.25,"target":"right","response":"right","rt":1235.5,"correct":true,"confidence":-1},{"trial_n":9,"n_dots":3.25,"target":"left","response":"left","rt":74.799999999814,"correct":true,"confidence":-1},{"trial_n":10,"n_dots":3.05,"target":"left","response":"left","rt":874.29999999981,"correct":true,"confidence":-1},{"trial_n":11,"n_dots":3.05,"target":"right","response":"right","rt":11.899999999907,"correct":true,"confidence":-1},{"trial_n":12,"n_dots":2.85,"target":"right","response":"left","rt":275.29999999981,"correct":false,"confidence":-1},{"trial_n":13,"n_dots":2.95,"target":"left","response":"right","rt":605.79999999981,"correct":false,"confidence":-1},{"trial_n":14,"n_dots":3.05,"target":"left","response":"right","rt":427.40000000037,"correct":false,"confidence":-1},{"trial_n":15,"n_dots":3.15,"target":"left","response":"left","rt":666.79999999981,"correct":true,"confidence":-1},{"trial_n":16,"n_dots":3.15,"target":"right","response":"right","rt":78,"correct":true,"confidence":-1},{"trial_n":17,"n_dots":3.05,"target":"left","response":"left","rt":345.29999999981,"correct":true,"confidence":-1},{"trial_n":18,"n_dots":3.05,"target":"left","response":"left","rt":331.60000000009,"correct":true,"confidence":-1},{"trial_n":19,"n_dots":2.95,"target":"left","response":"left","rt":210.30000000028,"correct":true,"confidence":-1},{"trial_n":20,"n_dots":2.95,"target":"right","response":"right","rt":74.199999999721,"correct":true,"confidence":-1},{"trial_n":21,"n_dots":2.85,"target":"right","response":"right","rt":467.80000000028,"correct":true,"confidence":3},{"trial_n":22,"n_dots":2.85,"target":"left","response":"left","rt":56.900000000373,"correct":true,"confidence":3},{"trial_n":23,"n_dots":2.75,"target":"left","response":"left","rt":515.5,"correct":true,"confidence":3},{"trial_n":24,"n_dots":2.75,"target":"right","response":"right","rt":195.5,"correct":true,"confidence":3},{"trial_n":25,"n_dots":2.65,"target":"left","response":"right","rt":718.89999999991,"correct":false,"confidence":2},{"trial_n":26,"n_dots":2.75,"target":"left","response":"left","rt":314.19999999972,"correct":true,"confidence":3},{"trial_n":27,"n_dots":2.75,"target":"left","response":"left","rt":44.899999999907,"correct":true,"confidence":3},{"trial_n":28,"n_dots":2.65,"target":"left","response":"left","rt":335.69999999972,"correct":true,"confidence":3},{"trial_n":29,"n_dots":2.65,"target":"right","response":"right","rt":153.29999999981,"correct":true,"confidence":2},{"trial_n":30,"n_dots":2.55,"target":"right","response":"left","rt":459.39999999991,"correct":false,"confidence":2},{"trial_n":31,"n_dots":2.65,"target":"right","response":"right","rt":231.5,"correct":true,"confidence":3},{"trial_n":32,"n_dots":2.65,"target":"right","response":"right","rt":56.5,"correct":true,"confidence":3},{"trial_n":33,"n_dots":2.55,"target":"right","response":"right","rt":1772.2999999998,"correct":true,"confidence":3},{"trial_n":34,"n_dots":2.55,"target":"right","response":"left","rt":226,"correct":false,"confidence":3},{"trial_n":35,"n_dots":2.65,"target":"right","response":"right","rt":244.79999999981,"correct":true,"confidence":3},{"trial_n":36,"n_dots":2.65,"target":"right","response":"right","rt":1929.5,"correct":true,"confidence":2},{"trial_n":37,"n_dots":2.55,"target":"right","response":"right","rt":167,"correct":true,"confidence":3},{"trial_n":38,"n_dots":2.55,"target":"left","response":"right","rt":253.39999999991,"correct":false,"confidence":3},{"trial_n":39,"n_dots":2.65,"target":"right","response":"right","rt":520.09999999963,"correct":true,"confidence":3},{"trial_n":40,"n_dots":2.65,"target":"right","response":"right","rt":398.60000000009,"correct":true,"confidence":3},{"trial_n":41,"n_dots":2.55,"target":"left","response":"left","rt":562.39999999991,"correct":true,"confidence":3},{"trial_n":42,"n_dots":2.55,"target":"left","response":"right","rt":341.10000000009,"correct":false,"confidence":3},{"trial_n":43,"n_dots":2.65,"target":"left","response":"right","rt":790.79999999981,"correct":false,"confidence":3},{"trial_n":44,"n_dots":2.75,"target":"right","response":"right","rt":341.39999999991,"correct":true,"confidence":3},{"trial_n":45,"n_dots":2.75,"target":"left","response":"left","rt":477.89999999991,"correct":true,"confidence":3},{"trial_n":46,"n_dots":2.65,"target":"right","response":"right","rt":123.39999999991,"correct":true,"confidence":3},{"trial_n":47,"n_dots":2.65,"target":"left","response":"right","rt":232.20000000019,"correct":false,"confidence":3},{"trial_n":48,"n_dots":2.75,"target":"left","response":"left","rt":320.19999999972,"correct":true,"confidence":3},{"trial_n":49,"n_dots":2.75,"target":"left","response":"left","rt":48.299999999814,"correct":true,"confidence":3},{"trial_n":50,"n_dots":2.65,"target":"right","response":"right","rt":444.39999999991,"correct":true,"confidence":3},{"trial_n":51,"n_dots":2.65,"target":"left","response":"right","rt":659.5,"correct":false,"confidence":2},{"trial_n":52,"n_dots":2.75,"target":"right","response":"left","rt":88.700000000186,"correct":false,"confidence":2},{"trial_n":53,"n_dots":2.85,"target":"right","response":"left","rt":1071.5999999996,"correct":false,"confidence":2},{"trial_n":54,"n_dots":2.95,"target":"right","response":"right","rt":589.10000000009,"correct":true,"confidence":2},{"trial_n":55,"n_dots":2.95,"target":"right","response":"right","rt":833.79999999981,"correct":true,"confidence":1},{"trial_n":56,"n_dots":2.85,"target":"right","response":"right","rt":159.60000000009,"correct":true,"confidence":1},{"trial_n":57,"n_dots":2.85,"target":"left","response":"right","rt":200.5,"correct":false,"confidence":3},{"trial_n":58,"n_dots":2.95,"target":"right","response":"right","rt":277.19999999972,"correct":true,"confidence":1},{"trial_n":59,"n_dots":2.95,"target":"right","response":"right","rt":628.5,"correct":true,"confidence":2},{"trial_n":60,"n_dots":2.85,"target":"left","response":"left","rt":5653.8999999999,"correct":true,"confidence":1},{"trial_n":61,"n_dots":2.85,"target":"left","response":"right","rt":400,"correct":false,"confidence":2},{"trial_n":62,"n_dots":2.95,"target":"right","response":"right","rt":579,"correct":true,"confidence":2},{"trial_n":63,"n_dots":2.95,"target":"left","response":"left","rt":315.20000000019,"correct":true,"confidence":2},{"trial_n":64,"n_dots":2.85,"target":"right","response":"right","rt":435,"correct":true,"confidence":2},{"trial_n":65,"n_dots":2.85,"target":"right","response":"right","rt":769.60000000009,"correct":true,"confidence":1},{"trial_n":66,"n_dots":2.75,"target":"left","response":"left","rt":482.39999999991,"correct":true,"confidence":2},{"trial_n":67,"n_dots":2.75,"target":"left","response":"left","rt":43.300000000279,"correct":true,"confidence":2},{"trial_n":68,"n_dots":2.65,"target":"left","response":"left","rt":518.89999999991,"correct":true,"confidence":2},{"trial_n":69,"n_dots":2.65,"target":"right","response":"right","rt":519.5,"correct":true,"confidence":2},{"trial_n":70,"n_dots":2.55,"target":"left","response":"left","rt":27.5,"correct":true,"confidence":2},{"trial_n":71,"n_dots":2.55,"target":"right","response":"left","rt":534.60000000009,"correct":false,"confidence":2},{"trial_n":72,"n_dots":2.65,"target":"right","response":"right","rt":213.5,"correct":true,"confidence":2},{"trial_n":73,"n_dots":2.65,"target":"right","response":"right","rt":675.39999999991,"correct":true,"confidence":1},{"trial_n":74,"n_dots":2.55,"target":"left","response":"left","rt":409,"correct":true,"confidence":2},{"trial_n":75,"n_dots":2.55,"target":"right","response":"right","rt":87.300000000279,"correct":true,"confidence":2},{"trial_n":76,"n_dots":2.45,"target":"left","response":"right","rt":445.60000000009,"correct":false,"confidence":2},{"trial_n":77,"n_dots":2.55,"target":"left","response":"right","rt":107.80000000028,"correct":false,"confidence":2},{"trial_n":78,"n_dots":2.65,"target":"left","response":"right","rt":401.79999999981,"correct":false,"confidence":2},{"trial_n":79,"n_dots":2.75,"target":"right","response":"right","rt":202.90000000037,"correct":true,"confidence":2},{"trial_n":80,"n_dots":2.75,"target":"right","response":"right","rt":363.29999999981,"correct":true,"confidence":2},{"trial_n":81,"n_dots":2.65,"target":"left","response":"right","rt":143.29999999981,"correct":false,"confidence":2},{"trial_n":82,"n_dots":2.75,"target":"left","response":"left","rt":227.89999999991,"correct":true,"confidence":2},{"trial_n":83,"n_dots":2.75,"target":"right","response":"right","rt":116.5,"correct":true,"confidence":2},{"trial_n":84,"n_dots":2.65,"target":"right","response":"right","rt":77.399999999907,"correct":true,"confidence":2},{"trial_n":85,"n_dots":2.65,"target":"left","response":"right","rt":37.200000000186,"correct":false,"confidence":3},{"trial_n":86,"n_dots":2.75,"target":"right","response":"right","rt":55.600000000093,"correct":true,"confidence":2},{"trial_n":87,"n_dots":2.75,"target":"left","response":"left","rt":413,"correct":true,"confidence":2},{"trial_n":88,"n_dots":2.65,"target":"right","response":"right","rt":281.30000000028,"correct":true,"confidence":2},{"trial_n":89,"n_dots":2.65,"target":"right","response":"left","rt":1.8000000002794,"correct":false,"confidence":2},{"trial_n":90,"n_dots":2.75,"target":"left","response":"right","rt":291.39999999991,"correct":false,"confidence":2},{"trial_n":91,"n_dots":2.85,"target":"right","response":"left","rt":63.100000000093,"correct":false,"confidence":1},{"trial_n":92,"n_dots":2.95,"target":"right","response":"left","rt":30.600000000093,"correct":false,"confidence":2},{"trial_n":93,"n_dots":3.05,"target":"left","response":"left","rt":312.09999999963,"correct":true,"confidence":1},{"trial_n":94,"n_dots":3.05,"target":"left","response":"left","rt":291.80000000028,"correct":true,"confidence":2},{"trial_n":95,"n_dots":2.95,"target":"right","response":"right","rt":439.70000000019,"correct":true,"confidence":3},{"trial_n":96,"n_dots":2.95,"target":"left","response":"left","rt":263.79999999981,"correct":true,"confidence":3},{"trial_n":97,"n_dots":2.85,"target":"left","response":"left","rt":141.5,"correct":true,"confidence":3},{"trial_n":98,"n_dots":2.85,"target":"left","response":"left","rt":233,"correct":true,"confidence":3},{"trial_n":99,"n_dots":2.75,"target":"left","response":"left","rt":2016.7000000002,"correct":true,"confidence":3},{"trial_n":100,"n_dots":2.75,"target":"right","response":"right","rt":339.90000000037,"correct":true,"confidence":2},{"trial_n":101,"n_dots":2.65,"target":"left","response":"left","rt":422,"correct":true,"confidence":2},{"trial_n":102,"n_dots":2.65,"target":"left","response":"left","rt":208.19999999972,"correct":true,"confidence":2},{"trial_n":103,"n_dots":2.55,"target":"right","response":"right","rt":124.90000000037,"correct":true,"confidence":3},{"trial_n":104,"n_dots":2.55,"target":"left","response":"left","rt":1095.1999999997,"correct":true,"confidence":2},{"trial_n":105,"n_dots":2.45,"target":"right","response":"left","rt":70.099999999627,"correct":false,"confidence":3},{"trial_n":106,"n_dots":2.55,"target":"left","response":"left","rt":262,"correct":true,"confidence":2},{"trial_n":107,"n_dots":2.55,"target":"left","response":"left","rt":155.39999999991,"correct":true,"confidence":2},{"trial_n":108,"n_dots":2.45,"target":"left","response":"left","rt":252.19999999972,"correct":true,"confidence":2},{"trial_n":109,"n_dots":2.45,"target":"left","response":"right","rt":295.80000000028,"correct":false,"confidence":2},{"trial_n":110,"n_dots":2.55,"target":"right","response":"right","rt":146.60000000009,"correct":true,"confidence":3},{"trial_n":111,"n_dots":2.55,"target":"left","response":"left","rt":180.5,"correct":true,"confidence":2},{"trial_n":112,"n_dots":2.45,"target":"right","response":"right","rt":35.5,"correct":true,"confidence":3},{"trial_n":113,"n_dots":2.45,"target":"right","response":"right","rt":106,"correct":true,"confidence":2},{"trial_n":114,"n_dots":2.35,"target":"left","response":"right","rt":318,"correct":false,"confidence":2},{"trial_n":115,"n_dots":2.45,"target":"left","response":"right","rt":68.100000000093,"correct":false,"confidence":1},{"trial_n":116,"n_dots":2.55,"target":"right","response":"right","rt":448.20000000019,"correct":true,"confidence":1},{"trial_n":117,"n_dots":2.55,"target":"right","response":"right","rt":318.89999999991,"correct":true,"confidence":2},{"trial_n":118,"n_dots":2.45,"target":"right","response":"right","rt":446.5,"correct":true,"confidence":2},{"trial_n":119,"n_dots":2.45,"target":"right","response":"right","rt":239.29999999981,"correct":true,"confidence":2},{"trial_n":120,"n_dots":2.35,"target":"right","response":"right","rt":43.200000000186,"correct":true,"confidence":2}]