[{"trial_n":1,"min":25,"max":230,"target":"present","response":"present","rt":8860.2000000477,"correct":true,"confidence":-1},{"trial_n":2,"min":25,"max":230,"target":"present","response":"present","rt":1658.2000000477,"correct":true,"confidence":-1},{"trial_n":3,"min":41,"max":214,"target":"absent","response":"present","rt":849.69999998808,"correct":false,"confidence":-1},{"trial_n":4,"min":25,"max":230,"target":"absent","response":"present","rt":2875.8000000119,"correct":false,"confidence":-1},{"trial_n":5,"min":9,"max":246,"target":"present","response":"absent","rt":3529.9000000358,"correct":false,"confidence":-1},{"trial_n":6,"min":0,"max":255,"target":"absent","response":"absent","rt":3573.8999999762,"correct":true,"confidence":-1},{"trial_n":7,"min":0,"max":255,"target":"present","response":"present","rt":1508.5,"correct":true,"confidence":-1},{"trial_n":8,"min":16,"max":239,"target":"present","response":"present","rt":1071.1999999881,"correct":true,"confidence":-1},{"trial_n":9,"min":16,"max":239,"target":"present","response":"present","rt":848.40000003576,"correct":true,"confidence":-1},{"trial_n":10,"min":32,"max":223,"target":"absent","response":"present","rt":913.29999995232,"correct":false,"confidence":-1},{"trial_n":11,"min":24,"max":231,"target":"absent","response":"present","rt":1303,"correct":false,"confidence":-1},{"trial_n":12,"min":16,"max":239,"target":"absent","response":"present","rt":957.19999998808,"correct":false,"confidence":-1},{"trial_n":13,"min":8,"max":247,"target":"present","response":"present","rt":972.59999996424,"correct":true,"confidence":-1},{"trial_n":14,"min":8,"max":247,"target":"absent","response":"absent","rt":1870.3999999762,"correct":true,"confidence":-1},{"trial_n":15,"min":16,"max":239,"target":"present","response":"present","rt":1152.3000000119,"correct":true,"confidence":-1},{"trial_n":16,"min":16,"max":239,"target":"absent","response":"present","rt":1221.3999999762,"correct":false,"confidence":-1},{"trial_n":17,"min":8,"max":247,"target":"absent","response":"absent","rt":1887.3000000119,"correct":true,"confidence":-1},{"trial_n":18,"min":8,"max":247,"target":"absent","response":"absent","rt":1058.1000000238,"correct":true,"confidence":-1},{"trial_n":19,"min":16,"max":239,"target":"absent","response":"absent","rt":820.90000003576,"correct":true,"confidence":-1},{"trial_n":20,"min":16,"max":239,"target":"present","response":"present","rt":1429.5,"correct":true,"confidence":-1},{"trial_n":21,"min":20,"max":235,"target":"absent","response":"absent","rt":2197.7000000477,"correct":true,"confidence":5},{"trial_n":22,"min":20,"max":235,"target":"absent","response":"absent","rt":1335.8000000119,"correct":true,"confidence":5},{"trial_n":23,"min":24,"max":231,"target":"absent","response":"absent","rt":1192.5,"correct":true,"confidence":5},{"trial_n":24,"min":24,"max":231,"target":"absent","response":"absent","rt":853.29999995232,"correct":true,"confidence":5},{"trial_n":25,"min":28,"max":227,"target":"absent","response":"absent","rt":1056,"correct":true,"confidence":5},{"trial_n":26,"min":28,"max":227,"target":"absent","response":"absent","rt":766.19999998808,"correct":true,"confidence":5},{"trial_n":27,"min":32,"max":223,"target":"present","response":"present","rt":1050.1000000238,"correct":true,"confidence":5},{"trial_n":28,"min":32,"max":223,"target":"absent","response":"absent","rt":1395.1999999881,"correct":true,"confidence":5},{"trial_n":29,"min":36,"max":219,"target":"absent","response":"absent","rt":1193.8999999762,"correct":true,"confidence":1},{"trial_n":30,"min":36,"max":219,"target":"present","response":"absent","rt":1973.0999999642,"correct":false,"confidence":5},{"trial_n":31,"min":34,"max":221,"target":"present","response":"present","rt":2373.1999999881,"correct":true,"confidence":5},{"trial_n":32,"min":34,"max":221,"target":"absent","response":"absent","rt":2290.6999999881,"correct":true,"confidence":5},{"trial_n":33,"min":36,"max":219,"target":"present","response":"present","rt":802,"correct":true,"confidence":5},{"trial_n":34,"min":36,"max":219,"target":"present","response":"present","rt":971.69999998808,"correct":true,"confidence":5},{"trial_n":35,"min":38,"max":217,"target":"present","response":"present","rt":1101,"correct":true,"confidence":5},{"trial_n":36,"min":38,"max":217,"target":"present","response":"present","rt":1055.6999999881,"correct":true,"confidence":5},{"trial_n":37,"min":40,"max":215,"target":"absent","response":"absent","rt":1182.1000000238,"correct":true,"confidence":5},{"trial_n":38,"min":40,"max":215,"target":"absent","response":"absent","rt":1675.8999999762,"correct":true,"confidence":5},{"trial_n":39,"min":42,"max":213,"target":"present","response":"present","rt":901,"correct":true,"confidence":5},{"trial_n":40,"min":42,"max":213,"target":"present","response":"present","rt":859.30000001192,"correct":true,"confidence":5},{"trial_n":41,"min":43,"max":212,"target":"present","response":"present","rt":895.39999997616,"correct":true,"confidence":5},{"trial_n":42,"min":43,"max":212,"target":"present","response":"present","rt":821.19999998808,"correct":true,"confidence":5},{"trial_n":43,"min":44,"max":211,"target":"present","response":"present","rt":941.19999998808,"correct":true,"confidence":5},{"trial_n":44,"min":44,"max":211,"target":"present","response":"present","rt":1148.3999999762,"correct":true,"confidence":5},{"trial_n":45,"min":45,"max":210,"target":"absent","response":"absent","rt":1086.8000000119,"correct":true,"confidence":5},{"trial_n":46,"min":45,"max":210,"target":"present","response":"present","rt":759.30000001192,"correct":true,"confidence":5},{"trial_n":47,"min":46,"max":209,"target":"absent","response":"absent","rt":1109.5,"correct":true,"confidence":5},{"trial_n":48,"min":46,"max":209,"target":"present","response":"present","rt":2501.3000000119,"correct":true,"confidence":5},{"trial_n":49,"min":47,"max":208,"target":"absent","response":"absent","rt":5061.8000000119,"correct":true,"confidence":3},{"trial_n":50,"min":47,"max":208,"target":"absent","response":"absent","rt":1133.1999999881,"correct":true,"confidence":5},{"trial_n":51,"min":48,"max":207,"target":"absent","response":"absent","rt":1170.6000000238,"correct":true,"confidence":5},{"trial_n":52,"min":48,"max":207,"target":"absent","response":"absent","rt":803.79999995232,"correct":true,"confidence":5},{"trial_n":53,"min":49,"max":206,"target":"present","response":"absent","rt":1362.3000000119,"correct":false,"confidence":5},{"trial_n":54,"min":48,"max":207,"target":"present","response":"present","rt":1115.3999999762,"correct":true,"confidence":5},{"trial_n":55,"min":48,"max":207,"target":"absent","response":"absent","rt":1103.3000000119,"correct":true,"confidence":5},{"trial_n":56,"min":49,"max":206,"target":"present","response":"present","rt":878.60000002384,"correct":true,"confidence":5},{"trial_n":57,"min":49,"max":206,"target":"absent","response":"absent","rt":1524.1000000238,"correct":true,"confidence":5},{"trial_n":58,"min":50,"max":205,"target":"present","response":"present","rt":890.80000001192,"correct":true,"confidence":5},{"trial_n":59,"min":50,"max":205,"target":"present","response":"present","rt":942.5,"correct":true,"confidence":5},{"trial_n":60,"min":51,"max":204,"target":"absent","response":"absent","rt":1011,"correct":true,"confidence":1},{"trial_n":61,"min":51,"max":204,"target":"present","response":"present","rt":1245.5999999642,"correct":true,"confidence":5},{"trial_n":62,"min":52,"max":203,"target":"present","response":"present","rt":888.30000001192,"correct":true,"confidence":5},{"trial_n":63,"min":52,"max":203,"target":"present","response":"present","rt":1904.5,"correct":true,"confidence":5},{"trial_n":64,"min":53,"max":202,"target":"absent","response":"absent","rt":976.29999995232,"correct":true,"confidence":5},{"trial_n":65,"min":53,"max":202,"target":"present","response":"present","rt":1343.4000000358,"correct":true,"confidence":5},{"trial_n":66,"min":54,"max":201,"target":"present","response":"present","rt":895.90000003576,"correct":true,"confidence":5},{"trial_n":67,"min":54,"max":201,"target":"absent","response":"absent","rt":1000.8000000119,"correct":true,"confidence":5},{"trial_n":68,"min":55,"max":200,"target":"absent","response":"absent","rt":2373.3000000119,"correct":true,"confidence":5},{"trial_n":69,"min":55,"max":200,"target":"present","response":"present","rt":894.29999995232,"correct":true,"confidence":5},{"trial_n":70,"min":56,"max":199,"target":"present","response":"present","rt":2703.8000000119,"correct":true,"confidence":5},{"trial_n":71,"min":41,"max":214,"target":"present","response":"absent","rt":4308.8999999762,"correct":false,"confidence":-1},{"trial_n":72,"min":41,"max":214,"target":"present","response":"absent","rt":1115.8000000119,"correct":false,"confidence":-1},{"trial_n":73,"min":25,"max":230,"target":"absent","response":"absent","rt":3231.6999999881,"correct":true,"confidence":-1},{"trial_n":74,"min":25,"max":230,"target":"absent","response":"absent","rt":886.09999996424,"correct":true,"confidence":-1},{"trial_n":75,"min":41,"max":214,"target":"present","response":"absent","rt":930.89999997616,"correct":false,"confidence":-1},{"trial_n":76,"min":25,"max":230,"target":"present","response":"present","rt":1899.6999999881,"correct":true,"confidence":-1},{"trial_n":77,"min":25,"max":230,"target":"present","response":"present","rt":978.69999998808,"correct":true,"confidence":-1},{"trial_n":78,"min":41,"max":214,"target":"present","response":"absent","rt":1598.6000000238,"correct":false,"confidence":-1},{"trial_n":79,"min":25,"max":230,"target":"absent","response":"absent","rt":2196.1000000238,"correct":true,"confidence":-1},{"trial_n":80,"min":25,"max":230,"target":"present","response":"present","rt":2390.1999999881,"correct":true,"confidence":-1},{"trial_n":81,"min":33,"max":222,"target":"present","response":"present","rt":1719.9000000358,"correct":true,"confidence":-1},{"trial_n":82,"min":33,"max":222,"target":"absent","response":"absent","rt":1476.6999999881,"correct":true,"confidence":-1},{"trial_n":83,"min":41,"max":214,"target":"absent","response":"present","rt":1854,"correct":false,"confidence":-1},{"trial_n":84,"min":33,"max":222,"target":"present","response":"present","rt":2139,"correct":true,"confidence":-1},{"trial_n":85,"min":33,"max":222,"target":"present","response":"present","rt":1053.5,"correct":true,"confidence":-1},{"trial_n":86,"min":41,"max":214,"target":"present","response":"present","rt":1101.1000000238,"correct":true,"confidence":-1},{"trial_n":87,"min":41,"max":214,"target":"absent","response":"absent","rt":1616.8000000119,"correct":true,"confidence":-1},{"trial_n":88,"min":49,"max":206,"target":"absent","response":"absent","rt":978.30000001192,"correct":true,"confidence":-1},{"trial_n":89,"min":49,"max":206,"target":"present","response":"present","rt":1493.3000000119,"correct":true,"confidence":-1},{"trial_n":90,"min":57,"max":198,"target":"absent","response":"absent","rt":1325.0999999642,"correct":true,"confidence":-1},{"trial_n":91,"min":57,"max":198,"target":"absent","response":"absent","rt":1655.8999999762,"correct":true,"confidence":5},{"trial_n":92,"min":61,"max":194,"target":"absent","response":"absent","rt":1476.6999999881,"correct":true,"confidence":5},{"trial_n":93,"min":61,"max":194,"target":"absent","response":"absent","rt":1009.8000000119,"correct":true,"confidence":5},{"trial_n":94,"min":65,"max":190,"target":"absent","response":"absent","rt":1858.1999999881,"correct":true,"confidence":5},{"trial_n":95,"min":65,"max":190,"target":"present","response":"present","rt":953.39999997616,"correct":true,"confidence":5},{"trial_n":96,"min":69,"max":186,"target":"present","response":"present","rt":793.5,"correct":true,"confidence":5},{"trial_n":97,"min":69,"max":186,"target":"present","response":"present","rt":927.19999998808,"correct":true,"confidence":5},{"trial_n":98,"min":73,"max":182,"target":"present","response":"present","rt":1760.0999999642,"correct":true,"confidence":5},{"trial_n":99,"min":73,"max":182,"target":"present","response":"present","rt":1331.4000000358,"correct":true,"confidence":5},{"trial_n":100,"min":77,"max":178,"target":"absent","response":"present","rt":1337.3000000119,"correct":false,"confidence":5},{"trial_n":101,"min":75,"max":180,"target":"present","response":"present","rt":1150.3000000119,"correct":true,"confidence":5},{"trial_n":102,"min":75,"max":180,"target":"absent","response":"present","rt":1165.3000000119,"correct":false,"confidence":5},{"trial_n":103,"min":73,"max":182,"target":"absent","response":"absent","rt":1434.3999999762,"correct":true,"confidence":4},{"trial_n":104,"min":73,"max":182,"target":"absent","response":"absent","rt":1075.6000000238,"correct":true,"confidence":4},{"trial_n":105,"min":75,"max":180,"target":"absent","response":"absent","rt":1134.0999999642,"correct":true,"confidence":4},{"trial_n":106,"min":75,"max":180,"target":"present","response":"present","rt":1296,"correct":true,"confidence":5},{"trial_n":107,"min":77,"max":178,"target":"present","response":"present","rt":1073.2999999523,"correct":true,"confidence":5},{"trial_n":108,"min":77,"max":178,"target":"absent","response":"absent","rt":1612.6999999881,"correct":true,"confidence":5},{"trial_n":109,"min":79,"max":176,"target":"present","response":"absent","rt":1674.1000000238,"correct":false,"confidence":5},{"trial_n":110,"min":77,"max":178,"target":"present","response":"present","rt":1198.8999999762,"correct":true,"confidence":5},{"trial_n":111,"min":77,"max":178,"target":"present","response":"present","rt":1056.0999999642,"correct":true,"confidence":5},{"trial_n":112,"min":78,"max":177,"target":"present","response":"present","rt":2036.1000000238,"correct":true,"confidence":4},{"trial_n":113,"min":78,"max":177,"target":"present","response":"present","rt":1173.8000000119,"correct":true,"confidence":5},{"trial_n":114,"min":79,"max":176,"target":"present","response":"present","rt":943.69999998808,"correct":true,"confidence":5},{"trial_n":115,"min":79,"max":176,"target":"present","response":"present","rt":854.30000001192,"correct":true,"confidence":5},{"trial_n":116,"min":80,"max":175,"target":"present","response":"present","rt":1060.6999999881,"correct":true,"confidence":1},{"trial_n":117,"min":80,"max":175,"target":"present","response":"present","rt":1559.1999999881,"correct":true,"confidence":5},{"trial_n":118,"min":81,"max":174,"target":"absent","response":"absent","rt":1317.4000000358,"correct":true,"confidence":5},{"trial_n":119,"min":81,"max":174,"target":"absent","response":"absent","rt":1112.1999999881,"correct":true,"confidence":5},{"trial_n":120,"min":82,"max":173,"target":"present","response":"present","rt":1377.9000000358,"correct":true,"confidence":5},{"trial_n":121,"min":82,"max":173,"target":"absent","response":"present","rt":1791.6000000238,"correct":false,"confidence":4},{"trial_n":122,"min":81,"max":174,"target":"absent","response":"absent","rt":1175.4000000358,"correct":true,"confidence":4},{"trial_n":123,"min":81,"max":174,"target":"absent","response":"present","rt":1032.5,"correct":false,"confidence":4},{"trial_n":124,"min":80,"max":175,"target":"absent","response":"absent","rt":2997.1999999881,"correct":true,"confidence":4},{"trial_n":125,"min":80,"max":175,"target":"absent","response":"absent","rt":1484.1999999881,"correct":true,"confidence":4},{"trial_n":126,"min":81,"max":174,"target":"absent","response":"absent","rt":1063.5,"correct":true,"confidence":4},{"trial_n":127,"min":81,"max":174,"target":"absent","response":"present","rt":1467.8000000119,"correct":false,"confidence":4},{"trial_n":128,"min":80,"max":175,"target":"present","response":"absent","rt":1630.5,"correct":false,"confidence":4},{"trial_n":129,"min":79,"max":176,"target":"absent","response":"absent","rt":1176.5999999642,"correct":true,"confidence":4},{"trial_n":130,"min":79,"max":176,"target":"absent","response":"absent","rt":1394.8000000119,"correct":true,"confidence":5},{"trial_n":131,"min":80,"max":175,"target":"absent","response":"absent","rt":1096,"correct":true,"confidence":5},{"trial_n":132,"min":80,"max":175,"target":"present","response":"present","rt":906.89999997616,"correct":true,"confidence":5},{"trial_n":133,"min":81,"max":174,"target":"absent","response":"absent","rt":1370.8000000119,"correct":true,"confidence":5},{"trial_n":134,"min":81,"max":174,"target":"present","response":"absent","rt":1247.4000000358,"correct":false,"confidence":3},{"trial_n":135,"min":80,"max":175,"target":"absent","response":"absent","rt":1285.4000000358,"correct":true,"confidence":5},{"trial_n":136,"min":80,"max":175,"target":"present","response":"present","rt":1022,"correct":true,"confidence":5},{"trial_n":137,"min":81,"max":174,"target":"present","response":"present","rt":2703.1000000238,"correct":true,"confidence":5},{"trial_n":138,"min":81,"max":174,"target":"present","response":"present","rt":1185.4000000358,"correct":true,"confidence":5},{"trial_n":139,"min":82,"max":173,"target":"absent","response":"absent","rt":1225.1999999881,"correct":true,"confidence":5},{"trial_n":140,"min":82,"max":173,"target":"absent","response":"present","rt":1059.5,"correct":false,"confidence":5}]