[{"trial_n":1,"span":8,"encoder":"47770817","distractor":"47770810","target":"present","response":"absent","rt":"5403.2999999821","correct":false,"confidence":-1},{"trial_n":2,"span":6,"encoder":"748041","distractor":"743041","target":"present","response":"present","rt":"3503.099999994","correct":true,"confidence":-1},{"trial_n":3,"span":6,"encoder":"276688","distractor":"246688","target":"absent","response":"present","rt":"1400.099999994","correct":false,"confidence":-1},{"trial_n":4,"span":4,"encoder":"7844","distractor":"7144","target":"absent","response":"present","rt":"1886.599999994","correct":false,"confidence":-1},{"trial_n":5,"span":2,"encoder":"91","distractor":"61","target":"present","response":"present","rt":"1053.7000000179","correct":true,"confidence":-1},{"trial_n":6,"span":2,"encoder":"27","distractor":"26","target":"present","response":"present","rt":"838.09999999404","correct":true,"confidence":-1},{"trial_n":7,"span":4,"encoder":"8096","distractor":"8996","target":"absent","response":"present","rt":"1426.900000006","correct":false,"confidence":-1},{"trial_n":8,"span":2,"encoder":"69","distractor":"99","target":"absent","response":"absent","rt":"1702.6999999881","correct":true,"confidence":-1},{"trial_n":9,"span":2,"encoder":"69","distractor":"79","target":"present","response":"present","rt":"1402.099999994","correct":true,"confidence":-1},{"trial_n":10,"span":4,"encoder":"9805","distractor":"9705","target":"absent","response":"absent","rt":"1772","correct":true,"confidence":-1},{"trial_n":11,"span":4,"encoder":"7074","distractor":"7034","target":"absent","response":"absent","rt":"1718.5","correct":true,"confidence":-1},{"trial_n":12,"span":5,"encoder":"57603","distractor":"77603","target":"present","response":"present","rt":"1719.5","correct":true,"confidence":-1},{"trial_n":13,"span":5,"encoder":"64446","distractor":"64456","target":"present","response":"present","rt":"1286.1999999881","correct":true,"confidence":-1},{"trial_n":14,"span":6,"encoder":"123822","distractor":"120822","target":"absent","response":"absent","rt":"2681.099999994","correct":true,"confidence":-1},{"trial_n":15,"span":6,"encoder":"920017","distractor":"720017","target":"present","response":"present","rt":"1997.1999999881","correct":true,"confidence":-1},{"trial_n":16,"span":7,"encoder":"1038214","distractor":"7038214","target":"absent","response":"absent","rt":"2214.400000006","correct":true,"confidence":-1},{"trial_n":17,"span":7,"encoder":"6030047","distractor":"3030047","target":"present","response":"present","rt":"3014.1999999881","correct":true,"confidence":-1},{"trial_n":18,"span":8,"encoder":"51634241","distractor":"51637241","target":"absent","response":"present","rt":"2013","correct":false,"confidence":-1},{"trial_n":19,"span":7,"encoder":"1916483","distractor":"1916583","target":"absent","response":"present","rt":"1944.3000000119","correct":false,"confidence":-1},{"trial_n":20,"span":6,"encoder":"171608","distractor":"071608","target":"absent","response":"present","rt":"1824.8000000119","correct":false,"confidence":-1},{"trial_n":21,"span":5,"encoder":"73330","distractor":"93330","target":"present","response":"present","rt":"913.79999998212","correct":true,"confidence":4},{"trial_n":22,"span":5,"encoder":"78092","distractor":"78032","target":"absent","response":"absent","rt":"2342.2999999821","correct":true,"confidence":5},{"trial_n":23,"span":6,"encoder":"608305","distractor":"608395","target":"present","response":"present","rt":"3573","correct":true,"confidence":3},{"trial_n":24,"span":6,"encoder":"334632","distractor":"434632","target":"absent","response":"absent","rt":"2225.5","correct":true,"confidence":5},{"trial_n":25,"span":7,"encoder":"2757386","distractor":"2758386","target":"absent","response":"absent","rt":"3600","correct":true,"confidence":4},{"trial_n":26,"span":7,"encoder":"3228659","distractor":"3218659","target":"present","response":"present","rt":"2624.5","correct":true,"confidence":4},{"trial_n":27,"span":8,"encoder":"89692219","distractor":"89698219","target":"absent","response":"absent","rt":"3447.599999994","correct":true,"confidence":5},{"trial_n":28,"span":8,"encoder":"27057214","distractor":"27057219","target":"absent","response":"absent","rt":"2955.7000000179","correct":true,"confidence":5},{"trial_n":29,"span":9,"encoder":"656013304","distractor":"656013604","target":"absent","response":"absent","rt":"3422.2999999821","correct":true,"confidence":4},{"trial_n":30,"span":9,"encoder":"654149296","distractor":"654149696","target":"present","response":"present","rt":"10686.400000006","correct":true,"confidence":3},{"trial_n":31,"span":10,"encoder":"1490084921","distractor":"1497084921","target":"absent","response":"present","rt":"8728.099999994","correct":false,"confidence":2},{"trial_n":32,"span":9,"encoder":"902522960","distractor":"902522980","target":"present","response":"absent","rt":"6436.7999999821","correct":false,"confidence":3},{"trial_n":33,"span":8,"encoder":"62964110","distractor":"52964110","target":"present","response":"present","rt":"3875.7999999821","correct":true,"confidence":3},{"trial_n":34,"span":8,"encoder":"83346698","distractor":"83396698","target":"absent","response":"absent","rt":"3090.599999994","correct":true,"confidence":4},{"trial_n":35,"span":9,"encoder":"717821366","distractor":"717821361","target":"absent","response":"absent","rt":"1719","correct":true,"confidence":5},{"trial_n":36,"span":9,"encoder":"927058008","distractor":"927059008","target":"present","response":"present","rt":"2810","correct":true,"confidence":3},{"trial_n":37,"span":10,"encoder":"5713085338","distractor":"5713085358","target":"absent","response":"absent","rt":"1675.400000006","correct":true,"confidence":5},{"trial_n":38,"span":10,"encoder":"1948828764","distractor":"1942828764","target":"present","response":"present","rt":"4404","correct":true,"confidence":3},{"trial_n":39,"span":11,"encoder":"12547968833","distractor":"12547968233","target":"present","response":"absent","rt":"4478.099999994","correct":false,"confidence":2},{"trial_n":40,"span":10,"encoder":"7179879781","distractor":"7379879781","target":"present","response":"present","rt":"633123.10000002","correct":true,"confidence":1},{"trial_n":41,"span":10,"encoder":"9235224908","distractor":"9235224918","target":"present","response":"absent","rt":"9003.7000000179","correct":false,"confidence":3},{"trial_n":42,"span":9,"encoder":"214971593","distractor":"211971593","target":"absent","response":"absent","rt":"2852.099999994","correct":true,"confidence":4},{"trial_n":43,"span":9,"encoder":"362152693","distractor":"362152603","target":"present","response":"present","rt":"4027.8000000119","correct":true,"confidence":3},{"trial_n":44,"span":10,"encoder":"0604622696","distractor":"0604642696","target":"present","response":"present","rt":"3060.5","correct":true,"confidence":4},{"trial_n":45,"span":10,"encoder":"3218397208","distractor":"3218197208","target":"present","response":"present","rt":"3366.7000000179","correct":true,"confidence":3},{"trial_n":46,"span":11,"encoder":"23307631282","distractor":"23307631262","target":"present","response":"present","rt":"6463.3999999762","correct":true,"confidence":3},{"trial_n":47,"span":11,"encoder":"73786654812","distractor":"75786654812","target":"present","response":"present","rt":"4377.5","correct":true,"confidence":4},{"trial_n":48,"span":12,"encoder":"926557734864","distractor":"976557734864","target":"absent","response":"present","rt":"6413.900000006","correct":false,"confidence":3},{"trial_n":49,"span":11,"encoder":"50854330771","distractor":"50854339771","target":"present","response":"present","rt":"4171.599999994","correct":true,"confidence":4},{"trial_n":50,"span":11,"encoder":"89392559221","distractor":"89372559221","target":"absent","response":"present","rt":"4724.6999999881","correct":false,"confidence":2},{"trial_n":51,"span":10,"encoder":"2030609933","distractor":"2030609333","target":"present","response":"present","rt":"3711.3999999762","correct":true,"confidence":4},{"trial_n":52,"span":10,"encoder":"4403968457","distractor":"4423968457","target":"absent","response":"absent","rt":"2538.3000000119","correct":true,"confidence":3},{"trial_n":53,"span":11,"encoder":"26913417297","distractor":"26213417297","target":"present","response":"absent","rt":"9465.400000006","correct":false,"confidence":3},{"trial_n":54,"span":10,"encoder":"2950731718","distractor":"2950731728","target":"present","response":"absent","rt":"5437.099999994","correct":false,"confidence":2},{"trial_n":55,"span":9,"encoder":"107504433","distractor":"107506433","target":"absent","response":"present","rt":"13171.200000018","correct":false,"confidence":3},{"trial_n":56,"span":8,"encoder":"26495197","distractor":"26095197","target":"present","response":"absent","rt":"4742.3999999762","correct":false,"confidence":2},{"trial_n":57,"span":7,"encoder":"2094038","distractor":"2094048","target":"absent","response":"absent","rt":"4894.3000000119","correct":true,"confidence":1},{"trial_n":58,"span":7,"encoder":"3109912","distractor":"3109412","target":"present","response":"present","rt":"2843.7999999821","correct":true,"confidence":4},{"trial_n":59,"span":8,"encoder":"75478990","distractor":"75478190","target":"present","response":"absent","rt":"7665.5","correct":false,"confidence":3},{"trial_n":60,"span":7,"encoder":"3984787","distractor":"3684787","target":"absent","response":"absent","rt":"3796.8000000119","correct":true,"confidence":4},{"trial_n":61,"span":7,"encoder":"5554688","distractor":"5564688","target":"absent","response":"absent","rt":"2195.7999999821","correct":true,"confidence":5},{"trial_n":62,"span":8,"encoder":"68907990","distractor":"65907990","target":"present","response":"present","rt":"4050.7000000179","correct":true,"confidence":3},{"trial_n":63,"span":8,"encoder":"29322377","distractor":"29322373","target":"absent","response":"absent","rt":"2068.6999999881","correct":true,"confidence":5},{"trial_n":64,"span":9,"encoder":"034911472","distractor":"054911472","target":"absent","response":"absent","rt":"4678","correct":true,"confidence":4},{"trial_n":65,"span":9,"encoder":"961176707","distractor":"961170707","target":"absent","response":"present","rt":"2753.3000000119","correct":false,"confidence":4},{"trial_n":66,"span":8,"encoder":"27253891","distractor":"25253891","target":"absent","response":"absent","rt":"1936.1999999881","correct":true,"confidence":5},{"trial_n":67,"span":8,"encoder":"28508251","distractor":"28508451","target":"present","response":"present","rt":"4171.599999994","correct":true,"confidence":3},{"trial_n":68,"span":9,"encoder":"606450000","distractor":"606450005","target":"present","response":"absent","rt":"8909.900000006","correct":false,"confidence":3},{"trial_n":69,"span":8,"encoder":"48681517","distractor":"48681317","target":"present","response":"present","rt":"7532.7000000179","correct":true,"confidence":3},{"trial_n":70,"span":8,"encoder":"42199538","distractor":"42191538","target":"absent","response":"absent","rt":"2294.2999999821","correct":true,"confidence":5},{"trial_n":71,"span":8,"encoder":"18716436","distractor":"18766436","target":"present","response":"present","rt":"6146.5","correct":true,"confidence":-1},{"trial_n":72,"span":8,"encoder":"57754834","distractor":"57754864","target":"present","response":"present","rt":"4521.1999999881","correct":true,"confidence":-1},{"trial_n":73,"span":9,"encoder":"503514419","distractor":"501514419","target":"absent","response":"absent","rt":"3288.599999994","correct":true,"confidence":-1},{"trial_n":74,"span":9,"encoder":"991224145","distractor":"991824145","target":"absent","response":"absent","rt":"2041.7000000179","correct":true,"confidence":-1},{"trial_n":75,"span":10,"encoder":"2141711579","distractor":"2141718579","target":"present","response":"absent","rt":"2570.5","correct":false,"confidence":-1},{"trial_n":76,"span":9,"encoder":"877626517","distractor":"877636517","target":"absent","response":"present","rt":"1223.599999994","correct":false,"confidence":-1},{"trial_n":77,"span":8,"encoder":"39864827","distractor":"39861827","target":"absent","response":"present","rt":"2124.900000006","correct":false,"confidence":-1},{"trial_n":78,"span":7,"encoder":"3311081","distractor":"3351081","target":"absent","response":"present","rt":"935.79999998212","correct":false,"confidence":-1},{"trial_n":79,"span":6,"encoder":"300714","distractor":"300014","target":"present","response":"present","rt":"1348","correct":true,"confidence":-1},{"trial_n":80,"span":6,"encoder":"105438","distractor":"105238","target":"absent","response":"absent","rt":"1813.400000006","correct":true,"confidence":-1},{"trial_n":81,"span":7,"encoder":"0978414","distractor":"0978413","target":"present","response":"absent","rt":"1590.7999999821","correct":false,"confidence":-1},{"trial_n":82,"span":6,"encoder":"397000","distractor":"697000","target":"present","response":"present","rt":"2342.900000006","correct":true,"confidence":-1},{"trial_n":83,"span":6,"encoder":"896294","distractor":"899294","target":"present","response":"present","rt":"2250.5","correct":true,"confidence":-1},{"trial_n":84,"span":7,"encoder":"5408356","distractor":"5408350","target":"absent","response":"present","rt":"669.90000000596","correct":false,"confidence":-1},{"trial_n":85,"span":6,"encoder":"786298","distractor":"786295","target":"absent","response":"present","rt":"1227.5","correct":false,"confidence":-1},{"trial_n":86,"span":5,"encoder":"21023","distractor":"24023","target":"absent","response":"absent","rt":"2053.6999999881","correct":true,"confidence":-1},{"trial_n":87,"span":5,"encoder":"26378","distractor":"26377","target":"present","response":"present","rt":"3963.5","correct":true,"confidence":-1},{"trial_n":88,"span":6,"encoder":"302159","distractor":"302150","target":"present","response":"present","rt":"3284","correct":true,"confidence":-1},{"trial_n":89,"span":6,"encoder":"644058","distractor":"544058","target":"present","response":"present","rt":"1659.8000000119","correct":true,"confidence":-1},{"trial_n":90,"span":7,"encoder":"5972498","distractor":"5979498","target":"absent","response":"absent","rt":"3072.099999994","correct":true,"confidence":-1},{"trial_n":91,"span":7,"encoder":"2377347","distractor":"2077347","target":"present","response":"present","rt":"2569.900000006","correct":true,"confidence":4},{"trial_n":92,"span":8,"encoder":"08106766","distractor":"08106768","target":"absent","response":"absent","rt":"1601.5","correct":true,"confidence":5},{"trial_n":93,"span":8,"encoder":"77500179","distractor":"77501179","target":"absent","response":"absent","rt":"2033.599999994","correct":true,"confidence":5},{"trial_n":94,"span":9,"encoder":"621896964","distractor":"621856964","target":"present","response":"absent","rt":"8911","correct":false,"confidence":2},{"trial_n":95,"span":8,"encoder":"72023819","distractor":"72027819","target":"present","response":"present","rt":"2852.599999994","correct":true,"confidence":5},{"trial_n":96,"span":8,"encoder":"57016820","distractor":"57516820","target":"present","response":"present","rt":"2916.8000000119","correct":true,"confidence":5},{"trial_n":97,"span":9,"encoder":"546196374","distractor":"246196374","target":"present","response":"present","rt":"2194.8999999762","correct":true,"confidence":5},{"trial_n":98,"span":9,"encoder":"557896778","distractor":"557996778","target":"present","response":"present","rt":"6520.5","correct":true,"confidence":3},{"trial_n":99,"span":10,"encoder":"9311999854","distractor":"9311999834","target":"absent","response":"absent","rt":"6566.5","correct":true,"confidence":2},{"trial_n":100,"span":10,"encoder":"2339912724","distractor":"4339912724","target":"present","response":"present","rt":"2390.400000006","correct":true,"confidence":5},{"trial_n":101,"span":11,"encoder":"19657339441","distractor":"19657339421","target":"present","response":"present","rt":"4102.599999994","correct":true,"confidence":4},{"trial_n":102,"span":11,"encoder":"64152361537","distractor":"64452361537","target":"absent","response":"absent","rt":"4077.900000006","correct":true,"confidence":3},{"trial_n":103,"span":12,"encoder":"203871431766","distractor":"203872431766","target":"absent","response":"absent","rt":"5616.099999994","correct":true,"confidence":4},{"trial_n":104,"span":12,"encoder":"851443741410","distractor":"851443711410","target":"present","response":"present","rt":"5010","correct":true,"confidence":4},{"trial_n":105,"span":13,"encoder":"1239724428239","distractor":"1239724428235","target":"absent","response":"absent","rt":"7083.6999999881","correct":true,"confidence":4},{"trial_n":106,"span":13,"encoder":"4399257717967","distractor":"4399257717960","target":"absent","response":"present","rt":"1498.599999994","correct":false,"confidence":2},{"trial_n":107,"span":12,"encoder":"604458423317","distractor":"604458423397","target":"present","response":"present","rt":"3965.099999994","correct":true,"confidence":3},{"trial_n":108,"span":12,"encoder":"496960587232","distractor":"496960597232","target":"present","response":"absent","rt":"10217.400000006","correct":false,"confidence":1},{"trial_n":109,"span":11,"encoder":"73142855803","distractor":"73042855803","target":"absent","response":"absent","rt":"3639.3000000119","correct":true,"confidence":3},{"trial_n":110,"span":11,"encoder":"80423087679","distractor":"80923087679","target":"present","response":"present","rt":"2225.599999994","correct":true,"confidence":4},{"trial_n":111,"span":12,"encoder":"730059658931","distractor":"733059658931","target":"absent","response":"absent","rt":"6385.900000006","correct":true,"confidence":3},{"trial_n":112,"span":12,"encoder":"509651079274","distractor":"509651079278","target":"absent","response":"absent","rt":"1765.7000000179","correct":true,"confidence":5},{"trial_n":113,"span":13,"encoder":"7336760047232","distractor":"7336760067232","target":"present","response":"absent","rt":"5316.2999999821","correct":false,"confidence":1},{"trial_n":114,"span":12,"encoder":"563418279158","distractor":"563418879158","target":"present","response":"present","rt":"5406.599999994","correct":true,"confidence":1},{"trial_n":115,"span":12,"encoder":"019214393917","distractor":"019214393918","target":"absent","response":"absent","rt":"1582.7999999821","correct":true,"confidence":5},{"trial_n":116,"span":13,"encoder":"4808491927564","distractor":"4808491929564","target":"absent","response":"absent","rt":"4131","correct":true,"confidence":5},{"trial_n":117,"span":13,"encoder":"7820269324698","distractor":"7820269324690","target":"absent","response":"absent","rt":"1928.7000000179","correct":true,"confidence":5},{"trial_n":118,"span":14,"encoder":"88880785305663","distractor":"88880185305663","target":"present","response":"absent","rt":"5911.5","correct":false,"confidence":1},{"trial_n":119,"span":13,"encoder":"5650883070596","distractor":"5650873070596","target":"present","response":"present","rt":"5400","correct":true,"confidence":3},{"trial_n":120,"span":13,"encoder":"5398403302326","distractor":"5398403322326","target":"absent","response":"present","rt":"5348.099999994","correct":false,"confidence":1},{"trial_n":121,"span":12,"encoder":"673385347265","distractor":"273385347265","target":"absent","response":"absent","rt":"2965.1999999881","correct":true,"confidence":4},{"trial_n":122,"span":12,"encoder":"952224711048","distractor":"952224711848","target":"present","response":"absent","rt":"5276.7000000179","correct":false,"confidence":3},{"trial_n":123,"span":11,"encoder":"08592835755","distractor":"88592835755","target":"present","response":"absent","rt":"5447.599999994","correct":false,"confidence":2},{"trial_n":124,"span":10,"encoder":"4211881573","distractor":"4217881573","target":"absent","response":"present","rt":"2372.5","correct":false,"confidence":1},{"trial_n":125,"span":9,"encoder":"590336000","distractor":"590336100","target":"present","response":"present","rt":"2193.099999994","correct":true,"confidence":4},{"trial_n":126,"span":9,"encoder":"623617605","distractor":"623647605","target":"present","response":"absent","rt":"3671.3000000119","correct":false,"confidence":3},{"trial_n":127,"span":8,"encoder":"29508959","distractor":"99508959","target":"absent","response":"absent","rt":"2821.1000000238","correct":true,"confidence":4},{"trial_n":128,"span":8,"encoder":"02980212","distractor":"06980212","target":"absent","response":"present","rt":"3142","correct":false,"confidence":2},{"trial_n":129,"span":7,"encoder":"6599308","distractor":"6579308","target":"present","response":"present","rt":"3428.5","correct":true,"confidence":4},{"trial_n":130,"span":7,"encoder":"4311961","distractor":"4311261","target":"present","response":"present","rt":"3819.400000006","correct":true,"confidence":4},{"trial_n":131,"span":8,"encoder":"15186516","distractor":"15116516","target":"present","response":"present","rt":"3481.1999999881","correct":true,"confidence":4},{"trial_n":132,"span":8,"encoder":"86655326","distractor":"86652326","target":"absent","response":"absent","rt":"2840.099999994","correct":true,"confidence":4},{"trial_n":133,"span":9,"encoder":"681602171","distractor":"181602171","target":"absent","response":"absent","rt":"2752","correct":true,"confidence":4},{"trial_n":134,"span":9,"encoder":"882056529","distractor":"886056529","target":"present","response":"absent","rt":"2490.6999999881","correct":false,"confidence":3},{"trial_n":135,"span":8,"encoder":"86996524","distractor":"86996544","target":"absent","response":"absent","rt":"3268.5","correct":true,"confidence":5},{"trial_n":136,"span":8,"encoder":"57966158","distractor":"57366158","target":"absent","response":"absent","rt":"3509.599999994","correct":true,"confidence":4},{"trial_n":137,"span":9,"encoder":"749691444","distractor":"769691444","target":"absent","response":"present","rt":"6097.2999999821","correct":false,"confidence":4},{"trial_n":138,"span":8,"encoder":"13631545","distractor":"13634545","target":"present","response":"present","rt":"2679.2999999821","correct":true,"confidence":2},{"trial_n":139,"span":8,"encoder":"04960519","distractor":"04961519","target":"present","response":"present","rt":"6197.099999994","correct":true,"confidence":1},{"trial_n":140,"span":9,"encoder":"874766457","distractor":"874766357","target":"absent","response":"present","rt":"3017.7999999821","correct":false,"confidence":1}]