[{"trial_n":1,"min":25,"max":230,"target":"present","response":"absent","rt":11151.199999988,"correct":false,"confidence":-1},{"trial_n":2,"min":25,"max":230,"target":"present","response":"absent","rt":9057.7000000179,"correct":false,"confidence":-1},{"trial_n":3,"min":9,"max":246,"target":"absent","response":"absent","rt":2812.400000006,"correct":true,"confidence":-1},{"trial_n":4,"min":9,"max":246,"target":"absent","response":"absent","rt":3135.599999994,"correct":true,"confidence":-1},{"trial_n":5,"min":25,"max":230,"target":"present","response":"present","rt":1288.900000006,"correct":true,"confidence":-1},{"trial_n":6,"min":25,"max":230,"target":"absent","response":"absent","rt":2233.7999999821,"correct":true,"confidence":-1},{"trial_n":7,"min":41,"max":214,"target":"present","response":"present","rt":1106.2999999821,"correct":true,"confidence":-1},{"trial_n":8,"min":41,"max":214,"target":"present","response":"present","rt":2498.900000006,"correct":true,"confidence":-1},{"trial_n":9,"min":57,"max":198,"target":"present","response":"present","rt":1358.6999999881,"correct":true,"confidence":-1},{"trial_n":10,"min":57,"max":198,"target":"absent","response":"absent","rt":2035,"correct":true,"confidence":-1},{"trial_n":11,"min":65,"max":190,"target":"present","response":"absent","rt":2929.6999999881,"correct":false,"confidence":-1},{"trial_n":12,"min":57,"max":198,"target":"absent","response":"absent","rt":1144.3000000119,"correct":true,"confidence":-1},{"trial_n":13,"min":57,"max":198,"target":"present","response":"present","rt":784.40000000596,"correct":true,"confidence":-1},{"trial_n":14,"min":65,"max":190,"target":"absent","response":"present","rt":1344,"correct":false,"confidence":-1},{"trial_n":15,"min":57,"max":198,"target":"absent","response":"absent","rt":987.90000000596,"correct":true,"confidence":-1},{"trial_n":16,"min":57,"max":198,"target":"absent","response":"absent","rt":794.40000000596,"correct":true,"confidence":-1},{"trial_n":17,"min":65,"max":190,"target":"absent","response":"absent","rt":644.5,"correct":true,"confidence":-1},{"trial_n":18,"min":65,"max":190,"target":"absent","response":"absent","rt":536.70000001788,"correct":true,"confidence":-1},{"trial_n":19,"min":73,"max":182,"target":"absent","response":"absent","rt":585.09999999404,"correct":true,"confidence":-1},{"trial_n":20,"min":73,"max":182,"target":"absent","response":"absent","rt":483.39999997616,"correct":true,"confidence":-1},{"trial_n":21,"min":77,"max":178,"target":"present","response":"absent","rt":846.29999998212,"correct":false,"confidence":3},{"trial_n":22,"min":73,"max":182,"target":"absent","response":"present","rt":2014.7999999821,"correct":false,"confidence":3},{"trial_n":23,"min":69,"max":186,"target":"absent","response":"absent","rt":4179.6000000238,"correct":true,"confidence":4},{"trial_n":24,"min":69,"max":186,"target":"absent","response":"absent","rt":2091.5,"correct":true,"confidence":4},{"trial_n":25,"min":73,"max":182,"target":"present","response":"absent","rt":1385.400000006,"correct":false,"confidence":4},{"trial_n":26,"min":69,"max":186,"target":"absent","response":"absent","rt":1086.099999994,"correct":true,"confidence":4},{"trial_n":27,"min":69,"max":186,"target":"present","response":"absent","rt":1619.2999999821,"correct":false,"confidence":4},{"trial_n":28,"min":65,"max":190,"target":"absent","response":"absent","rt":951.10000002384,"correct":true,"confidence":4},{"trial_n":29,"min":65,"max":190,"target":"present","response":"present","rt":2480.3000000119,"correct":true,"confidence":5},{"trial_n":30,"min":69,"max":186,"target":"present","response":"present","rt":1530.900000006,"correct":true,"confidence":5},{"trial_n":31,"min":69,"max":186,"target":"present","response":"present","rt":1447.3000000119,"correct":true,"confidence":5},{"trial_n":32,"min":71,"max":184,"target":"absent","response":"absent","rt":999.09999999404,"correct":true,"confidence":4},{"trial_n":33,"min":71,"max":184,"target":"absent","response":"absent","rt":1003.6999999881,"correct":true,"confidence":4},{"trial_n":34,"min":73,"max":182,"target":"present","response":"present","rt":1062.8000000119,"correct":true,"confidence":5},{"trial_n":35,"min":73,"max":182,"target":"absent","response":"absent","rt":912.79999998212,"correct":true,"confidence":4},{"trial_n":36,"min":75,"max":180,"target":"present","response":"present","rt":1307.099999994,"correct":true,"confidence":5},{"trial_n":37,"min":75,"max":180,"target":"present","response":"present","rt":939.40000000596,"correct":true,"confidence":5},{"trial_n":38,"min":77,"max":178,"target":"absent","response":"absent","rt":1106,"correct":true,"confidence":3},{"trial_n":39,"min":77,"max":178,"target":"absent","response":"absent","rt":786.90000000596,"correct":true,"confidence":4},{"trial_n":40,"min":79,"max":176,"target":"absent","response":"absent","rt":756.09999999404,"correct":true,"confidence":5},{"trial_n":41,"min":79,"max":176,"target":"absent","response":"absent","rt":799.09999999404,"correct":true,"confidence":5},{"trial_n":42,"min":80,"max":175,"target":"absent","response":"absent","rt":761.5,"correct":true,"confidence":5},{"trial_n":43,"min":80,"max":175,"target":"absent","response":"absent","rt":1696.7000000179,"correct":true,"confidence":3},{"trial_n":44,"min":81,"max":174,"target":"absent","response":"absent","rt":968.29999998212,"correct":true,"confidence":4},{"trial_n":45,"min":81,"max":174,"target":"present","response":"absent","rt":989.30000001192,"correct":false,"confidence":4},{"trial_n":46,"min":80,"max":175,"target":"absent","response":"absent","rt":783.30000001192,"correct":true,"confidence":4},{"trial_n":47,"min":80,"max":175,"target":"present","response":"absent","rt":1565.099999994,"correct":false,"confidence":3},{"trial_n":48,"min":79,"max":176,"target":"absent","response":"absent","rt":1264.5,"correct":true,"confidence":4},{"trial_n":49,"min":79,"max":176,"target":"present","response":"present","rt":1383.5,"correct":true,"confidence":4},{"trial_n":50,"min":80,"max":175,"target":"present","response":"present","rt":3182.099999994,"correct":true,"confidence":2},{"trial_n":51,"min":80,"max":175,"target":"present","response":"present","rt":948.69999998808,"correct":true,"confidence":4},{"trial_n":52,"min":81,"max":174,"target":"present","response":"present","rt":1403.900000006,"correct":true,"confidence":2},{"trial_n":53,"min":81,"max":174,"target":"present","response":"absent","rt":1470.1999999881,"correct":false,"confidence":3},{"trial_n":54,"min":80,"max":175,"target":"present","response":"present","rt":1074.6999999881,"correct":true,"confidence":4},{"trial_n":55,"min":80,"max":175,"target":"absent","response":"absent","rt":2541.599999994,"correct":true,"confidence":3},{"trial_n":56,"min":81,"max":174,"target":"absent","response":"absent","rt":1360.599999994,"correct":true,"confidence":3},{"trial_n":57,"min":81,"max":174,"target":"absent","response":"absent","rt":2275.099999994,"correct":true,"confidence":3},{"trial_n":58,"min":82,"max":173,"target":"present","response":"present","rt":1069.5,"correct":true,"confidence":3},{"trial_n":59,"min":82,"max":173,"target":"present","response":"present","rt":951.5,"correct":true,"confidence":5},{"trial_n":60,"min":83,"max":172,"target":"present","response":"absent","rt":1408.900000006,"correct":false,"confidence":3},{"trial_n":61,"min":82,"max":173,"target":"present","response":"present","rt":4436.3000000119,"correct":true,"confidence":2},{"trial_n":62,"min":82,"max":173,"target":"present","response":"present","rt":1034.5,"correct":true,"confidence":4},{"trial_n":63,"min":83,"max":172,"target":"absent","response":"present","rt":1105.6000000238,"correct":false,"confidence":3},{"trial_n":64,"min":82,"max":173,"target":"present","response":"present","rt":1329.400000006,"correct":true,"confidence":4},{"trial_n":65,"min":82,"max":173,"target":"absent","response":"absent","rt":2083.099999994,"correct":true,"confidence":4},{"trial_n":66,"min":83,"max":172,"target":"present","response":"absent","rt":2037.1999999881,"correct":false,"confidence":2},{"trial_n":67,"min":82,"max":173,"target":"present","response":"present","rt":2131.7999999821,"correct":true,"confidence":2},{"trial_n":68,"min":82,"max":173,"target":"present","response":"present","rt":1102.8000000119,"correct":true,"confidence":4},{"trial_n":69,"min":83,"max":172,"target":"present","response":"present","rt":1690.900000006,"correct":true,"confidence":3},{"trial_n":70,"min":83,"max":172,"target":"present","response":"present","rt":1116.3999999762,"correct":true,"confidence":4},{"trial_n":71,"min":41,"max":214,"target":"present","response":"present","rt":3958.099999994,"correct":true,"confidence":-1},{"trial_n":72,"min":41,"max":214,"target":"present","response":"present","rt":1238,"correct":true,"confidence":-1},{"trial_n":73,"min":57,"max":198,"target":"absent","response":"absent","rt":1369,"correct":true,"confidence":-1},{"trial_n":74,"min":57,"max":198,"target":"absent","response":"absent","rt":1249.6999999881,"correct":true,"confidence":-1},{"trial_n":75,"min":73,"max":182,"target":"present","response":"present","rt":1272,"correct":true,"confidence":-1},{"trial_n":76,"min":73,"max":182,"target":"present","response":"present","rt":883.89999997616,"correct":true,"confidence":-1},{"trial_n":77,"min":89,"max":166,"target":"absent","response":"present","rt":1349.1999999881,"correct":false,"confidence":-1},{"trial_n":78,"min":73,"max":182,"target":"present","response":"present","rt":1756.1999999881,"correct":true,"confidence":-1},{"trial_n":79,"min":73,"max":182,"target":"absent","response":"absent","rt":973.30000001192,"correct":true,"confidence":-1},{"trial_n":80,"min":89,"max":166,"target":"present","response":"present","rt":2480.599999994,"correct":true,"confidence":-1},{"trial_n":81,"min":89,"max":166,"target":"absent","response":"present","rt":1050,"correct":false,"confidence":-1},{"trial_n":82,"min":81,"max":174,"target":"absent","response":"absent","rt":1160.7000000179,"correct":true,"confidence":-1},{"trial_n":83,"min":81,"max":174,"target":"present","response":"present","rt":1165.8000000119,"correct":true,"confidence":-1},{"trial_n":84,"min":89,"max":166,"target":"present","response":"present","rt":977.19999998808,"correct":true,"confidence":-1},{"trial_n":85,"min":89,"max":166,"target":"present","response":"present","rt":707.90000000596,"correct":true,"confidence":-1},{"trial_n":86,"min":97,"max":158,"target":"present","response":"present","rt":751,"correct":true,"confidence":-1},{"trial_n":87,"min":97,"max":158,"target":"absent","response":"present","rt":649.59999999404,"correct":false,"confidence":-1},{"trial_n":88,"min":89,"max":166,"target":"present","response":"absent","rt":1358.1999999881,"correct":false,"confidence":-1},{"trial_n":89,"min":81,"max":174,"target":"present","response":"present","rt":1331.3999999762,"correct":true,"confidence":-1},{"trial_n":90,"min":81,"max":174,"target":"present","response":"present","rt":563.40000000596,"correct":true,"confidence":-1},{"trial_n":91,"min":85,"max":170,"target":"present","response":"present","rt":798.60000002384,"correct":true,"confidence":4},{"trial_n":92,"min":85,"max":170,"target":"absent","response":"absent","rt":1223.6999999881,"correct":true,"confidence":4},{"trial_n":93,"min":89,"max":166,"target":"present","response":"absent","rt":1409.8000000119,"correct":false,"confidence":3},{"trial_n":94,"min":85,"max":170,"target":"absent","response":"present","rt":2245.3000000119,"correct":false,"confidence":2},{"trial_n":95,"min":81,"max":174,"target":"absent","response":"absent","rt":1302.2999999821,"correct":true,"confidence":4},{"trial_n":96,"min":81,"max":174,"target":"absent","response":"absent","rt":1243.900000006,"correct":true,"confidence":3},{"trial_n":97,"min":85,"max":170,"target":"absent","response":"present","rt":1563.400000006,"correct":false,"confidence":2},{"trial_n":98,"min":81,"max":174,"target":"absent","response":"absent","rt":1122.3999999762,"correct":true,"confidence":4},{"trial_n":99,"min":81,"max":174,"target":"present","response":"present","rt":1089.400000006,"correct":true,"confidence":5},{"trial_n":100,"min":85,"max":170,"target":"present","response":"present","rt":1283,"correct":true,"confidence":4},{"trial_n":101,"min":85,"max":170,"target":"present","response":"present","rt":961.09999999404,"correct":true,"confidence":4},{"trial_n":102,"min":87,"max":168,"target":"absent","response":"absent","rt":1311.2999999821,"correct":true,"confidence":2},{"trial_n":103,"min":87,"max":168,"target":"present","response":"present","rt":949.40000000596,"correct":true,"confidence":4},{"trial_n":104,"min":89,"max":166,"target":"present","response":"present","rt":1577.1999999881,"correct":true,"confidence":3},{"trial_n":105,"min":89,"max":166,"target":"absent","response":"present","rt":1646.7000000179,"correct":false,"confidence":1},{"trial_n":106,"min":87,"max":168,"target":"present","response":"present","rt":1058.8000000119,"correct":true,"confidence":4},{"trial_n":107,"min":87,"max":168,"target":"absent","response":"absent","rt":1579.7999999821,"correct":true,"confidence":2},{"trial_n":108,"min":89,"max":166,"target":"present","response":"present","rt":1248.3000000119,"correct":true,"confidence":3},{"trial_n":109,"min":89,"max":166,"target":"absent","response":"present","rt":1369.5,"correct":false,"confidence":1},{"trial_n":110,"min":87,"max":168,"target":"present","response":"present","rt":1643.6999999881,"correct":true,"confidence":2},{"trial_n":111,"min":87,"max":168,"target":"absent","response":"present","rt":1165.5,"correct":false,"confidence":2},{"trial_n":112,"min":86,"max":169,"target":"absent","response":"absent","rt":1010.099999994,"correct":true,"confidence":4},{"trial_n":113,"min":86,"max":169,"target":"absent","response":"present","rt":2074.5,"correct":false,"confidence":1},{"trial_n":114,"min":85,"max":170,"target":"present","response":"present","rt":934.5,"correct":true,"confidence":3},{"trial_n":115,"min":85,"max":170,"target":"present","response":"present","rt":1643.599999994,"correct":true,"confidence":1},{"trial_n":116,"min":86,"max":169,"target":"present","response":"present","rt":1058.7999999821,"correct":true,"confidence":4},{"trial_n":117,"min":86,"max":169,"target":"present","response":"present","rt":867,"correct":true,"confidence":4},{"trial_n":118,"min":87,"max":168,"target":"absent","response":"absent","rt":1153.6999999881,"correct":true,"confidence":4},{"trial_n":119,"min":87,"max":168,"target":"absent","response":"present","rt":1273,"correct":false,"confidence":2},{"trial_n":120,"min":86,"max":169,"target":"absent","response":"absent","rt":1175.599999994,"correct":true,"confidence":3},{"trial_n":121,"min":86,"max":169,"target":"absent","response":"absent","rt":1224.3000000119,"correct":true,"confidence":4},{"trial_n":122,"min":87,"max":168,"target":"absent","response":"present","rt":2774.900000006,"correct":false,"confidence":2},{"trial_n":123,"min":86,"max":169,"target":"present","response":"present","rt":2118,"correct":true,"confidence":2},{"trial_n":124,"min":86,"max":169,"target":"absent","response":"present","rt":1665.8000000119,"correct":false,"confidence":1},{"trial_n":125,"min":85,"max":170,"target":"present","response":"absent","rt":2530.5,"correct":false,"confidence":1},{"trial_n":126,"min":84,"max":171,"target":"absent","response":"absent","rt":2052.7999999821,"correct":true,"confidence":1},{"trial_n":127,"min":84,"max":171,"target":"present","response":"present","rt":1054.6999999881,"correct":true,"confidence":4},{"trial_n":128,"min":85,"max":170,"target":"absent","response":"present","rt":2393.5,"correct":false,"confidence":2},{"trial_n":129,"min":84,"max":171,"target":"present","response":"present","rt":1665,"correct":true,"confidence":3},{"trial_n":130,"min":84,"max":171,"target":"present","response":"present","rt":1245.2999999821,"correct":true,"confidence":3},{"trial_n":131,"min":85,"max":170,"target":"present","response":"present","rt":1546.6000000238,"correct":true,"confidence":4},{"trial_n":132,"min":85,"max":170,"target":"absent","response":"present","rt":1269.900000006,"correct":false,"confidence":3},{"trial_n":133,"min":84,"max":171,"target":"present","response":"present","rt":918.19999998808,"correct":true,"confidence":3},{"trial_n":134,"min":84,"max":171,"target":"absent","response":"present","rt":1172.1999999881,"correct":false,"confidence":2},{"trial_n":135,"min":83,"max":172,"target":"present","response":"absent","rt":2237.1999999881,"correct":false,"confidence":1},{"trial_n":136,"min":82,"max":173,"target":"absent","response":"present","rt":1258.1999999881,"correct":false,"confidence":2},{"trial_n":137,"min":81,"max":174,"target":"absent","response":"absent","rt":1066.7000000179,"correct":true,"confidence":4},{"trial_n":138,"min":81,"max":174,"target":"absent","response":"present","rt":1124.599999994,"correct":false,"confidence":2},{"trial_n":139,"min":80,"max":175,"target":"present","response":"present","rt":1009.7999999821,"correct":true,"confidence":3},{"trial_n":140,"min":80,"max":175,"target":"absent","response":"absent","rt":1203.599999994,"correct":true,"confidence":3}]