[{"trial_n":1,"n_dots":4.25,"target":"left","response":"left","rt":4722,"correct":true,"confidence":-1},{"trial_n":2,"n_dots":4.25,"target":"left","response":"left","rt":731.00000000001,"correct":true,"confidence":-1},{"trial_n":3,"n_dots":3.85,"target":"right","response":"right","rt":755,"correct":true,"confidence":-1},{"trial_n":4,"n_dots":3.85,"target":"left","response":"left","rt":674.99999999999,"correct":true,"confidence":-1},{"trial_n":5,"n_dots":3.45,"target":"left","response":"right","rt":942.99999999999,"correct":false,"confidence":-1},{"trial_n":6,"n_dots":3.85,"target":"left","response":"left","rt":911,"correct":true,"confidence":-1},{"trial_n":7,"n_dots":3.85,"target":"left","response":"left","rt":364,"correct":true,"confidence":-1},{"trial_n":8,"n_dots":3.65,"target":"left","response":"right","rt":1238,"correct":false,"confidence":-1},{"trial_n":9,"n_dots":3.85,"target":"right","response":"right","rt":661,"correct":true,"confidence":-1},{"trial_n":10,"n_dots":3.85,"target":"right","response":"right","rt":829.99999999999,"correct":true,"confidence":-1},{"trial_n":11,"n_dots":3.65,"target":"right","response":"left","rt":702,"correct":false,"confidence":-1},{"trial_n":12,"n_dots":3.85,"target":"right","response":"left","rt":1010,"correct":false,"confidence":-1},{"trial_n":13,"n_dots":3.95,"target":"left","response":"left","rt":413,"correct":true,"confidence":-1},{"trial_n":14,"n_dots":3.95,"target":"left","response":"left","rt":748.00000000001,"correct":true,"confidence":-1},{"trial_n":15,"n_dots":3.85,"target":"left","response":"left","rt":1227,"correct":true,"confidence":-1},{"trial_n":16,"n_dots":3.85,"target":"left","response":"left","rt":432,"correct":true,"confidence":-1},{"trial_n":17,"n_dots":3.75,"target":"left","response":"left","rt":652,"correct":true,"confidence":-1},{"trial_n":18,"n_dots":3.75,"target":"right","response":"right","rt":641.99999999999,"correct":true,"confidence":-1},{"trial_n":19,"n_dots":3.65,"target":"right","response":"left","rt":919.99999999999,"correct":false,"confidence":-1},{"trial_n":20,"n_dots":3.75,"target":"left","response":"left","rt":430,"correct":true,"confidence":-1},{"trial_n":21,"n_dots":3.75,"target":"right","response":"right","rt":698.00000000001,"correct":true,"confidence":3},{"trial_n":22,"n_dots":3.65,"target":"right","response":"left","rt":1003,"correct":false,"confidence":3},{"trial_n":23,"n_dots":3.75,"target":"right","response":"right","rt":1071,"correct":true,"confidence":3},{"trial_n":24,"n_dots":3.75,"target":"left","response":"right","rt":939,"correct":false,"confidence":3},{"trial_n":25,"n_dots":3.85,"target":"right","response":"left","rt":813.00000000003,"correct":false,"confidence":4},{"trial_n":26,"n_dots":3.95,"target":"left","response":"left","rt":839,"correct":true,"confidence":5},{"trial_n":27,"n_dots":3.95,"target":"left","response":"left","rt":1098,"correct":true,"confidence":5},{"trial_n":28,"n_dots":3.85,"target":"right","response":"left","rt":1418,"correct":false,"confidence":3},{"trial_n":29,"n_dots":3.95,"target":"left","response":"left","rt":935,"correct":true,"confidence":5},{"trial_n":30,"n_dots":3.95,"target":"left","response":"left","rt":1110,"correct":true,"confidence":4},{"trial_n":31,"n_dots":3.85,"target":"right","response":"right","rt":906,"correct":true,"confidence":4},{"trial_n":32,"n_dots":3.85,"target":"left","response":"left","rt":2651,"correct":true,"confidence":1},{"trial_n":33,"n_dots":3.75,"target":"left","response":"right","rt":1101,"correct":false,"confidence":4},{"trial_n":34,"n_dots":3.85,"target":"left","response":"left","rt":553.99999999997,"correct":true,"confidence":5},{"trial_n":35,"n_dots":3.85,"target":"right","response":"right","rt":1339,"correct":true,"confidence":3},{"trial_n":36,"n_dots":3.75,"target":"right","response":"right","rt":920,"correct":true,"confidence":2},{"trial_n":37,"n_dots":3.75,"target":"left","response":"left","rt":1102,"correct":true,"confidence":4},{"trial_n":38,"n_dots":3.65,"target":"right","response":"right","rt":840,"correct":true,"confidence":4},{"trial_n":39,"n_dots":3.65,"target":"right","response":"right","rt":1011,"correct":true,"confidence":4},{"trial_n":40,"n_dots":3.55,"target":"right","response":"left","rt":703,"correct":false,"confidence":4},{"trial_n":41,"n_dots":3.65,"target":"left","response":"left","rt":723,"correct":true,"confidence":4},{"trial_n":42,"n_dots":3.65,"target":"right","response":"left","rt":1227,"correct":false,"confidence":3},{"trial_n":43,"n_dots":3.75,"target":"left","response":"left","rt":763,"correct":true,"confidence":4},{"trial_n":44,"n_dots":3.75,"target":"left","response":"left","rt":760,"correct":true,"confidence":5},{"trial_n":45,"n_dots":3.65,"target":"right","response":"right","rt":645,"correct":true,"confidence":5},{"trial_n":46,"n_dots":3.65,"target":"left","response":"left","rt":1339,"correct":true,"confidence":4},{"trial_n":47,"n_dots":3.55,"target":"right","response":"right","rt":856,"correct":true,"confidence":3},{"trial_n":48,"n_dots":3.55,"target":"right","response":"right","rt":557,"correct":true,"confidence":4},{"trial_n":49,"n_dots":3.45,"target":"right","response":"right","rt":612,"correct":true,"confidence":4},{"trial_n":50,"n_dots":3.45,"target":"left","response":"left","rt":464,"correct":true,"confidence":4},{"trial_n":51,"n_dots":3.35,"target":"left","response":"left","rt":1109,"correct":true,"confidence":5},{"trial_n":52,"n_dots":3.35,"target":"left","response":"left","rt":1120,"correct":true,"confidence":4},{"trial_n":53,"n_dots":3.25,"target":"left","response":"left","rt":1208.0000000001,"correct":true,"confidence":4},{"trial_n":54,"n_dots":3.25,"target":"right","response":"left","rt":1553,"correct":false,"confidence":3},{"trial_n":55,"n_dots":3.35,"target":"right","response":"left","rt":1086,"correct":false,"confidence":3},{"trial_n":56,"n_dots":3.45,"target":"left","response":"left","rt":288,"correct":true,"confidence":5},{"trial_n":57,"n_dots":3.45,"target":"right","response":"left","rt":719,"correct":false,"confidence":4},{"trial_n":58,"n_dots":3.55,"target":"right","response":"left","rt":1403,"correct":false,"confidence":5},{"trial_n":59,"n_dots":3.65,"target":"left","response":"left","rt":549,"correct":true,"confidence":5},{"trial_n":60,"n_dots":3.65,"target":"left","response":"left","rt":613,"correct":true,"confidence":5},{"trial_n":61,"n_dots":3.55,"target":"left","response":"left","rt":435.00000000006,"correct":true,"confidence":5},{"trial_n":62,"n_dots":3.55,"target":"right","response":"right","rt":427,"correct":true,"confidence":4},{"trial_n":63,"n_dots":3.45,"target":"left","response":"left","rt":712.99999999994,"correct":true,"confidence":5},{"trial_n":64,"n_dots":3.45,"target":"left","response":"left","rt":282.00000000006,"correct":true,"confidence":5},{"trial_n":65,"n_dots":3.35,"target":"right","response":"right","rt":556,"correct":true,"confidence":4},{"trial_n":66,"n_dots":3.35,"target":"right","response":"right","rt":588,"correct":true,"confidence":5},{"trial_n":67,"n_dots":3.25,"target":"right","response":"right","rt":558,"correct":true,"confidence":5},{"trial_n":68,"n_dots":3.25,"target":"right","response":"right","rt":1951,"correct":true,"confidence":4},{"trial_n":69,"n_dots":3.15,"target":"left","response":"left","rt":409,"correct":true,"confidence":4},{"trial_n":70,"n_dots":3.15,"target":"left","response":"left","rt":379,"correct":true,"confidence":4},{"trial_n":71,"n_dots":3.05,"target":"left","response":"left","rt":924,"correct":true,"confidence":3},{"trial_n":72,"n_dots":3.05,"target":"right","response":"right","rt":885,"correct":true,"confidence":4},{"trial_n":73,"n_dots":2.95,"target":"left","response":"right","rt":893,"correct":false,"confidence":4},{"trial_n":74,"n_dots":3.05,"target":"right","response":"right","rt":835,"correct":true,"confidence":4},{"trial_n":75,"n_dots":3.05,"target":"right","response":"left","rt":780.99999999994,"correct":false,"confidence":5},{"trial_n":76,"n_dots":3.15,"target":"left","response":"right","rt":573.00000000006,"correct":false,"confidence":4},{"trial_n":77,"n_dots":3.25,"target":"right","response":"right","rt":697,"correct":true,"confidence":4},{"trial_n":78,"n_dots":3.25,"target":"right","response":"left","rt":614,"correct":false,"confidence":5},{"trial_n":79,"n_dots":3.35,"target":"right","response":"left","rt":967,"correct":false,"confidence":5},{"trial_n":80,"n_dots":3.45,"target":"left","response":"left","rt":1007,"correct":true,"confidence":4},{"trial_n":81,"n_dots":3.45,"target":"right","response":"right","rt":623,"correct":true,"confidence":4},{"trial_n":82,"n_dots":3.35,"target":"right","response":"left","rt":1092,"correct":false,"confidence":4},{"trial_n":83,"n_dots":3.45,"target":"left","response":"right","rt":708,"correct":false,"confidence":5},{"trial_n":84,"n_dots":3.55,"target":"right","response":"left","rt":1495,"correct":false,"confidence":4},{"trial_n":85,"n_dots":3.65,"target":"left","response":"left","rt":506,"correct":true,"confidence":4},{"trial_n":86,"n_dots":3.65,"target":"right","response":"right","rt":563,"correct":true,"confidence":5},{"trial_n":87,"n_dots":3.55,"target":"right","response":"right","rt":642,"correct":true,"confidence":4},{"trial_n":88,"n_dots":3.55,"target":"left","response":"left","rt":1251.9999999999,"correct":true,"confidence":5},{"trial_n":89,"n_dots":3.45,"target":"right","response":"left","rt":773,"correct":false,"confidence":5},{"trial_n":90,"n_dots":3.55,"target":"right","response":"left","rt":445,"correct":false,"confidence":4},{"trial_n":91,"n_dots":3.65,"target":"right","response":"left","rt":1944,"correct":false,"confidence":4},{"trial_n":92,"n_dots":3.75,"target":"left","response":"left","rt":731.00000000012,"correct":true,"confidence":5},{"trial_n":93,"n_dots":3.75,"target":"right","response":"left","rt":1059,"correct":false,"confidence":4},{"trial_n":94,"n_dots":3.85,"target":"right","response":"left","rt":787,"correct":false,"confidence":5},{"trial_n":95,"n_dots":3.95,"target":"right","response":"left","rt":721,"correct":false,"confidence":3},{"trial_n":96,"n_dots":4.05,"target":"left","response":"left","rt":352,"correct":true,"confidence":3},{"trial_n":97,"n_dots":4.05,"target":"right","response":"right","rt":244,"correct":true,"confidence":3},{"trial_n":98,"n_dots":3.95,"target":"left","response":"left","rt":299.00000000012,"correct":true,"confidence":5},{"trial_n":99,"n_dots":3.95,"target":"left","response":"left","rt":1073,"correct":true,"confidence":4},{"trial_n":100,"n_dots":3.85,"target":"left","response":"left","rt":367,"correct":true,"confidence":4},{"trial_n":101,"n_dots":3.85,"target":"right","response":"left","rt":708,"correct":false,"confidence":4},{"trial_n":102,"n_dots":3.95,"target":"right","response":"left","rt":630.00000000012,"correct":false,"confidence":4},{"trial_n":103,"n_dots":4.05,"target":"left","response":"left","rt":442,"correct":true,"confidence":4},{"trial_n":104,"n_dots":4.05,"target":"left","response":"left","rt":302,"correct":true,"confidence":4},{"trial_n":105,"n_dots":3.95,"target":"left","response":"left","rt":318.99999999988,"correct":true,"confidence":4},{"trial_n":106,"n_dots":3.95,"target":"left","response":"left","rt":213,"correct":true,"confidence":4},{"trial_n":107,"n_dots":3.85,"target":"left","response":"left","rt":472,"correct":true,"confidence":4},{"trial_n":108,"n_dots":3.85,"target":"right","response":"left","rt":951,"correct":false,"confidence":2},{"trial_n":109,"n_dots":3.95,"target":"left","response":"left","rt":675,"correct":true,"confidence":3},{"trial_n":110,"n_dots":3.95,"target":"right","response":"left","rt":326,"correct":false,"confidence":3},{"trial_n":111,"n_dots":4.05,"target":"right","response":"left","rt":415.99999999988,"correct":false,"confidence":4},{"trial_n":112,"n_dots":4.15,"target":"right","response":"right","rt":604,"correct":true,"confidence":4},{"trial_n":113,"n_dots":4.15,"target":"right","response":"right","rt":479,"correct":true,"confidence":4},{"trial_n":114,"n_dots":4.05,"target":"left","response":"left","rt":310,"correct":true,"confidence":5},{"trial_n":115,"n_dots":4.05,"target":"left","response":"left","rt":839.99999999988,"correct":true,"confidence":5},{"trial_n":116,"n_dots":3.95,"target":"left","response":"left","rt":567,"correct":true,"confidence":4},{"trial_n":117,"n_dots":3.95,"target":"right","response":"left","rt":1173,"correct":false,"confidence":2},{"trial_n":118,"n_dots":4.05,"target":"right","response":"right","rt":711.00000000012,"correct":true,"confidence":3},{"trial_n":119,"n_dots":4.05,"target":"right","response":"right","rt":503,"correct":true,"confidence":4},{"trial_n":120,"n_dots":3.95,"target":"left","response":"left","rt":348.99999999988,"correct":true,"confidence":5}]