[{"trial_n":1,"min":25,"max":230,"target":"present","response":"absent","rt":8551,"correct":false,"confidence":-1},{"trial_n":2,"min":25,"max":230,"target":"present","response":"present","rt":1265,"correct":true,"confidence":-1},{"trial_n":3,"min":25,"max":230,"target":"absent","response":"present","rt":1106,"correct":false,"confidence":-1},{"trial_n":4,"min":9,"max":246,"target":"absent","response":"absent","rt":3091,"correct":true,"confidence":-1},{"trial_n":5,"min":9,"max":246,"target":"present","response":"absent","rt":1359,"correct":false,"confidence":-1},{"trial_n":6,"min":0,"max":255,"target":"absent","response":"present","rt":1352,"correct":false,"confidence":-1},{"trial_n":7,"min":0,"max":255,"target":"present","response":"absent","rt":1673.9999999998,"correct":false,"confidence":-1},{"trial_n":8,"min":0,"max":255,"target":"absent","response":"present","rt":3480,"correct":false,"confidence":-1},{"trial_n":9,"min":0,"max":255,"target":"absent","response":"absent","rt":907.00000000023,"correct":true,"confidence":-1},{"trial_n":10,"min":0,"max":255,"target":"absent","response":"absent","rt":1541,"correct":true,"confidence":-1},{"trial_n":11,"min":8,"max":247,"target":"absent","response":"present","rt":770,"correct":false,"confidence":-1},{"trial_n":12,"min":0,"max":255,"target":"present","response":"present","rt":4016,"correct":true,"confidence":-1},{"trial_n":13,"min":0,"max":255,"target":"present","response":"present","rt":597.00000000023,"correct":true,"confidence":-1},{"trial_n":14,"min":8,"max":247,"target":"present","response":"present","rt":592,"correct":true,"confidence":-1},{"trial_n":15,"min":8,"max":247,"target":"absent","response":"absent","rt":507,"correct":true,"confidence":-1},{"trial_n":16,"min":16,"max":239,"target":"present","response":"present","rt":564,"correct":true,"confidence":-1},{"trial_n":17,"min":16,"max":239,"target":"present","response":"present","rt":525,"correct":true,"confidence":-1},{"trial_n":18,"min":24,"max":231,"target":"absent","response":"absent","rt":617.00000000023,"correct":true,"confidence":-1},{"trial_n":19,"min":24,"max":231,"target":"present","response":"present","rt":399.00000000023,"correct":true,"confidence":-1},{"trial_n":20,"min":32,"max":223,"target":"present","response":"absent","rt":530,"correct":false,"confidence":-1},{"trial_n":21,"min":28,"max":227,"target":"absent","response":"absent","rt":706,"correct":true,"confidence":5},{"trial_n":22,"min":28,"max":227,"target":"present","response":"present","rt":4850,"correct":true,"confidence":5},{"trial_n":23,"min":32,"max":223,"target":"present","response":"present","rt":655.00000000023,"correct":true,"confidence":5},{"trial_n":24,"min":32,"max":223,"target":"absent","response":"absent","rt":862.00000000023,"correct":true,"confidence":5},{"trial_n":25,"min":36,"max":219,"target":"absent","response":"absent","rt":803,"correct":true,"confidence":5},{"trial_n":26,"min":36,"max":219,"target":"present","response":"present","rt":456,"correct":true,"confidence":5},{"trial_n":27,"min":40,"max":215,"target":"absent","response":"absent","rt":954,"correct":true,"confidence":5},{"trial_n":28,"min":40,"max":215,"target":"present","response":"present","rt":1048,"correct":true,"confidence":5},{"trial_n":29,"min":44,"max":211,"target":"absent","response":"absent","rt":1259,"correct":true,"confidence":5},{"trial_n":30,"min":44,"max":211,"target":"present","response":"present","rt":1222,"correct":true,"confidence":5},{"trial_n":31,"min":46,"max":209,"target":"absent","response":"absent","rt":1986,"correct":true,"confidence":4},{"trial_n":32,"min":46,"max":209,"target":"present","response":"present","rt":517.00000000023,"correct":true,"confidence":5},{"trial_n":33,"min":48,"max":207,"target":"absent","response":"absent","rt":379.99999999977,"correct":true,"confidence":5},{"trial_n":34,"min":48,"max":207,"target":"absent","response":"absent","rt":543,"correct":true,"confidence":5},{"trial_n":35,"min":50,"max":205,"target":"present","response":"present","rt":550.00000000023,"correct":true,"confidence":5},{"trial_n":36,"min":50,"max":205,"target":"absent","response":"absent","rt":705,"correct":true,"confidence":5},{"trial_n":37,"min":52,"max":203,"target":"absent","response":"absent","rt":623,"correct":true,"confidence":5},{"trial_n":38,"min":52,"max":203,"target":"present","response":"present","rt":687.00000000023,"correct":true,"confidence":5},{"trial_n":39,"min":54,"max":201,"target":"present","response":"absent","rt":593,"correct":false,"confidence":1},{"trial_n":40,"min":52,"max":203,"target":"present","response":"present","rt":532.99999999977,"correct":true,"confidence":5},{"trial_n":41,"min":52,"max":203,"target":"absent","response":"present","rt":3437,"correct":false,"confidence":2},{"trial_n":42,"min":51,"max":204,"target":"present","response":"present","rt":785,"correct":true,"confidence":5},{"trial_n":43,"min":51,"max":204,"target":"present","response":"present","rt":545,"correct":true,"confidence":5},{"trial_n":44,"min":52,"max":203,"target":"absent","response":"absent","rt":1731,"correct":true,"confidence":3},{"trial_n":45,"min":52,"max":203,"target":"present","response":"present","rt":525,"correct":true,"confidence":5},{"trial_n":46,"min":53,"max":202,"target":"present","response":"present","rt":555,"correct":true,"confidence":5},{"trial_n":47,"min":53,"max":202,"target":"absent","response":"absent","rt":729,"correct":true,"confidence":5},{"trial_n":48,"min":54,"max":201,"target":"absent","response":"absent","rt":2090.9999999998,"correct":true,"confidence":3},{"trial_n":49,"min":54,"max":201,"target":"absent","response":"absent","rt":775,"correct":true,"confidence":4},{"trial_n":50,"min":55,"max":200,"target":"absent","response":"absent","rt":565,"correct":true,"confidence":5},{"trial_n":51,"min":55,"max":200,"target":"present","response":"present","rt":803,"correct":true,"confidence":4},{"trial_n":52,"min":56,"max":199,"target":"absent","response":"absent","rt":906,"correct":true,"confidence":4},{"trial_n":53,"min":56,"max":199,"target":"absent","response":"absent","rt":525,"correct":true,"confidence":4},{"trial_n":54,"min":57,"max":198,"target":"absent","response":"absent","rt":548,"correct":true,"confidence":4},{"trial_n":55,"min":57,"max":198,"target":"absent","response":"absent","rt":486,"correct":true,"confidence":5},{"trial_n":56,"min":58,"max":197,"target":"absent","response":"absent","rt":386.00000000023,"correct":true,"confidence":5},{"trial_n":57,"min":58,"max":197,"target":"present","response":"present","rt":827,"correct":true,"confidence":5},{"trial_n":58,"min":59,"max":196,"target":"absent","response":"absent","rt":614.00000000023,"correct":true,"confidence":5},{"trial_n":59,"min":59,"max":196,"target":"present","response":"present","rt":807,"correct":true,"confidence":5},{"trial_n":60,"min":60,"max":195,"target":"present","response":"present","rt":336,"correct":true,"confidence":5},{"trial_n":61,"min":60,"max":195,"target":"present","response":"present","rt":327,"correct":true,"confidence":5},{"trial_n":62,"min":61,"max":194,"target":"present","response":"present","rt":250,"correct":true,"confidence":5},{"trial_n":63,"min":61,"max":194,"target":"absent","response":"absent","rt":578,"correct":true,"confidence":5},{"trial_n":64,"min":62,"max":193,"target":"present","response":"present","rt":751,"correct":true,"confidence":5},{"trial_n":65,"min":62,"max":193,"target":"present","response":"present","rt":926.99999999977,"correct":true,"confidence":5},{"trial_n":66,"min":63,"max":192,"target":"present","response":"present","rt":493.99999999977,"correct":true,"confidence":5},{"trial_n":67,"min":63,"max":192,"target":"absent","response":"absent","rt":1857,"correct":true,"confidence":1},{"trial_n":68,"min":64,"max":191,"target":"absent","response":"absent","rt":852,"correct":true,"confidence":5},{"trial_n":69,"min":64,"max":191,"target":"present","response":"present","rt":432,"correct":true,"confidence":5},{"trial_n":70,"min":65,"max":190,"target":"present","response":"absent","rt":589.99999999977,"correct":false,"confidence":1},{"trial_n":71,"min":41,"max":214,"target":"present","response":"present","rt":6673,"correct":true,"confidence":-1},{"trial_n":72,"min":41,"max":214,"target":"present","response":"present","rt":1522,"correct":true,"confidence":-1},{"trial_n":73,"min":57,"max":198,"target":"absent","response":"absent","rt":969,"correct":true,"confidence":-1},{"trial_n":74,"min":57,"max":198,"target":"absent","response":"absent","rt":2666,"correct":true,"confidence":-1},{"trial_n":75,"min":73,"max":182,"target":"present","response":"present","rt":1514.0000000002,"correct":true,"confidence":-1},{"trial_n":76,"min":73,"max":182,"target":"absent","response":"absent","rt":1687,"correct":true,"confidence":-1},{"trial_n":77,"min":89,"max":166,"target":"absent","response":"absent","rt":1336,"correct":true,"confidence":-1},{"trial_n":78,"min":89,"max":166,"target":"present","response":"present","rt":1079,"correct":true,"confidence":-1},{"trial_n":79,"min":105,"max":150,"target":"absent","response":"absent","rt":1131,"correct":true,"confidence":-1},{"trial_n":80,"min":105,"max":150,"target":"absent","response":"present","rt":2275,"correct":false,"confidence":-1},{"trial_n":81,"min":97,"max":158,"target":"absent","response":"absent","rt":1309.9999999998,"correct":true,"confidence":-1},{"trial_n":82,"min":97,"max":158,"target":"present","response":"absent","rt":1019,"correct":false,"confidence":-1},{"trial_n":83,"min":89,"max":166,"target":"present","response":"present","rt":1364,"correct":true,"confidence":-1},{"trial_n":84,"min":89,"max":166,"target":"present","response":"absent","rt":1989,"correct":false,"confidence":-1},{"trial_n":85,"min":81,"max":174,"target":"present","response":"present","rt":1737.9999999998,"correct":true,"confidence":-1},{"trial_n":86,"min":81,"max":174,"target":"present","response":"present","rt":1164,"correct":true,"confidence":-1},{"trial_n":87,"min":89,"max":166,"target":"present","response":"present","rt":993,"correct":true,"confidence":-1},{"trial_n":88,"min":89,"max":166,"target":"absent","response":"absent","rt":1206,"correct":true,"confidence":-1},{"trial_n":89,"min":97,"max":158,"target":"present","response":"present","rt":1780.9999999998,"correct":true,"confidence":-1},{"trial_n":90,"min":97,"max":158,"target":"present","response":"present","rt":1615,"correct":true,"confidence":-1},{"trial_n":91,"min":101,"max":154,"target":"present","response":"present","rt":1894.9999999998,"correct":true,"confidence":3},{"trial_n":92,"min":101,"max":154,"target":"present","response":"present","rt":1543,"correct":true,"confidence":4},{"trial_n":93,"min":105,"max":150,"target":"absent","response":"present","rt":1607,"correct":false,"confidence":3},{"trial_n":94,"min":101,"max":154,"target":"absent","response":"present","rt":7697,"correct":false,"confidence":3},{"trial_n":95,"min":97,"max":158,"target":"absent","response":"absent","rt":1240,"correct":true,"confidence":2},{"trial_n":96,"min":97,"max":158,"target":"absent","response":"present","rt":1266.9999999998,"correct":false,"confidence":4},{"trial_n":97,"min":93,"max":162,"target":"absent","response":"absent","rt":2065,"correct":true,"confidence":3},{"trial_n":98,"min":93,"max":162,"target":"absent","response":"absent","rt":2626,"correct":true,"confidence":3},{"trial_n":99,"min":97,"max":158,"target":"present","response":"present","rt":1380,"correct":true,"confidence":4},{"trial_n":100,"min":97,"max":158,"target":"present","response":"absent","rt":1720,"correct":false,"confidence":2},{"trial_n":101,"min":95,"max":160,"target":"absent","response":"present","rt":1150,"correct":false,"confidence":4},{"trial_n":102,"min":93,"max":162,"target":"present","response":"absent","rt":925.00000000023,"correct":false,"confidence":2},{"trial_n":103,"min":91,"max":164,"target":"present","response":"present","rt":916,"correct":true,"confidence":3},{"trial_n":104,"min":91,"max":164,"target":"present","response":"present","rt":1601,"correct":true,"confidence":3},{"trial_n":105,"min":93,"max":162,"target":"present","response":"absent","rt":980,"correct":false,"confidence":3},{"trial_n":106,"min":91,"max":164,"target":"absent","response":"present","rt":849,"correct":false,"confidence":3},{"trial_n":107,"min":89,"max":166,"target":"present","response":"present","rt":1429.0000000002,"correct":true,"confidence":3},{"trial_n":108,"min":89,"max":166,"target":"present","response":"absent","rt":759,"correct":false,"confidence":3},{"trial_n":109,"min":87,"max":168,"target":"absent","response":"present","rt":946.99999999977,"correct":false,"confidence":3},{"trial_n":110,"min":85,"max":170,"target":"present","response":"present","rt":1037,"correct":true,"confidence":4},{"trial_n":111,"min":85,"max":170,"target":"absent","response":"absent","rt":2023,"correct":true,"confidence":3},{"trial_n":112,"min":86,"max":169,"target":"absent","response":"absent","rt":1420.0000000002,"correct":true,"confidence":4},{"trial_n":113,"min":86,"max":169,"target":"present","response":"present","rt":2170.0000000002,"correct":true,"confidence":1},{"trial_n":114,"min":87,"max":168,"target":"absent","response":"absent","rt":1163.9999999998,"correct":true,"confidence":2},{"trial_n":115,"min":87,"max":168,"target":"absent","response":"present","rt":1528.0000000002,"correct":false,"confidence":2},{"trial_n":116,"min":86,"max":169,"target":"absent","response":"absent","rt":1135,"correct":true,"confidence":3},{"trial_n":117,"min":86,"max":169,"target":"absent","response":"present","rt":2773.9999999998,"correct":false,"confidence":2},{"trial_n":118,"min":85,"max":170,"target":"present","response":"absent","rt":2256.9999999998,"correct":false,"confidence":2},{"trial_n":119,"min":84,"max":171,"target":"absent","response":"absent","rt":1293.9999999998,"correct":true,"confidence":2},{"trial_n":120,"min":84,"max":171,"target":"present","response":"present","rt":1962.0000000002,"correct":true,"confidence":3},{"trial_n":121,"min":85,"max":170,"target":"present","response":"present","rt":2775,"correct":true,"confidence":4},{"trial_n":122,"min":85,"max":170,"target":"present","response":"absent","rt":1385,"correct":false,"confidence":3},{"trial_n":123,"min":84,"max":171,"target":"absent","response":"absent","rt":1701,"correct":true,"confidence":2},{"trial_n":124,"min":84,"max":171,"target":"absent","response":"present","rt":903,"correct":false,"confidence":3},{"trial_n":125,"min":83,"max":172,"target":"absent","response":"absent","rt":2423,"correct":true,"confidence":3},{"trial_n":126,"min":83,"max":172,"target":"absent","response":"present","rt":1991,"correct":false,"confidence":1},{"trial_n":127,"min":82,"max":173,"target":"absent","response":"absent","rt":4640,"correct":true,"confidence":3},{"trial_n":128,"min":82,"max":173,"target":"present","response":"present","rt":1279,"correct":true,"confidence":3},{"trial_n":129,"min":83,"max":172,"target":"absent","response":"absent","rt":1344.0000000002,"correct":true,"confidence":3},{"trial_n":130,"min":83,"max":172,"target":"absent","response":"absent","rt":7277,"correct":true,"confidence":3},{"trial_n":131,"min":84,"max":171,"target":"present","response":"absent","rt":8799,"correct":false,"confidence":3},{"trial_n":132,"min":83,"max":172,"target":"absent","response":"absent","rt":1076,"correct":true,"confidence":3},{"trial_n":133,"min":83,"max":172,"target":"present","response":"absent","rt":9070,"correct":false,"confidence":3},{"trial_n":134,"min":82,"max":173,"target":"present","response":"present","rt":2566,"correct":true,"confidence":3},{"trial_n":135,"min":82,"max":173,"target":"absent","response":"absent","rt":1573.9999999998,"correct":true,"confidence":3},{"trial_n":136,"min":83,"max":172,"target":"present","response":"present","rt":1718,"correct":true,"confidence":3},{"trial_n":137,"min":83,"max":172,"target":"present","response":"absent","rt":1708.9999999998,"correct":false,"confidence":4},{"trial_n":138,"min":82,"max":173,"target":"present","response":"absent","rt":2488.9999999998,"correct":false,"confidence":2},{"trial_n":139,"min":81,"max":174,"target":"present","response":"present","rt":1454.0000000002,"correct":true,"confidence":3},{"trial_n":140,"min":81,"max":174,"target":"absent","response":"absent","rt":1479,"correct":true,"confidence":3}]