[{"trial_n":1,"min":25,"max":230,"target":"present","response":"present","rt":7794,"correct":true,"confidence":-1},{"trial_n":2,"min":25,"max":230,"target":"present","response":"present","rt":3525,"correct":true,"confidence":-1},{"trial_n":3,"min":41,"max":214,"target":"absent","response":"absent","rt":1308,"correct":true,"confidence":-1},{"trial_n":4,"min":41,"max":214,"target":"absent","response":"absent","rt":885,"correct":true,"confidence":-1},{"trial_n":5,"min":57,"max":198,"target":"present","response":"present","rt":857,"correct":true,"confidence":-1},{"trial_n":6,"min":57,"max":198,"target":"absent","response":"absent","rt":1062,"correct":true,"confidence":-1},{"trial_n":7,"min":73,"max":182,"target":"absent","response":"absent","rt":700,"correct":true,"confidence":-1},{"trial_n":8,"min":73,"max":182,"target":"present","response":"absent","rt":690,"correct":false,"confidence":-1},{"trial_n":9,"min":57,"max":198,"target":"absent","response":"absent","rt":996,"correct":true,"confidence":-1},{"trial_n":10,"min":57,"max":198,"target":"present","response":"present","rt":581,"correct":true,"confidence":-1},{"trial_n":11,"min":65,"max":190,"target":"absent","response":"present","rt":1113,"correct":false,"confidence":-1},{"trial_n":12,"min":57,"max":198,"target":"present","response":"absent","rt":1242,"correct":false,"confidence":-1},{"trial_n":13,"min":49,"max":206,"target":"absent","response":"absent","rt":689,"correct":true,"confidence":-1},{"trial_n":14,"min":49,"max":206,"target":"present","response":"present","rt":659,"correct":true,"confidence":-1},{"trial_n":15,"min":57,"max":198,"target":"absent","response":"present","rt":1389,"correct":false,"confidence":-1},{"trial_n":16,"min":49,"max":206,"target":"present","response":"present","rt":908.00000000001,"correct":true,"confidence":-1},{"trial_n":17,"min":49,"max":206,"target":"present","response":"absent","rt":747,"correct":false,"confidence":-1},{"trial_n":18,"min":41,"max":214,"target":"absent","response":"absent","rt":1028,"correct":true,"confidence":-1},{"trial_n":19,"min":41,"max":214,"target":"present","response":"present","rt":870,"correct":true,"confidence":-1},{"trial_n":20,"min":49,"max":206,"target":"present","response":"present","rt":692,"correct":true,"confidence":-1},{"trial_n":21,"min":49,"max":206,"target":"present","response":"present","rt":891,"correct":true,"confidence":3},{"trial_n":22,"min":53,"max":202,"target":"absent","response":"absent","rt":952,"correct":true,"confidence":3},{"trial_n":23,"min":53,"max":202,"target":"absent","response":"absent","rt":1078,"correct":true,"confidence":2},{"trial_n":24,"min":57,"max":198,"target":"absent","response":"present","rt":1487,"correct":false,"confidence":3},{"trial_n":25,"min":53,"max":202,"target":"absent","response":"absent","rt":1040,"correct":true,"confidence":3},{"trial_n":26,"min":53,"max":202,"target":"absent","response":"absent","rt":867,"correct":true,"confidence":2},{"trial_n":27,"min":57,"max":198,"target":"present","response":"present","rt":659.99999999999,"correct":true,"confidence":5},{"trial_n":28,"min":57,"max":198,"target":"absent","response":"absent","rt":1338,"correct":true,"confidence":1},{"trial_n":29,"min":61,"max":194,"target":"absent","response":"absent","rt":1584,"correct":true,"confidence":3},{"trial_n":30,"min":61,"max":194,"target":"absent","response":"absent","rt":922,"correct":true,"confidence":3},{"trial_n":31,"min":63,"max":192,"target":"present","response":"present","rt":726.00000000001,"correct":true,"confidence":2},{"trial_n":32,"min":63,"max":192,"target":"absent","response":"absent","rt":621,"correct":true,"confidence":1},{"trial_n":33,"min":65,"max":190,"target":"absent","response":"present","rt":813,"correct":false,"confidence":4},{"trial_n":34,"min":63,"max":192,"target":"present","response":"present","rt":838,"correct":true,"confidence":3},{"trial_n":35,"min":63,"max":192,"target":"absent","response":"absent","rt":901,"correct":true,"confidence":2},{"trial_n":36,"min":65,"max":190,"target":"present","response":"present","rt":618,"correct":true,"confidence":5},{"trial_n":37,"min":65,"max":190,"target":"present","response":"present","rt":3381,"correct":true,"confidence":1},{"trial_n":38,"min":67,"max":188,"target":"present","response":"present","rt":571,"correct":true,"confidence":5},{"trial_n":39,"min":67,"max":188,"target":"absent","response":"present","rt":1216,"correct":false,"confidence":3},{"trial_n":40,"min":65,"max":190,"target":"absent","response":"absent","rt":601,"correct":true,"confidence":3},{"trial_n":41,"min":65,"max":190,"target":"absent","response":"present","rt":593.00000000001,"correct":false,"confidence":3},{"trial_n":42,"min":64,"max":191,"target":"absent","response":"present","rt":476,"correct":false,"confidence":4},{"trial_n":43,"min":63,"max":192,"target":"present","response":"present","rt":637,"correct":true,"confidence":5},{"trial_n":44,"min":63,"max":192,"target":"present","response":"present","rt":737,"correct":true,"confidence":4},{"trial_n":45,"min":64,"max":191,"target":"present","response":"present","rt":585,"correct":true,"confidence":4},{"trial_n":46,"min":64,"max":191,"target":"absent","response":"present","rt":1845,"correct":false,"confidence":4},{"trial_n":47,"min":63,"max":192,"target":"absent","response":"present","rt":665.00000000003,"correct":false,"confidence":4},{"trial_n":48,"min":62,"max":193,"target":"present","response":"present","rt":888.00000000003,"correct":true,"confidence":4},{"trial_n":49,"min":62,"max":193,"target":"present","response":"absent","rt":747,"correct":false,"confidence":2},{"trial_n":50,"min":61,"max":194,"target":"present","response":"present","rt":581.99999999997,"correct":true,"confidence":4},{"trial_n":51,"min":61,"max":194,"target":"absent","response":"present","rt":1866,"correct":false,"confidence":2},{"trial_n":52,"min":60,"max":195,"target":"present","response":"absent","rt":780,"correct":false,"confidence":3},{"trial_n":53,"min":59,"max":196,"target":"absent","response":"present","rt":503,"correct":false,"confidence":3},{"trial_n":54,"min":58,"max":197,"target":"absent","response":"present","rt":549,"correct":false,"confidence":2},{"trial_n":55,"min":57,"max":198,"target":"absent","response":"present","rt":582,"correct":false,"confidence":5},{"trial_n":56,"min":56,"max":199,"target":"present","response":"present","rt":567,"correct":true,"confidence":5},{"trial_n":57,"min":56,"max":199,"target":"present","response":"present","rt":615.00000000003,"correct":true,"confidence":5},{"trial_n":58,"min":57,"max":198,"target":"present","response":"absent","rt":2251,"correct":false,"confidence":3},{"trial_n":59,"min":56,"max":199,"target":"absent","response":"absent","rt":708,"correct":true,"confidence":2},{"trial_n":60,"min":56,"max":199,"target":"present","response":"present","rt":883,"correct":true,"confidence":5},{"trial_n":61,"min":57,"max":198,"target":"absent","response":"present","rt":525.99999999997,"correct":false,"confidence":2},{"trial_n":62,"min":56,"max":199,"target":"present","response":"present","rt":553,"correct":true,"confidence":5},{"trial_n":63,"min":56,"max":199,"target":"present","response":"present","rt":745.99999999997,"correct":true,"confidence":5},{"trial_n":64,"min":57,"max":198,"target":"present","response":"absent","rt":1331,"correct":false,"confidence":2},{"trial_n":65,"min":56,"max":199,"target":"absent","response":"present","rt":827,"correct":false,"confidence":2},{"trial_n":66,"min":55,"max":200,"target":"present","response":"present","rt":554,"correct":true,"confidence":3},{"trial_n":67,"min":55,"max":200,"target":"present","response":"present","rt":794,"correct":true,"confidence":5},{"trial_n":68,"min":56,"max":199,"target":"present","response":"absent","rt":1277,"correct":false,"confidence":3},{"trial_n":69,"min":55,"max":200,"target":"absent","response":"absent","rt":867,"correct":true,"confidence":2},{"trial_n":70,"min":55,"max":200,"target":"present","response":"present","rt":586,"correct":true,"confidence":2},{"trial_n":71,"min":41,"max":214,"target":"present","response":"absent","rt":4656,"correct":false,"confidence":-1},{"trial_n":72,"min":41,"max":214,"target":"present","response":"present","rt":687.99999999997,"correct":true,"confidence":-1},{"trial_n":73,"min":41,"max":214,"target":"absent","response":"absent","rt":782,"correct":true,"confidence":-1},{"trial_n":74,"min":57,"max":198,"target":"absent","response":"absent","rt":1086,"correct":true,"confidence":-1},{"trial_n":75,"min":57,"max":198,"target":"present","response":"present","rt":1157,"correct":true,"confidence":-1},{"trial_n":76,"min":73,"max":182,"target":"present","response":"present","rt":1041,"correct":true,"confidence":-1},{"trial_n":77,"min":73,"max":182,"target":"absent","response":"present","rt":1118,"correct":false,"confidence":-1},{"trial_n":78,"min":57,"max":198,"target":"present","response":"present","rt":755.99999999997,"correct":true,"confidence":-1},{"trial_n":79,"min":57,"max":198,"target":"absent","response":"absent","rt":1161,"correct":true,"confidence":-1},{"trial_n":80,"min":73,"max":182,"target":"absent","response":"absent","rt":646,"correct":true,"confidence":-1},{"trial_n":81,"min":73,"max":182,"target":"present","response":"present","rt":364,"correct":true,"confidence":-1},{"trial_n":82,"min":81,"max":174,"target":"present","response":"present","rt":862,"correct":true,"confidence":-1},{"trial_n":83,"min":81,"max":174,"target":"present","response":"present","rt":1534.9999999999,"correct":true,"confidence":-1},{"trial_n":84,"min":89,"max":166,"target":"absent","response":"absent","rt":458,"correct":true,"confidence":-1},{"trial_n":85,"min":89,"max":166,"target":"absent","response":"present","rt":1240,"correct":false,"confidence":-1},{"trial_n":86,"min":81,"max":174,"target":"absent","response":"absent","rt":1027,"correct":true,"confidence":-1},{"trial_n":87,"min":81,"max":174,"target":"absent","response":"present","rt":8046,"correct":false,"confidence":-1},{"trial_n":88,"min":73,"max":182,"target":"present","response":"absent","rt":775,"correct":false,"confidence":-1},{"trial_n":89,"min":65,"max":190,"target":"absent","response":"present","rt":1088,"correct":false,"confidence":-1},{"trial_n":90,"min":57,"max":198,"target":"present","response":"present","rt":35586,"correct":true,"confidence":-1},{"trial_n":91,"min":57,"max":198,"target":"absent","response":"absent","rt":606.99999999994,"correct":true,"confidence":5},{"trial_n":92,"min":61,"max":194,"target":"absent","response":"absent","rt":538,"correct":true,"confidence":5},{"trial_n":93,"min":61,"max":194,"target":"present","response":"present","rt":697,"correct":true,"confidence":5},{"trial_n":94,"min":65,"max":190,"target":"present","response":"present","rt":1049,"correct":true,"confidence":1},{"trial_n":95,"min":65,"max":190,"target":"present","response":"present","rt":822,"correct":true,"confidence":2},{"trial_n":96,"min":69,"max":186,"target":"present","response":"present","rt":1396,"correct":true,"confidence":4},{"trial_n":97,"min":69,"max":186,"target":"present","response":"present","rt":1205,"correct":true,"confidence":1},{"trial_n":98,"min":73,"max":182,"target":"absent","response":"absent","rt":881,"correct":true,"confidence":5},{"trial_n":99,"min":73,"max":182,"target":"absent","response":"present","rt":728,"correct":false,"confidence":2},{"trial_n":100,"min":69,"max":186,"target":"present","response":"absent","rt":952,"correct":false,"confidence":3},{"trial_n":101,"min":67,"max":188,"target":"present","response":"present","rt":589,"correct":true,"confidence":1},{"trial_n":102,"min":67,"max":188,"target":"present","response":"present","rt":632,"correct":true,"confidence":3},{"trial_n":103,"min":69,"max":186,"target":"absent","response":"absent","rt":784,"correct":true,"confidence":5},{"trial_n":104,"min":69,"max":186,"target":"present","response":"present","rt":867.99999999994,"correct":true,"confidence":5},{"trial_n":105,"min":71,"max":184,"target":"absent","response":"absent","rt":1690,"correct":true,"confidence":1},{"trial_n":106,"min":71,"max":184,"target":"present","response":"present","rt":923,"correct":true,"confidence":3},{"trial_n":107,"min":73,"max":182,"target":"present","response":"present","rt":677.99999999994,"correct":true,"confidence":3},{"trial_n":108,"min":73,"max":182,"target":"present","response":"present","rt":699,"correct":true,"confidence":2},{"trial_n":109,"min":75,"max":180,"target":"absent","response":"absent","rt":772,"correct":true,"confidence":4},{"trial_n":110,"min":75,"max":180,"target":"absent","response":"absent","rt":846,"correct":true,"confidence":3},{"trial_n":111,"min":76,"max":179,"target":"absent","response":"absent","rt":649,"correct":true,"confidence":3},{"trial_n":112,"min":76,"max":179,"target":"absent","response":"absent","rt":915,"correct":true,"confidence":3},{"trial_n":113,"min":77,"max":178,"target":"present","response":"present","rt":829,"correct":true,"confidence":4},{"trial_n":114,"min":77,"max":178,"target":"absent","response":"absent","rt":842.99999999994,"correct":true,"confidence":5},{"trial_n":115,"min":78,"max":177,"target":"present","response":"present","rt":2074,"correct":true,"confidence":4},{"trial_n":116,"min":78,"max":177,"target":"absent","response":"present","rt":903.99999999994,"correct":false,"confidence":1},{"trial_n":117,"min":77,"max":178,"target":"absent","response":"present","rt":744,"correct":false,"confidence":3},{"trial_n":118,"min":76,"max":179,"target":"present","response":"absent","rt":1737,"correct":false,"confidence":3},{"trial_n":119,"min":75,"max":180,"target":"absent","response":"absent","rt":1127,"correct":true,"confidence":3},{"trial_n":120,"min":75,"max":180,"target":"present","response":"absent","rt":753.00000000006,"correct":false,"confidence":2},{"trial_n":121,"min":74,"max":181,"target":"absent","response":"present","rt":480,"correct":false,"confidence":2},{"trial_n":122,"min":73,"max":182,"target":"absent","response":"absent","rt":959,"correct":true,"confidence":2},{"trial_n":123,"min":73,"max":182,"target":"present","response":"present","rt":788,"correct":true,"confidence":2},{"trial_n":124,"min":74,"max":181,"target":"present","response":"present","rt":546,"correct":true,"confidence":4},{"trial_n":125,"min":74,"max":181,"target":"present","response":"present","rt":469,"correct":true,"confidence":4},{"trial_n":126,"min":75,"max":180,"target":"absent","response":"absent","rt":1221,"correct":true,"confidence":4},{"trial_n":127,"min":75,"max":180,"target":"absent","response":"present","rt":666,"correct":false,"confidence":1},{"trial_n":128,"min":74,"max":181,"target":"absent","response":"absent","rt":722,"correct":true,"confidence":5},{"trial_n":129,"min":74,"max":181,"target":"present","response":"absent","rt":717.99999999994,"correct":false,"confidence":2},{"trial_n":130,"min":73,"max":182,"target":"present","response":"absent","rt":967,"correct":false,"confidence":2},{"trial_n":131,"min":72,"max":183,"target":"absent","response":"absent","rt":1226,"correct":true,"confidence":2},{"trial_n":132,"min":72,"max":183,"target":"present","response":"present","rt":602,"correct":true,"confidence":4},{"trial_n":133,"min":73,"max":182,"target":"present","response":"present","rt":623,"correct":true,"confidence":3},{"trial_n":134,"min":73,"max":182,"target":"present","response":"present","rt":661,"correct":true,"confidence":4},{"trial_n":135,"min":74,"max":181,"target":"absent","response":"absent","rt":1030,"correct":true,"confidence":3},{"trial_n":136,"min":74,"max":181,"target":"absent","response":"absent","rt":1420,"correct":true,"confidence":1},{"trial_n":137,"min":75,"max":180,"target":"present","response":"present","rt":1208,"correct":true,"confidence":4},{"trial_n":138,"min":75,"max":180,"target":"absent","response":"absent","rt":914,"correct":true,"confidence":3},{"trial_n":139,"min":76,"max":179,"target":"absent","response":"absent","rt":862,"correct":true,"confidence":3},{"trial_n":140,"min":76,"max":179,"target":"present","response":"absent","rt":1086,"correct":false,"confidence":2}]