[{"trial_n":1,"min":25,"max":230,"target":"present","response":"present","rt":4978.2999999523,"correct":true,"confidence":-1},{"trial_n":2,"min":25,"max":230,"target":"present","response":"present","rt":2673.9000000954,"correct":true,"confidence":-1},{"trial_n":3,"min":41,"max":214,"target":"absent","response":"absent","rt":1839.7999999523,"correct":true,"confidence":-1},{"trial_n":4,"min":41,"max":214,"target":"absent","response":"absent","rt":1067.6000001431,"correct":true,"confidence":-1},{"trial_n":5,"min":57,"max":198,"target":"present","response":"present","rt":1508.6000001431,"correct":true,"confidence":-1},{"trial_n":6,"min":57,"max":198,"target":"absent","response":"absent","rt":1085.5999999046,"correct":true,"confidence":-1},{"trial_n":7,"min":73,"max":182,"target":"present","response":"present","rt":727.70000004768,"correct":true,"confidence":-1},{"trial_n":8,"min":73,"max":182,"target":"present","response":"present","rt":974.5,"correct":true,"confidence":-1},{"trial_n":9,"min":89,"max":166,"target":"present","response":"absent","rt":635.40000009537,"correct":false,"confidence":-1},{"trial_n":10,"min":73,"max":182,"target":"present","response":"absent","rt":736,"correct":false,"confidence":-1},{"trial_n":11,"min":65,"max":190,"target":"absent","response":"present","rt":490,"correct":false,"confidence":-1},{"trial_n":12,"min":57,"max":198,"target":"absent","response":"absent","rt":669.90000009537,"correct":true,"confidence":-1},{"trial_n":13,"min":57,"max":198,"target":"absent","response":"absent","rt":829.70000004768,"correct":true,"confidence":-1},{"trial_n":14,"min":65,"max":190,"target":"present","response":"present","rt":1188,"correct":true,"confidence":-1},{"trial_n":15,"min":65,"max":190,"target":"present","response":"present","rt":528.80000019073,"correct":true,"confidence":-1},{"trial_n":16,"min":73,"max":182,"target":"present","response":"present","rt":550.90000009537,"correct":true,"confidence":-1},{"trial_n":17,"min":73,"max":182,"target":"absent","response":"absent","rt":1573.1000001431,"correct":true,"confidence":-1},{"trial_n":18,"min":81,"max":174,"target":"present","response":"present","rt":628,"correct":true,"confidence":-1},{"trial_n":19,"min":81,"max":174,"target":"present","response":"present","rt":802.09999990463,"correct":true,"confidence":-1},{"trial_n":20,"min":89,"max":166,"target":"absent","response":"absent","rt":565.60000014305,"correct":true,"confidence":-1},{"trial_n":21,"min":89,"max":166,"target":"present","response":"present","rt":815.70000004768,"correct":true,"confidence":4},{"trial_n":22,"min":93,"max":162,"target":"present","response":"absent","rt":1001,"correct":false,"confidence":3},{"trial_n":23,"min":89,"max":166,"target":"present","response":"absent","rt":1556.2000000477,"correct":false,"confidence":4},{"trial_n":24,"min":85,"max":170,"target":"absent","response":"present","rt":1156.7000000477,"correct":false,"confidence":5},{"trial_n":25,"min":81,"max":174,"target":"absent","response":"present","rt":1124.5999999046,"correct":false,"confidence":4},{"trial_n":26,"min":77,"max":178,"target":"present","response":"present","rt":2930,"correct":true,"confidence":3},{"trial_n":27,"min":77,"max":178,"target":"absent","response":"present","rt":1346.3999998569,"correct":false,"confidence":4},{"trial_n":28,"min":73,"max":182,"target":"present","response":"present","rt":962.29999995232,"correct":true,"confidence":5},{"trial_n":29,"min":73,"max":182,"target":"absent","response":"present","rt":2062.8999998569,"correct":false,"confidence":3},{"trial_n":30,"min":69,"max":186,"target":"absent","response":"absent","rt":1702.3999998569,"correct":true,"confidence":3},{"trial_n":31,"min":69,"max":186,"target":"present","response":"present","rt":1345.5,"correct":true,"confidence":5},{"trial_n":32,"min":71,"max":184,"target":"absent","response":"absent","rt":1149.9000000954,"correct":true,"confidence":3},{"trial_n":33,"min":71,"max":184,"target":"present","response":"present","rt":953.79999995232,"correct":true,"confidence":4},{"trial_n":34,"min":73,"max":182,"target":"present","response":"present","rt":1543.9000000954,"correct":true,"confidence":5},{"trial_n":35,"min":73,"max":182,"target":"present","response":"present","rt":914.09999990463,"correct":true,"confidence":5},{"trial_n":36,"min":75,"max":180,"target":"absent","response":"absent","rt":1457.4000000954,"correct":true,"confidence":3},{"trial_n":37,"min":75,"max":180,"target":"present","response":"present","rt":1095.4000000954,"correct":true,"confidence":4},{"trial_n":38,"min":77,"max":178,"target":"present","response":"present","rt":1320.5999999046,"correct":true,"confidence":5},{"trial_n":39,"min":77,"max":178,"target":"absent","response":"absent","rt":909.39999985695,"correct":true,"confidence":3},{"trial_n":40,"min":79,"max":176,"target":"present","response":"present","rt":4324.6999998093,"correct":true,"confidence":2},{"trial_n":41,"min":79,"max":176,"target":"present","response":"present","rt":1198.7000000477,"correct":true,"confidence":4},{"trial_n":42,"min":80,"max":175,"target":"absent","response":"absent","rt":1264.2999999523,"correct":true,"confidence":3},{"trial_n":43,"min":80,"max":175,"target":"absent","response":"absent","rt":840.40000009537,"correct":true,"confidence":4},{"trial_n":44,"min":81,"max":174,"target":"absent","response":"absent","rt":988.20000004768,"correct":true,"confidence":5},{"trial_n":45,"min":81,"max":174,"target":"present","response":"present","rt":991.5,"correct":true,"confidence":3},{"trial_n":46,"min":82,"max":173,"target":"absent","response":"absent","rt":886.40000009537,"correct":true,"confidence":5},{"trial_n":47,"min":82,"max":173,"target":"absent","response":"absent","rt":1245,"correct":true,"confidence":4},{"trial_n":48,"min":83,"max":172,"target":"present","response":"absent","rt":880.40000009537,"correct":false,"confidence":2},{"trial_n":49,"min":82,"max":173,"target":"present","response":"present","rt":1029,"correct":true,"confidence":3},{"trial_n":50,"min":82,"max":173,"target":"absent","response":"absent","rt":791.60000014305,"correct":true,"confidence":2},{"trial_n":51,"min":83,"max":172,"target":"absent","response":"absent","rt":974.20000004768,"correct":true,"confidence":3},{"trial_n":52,"min":83,"max":172,"target":"present","response":"absent","rt":1356.6000001431,"correct":false,"confidence":1},{"trial_n":53,"min":82,"max":173,"target":"present","response":"present","rt":1067.0999999046,"correct":true,"confidence":4},{"trial_n":54,"min":82,"max":173,"target":"absent","response":"absent","rt":1067.7000000477,"correct":true,"confidence":3},{"trial_n":55,"min":83,"max":172,"target":"absent","response":"absent","rt":978.20000004768,"correct":true,"confidence":5},{"trial_n":56,"min":83,"max":172,"target":"present","response":"present","rt":1033.5,"correct":true,"confidence":3},{"trial_n":57,"min":84,"max":171,"target":"absent","response":"absent","rt":737.20000004768,"correct":true,"confidence":3},{"trial_n":58,"min":84,"max":171,"target":"absent","response":"present","rt":1238.2999999523,"correct":false,"confidence":3},{"trial_n":59,"min":83,"max":172,"target":"absent","response":"absent","rt":943.29999995232,"correct":true,"confidence":3},{"trial_n":60,"min":83,"max":172,"target":"absent","response":"absent","rt":762.29999995232,"correct":true,"confidence":5},{"trial_n":61,"min":84,"max":171,"target":"present","response":"present","rt":2698,"correct":true,"confidence":2},{"trial_n":62,"min":84,"max":171,"target":"present","response":"present","rt":1024.7000000477,"correct":true,"confidence":3},{"trial_n":63,"min":85,"max":170,"target":"present","response":"present","rt":910.80000019073,"correct":true,"confidence":2},{"trial_n":64,"min":85,"max":170,"target":"absent","response":"absent","rt":1011.3999998569,"correct":true,"confidence":1},{"trial_n":65,"min":86,"max":169,"target":"present","response":"absent","rt":1355.8999998569,"correct":false,"confidence":4},{"trial_n":66,"min":85,"max":170,"target":"absent","response":"absent","rt":915.89999985695,"correct":true,"confidence":3},{"trial_n":67,"min":85,"max":170,"target":"absent","response":"absent","rt":972.5,"correct":true,"confidence":2},{"trial_n":68,"min":86,"max":169,"target":"present","response":"absent","rt":1207.6000001431,"correct":false,"confidence":3},{"trial_n":69,"min":85,"max":170,"target":"absent","response":"absent","rt":989.90000009537,"correct":true,"confidence":1},{"trial_n":70,"min":85,"max":170,"target":"absent","response":"absent","rt":932.39999985695,"correct":true,"confidence":4},{"trial_n":71,"min":41,"max":214,"target":"present","response":"present","rt":2935.3999998569,"correct":true,"confidence":-1},{"trial_n":72,"min":41,"max":214,"target":"present","response":"present","rt":812.89999985695,"correct":true,"confidence":-1},{"trial_n":73,"min":57,"max":198,"target":"absent","response":"absent","rt":700,"correct":true,"confidence":-1},{"trial_n":74,"min":57,"max":198,"target":"absent","response":"absent","rt":672.70000004768,"correct":true,"confidence":-1},{"trial_n":75,"min":73,"max":182,"target":"present","response":"present","rt":681.09999990463,"correct":true,"confidence":-1},{"trial_n":76,"min":73,"max":182,"target":"absent","response":"absent","rt":638.89999985695,"correct":true,"confidence":-1},{"trial_n":77,"min":89,"max":166,"target":"absent","response":"absent","rt":1018.5999999046,"correct":true,"confidence":-1},{"trial_n":78,"min":89,"max":166,"target":"absent","response":"present","rt":755.5,"correct":false,"confidence":-1},{"trial_n":79,"min":73,"max":182,"target":"absent","response":"absent","rt":559.39999985695,"correct":true,"confidence":-1},{"trial_n":80,"min":73,"max":182,"target":"present","response":"present","rt":653.5,"correct":true,"confidence":-1},{"trial_n":81,"min":81,"max":174,"target":"absent","response":"absent","rt":675.60000014305,"correct":true,"confidence":-1},{"trial_n":82,"min":81,"max":174,"target":"absent","response":"absent","rt":586.40000009537,"correct":true,"confidence":-1},{"trial_n":83,"min":89,"max":166,"target":"present","response":"present","rt":542.79999995232,"correct":true,"confidence":-1},{"trial_n":84,"min":89,"max":166,"target":"present","response":"present","rt":962.80000019073,"correct":true,"confidence":-1},{"trial_n":85,"min":97,"max":158,"target":"present","response":"present","rt":767.79999995232,"correct":true,"confidence":-1},{"trial_n":86,"min":97,"max":158,"target":"absent","response":"present","rt":813.5,"correct":false,"confidence":-1},{"trial_n":87,"min":89,"max":166,"target":"present","response":"absent","rt":579.39999985695,"correct":false,"confidence":-1},{"trial_n":88,"min":81,"max":174,"target":"present","response":"present","rt":474.39999985695,"correct":true,"confidence":-1},{"trial_n":89,"min":81,"max":174,"target":"present","response":"present","rt":526.39999985695,"correct":true,"confidence":-1},{"trial_n":90,"min":89,"max":166,"target":"present","response":"present","rt":646.90000009537,"correct":true,"confidence":-1},{"trial_n":91,"min":89,"max":166,"target":"present","response":"present","rt":767,"correct":true,"confidence":4},{"trial_n":92,"min":93,"max":162,"target":"present","response":"present","rt":525.70000004768,"correct":true,"confidence":5},{"trial_n":93,"min":93,"max":162,"target":"present","response":"present","rt":735.90000009537,"correct":true,"confidence":3},{"trial_n":94,"min":97,"max":158,"target":"present","response":"present","rt":690.70000004768,"correct":true,"confidence":3},{"trial_n":95,"min":97,"max":158,"target":"absent","response":"absent","rt":691.20000004768,"correct":true,"confidence":4},{"trial_n":96,"min":101,"max":154,"target":"present","response":"present","rt":419.89999985695,"correct":true,"confidence":3},{"trial_n":97,"min":101,"max":154,"target":"absent","response":"absent","rt":946.90000009537,"correct":true,"confidence":2},{"trial_n":98,"min":105,"max":150,"target":"absent","response":"present","rt":758.09999990463,"correct":false,"confidence":3},{"trial_n":99,"min":101,"max":154,"target":"present","response":"present","rt":766.29999995232,"correct":true,"confidence":4},{"trial_n":100,"min":101,"max":154,"target":"absent","response":"absent","rt":1059.4000000954,"correct":true,"confidence":2},{"trial_n":101,"min":103,"max":152,"target":"present","response":"present","rt":611.29999995232,"correct":true,"confidence":4},{"trial_n":102,"min":103,"max":152,"target":"present","response":"present","rt":545.29999995232,"correct":true,"confidence":5},{"trial_n":103,"min":105,"max":150,"target":"present","response":"present","rt":587.29999995232,"correct":true,"confidence":3},{"trial_n":104,"min":105,"max":150,"target":"absent","response":"absent","rt":553.5,"correct":true,"confidence":3},{"trial_n":105,"min":107,"max":148,"target":"absent","response":"present","rt":471.59999990463,"correct":false,"confidence":2},{"trial_n":106,"min":105,"max":150,"target":"absent","response":"present","rt":540.29999995232,"correct":false,"confidence":3},{"trial_n":107,"min":103,"max":152,"target":"absent","response":"absent","rt":1136.2000000477,"correct":true,"confidence":4},{"trial_n":108,"min":103,"max":152,"target":"absent","response":"present","rt":613,"correct":false,"confidence":3},{"trial_n":109,"min":101,"max":154,"target":"absent","response":"absent","rt":981,"correct":true,"confidence":2},{"trial_n":110,"min":101,"max":154,"target":"absent","response":"present","rt":386.39999985695,"correct":false,"confidence":3},{"trial_n":111,"min":100,"max":155,"target":"absent","response":"present","rt":656.60000014305,"correct":false,"confidence":2},{"trial_n":112,"min":99,"max":156,"target":"present","response":"absent","rt":1175.7999999523,"correct":false,"confidence":3},{"trial_n":113,"min":98,"max":157,"target":"present","response":"present","rt":472.60000014305,"correct":true,"confidence":1},{"trial_n":114,"min":98,"max":157,"target":"absent","response":"absent","rt":1758.2999999523,"correct":true,"confidence":2},{"trial_n":115,"min":99,"max":156,"target":"present","response":"present","rt":483.5,"correct":true,"confidence":4},{"trial_n":116,"min":99,"max":156,"target":"present","response":"present","rt":834.59999990463,"correct":true,"confidence":3},{"trial_n":117,"min":100,"max":155,"target":"absent","response":"absent","rt":884.19999980927,"correct":true,"confidence":4},{"trial_n":118,"min":100,"max":155,"target":"absent","response":"present","rt":651.60000014305,"correct":false,"confidence":3},{"trial_n":119,"min":99,"max":156,"target":"absent","response":"absent","rt":709.39999985695,"correct":true,"confidence":2},{"trial_n":120,"min":99,"max":156,"target":"absent","response":"absent","rt":1060.8999998569,"correct":true,"confidence":3},{"trial_n":121,"min":100,"max":155,"target":"present","response":"present","rt":594.30000019073,"correct":true,"confidence":3},{"trial_n":122,"min":100,"max":155,"target":"present","response":"present","rt":586.5,"correct":true,"confidence":4},{"trial_n":123,"min":101,"max":154,"target":"present","response":"present","rt":540.30000019073,"correct":true,"confidence":5},{"trial_n":124,"min":101,"max":154,"target":"absent","response":"absent","rt":1299.9000000954,"correct":true,"confidence":3},{"trial_n":125,"min":102,"max":153,"target":"present","response":"present","rt":445.80000019073,"correct":true,"confidence":3},{"trial_n":126,"min":102,"max":153,"target":"absent","response":"absent","rt":705,"correct":true,"confidence":2},{"trial_n":127,"min":103,"max":152,"target":"present","response":"present","rt":568.5,"correct":true,"confidence":3},{"trial_n":128,"min":103,"max":152,"target":"present","response":"absent","rt":976.89999985695,"correct":false,"confidence":3},{"trial_n":129,"min":102,"max":153,"target":"absent","response":"present","rt":1002.4000000954,"correct":false,"confidence":3},{"trial_n":130,"min":101,"max":154,"target":"present","response":"absent","rt":834,"correct":false,"confidence":3},{"trial_n":131,"min":100,"max":155,"target":"absent","response":"absent","rt":976.29999995232,"correct":true,"confidence":2},{"trial_n":132,"min":100,"max":155,"target":"present","response":"present","rt":565.09999990463,"correct":true,"confidence":4},{"trial_n":133,"min":101,"max":154,"target":"present","response":"present","rt":680.09999990463,"correct":true,"confidence":3},{"trial_n":134,"min":101,"max":154,"target":"absent","response":"absent","rt":651.20000004768,"correct":true,"confidence":3},{"trial_n":135,"min":102,"max":153,"target":"absent","response":"absent","rt":749.5,"correct":true,"confidence":2},{"trial_n":136,"min":102,"max":153,"target":"absent","response":"present","rt":870.09999990463,"correct":false,"confidence":2},{"trial_n":137,"min":101,"max":154,"target":"present","response":"present","rt":1439.4000000954,"correct":true,"confidence":2},{"trial_n":138,"min":101,"max":154,"target":"present","response":"present","rt":853.19999980927,"correct":true,"confidence":2},{"trial_n":139,"min":102,"max":153,"target":"absent","response":"absent","rt":878.5,"correct":true,"confidence":2},{"trial_n":140,"min":102,"max":153,"target":"present","response":"present","rt":760.60000014305,"correct":true,"confidence":1}]