[{"trial_n":1,"n_dots":4.25,"target":"right","response":"right","rt":6433,"correct":true,"confidence":-1},{"trial_n":2,"n_dots":4.25,"target":"right","response":"left","rt":2017,"correct":false,"confidence":-1},{"trial_n":3,"n_dots":4.65,"target":"left","response":"right","rt":920,"correct":false,"confidence":-1},{"trial_n":4,"n_dots":5.05,"target":"left","response":"left","rt":1013,"correct":true,"confidence":-1},{"trial_n":5,"n_dots":5.05,"target":"left","response":"right","rt":803,"correct":false,"confidence":-1},{"trial_n":6,"n_dots":5.45,"target":"right","response":"left","rt":1245,"correct":false,"confidence":-1},{"trial_n":7,"n_dots":5.743,"target":"left","response":"left","rt":1121,"correct":true,"confidence":-1},{"trial_n":8,"n_dots":5.743,"target":"right","response":"right","rt":872,"correct":true,"confidence":-1},{"trial_n":9,"n_dots":5.543,"target":"left","response":"left","rt":506,"correct":true,"confidence":-1},{"trial_n":10,"n_dots":5.543,"target":"left","response":"left","rt":536,"correct":true,"confidence":-1},{"trial_n":11,"n_dots":5.343,"target":"left","response":"left","rt":444.00000000001,"correct":true,"confidence":-1},{"trial_n":12,"n_dots":5.343,"target":"right","response":"right","rt":479.99999999999,"correct":true,"confidence":-1},{"trial_n":13,"n_dots":5.243,"target":"right","response":"right","rt":316,"correct":true,"confidence":-1},{"trial_n":14,"n_dots":5.243,"target":"right","response":"right","rt":223,"correct":true,"confidence":-1},{"trial_n":15,"n_dots":5.143,"target":"left","response":"left","rt":247,"correct":true,"confidence":-1},{"trial_n":16,"n_dots":5.143,"target":"left","response":"left","rt":245,"correct":true,"confidence":-1},{"trial_n":17,"n_dots":5.043,"target":"left","response":"left","rt":369,"correct":true,"confidence":-1},{"trial_n":18,"n_dots":5.043,"target":"left","response":"left","rt":193,"correct":true,"confidence":-1},{"trial_n":19,"n_dots":4.943,"target":"left","response":"left","rt":310,"correct":true,"confidence":-1},{"trial_n":20,"n_dots":4.943,"target":"right","response":"right","rt":576,"correct":true,"confidence":-1},{"trial_n":21,"n_dots":4.843,"target":"right","response":"right","rt":515,"correct":true,"confidence":4},{"trial_n":22,"n_dots":4.843,"target":"left","response":"left","rt":225,"correct":true,"confidence":3},{"trial_n":23,"n_dots":4.743,"target":"left","response":"left","rt":321,"correct":true,"confidence":5},{"trial_n":24,"n_dots":4.743,"target":"left","response":"left","rt":463,"correct":true,"confidence":4},{"trial_n":25,"n_dots":4.643,"target":"left","response":"left","rt":1014,"correct":true,"confidence":2},{"trial_n":26,"n_dots":4.643,"target":"right","response":"right","rt":830,"correct":true,"confidence":2},{"trial_n":27,"n_dots":4.543,"target":"left","response":"left","rt":534.00000000001,"correct":true,"confidence":3},{"trial_n":28,"n_dots":4.543,"target":"right","response":"right","rt":465,"correct":true,"confidence":3},{"trial_n":29,"n_dots":4.443,"target":"left","response":"left","rt":468,"correct":true,"confidence":2},{"trial_n":30,"n_dots":4.443,"target":"left","response":"left","rt":630,"correct":true,"confidence":2},{"trial_n":31,"n_dots":4.343,"target":"left","response":"left","rt":780,"correct":true,"confidence":1},{"trial_n":32,"n_dots":4.343,"target":"right","response":"left","rt":1163,"correct":false,"confidence":1},{"trial_n":33,"n_dots":4.443,"target":"left","response":"left","rt":623,"correct":true,"confidence":1},{"trial_n":34,"n_dots":4.443,"target":"right","response":"right","rt":577,"correct":true,"confidence":3},{"trial_n":35,"n_dots":4.343,"target":"right","response":"right","rt":491,"correct":true,"confidence":2},{"trial_n":36,"n_dots":4.343,"target":"right","response":"right","rt":332,"correct":true,"confidence":2},{"trial_n":37,"n_dots":4.243,"target":"left","response":"right","rt":1009,"correct":false,"confidence":1},{"trial_n":38,"n_dots":4.343,"target":"left","response":"left","rt":333.99999999997,"correct":true,"confidence":3},{"trial_n":39,"n_dots":4.343,"target":"right","response":"right","rt":416,"correct":true,"confidence":3},{"trial_n":40,"n_dots":4.243,"target":"right","response":"right","rt":238,"correct":true,"confidence":2},{"trial_n":41,"n_dots":4.243,"target":"left","response":"left","rt":306,"correct":true,"confidence":1},{"trial_n":42,"n_dots":4.143,"target":"left","response":"left","rt":480,"correct":true,"confidence":2},{"trial_n":43,"n_dots":4.143,"target":"left","response":"left","rt":391.00000000006,"correct":true,"confidence":2},{"trial_n":44,"n_dots":4.043,"target":"right","response":"right","rt":396,"correct":true,"confidence":2},{"trial_n":45,"n_dots":4.043,"target":"right","response":"right","rt":999,"correct":true,"confidence":1},{"trial_n":46,"n_dots":3.943,"target":"right","response":"right","rt":208.00000000006,"correct":true,"confidence":3},{"trial_n":47,"n_dots":3.943,"target":"right","response":"right","rt":346,"correct":true,"confidence":3},{"trial_n":48,"n_dots":3.843,"target":"right","response":"right","rt":378.99999999994,"correct":true,"confidence":2},{"trial_n":49,"n_dots":3.843,"target":"left","response":"right","rt":224,"correct":false,"confidence":2},{"trial_n":50,"n_dots":3.943,"target":"left","response":"left","rt":345,"correct":true,"confidence":2},{"trial_n":51,"n_dots":3.943,"target":"right","response":"right","rt":302,"correct":true,"confidence":2},{"trial_n":52,"n_dots":3.843,"target":"right","response":"right","rt":192,"correct":true,"confidence":3},{"trial_n":53,"n_dots":3.843,"target":"left","response":"left","rt":441,"correct":true,"confidence":1},{"trial_n":54,"n_dots":3.743,"target":"left","response":"left","rt":616,"correct":true,"confidence":3},{"trial_n":55,"n_dots":3.743,"target":"left","response":"left","rt":733,"correct":true,"confidence":3},{"trial_n":56,"n_dots":3.643,"target":"right","response":"right","rt":581,"correct":true,"confidence":1},{"trial_n":57,"n_dots":3.643,"target":"left","response":"left","rt":164,"correct":true,"confidence":2},{"trial_n":58,"n_dots":3.543,"target":"left","response":"left","rt":226,"correct":true,"confidence":2},{"trial_n":59,"n_dots":3.543,"target":"right","response":"right","rt":107.99999999994,"correct":true,"confidence":3},{"trial_n":60,"n_dots":3.443,"target":"right","response":"left","rt":681,"correct":false,"confidence":1},{"trial_n":61,"n_dots":3.543,"target":"right","response":"right","rt":99.999999999942,"correct":true,"confidence":2},{"trial_n":62,"n_dots":3.543,"target":"right","response":"left","rt":706,"correct":false,"confidence":1},{"trial_n":63,"n_dots":3.643,"target":"right","response":"right","rt":263,"correct":true,"confidence":2},{"trial_n":64,"n_dots":3.643,"target":"right","response":"right","rt":97.999999999942,"correct":true,"confidence":2},{"trial_n":65,"n_dots":3.543,"target":"right","response":"right","rt":593.00000000006,"correct":true,"confidence":1},{"trial_n":66,"n_dots":3.543,"target":"left","response":"right","rt":973,"correct":false,"confidence":1},{"trial_n":67,"n_dots":3.643,"target":"right","response":"right","rt":250,"correct":true,"confidence":1},{"trial_n":68,"n_dots":3.643,"target":"right","response":"right","rt":576.00000000006,"correct":true,"confidence":1},{"trial_n":69,"n_dots":3.543,"target":"right","response":"left","rt":776.00000000006,"correct":false,"confidence":1},{"trial_n":70,"n_dots":3.643,"target":"right","response":"right","rt":1088,"correct":true,"confidence":1},{"trial_n":71,"n_dots":3.643,"target":"left","response":"left","rt":514,"correct":true,"confidence":2},{"trial_n":72,"n_dots":3.543,"target":"right","response":"right","rt":642,"correct":true,"confidence":1},{"trial_n":73,"n_dots":3.543,"target":"left","response":"left","rt":415,"correct":true,"confidence":1},{"trial_n":74,"n_dots":3.443,"target":"left","response":"right","rt":384,"correct":false,"confidence":1},{"trial_n":75,"n_dots":3.543,"target":"right","response":"left","rt":280.99999999994,"correct":false,"confidence":1},{"trial_n":76,"n_dots":3.643,"target":"right","response":"right","rt":336.00000000006,"correct":true,"confidence":3},{"trial_n":77,"n_dots":3.643,"target":"left","response":"right","rt":366,"correct":false,"confidence":1},{"trial_n":78,"n_dots":3.743,"target":"left","response":"left","rt":272.99999999994,"correct":true,"confidence":2},{"trial_n":79,"n_dots":3.743,"target":"right","response":"right","rt":261.00000000006,"correct":true,"confidence":1},{"trial_n":80,"n_dots":3.643,"target":"right","response":"left","rt":203,"correct":false,"confidence":1},{"trial_n":81,"n_dots":3.743,"target":"left","response":"right","rt":290,"correct":false,"confidence":1},{"trial_n":82,"n_dots":3.843,"target":"right","response":"right","rt":226,"correct":true,"confidence":1},{"trial_n":83,"n_dots":3.843,"target":"right","response":"right","rt":165,"correct":true,"confidence":4},{"trial_n":84,"n_dots":3.743,"target":"left","response":"left","rt":341.99999999988,"correct":true,"confidence":2},{"trial_n":85,"n_dots":3.743,"target":"left","response":"right","rt":98,"correct":false,"confidence":1},{"trial_n":86,"n_dots":3.843,"target":"left","response":"left","rt":629.00000000012,"correct":true,"confidence":2},{"trial_n":87,"n_dots":3.843,"target":"left","response":"left","rt":592,"correct":true,"confidence":1},{"trial_n":88,"n_dots":3.743,"target":"right","response":"right","rt":136.00000000012,"correct":true,"confidence":4},{"trial_n":89,"n_dots":3.743,"target":"right","response":"right","rt":242,"correct":true,"confidence":3},{"trial_n":90,"n_dots":3.643,"target":"right","response":"right","rt":81.999999999884,"correct":true,"confidence":3},{"trial_n":91,"n_dots":3.643,"target":"left","response":"left","rt":457,"correct":true,"confidence":2},{"trial_n":92,"n_dots":3.543,"target":"left","response":"left","rt":662,"correct":true,"confidence":3},{"trial_n":93,"n_dots":3.543,"target":"right","response":"right","rt":796,"correct":true,"confidence":2},{"trial_n":94,"n_dots":3.443,"target":"left","response":"left","rt":789,"correct":true,"confidence":1},{"trial_n":95,"n_dots":3.443,"target":"left","response":"left","rt":476,"correct":true,"confidence":4},{"trial_n":96,"n_dots":3.343,"target":"right","response":"left","rt":553,"correct":false,"confidence":1},{"trial_n":97,"n_dots":3.443,"target":"right","response":"right","rt":367,"correct":true,"confidence":3},{"trial_n":98,"n_dots":3.443,"target":"right","response":"right","rt":648,"correct":true,"confidence":2},{"trial_n":99,"n_dots":3.343,"target":"left","response":"left","rt":2006,"correct":true,"confidence":1},{"trial_n":100,"n_dots":3.343,"target":"right","response":"right","rt":129,"correct":true,"confidence":1},{"trial_n":101,"n_dots":3.243,"target":"left","response":"right","rt":389,"correct":false,"confidence":1},{"trial_n":102,"n_dots":3.343,"target":"right","response":"left","rt":347,"correct":false,"confidence":2},{"trial_n":103,"n_dots":3.443,"target":"right","response":"right","rt":73,"correct":true,"confidence":3},{"trial_n":104,"n_dots":3.443,"target":"right","response":"right","rt":128.00000000023,"correct":true,"confidence":3},{"trial_n":105,"n_dots":3.343,"target":"right","response":"left","rt":147.99999999977,"correct":false,"confidence":3},{"trial_n":106,"n_dots":3.443,"target":"left","response":"left","rt":528,"correct":true,"confidence":4},{"trial_n":107,"n_dots":3.443,"target":"left","response":"left","rt":728,"correct":true,"confidence":3},{"trial_n":108,"n_dots":3.343,"target":"left","response":"left","rt":103,"correct":true,"confidence":2},{"trial_n":109,"n_dots":3.343,"target":"left","response":"left","rt":214.00000000023,"correct":true,"confidence":3},{"trial_n":110,"n_dots":3.243,"target":"right","response":"right","rt":762.00000000023,"correct":true,"confidence":2},{"trial_n":111,"n_dots":3.243,"target":"right","response":"right","rt":433,"correct":true,"confidence":2},{"trial_n":112,"n_dots":3.143,"target":"right","response":"left","rt":1706.9999999998,"correct":false,"confidence":1},{"trial_n":113,"n_dots":3.243,"target":"left","response":"left","rt":183,"correct":true,"confidence":3},{"trial_n":114,"n_dots":3.243,"target":"left","response":"left","rt":98,"correct":true,"confidence":4},{"trial_n":115,"n_dots":3.143,"target":"left","response":"left","rt":137,"correct":true,"confidence":4},{"trial_n":116,"n_dots":3.143,"target":"right","response":"left","rt":49,"correct":false,"confidence":3},{"trial_n":117,"n_dots":3.243,"target":"left","response":"left","rt":50,"correct":true,"confidence":1},{"trial_n":118,"n_dots":3.243,"target":"left","response":"left","rt":806,"correct":true,"confidence":4},{"trial_n":119,"n_dots":3.143,"target":"right","response":"right","rt":224.99999999977,"correct":true,"confidence":2},{"trial_n":120,"n_dots":3.143,"target":"left","response":"left","rt":664,"correct":true,"confidence":3}]