[{"trial_n":1,"span":8,"encoder":"21804555","distractor":"21804585","target":"present","response":"absent","rt":"6875.8999998569","correct":false,"confidence":-1},{"trial_n":2,"span":6,"encoder":"589104","distractor":"584104","target":"present","response":"present","rt":"2224.0999999046","correct":true,"confidence":-1},{"trial_n":3,"span":6,"encoder":"346796","distractor":"346756","target":"absent","response":"absent","rt":"1761.2000000477","correct":true,"confidence":-1},{"trial_n":4,"span":8,"encoder":"15957362","distractor":"15956362","target":"absent","response":"absent","rt":"1472.4000000954","correct":true,"confidence":-1},{"trial_n":5,"span":8,"encoder":"56613426","distractor":"56613326","target":"present","response":"present","rt":"2350.7999999523","correct":true,"confidence":-1},{"trial_n":6,"span":10,"encoder":"2668587745","distractor":"2628587745","target":"absent","response":"present","rt":"1188.2999999523","correct":false,"confidence":-1},{"trial_n":7,"span":8,"encoder":"24702719","distractor":"24702715","target":"absent","response":"present","rt":"1119.6999998093","correct":false,"confidence":-1},{"trial_n":8,"span":6,"encoder":"935491","distractor":"935451","target":"absent","response":"present","rt":"1192.4000000954","correct":false,"confidence":-1},{"trial_n":9,"span":4,"encoder":"5969","distractor":"5949","target":"present","response":"absent","rt":"1216","correct":false,"confidence":-1},{"trial_n":10,"span":2,"encoder":"99","distractor":"92","target":"absent","response":"absent","rt":"1752.3999998569","correct":true,"confidence":-1},{"trial_n":11,"span":2,"encoder":"48","distractor":"38","target":"absent","response":"absent","rt":"1127.2000000477","correct":true,"confidence":-1},{"trial_n":12,"span":3,"encoder":"501","distractor":"506","target":"present","response":"present","rt":"1232.5999999046","correct":true,"confidence":-1},{"trial_n":13,"span":3,"encoder":"505","distractor":"705","target":"present","response":"present","rt":"1050","correct":true,"confidence":-1},{"trial_n":14,"span":4,"encoder":"3898","distractor":"3198","target":"absent","response":"absent","rt":"1162","correct":true,"confidence":-1},{"trial_n":15,"span":4,"encoder":"3220","distractor":"3221","target":"absent","response":"absent","rt":"1262.5","correct":true,"confidence":-1},{"trial_n":16,"span":5,"encoder":"07047","distractor":"05047","target":"present","response":"present","rt":"1431.5999999046","correct":true,"confidence":-1},{"trial_n":17,"span":5,"encoder":"74610","distractor":"84610","target":"present","response":"absent","rt":"1186.6999998093","correct":false,"confidence":-1},{"trial_n":18,"span":4,"encoder":"8759","distractor":"6759","target":"absent","response":"absent","rt":"1089.2000000477","correct":true,"confidence":-1},{"trial_n":19,"span":4,"encoder":"4876","distractor":"4871","target":"present","response":"present","rt":"1122","correct":true,"confidence":-1},{"trial_n":20,"span":5,"encoder":"83341","distractor":"84341","target":"present","response":"absent","rt":"1172.7000000477","correct":false,"confidence":-1},{"trial_n":21,"span":4,"encoder":"3456","distractor":"4456","target":"absent","response":"absent","rt":"1331.7000000477","correct":true,"confidence":4},{"trial_n":22,"span":4,"encoder":"9878","distractor":"9178","target":"absent","response":"absent","rt":"1714","correct":true,"confidence":4},{"trial_n":23,"span":5,"encoder":"73357","distractor":"73367","target":"present","response":"present","rt":"1731.2999999523","correct":true,"confidence":4},{"trial_n":24,"span":5,"encoder":"20227","distractor":"40227","target":"absent","response":"present","rt":"2174","correct":false,"confidence":3},{"trial_n":25,"span":4,"encoder":"7333","distractor":"0333","target":"present","response":"present","rt":"1872","correct":true,"confidence":3},{"trial_n":26,"span":4,"encoder":"2473","distractor":"2453","target":"absent","response":"absent","rt":"2177.5","correct":true,"confidence":4},{"trial_n":27,"span":5,"encoder":"29373","distractor":"20373","target":"absent","response":"absent","rt":"1676.2999999523","correct":true,"confidence":4},{"trial_n":28,"span":5,"encoder":"08279","distractor":"08278","target":"absent","response":"absent","rt":"1950.7999999523","correct":true,"confidence":3},{"trial_n":29,"span":6,"encoder":"384035","distractor":"384039","target":"absent","response":"absent","rt":"2309.4000000954","correct":true,"confidence":3},{"trial_n":30,"span":6,"encoder":"684602","distractor":"687602","target":"present","response":"present","rt":"3553.7000000477","correct":true,"confidence":3},{"trial_n":31,"span":7,"encoder":"2037895","distractor":"2837895","target":"present","response":"absent","rt":"2116.5999999046","correct":false,"confidence":3},{"trial_n":32,"span":6,"encoder":"527512","distractor":"527712","target":"present","response":"present","rt":"4026.9000000954","correct":true,"confidence":2},{"trial_n":33,"span":6,"encoder":"707385","distractor":"707885","target":"absent","response":"absent","rt":"1948.6999998093","correct":true,"confidence":3},{"trial_n":34,"span":7,"encoder":"4449195","distractor":"4949195","target":"present","response":"present","rt":"2061","correct":true,"confidence":3},{"trial_n":35,"span":7,"encoder":"8661649","distractor":"6661649","target":"present","response":"present","rt":"1690.9000000954","correct":true,"confidence":2},{"trial_n":36,"span":8,"encoder":"95095726","distractor":"97095726","target":"present","response":"present","rt":"2875.7000000477","correct":true,"confidence":3},{"trial_n":37,"span":8,"encoder":"34265397","distractor":"34865397","target":"absent","response":"absent","rt":"1833.0999999046","correct":true,"confidence":4},{"trial_n":38,"span":9,"encoder":"477323776","distractor":"577323776","target":"absent","response":"absent","rt":"2152.2000000477","correct":true,"confidence":3},{"trial_n":39,"span":9,"encoder":"978028837","distractor":"972028837","target":"present","response":"present","rt":"2956.7000000477","correct":true,"confidence":3},{"trial_n":40,"span":10,"encoder":"1676103225","distractor":"1676103285","target":"present","response":"present","rt":"2526.7000000477","correct":true,"confidence":2},{"trial_n":41,"span":10,"encoder":"3334863501","distractor":"8334863501","target":"present","response":"present","rt":"3533","correct":true,"confidence":2},{"trial_n":42,"span":11,"encoder":"46837384963","distractor":"46837384943","target":"absent","response":"absent","rt":"2937.5999999046","correct":true,"confidence":2},{"trial_n":43,"span":11,"encoder":"47232378245","distractor":"47232378295","target":"present","response":"present","rt":"1898.6000001431","correct":true,"confidence":3},{"trial_n":44,"span":12,"encoder":"185756197913","distractor":"181756197913","target":"present","response":"present","rt":"3248","correct":true,"confidence":2},{"trial_n":45,"span":12,"encoder":"199109543046","distractor":"199109543036","target":"absent","response":"present","rt":"1987.4000000954","correct":false,"confidence":3},{"trial_n":46,"span":11,"encoder":"64049744367","distractor":"64049644367","target":"present","response":"present","rt":"2103.4000000954","correct":true,"confidence":3},{"trial_n":47,"span":11,"encoder":"18588330318","distractor":"18588350318","target":"present","response":"present","rt":"2972.2000000477","correct":true,"confidence":2},{"trial_n":48,"span":12,"encoder":"154773042794","distractor":"154773012794","target":"present","response":"present","rt":"1612","correct":true,"confidence":3},{"trial_n":49,"span":12,"encoder":"050206852454","distractor":"040206852454","target":"present","response":"present","rt":"2151.7000000477","correct":true,"confidence":3},{"trial_n":50,"span":13,"encoder":"6992409265562","distractor":"6992409065562","target":"absent","response":"absent","rt":"3410.7999999523","correct":true,"confidence":2},{"trial_n":51,"span":13,"encoder":"7878801172629","distractor":"7578801172629","target":"present","response":"present","rt":"1928.7000000477","correct":true,"confidence":1},{"trial_n":52,"span":14,"encoder":"70105145803941","distractor":"70105145823941","target":"present","response":"present","rt":"2393.2000000477","correct":true,"confidence":2},{"trial_n":53,"span":14,"encoder":"56329304883182","distractor":"56329304883188","target":"present","response":"absent","rt":"1887","correct":false,"confidence":1},{"trial_n":54,"span":13,"encoder":"8520839328239","distractor":"8524839328239","target":"absent","response":"present","rt":"2496.5","correct":false,"confidence":2},{"trial_n":55,"span":12,"encoder":"740546650876","distractor":"740546950876","target":"present","response":"present","rt":"3762.7999999523","correct":true,"confidence":2},{"trial_n":56,"span":12,"encoder":"703276907571","distractor":"103276907571","target":"absent","response":"absent","rt":"1529.4000000954","correct":true,"confidence":3},{"trial_n":57,"span":13,"encoder":"9056081460900","distractor":"9056061460900","target":"present","response":"present","rt":"3125.7000000477","correct":true,"confidence":2},{"trial_n":58,"span":13,"encoder":"8584913939412","distractor":"8584913939492","target":"present","response":"present","rt":"2577.0999999046","correct":true,"confidence":3},{"trial_n":59,"span":14,"encoder":"15599480444789","distractor":"15599480344789","target":"absent","response":"present","rt":"2241.7000000477","correct":false,"confidence":2},{"trial_n":60,"span":13,"encoder":"5024281731871","distractor":"5024286731871","target":"absent","response":"absent","rt":"1617.8000001907","correct":true,"confidence":3},{"trial_n":61,"span":13,"encoder":"3769332419530","distractor":"3769332439530","target":"absent","response":"present","rt":"3225.2000000477","correct":false,"confidence":2},{"trial_n":62,"span":12,"encoder":"807828869848","distractor":"807828669848","target":"present","response":"absent","rt":"2520.7000000477","correct":false,"confidence":2},{"trial_n":63,"span":11,"encoder":"07179613898","distractor":"17179613898","target":"absent","response":"absent","rt":"2411.2000000477","correct":true,"confidence":3},{"trial_n":64,"span":11,"encoder":"80970744164","distractor":"80970744114","target":"absent","response":"present","rt":"2271.5","correct":false,"confidence":2},{"trial_n":65,"span":10,"encoder":"4254456262","distractor":"4256456262","target":"absent","response":"absent","rt":"1775","correct":true,"confidence":1},{"trial_n":66,"span":10,"encoder":"1931401309","distractor":"1935401309","target":"absent","response":"present","rt":"1467.9000000954","correct":false,"confidence":3},{"trial_n":67,"span":9,"encoder":"608651658","distractor":"608651858","target":"present","response":"present","rt":"1954.8999998569","correct":true,"confidence":2},{"trial_n":68,"span":9,"encoder":"945848628","distractor":"995848628","target":"present","response":"present","rt":"2780.7999999523","correct":true,"confidence":3},{"trial_n":69,"span":10,"encoder":"2739168113","distractor":"6739168113","target":"absent","response":"absent","rt":"1457.2000000477","correct":true,"confidence":3},{"trial_n":70,"span":10,"encoder":"2633103832","distractor":"2633101832","target":"absent","response":"present","rt":"3233.7999999523","correct":false,"confidence":2},{"trial_n":71,"span":8,"encoder":"42565991","distractor":"42565993","target":"present","response":"present","rt":"6100.3000001907","correct":true,"confidence":-1},{"trial_n":72,"span":8,"encoder":"24553708","distractor":"24555708","target":"present","response":"present","rt":"3595.3999998569","correct":true,"confidence":-1},{"trial_n":73,"span":9,"encoder":"061399683","distractor":"001399683","target":"absent","response":"absent","rt":"2152","correct":true,"confidence":-1},{"trial_n":74,"span":9,"encoder":"052219561","distractor":"052219361","target":"absent","response":"absent","rt":"3387.5","correct":true,"confidence":-1},{"trial_n":75,"span":10,"encoder":"7626311000","distractor":"7626381000","target":"present","response":"present","rt":"2466.5999999046","correct":true,"confidence":-1},{"trial_n":76,"span":10,"encoder":"0327857192","distractor":"0327857162","target":"absent","response":"absent","rt":"2121.3000001907","correct":true,"confidence":-1},{"trial_n":77,"span":11,"encoder":"03047274223","distractor":"03046274223","target":"absent","response":"present","rt":"1833.6000001431","correct":false,"confidence":-1},{"trial_n":78,"span":10,"encoder":"9089976295","distractor":"9089976215","target":"absent","response":"absent","rt":"3215.2999999523","correct":true,"confidence":-1},{"trial_n":79,"span":10,"encoder":"6463353771","distractor":"6463353271","target":"absent","response":"absent","rt":"4635.5","correct":true,"confidence":-1},{"trial_n":80,"span":11,"encoder":"62026626108","distractor":"62026626308","target":"present","response":"absent","rt":"5651","correct":false,"confidence":-1},{"trial_n":81,"span":10,"encoder":"6862327110","distractor":"6862377110","target":"present","response":"absent","rt":"5308.5","correct":false,"confidence":-1},{"trial_n":82,"span":9,"encoder":"526088573","distractor":"526088576","target":"absent","response":"absent","rt":"2660.5","correct":true,"confidence":-1},{"trial_n":83,"span":9,"encoder":"490269909","distractor":"490261909","target":"present","response":"present","rt":"2062.9000000954","correct":true,"confidence":-1},{"trial_n":84,"span":10,"encoder":"8457567860","distractor":"8457564860","target":"present","response":"present","rt":"2787","correct":true,"confidence":-1},{"trial_n":85,"span":10,"encoder":"2642581301","distractor":"2642581901","target":"absent","response":"absent","rt":"1423.4000000954","correct":true,"confidence":-1},{"trial_n":86,"span":11,"encoder":"23010668317","distractor":"29010668317","target":"present","response":"absent","rt":"3139.5","correct":false,"confidence":-1},{"trial_n":87,"span":10,"encoder":"5861163412","distractor":"5861164412","target":"present","response":"absent","rt":"3142.8999998569","correct":false,"confidence":-1},{"trial_n":88,"span":9,"encoder":"163776003","distractor":"163777003","target":"present","response":"present","rt":"2348.2000000477","correct":true,"confidence":-1},{"trial_n":89,"span":9,"encoder":"831076136","distractor":"841076136","target":"absent","response":"absent","rt":"2330","correct":true,"confidence":-1},{"trial_n":90,"span":10,"encoder":"8694339771","distractor":"8694339751","target":"present","response":"present","rt":"5236.5","correct":true,"confidence":-1},{"trial_n":91,"span":10,"encoder":"1595282523","distractor":"1595682523","target":"absent","response":"absent","rt":"3683.2000000477","correct":true,"confidence":4},{"trial_n":92,"span":11,"encoder":"71406064291","distractor":"71405064291","target":"absent","response":"absent","rt":"4513.7999999523","correct":true,"confidence":3},{"trial_n":93,"span":11,"encoder":"19883091301","distractor":"89883091301","target":"present","response":"present","rt":"3399.5999999046","correct":true,"confidence":4},{"trial_n":94,"span":12,"encoder":"572128445560","distractor":"572428445560","target":"absent","response":"present","rt":"3346.3000001907","correct":false,"confidence":4},{"trial_n":95,"span":11,"encoder":"25562622678","distractor":"25562722678","target":"present","response":"absent","rt":"7723.2000000477","correct":false,"confidence":3},{"trial_n":96,"span":10,"encoder":"8758125452","distractor":"8758125552","target":"absent","response":"absent","rt":"4957.8000001907","correct":true,"confidence":3},{"trial_n":97,"span":10,"encoder":"2817442667","distractor":"2817444667","target":"present","response":"present","rt":"2922.2999999523","correct":true,"confidence":4},{"trial_n":98,"span":11,"encoder":"20939520430","distractor":"10939520430","target":"present","response":"present","rt":"2601","correct":true,"confidence":4},{"trial_n":99,"span":11,"encoder":"13753691927","distractor":"13753690927","target":"present","response":"present","rt":"4718.4000000954","correct":true,"confidence":2},{"trial_n":100,"span":12,"encoder":"574944918563","distractor":"874944918563","target":"absent","response":"absent","rt":"2811","correct":true,"confidence":3},{"trial_n":101,"span":12,"encoder":"500504543296","distractor":"500505543296","target":"absent","response":"absent","rt":"5963.3999998569","correct":true,"confidence":3},{"trial_n":102,"span":13,"encoder":"6965244501603","distractor":"6960244501603","target":"present","response":"present","rt":"3960.9000000954","correct":true,"confidence":3},{"trial_n":103,"span":13,"encoder":"6656731874781","distractor":"6656731874481","target":"absent","response":"absent","rt":"5988.3999998569","correct":true,"confidence":3},{"trial_n":104,"span":14,"encoder":"63329847120559","distractor":"63329847720559","target":"absent","response":"absent","rt":"6991.3000001907","correct":true,"confidence":2},{"trial_n":105,"span":14,"encoder":"51948161301370","distractor":"51948161301350","target":"absent","response":"present","rt":"6611.7000000477","correct":false,"confidence":3},{"trial_n":106,"span":13,"encoder":"9698249336359","distractor":"9698279336359","target":"present","response":"present","rt":"8284","correct":true,"confidence":2},{"trial_n":107,"span":13,"encoder":"6150576960042","distractor":"6140576960042","target":"present","response":"present","rt":"6002.2000000477","correct":true,"confidence":3},{"trial_n":108,"span":14,"encoder":"15035188554693","distractor":"11035188554693","target":"present","response":"present","rt":"2911.2999999523","correct":true,"confidence":4},{"trial_n":109,"span":14,"encoder":"40247739353498","distractor":"40245739353498","target":"present","response":"present","rt":"9134.5","correct":true,"confidence":3},{"trial_n":110,"span":15,"encoder":"657182011605137","distractor":"657180011605137","target":"absent","response":"present","rt":"9667.0999999046","correct":false,"confidence":4},{"trial_n":111,"span":14,"encoder":"50406681138923","distractor":"50406621138923","target":"absent","response":"absent","rt":"7413.7999999523","correct":true,"confidence":3},{"trial_n":112,"span":14,"encoder":"86329802566522","distractor":"86329802566502","target":"present","response":"present","rt":"9805.5999999046","correct":true,"confidence":3},{"trial_n":113,"span":15,"encoder":"796722825748789","distractor":"796712825748789","target":"present","response":"present","rt":"3959.2000000477","correct":true,"confidence":4},{"trial_n":114,"span":15,"encoder":"254410627726715","distractor":"254410027726715","target":"absent","response":"absent","rt":"6705.2000000477","correct":true,"confidence":3},{"trial_n":115,"span":16,"encoder":"0258942087498429","distractor":"0258942086498429","target":"absent","response":"absent","rt":"9051.3999998569","correct":true,"confidence":2},{"trial_n":116,"span":16,"encoder":"1571445642857613","distractor":"1571445640857613","target":"present","response":"absent","rt":"6483.5","correct":false,"confidence":2},{"trial_n":117,"span":15,"encoder":"420788043155596","distractor":"420788043155496","target":"present","response":"present","rt":"4791.5","correct":true,"confidence":3},{"trial_n":118,"span":15,"encoder":"451883965737889","distractor":"451883925737889","target":"absent","response":"absent","rt":"7000.2999999523","correct":true,"confidence":1},{"trial_n":119,"span":16,"encoder":"8912440531419461","distractor":"8912480531419461","target":"absent","response":"absent","rt":"4219.0999999046","correct":true,"confidence":4},{"trial_n":120,"span":16,"encoder":"8693514740819980","distractor":"8693564740819980","target":"absent","response":"absent","rt":"5637.5","correct":true,"confidence":3},{"trial_n":121,"span":17,"encoder":"61986732890847440","distractor":"91986732890847440","target":"absent","response":"absent","rt":"2540.7000000477","correct":true,"confidence":3},{"trial_n":122,"span":17,"encoder":"74368276078872007","distractor":"74368286078872007","target":"absent","response":"absent","rt":"6623.2000000477","correct":true,"confidence":2},{"trial_n":123,"span":18,"encoder":"494166767676547951","distractor":"494116767676547951","target":"present","response":"present","rt":"5448.2999999523","correct":true,"confidence":4},{"trial_n":124,"span":18,"encoder":"922005255090871507","distractor":"992005255090871507","target":"absent","response":"absent","rt":"5514.7999999523","correct":true,"confidence":3},{"trial_n":125,"span":19,"encoder":"9719372529807132609","distractor":"9719372529807132600","target":"present","response":"present","rt":"8736.7000000477","correct":true,"confidence":2},{"trial_n":126,"span":19,"encoder":"4518231601944361836","distractor":"4518231601944360836","target":"absent","response":"present","rt":"8016.3000001907","correct":false,"confidence":2},{"trial_n":127,"span":18,"encoder":"301164949672235885","distractor":"301162949672235885","target":"present","response":"present","rt":"17447.700000048","correct":true,"confidence":3},{"trial_n":128,"span":18,"encoder":"651415993099565287","distractor":"651415993089565287","target":"present","response":"present","rt":"4838.7000000477","correct":true,"confidence":4},{"trial_n":129,"span":19,"encoder":"6748033397923767137","distractor":"6748013397923767137","target":"absent","response":"absent","rt":"3423.5999999046","correct":true,"confidence":4},{"trial_n":130,"span":19,"encoder":"7269629310999206290","distractor":"7269029310999206290","target":"absent","response":"present","rt":"5392.9000000954","correct":false,"confidence":1},{"trial_n":131,"span":18,"encoder":"580934982881886668","distractor":"580935982881886668","target":"present","response":"absent","rt":"8233.2999999523","correct":false,"confidence":1},{"trial_n":132,"span":17,"encoder":"95385930737146481","distractor":"95385930737148481","target":"present","response":"present","rt":"9108.2000000477","correct":true,"confidence":2},{"trial_n":133,"span":17,"encoder":"23112566376228045","distractor":"23112566376228065","target":"present","response":"present","rt":"15155.5","correct":true,"confidence":3},{"trial_n":134,"span":18,"encoder":"421303052217059228","distractor":"421303052217059288","target":"absent","response":"absent","rt":"5314.4000000954","correct":true,"confidence":4},{"trial_n":135,"span":18,"encoder":"897696783717823253","distractor":"597696783717823253","target":"present","response":"present","rt":"5190.5","correct":true,"confidence":2},{"trial_n":136,"span":19,"encoder":"9059612382358719043","distractor":"9059912382358719043","target":"present","response":"present","rt":"4024.8999998569","correct":true,"confidence":3},{"trial_n":137,"span":19,"encoder":"6057549184269171861","distractor":"6056549184269171861","target":"present","response":"present","rt":"12629.599999905","correct":true,"confidence":1},{"trial_n":138,"span":20,"encoder":"13651896430809983907","distractor":"11651896430809983907","target":"present","response":"present","rt":"5718.3000001907","correct":true,"confidence":3},{"trial_n":139,"span":20,"encoder":"47190359973591504826","distractor":"47190359974591504826","target":"absent","response":"present","rt":"5057","correct":false,"confidence":2},{"trial_n":140,"span":19,"encoder":"5499168544800691712","distractor":"5499165544800691712","target":"absent","response":"present","rt":"6067.0999999046","correct":false,"confidence":3}]