[{"trial_n":1,"span":8,"encoder":"37151945","distractor":"37451945","target":"present","response":"present","rt":"9394","correct":true,"confidence":-1},{"trial_n":2,"span":8,"encoder":"41446541","distractor":"46446541","target":"present","response":"absent","rt":"2397","correct":false,"confidence":-1},{"trial_n":3,"span":6,"encoder":"515930","distractor":"515970","target":"absent","response":"absent","rt":"2470","correct":true,"confidence":-1},{"trial_n":4,"span":6,"encoder":"866637","distractor":"876637","target":"absent","response":"absent","rt":"1342","correct":true,"confidence":-1},{"trial_n":5,"span":8,"encoder":"79445114","distractor":"79415114","target":"present","response":"present","rt":"1468","correct":true,"confidence":-1},{"trial_n":6,"span":8,"encoder":"79623072","distractor":"79623022","target":"present","response":"present","rt":"1521","correct":true,"confidence":-1},{"trial_n":7,"span":10,"encoder":"4040385008","distractor":"4043385008","target":"absent","response":"absent","rt":"2497","correct":true,"confidence":-1},{"trial_n":8,"span":10,"encoder":"6135767982","distractor":"6135707982","target":"present","response":"absent","rt":"1247","correct":false,"confidence":-1},{"trial_n":9,"span":8,"encoder":"26233216","distractor":"26233276","target":"absent","response":"absent","rt":"1644","correct":true,"confidence":-1},{"trial_n":10,"span":8,"encoder":"48229763","distractor":"48929763","target":"absent","response":"absent","rt":"1740","correct":true,"confidence":-1},{"trial_n":11,"span":10,"encoder":"3306211445","distractor":"3302211445","target":"present","response":"absent","rt":"745","correct":false,"confidence":-1},{"trial_n":12,"span":9,"encoder":"758305567","distractor":"798305567","target":"absent","response":"present","rt":"1208","correct":false,"confidence":-1},{"trial_n":13,"span":8,"encoder":"28022662","distractor":"26022662","target":"absent","response":"present","rt":"797","correct":false,"confidence":-1},{"trial_n":14,"span":7,"encoder":"7117794","distractor":"7917794","target":"present","response":"present","rt":"2687","correct":true,"confidence":-1},{"trial_n":15,"span":7,"encoder":"9094101","distractor":"9094121","target":"absent","response":"present","rt":"1201","correct":false,"confidence":-1},{"trial_n":16,"span":6,"encoder":"446531","distractor":"446530","target":"present","response":"present","rt":"1381","correct":true,"confidence":-1},{"trial_n":17,"span":6,"encoder":"206804","distractor":"206304","target":"absent","response":"present","rt":"671","correct":false,"confidence":-1},{"trial_n":18,"span":5,"encoder":"02999","distractor":"00999","target":"absent","response":"present","rt":"1094","correct":false,"confidence":-1},{"trial_n":19,"span":4,"encoder":"7724","distractor":"7124","target":"present","response":"present","rt":"1173","correct":true,"confidence":-1},{"trial_n":20,"span":4,"encoder":"0517","distractor":"0917","target":"present","response":"present","rt":"1295","correct":true,"confidence":-1},{"trial_n":21,"span":5,"encoder":"80150","distractor":"70150","target":"present","response":"present","rt":"4062","correct":true,"confidence":4},{"trial_n":22,"span":5,"encoder":"02139","distractor":"02539","target":"present","response":"present","rt":"1919","correct":true,"confidence":4},{"trial_n":23,"span":6,"encoder":"030225","distractor":"030325","target":"present","response":"absent","rt":"2959","correct":false,"confidence":3},{"trial_n":24,"span":5,"encoder":"27391","distractor":"20391","target":"absent","response":"absent","rt":"2114","correct":true,"confidence":4},{"trial_n":25,"span":5,"encoder":"41184","distractor":"41124","target":"absent","response":"absent","rt":"2266.0000000002","correct":true,"confidence":5},{"trial_n":26,"span":6,"encoder":"196930","distractor":"196530","target":"absent","response":"present","rt":"3735.0000000002","correct":false,"confidence":2},{"trial_n":27,"span":5,"encoder":"98466","distractor":"98461","target":"absent","response":"absent","rt":"2317","correct":true,"confidence":3},{"trial_n":28,"span":5,"encoder":"10523","distractor":"10521","target":"absent","response":"absent","rt":"3225","correct":true,"confidence":3},{"trial_n":29,"span":6,"encoder":"110062","distractor":"190062","target":"present","response":"absent","rt":"1297.0000000002","correct":false,"confidence":3},{"trial_n":30,"span":5,"encoder":"90322","distractor":"90328","target":"absent","response":"present","rt":"3149.0000000002","correct":false,"confidence":1},{"trial_n":31,"span":4,"encoder":"3866","distractor":"3066","target":"present","response":"present","rt":"1629.9999999998","correct":true,"confidence":5},{"trial_n":32,"span":4,"encoder":"3555","distractor":"1555","target":"present","response":"present","rt":"1902.9999999998","correct":true,"confidence":2},{"trial_n":33,"span":5,"encoder":"22112","distractor":"22512","target":"present","response":"absent","rt":"1191","correct":false,"confidence":5},{"trial_n":34,"span":4,"encoder":"0722","distractor":"0762","target":"absent","response":"absent","rt":"2988.0000000002","correct":true,"confidence":5},{"trial_n":35,"span":4,"encoder":"3737","distractor":"3337","target":"absent","response":"absent","rt":"1989.9999999998","correct":true,"confidence":5},{"trial_n":36,"span":5,"encoder":"26423","distractor":"96423","target":"absent","response":"absent","rt":"2033","correct":true,"confidence":3},{"trial_n":37,"span":5,"encoder":"14497","distractor":"14097","target":"absent","response":"present","rt":"1733.9999999998","correct":false,"confidence":2},{"trial_n":38,"span":4,"encoder":"5784","distractor":"5785","target":"absent","response":"absent","rt":"1721","correct":true,"confidence":4},{"trial_n":39,"span":4,"encoder":"9221","distractor":"9251","target":"absent","response":"absent","rt":"1243","correct":true,"confidence":1},{"trial_n":40,"span":5,"encoder":"19504","distractor":"19594","target":"present","response":"present","rt":"2155.0000000002","correct":true,"confidence":4},{"trial_n":41,"span":5,"encoder":"16749","distractor":"96749","target":"absent","response":"absent","rt":"1429.9999999998","correct":true,"confidence":4},{"trial_n":42,"span":6,"encoder":"707879","distractor":"717879","target":"present","response":"present","rt":"1938","correct":true,"confidence":4},{"trial_n":43,"span":6,"encoder":"375922","distractor":"372922","target":"present","response":"present","rt":"2893","correct":true,"confidence":3},{"trial_n":44,"span":7,"encoder":"5169698","distractor":"5159698","target":"absent","response":"absent","rt":"4326","correct":true,"confidence":2},{"trial_n":45,"span":7,"encoder":"8768973","distractor":"8760973","target":"absent","response":"absent","rt":"1742","correct":true,"confidence":3},{"trial_n":46,"span":8,"encoder":"46714837","distractor":"86714837","target":"present","response":"present","rt":"2356","correct":true,"confidence":2},{"trial_n":47,"span":8,"encoder":"44807258","distractor":"44803258","target":"absent","response":"absent","rt":"1661.0000000002","correct":true,"confidence":1},{"trial_n":48,"span":9,"encoder":"564275175","distractor":"564295175","target":"absent","response":"absent","rt":"1513.9999999998","correct":true,"confidence":1},{"trial_n":49,"span":9,"encoder":"985018304","distractor":"985018384","target":"present","response":"absent","rt":"2099","correct":false,"confidence":3},{"trial_n":50,"span":8,"encoder":"95657404","distractor":"95357404","target":"absent","response":"absent","rt":"2575","correct":true,"confidence":2},{"trial_n":51,"span":8,"encoder":"42297723","distractor":"42497723","target":"present","response":"absent","rt":"1271","correct":false,"confidence":4},{"trial_n":52,"span":7,"encoder":"5692835","distractor":"5699835","target":"present","response":"absent","rt":"1715","correct":false,"confidence":2},{"trial_n":53,"span":6,"encoder":"913779","distractor":"943779","target":"absent","response":"absent","rt":"1605","correct":true,"confidence":2},{"trial_n":54,"span":6,"encoder":"085967","distractor":"085067","target":"absent","response":"present","rt":"2061","correct":false,"confidence":3},{"trial_n":55,"span":5,"encoder":"16335","distractor":"16135","target":"absent","response":"absent","rt":"1060","correct":true,"confidence":3},{"trial_n":56,"span":5,"encoder":"29285","distractor":"28285","target":"present","response":"present","rt":"1362.9999999998","correct":true,"confidence":2},{"trial_n":57,"span":6,"encoder":"649849","distractor":"646849","target":"present","response":"present","rt":"4720","correct":true,"confidence":4},{"trial_n":58,"span":6,"encoder":"473991","distractor":"473961","target":"present","response":"present","rt":"2944","correct":true,"confidence":4},{"trial_n":59,"span":7,"encoder":"6769655","distractor":"6769654","target":"absent","response":"absent","rt":"3121.0000000002","correct":true,"confidence":4},{"trial_n":60,"span":7,"encoder":"7062326","distractor":"7062325","target":"present","response":"present","rt":"2549","correct":true,"confidence":4},{"trial_n":61,"span":8,"encoder":"58828296","distractor":"98828296","target":"present","response":"absent","rt":"3276.0000000002","correct":false,"confidence":3},{"trial_n":62,"span":7,"encoder":"7594554","distractor":"7524554","target":"present","response":"present","rt":"3557","correct":true,"confidence":4},{"trial_n":63,"span":7,"encoder":"9488706","distractor":"9488506","target":"present","response":"present","rt":"3345","correct":true,"confidence":5},{"trial_n":64,"span":8,"encoder":"49642000","distractor":"89642000","target":"present","response":"absent","rt":"3765.9999999998","correct":false,"confidence":2},{"trial_n":65,"span":7,"encoder":"9367426","distractor":"9367456","target":"present","response":"absent","rt":"1661","correct":false,"confidence":2},{"trial_n":66,"span":6,"encoder":"285095","distractor":"285015","target":"absent","response":"absent","rt":"2833","correct":true,"confidence":3},{"trial_n":67,"span":6,"encoder":"003817","distractor":"004817","target":"present","response":"present","rt":"1508","correct":true,"confidence":5},{"trial_n":68,"span":7,"encoder":"7411363","distractor":"7413363","target":"absent","response":"present","rt":"2638","correct":false,"confidence":3},{"trial_n":69,"span":6,"encoder":"452466","distractor":"454466","target":"present","response":"present","rt":"2277","correct":true,"confidence":3},{"trial_n":70,"span":6,"encoder":"517898","distractor":"567898","target":"present","response":"present","rt":"2377.9999999998","correct":true,"confidence":3},{"trial_n":71,"span":8,"encoder":"47545115","distractor":"47545125","target":"present","response":"present","rt":"4117","correct":true,"confidence":-1},{"trial_n":72,"span":8,"encoder":"82031253","distractor":"82034253","target":"present","response":"present","rt":"3591","correct":true,"confidence":-1},{"trial_n":73,"span":9,"encoder":"783952201","distractor":"483952201","target":"absent","response":"absent","rt":"1877","correct":true,"confidence":-1},{"trial_n":74,"span":9,"encoder":"280585191","distractor":"280535191","target":"absent","response":"present","rt":"918.00000000047","correct":false,"confidence":-1},{"trial_n":75,"span":8,"encoder":"89089472","distractor":"59089472","target":"present","response":"present","rt":"321363","correct":true,"confidence":-1},{"trial_n":76,"span":8,"encoder":"18315095","distractor":"15315095","target":"absent","response":"absent","rt":"4490","correct":true,"confidence":-1},{"trial_n":77,"span":9,"encoder":"057874365","distractor":"057874368","target":"absent","response":"absent","rt":"4465","correct":true,"confidence":-1},{"trial_n":78,"span":9,"encoder":"924883373","distractor":"924883273","target":"absent","response":"absent","rt":"7309","correct":true,"confidence":-1},{"trial_n":79,"span":10,"encoder":"9791801707","distractor":"9791801705","target":"present","response":"present","rt":"2963","correct":true,"confidence":-1},{"trial_n":80,"span":10,"encoder":"2379482467","distractor":"4379482467","target":"absent","response":"present","rt":"10307","correct":false,"confidence":-1},{"trial_n":81,"span":9,"encoder":"813316013","distractor":"813316019","target":"absent","response":"absent","rt":"5408.9999999995","correct":true,"confidence":-1},{"trial_n":82,"span":9,"encoder":"451610771","distractor":"451610781","target":"absent","response":"present","rt":"5930","correct":false,"confidence":-1},{"trial_n":83,"span":8,"encoder":"10425462","distractor":"10425422","target":"absent","response":"absent","rt":"4393","correct":true,"confidence":-1},{"trial_n":84,"span":8,"encoder":"09198645","distractor":"09198945","target":"present","response":"absent","rt":"4075","correct":false,"confidence":-1},{"trial_n":85,"span":7,"encoder":"8930002","distractor":"8930022","target":"present","response":"absent","rt":"9846","correct":false,"confidence":-1},{"trial_n":86,"span":6,"encoder":"994039","distractor":"994038","target":"present","response":"present","rt":"4547","correct":true,"confidence":-1},{"trial_n":87,"span":6,"encoder":"112333","distractor":"112331","target":"present","response":"present","rt":"3908.9999999995","correct":true,"confidence":-1},{"trial_n":88,"span":7,"encoder":"7246084","distractor":"7246088","target":"absent","response":"absent","rt":"4378","correct":true,"confidence":-1},{"trial_n":89,"span":7,"encoder":"6600973","distractor":"7600973","target":"present","response":"present","rt":"4854","correct":true,"confidence":-1},{"trial_n":90,"span":8,"encoder":"73411390","distractor":"73411490","target":"absent","response":"absent","rt":"6272.0000000005","correct":true,"confidence":-1},{"trial_n":91,"span":8,"encoder":"29981551","distractor":"21981551","target":"present","response":"present","rt":"4871","correct":true,"confidence":5},{"trial_n":92,"span":9,"encoder":"316109648","distractor":"316309648","target":"present","response":"present","rt":"7194","correct":true,"confidence":3},{"trial_n":93,"span":9,"encoder":"756857263","distractor":"856857263","target":"absent","response":"absent","rt":"9400","correct":true,"confidence":5},{"trial_n":94,"span":10,"encoder":"1228877391","distractor":"6228877391","target":"present","response":"present","rt":"18824","correct":true,"confidence":5},{"trial_n":95,"span":10,"encoder":"5191951885","distractor":"5591951885","target":"present","response":"present","rt":"4042","correct":true,"confidence":5},{"trial_n":96,"span":11,"encoder":"24818598177","distractor":"24418598177","target":"absent","response":"absent","rt":"6193","correct":true,"confidence":5},{"trial_n":97,"span":11,"encoder":"90892116895","distractor":"90893116895","target":"absent","response":"absent","rt":"15370","correct":true,"confidence":3},{"trial_n":98,"span":12,"encoder":"964716634382","distractor":"964716634682","target":"absent","response":"present","rt":"7775","correct":false,"confidence":1},{"trial_n":99,"span":11,"encoder":"81499252473","distractor":"81499257473","target":"absent","response":"absent","rt":"7132.0000000005","correct":true,"confidence":5},{"trial_n":100,"span":11,"encoder":"35253571405","distractor":"35253571505","target":"present","response":"present","rt":"9760","correct":true,"confidence":5},{"trial_n":101,"span":12,"encoder":"252010274840","distractor":"252060274840","target":"present","response":"present","rt":"20202","correct":true,"confidence":2},{"trial_n":102,"span":12,"encoder":"590624468533","distractor":"590624469533","target":"present","response":"present","rt":"6836","correct":true,"confidence":1},{"trial_n":103,"span":13,"encoder":"1187392797824","distractor":"1187192797824","target":"absent","response":"absent","rt":"5654","correct":true,"confidence":1},{"trial_n":104,"span":13,"encoder":"5731429995355","distractor":"5731429595355","target":"present","response":"present","rt":"4721","correct":true,"confidence":2},{"trial_n":105,"span":14,"encoder":"27761586584660","distractor":"97761586584660","target":"absent","response":"present","rt":"7768","correct":false,"confidence":2},{"trial_n":106,"span":13,"encoder":"9052997672851","distractor":"9042997672851","target":"present","response":"present","rt":"2898.0000000005","correct":true,"confidence":3},{"trial_n":107,"span":13,"encoder":"1978856112227","distractor":"1978856112237","target":"present","response":"absent","rt":"9180.9999999995","correct":false,"confidence":1},{"trial_n":108,"span":12,"encoder":"289158606321","distractor":"289128606321","target":"absent","response":"present","rt":"2967","correct":false,"confidence":1},{"trial_n":109,"span":11,"encoder":"18266242853","distractor":"18266262853","target":"present","response":"absent","rt":"5218","correct":false,"confidence":1},{"trial_n":110,"span":10,"encoder":"1263834335","distractor":"1263734335","target":"absent","response":"absent","rt":"3255.9999999995","correct":true,"confidence":2},{"trial_n":111,"span":10,"encoder":"4356748436","distractor":"4356748456","target":"present","response":"absent","rt":"3890","correct":false,"confidence":2},{"trial_n":112,"span":9,"encoder":"309093751","distractor":"309093755","target":"absent","response":"absent","rt":"3866","correct":true,"confidence":5},{"trial_n":113,"span":9,"encoder":"028119081","distractor":"028119881","target":"present","response":"present","rt":"1796","correct":true,"confidence":2},{"trial_n":114,"span":10,"encoder":"2704712136","distractor":"2703712136","target":"present","response":"absent","rt":"1007","correct":false,"confidence":1},{"trial_n":115,"span":9,"encoder":"493981429","distractor":"493981469","target":"absent","response":"absent","rt":"2898.0000000005","correct":true,"confidence":5},{"trial_n":116,"span":9,"encoder":"794228005","distractor":"794228605","target":"absent","response":"absent","rt":"1704","correct":true,"confidence":1},{"trial_n":117,"span":10,"encoder":"1674066300","distractor":"1674066100","target":"present","response":"present","rt":"5021","correct":true,"confidence":1},{"trial_n":118,"span":10,"encoder":"7272466217","distractor":"7252466217","target":"present","response":"present","rt":"2183","correct":true,"confidence":5},{"trial_n":119,"span":11,"encoder":"65314244688","distractor":"05314244688","target":"present","response":"present","rt":"2194","correct":true,"confidence":4},{"trial_n":120,"span":11,"encoder":"33879026309","distractor":"33879026109","target":"present","response":"absent","rt":"1333.0000000005","correct":false,"confidence":1},{"trial_n":121,"span":10,"encoder":"3233563307","distractor":"3233563107","target":"absent","response":"absent","rt":"3017","correct":true,"confidence":5},{"trial_n":122,"span":10,"encoder":"8561027054","distractor":"8563027054","target":"present","response":"present","rt":"2490","correct":true,"confidence":3},{"trial_n":123,"span":11,"encoder":"02215332006","distractor":"02215832006","target":"absent","response":"present","rt":"2794","correct":false,"confidence":1},{"trial_n":124,"span":10,"encoder":"0333214753","distractor":"0133214753","target":"present","response":"present","rt":"31319","correct":true,"confidence":1},{"trial_n":125,"span":10,"encoder":"9624819221","distractor":"9624816221","target":"present","response":"present","rt":"3407","correct":true,"confidence":2},{"trial_n":126,"span":11,"encoder":"36550787448","distractor":"36550737448","target":"present","response":"present","rt":"4888","correct":true,"confidence":1},{"trial_n":127,"span":11,"encoder":"81010038746","distractor":"82010038746","target":"absent","response":"absent","rt":"1457.9999999995","correct":true,"confidence":5},{"trial_n":128,"span":12,"encoder":"050159084318","distractor":"250159084318","target":"absent","response":"absent","rt":"1530.9999999995","correct":true,"confidence":2},{"trial_n":129,"span":12,"encoder":"876509684876","distractor":"876549684876","target":"absent","response":"absent","rt":"7708","correct":true,"confidence":5},{"trial_n":130,"span":13,"encoder":"1472371964282","distractor":"1472371964582","target":"absent","response":"present","rt":"69288","correct":false,"confidence":1},{"trial_n":131,"span":12,"encoder":"536298943009","distractor":"536298940009","target":"absent","response":"absent","rt":"2168","correct":true,"confidence":2},{"trial_n":132,"span":12,"encoder":"614654549544","distractor":"614654549564","target":"absent","response":"present","rt":"3788","correct":false,"confidence":1},{"trial_n":133,"span":11,"encoder":"24147118490","distractor":"24140118490","target":"present","response":"present","rt":"3438","correct":true,"confidence":3},{"trial_n":134,"span":11,"encoder":"52353043067","distractor":"52353043867","target":"absent","response":"absent","rt":"1051","correct":true,"confidence":3},{"trial_n":135,"span":12,"encoder":"376504998637","distractor":"376504498637","target":"present","response":"present","rt":"5494","correct":true,"confidence":1},{"trial_n":136,"span":12,"encoder":"473450313017","distractor":"479450313017","target":"present","response":"present","rt":"5043","correct":true,"confidence":1},{"trial_n":137,"span":13,"encoder":"5761580704404","distractor":"5761580707404","target":"present","response":"present","rt":"2348","correct":true,"confidence":5},{"trial_n":138,"span":13,"encoder":"1015938952844","distractor":"1016938952844","target":"present","response":"present","rt":"5609.0000000005","correct":true,"confidence":1},{"trial_n":139,"span":14,"encoder":"33345215696152","distractor":"33045215696152","target":"absent","response":"absent","rt":"2292.0000000005","correct":true,"confidence":1},{"trial_n":140,"span":14,"encoder":"20059733637143","distractor":"20059733637141","target":"absent","response":"absent","rt":"2062","correct":true,"confidence":1}]