[{"trial_n":1,"span":8,"encoder":"57629370","distractor":"57629350","target":"present","response":"present","rt":"8678","correct":true,"confidence":-1},{"trial_n":2,"span":8,"encoder":"13098265","distractor":"13058265","target":"present","response":"absent","rt":"4143","correct":false,"confidence":-1},{"trial_n":3,"span":6,"encoder":"023411","distractor":"923411","target":"absent","response":"absent","rt":"2078","correct":true,"confidence":-1},{"trial_n":4,"span":6,"encoder":"260428","distractor":"060428","target":"absent","response":"present","rt":"2135","correct":false,"confidence":-1},{"trial_n":5,"span":4,"encoder":"4598","distractor":"4198","target":"present","response":"present","rt":"1719","correct":true,"confidence":-1},{"trial_n":6,"span":4,"encoder":"2289","distractor":"2219","target":"present","response":"absent","rt":"2255","correct":false,"confidence":-1},{"trial_n":7,"span":2,"encoder":"31","distractor":"38","target":"present","response":"present","rt":"5655","correct":true,"confidence":-1},{"trial_n":8,"span":2,"encoder":"57","distractor":"53","target":"present","response":"present","rt":"1552","correct":true,"confidence":-1},{"trial_n":9,"span":4,"encoder":"0078","distractor":"1078","target":"absent","response":"absent","rt":"1939","correct":true,"confidence":-1},{"trial_n":10,"span":4,"encoder":"8062","distractor":"8862","target":"present","response":"present","rt":"1234","correct":true,"confidence":-1},{"trial_n":11,"span":6,"encoder":"110911","distractor":"110211","target":"present","response":"present","rt":"2509","correct":true,"confidence":-1},{"trial_n":12,"span":6,"encoder":"726052","distractor":"226052","target":"absent","response":"absent","rt":"1567","correct":true,"confidence":-1},{"trial_n":13,"span":7,"encoder":"4946118","distractor":"7946118","target":"absent","response":"absent","rt":"1523","correct":true,"confidence":-1},{"trial_n":14,"span":7,"encoder":"4983514","distractor":"4943514","target":"present","response":"present","rt":"1733","correct":true,"confidence":-1},{"trial_n":15,"span":8,"encoder":"58409131","distractor":"58479131","target":"present","response":"present","rt":"1516","correct":true,"confidence":-1},{"trial_n":16,"span":8,"encoder":"84445188","distractor":"84442188","target":"present","response":"present","rt":"2947","correct":true,"confidence":-1},{"trial_n":17,"span":9,"encoder":"630362916","distractor":"630362016","target":"absent","response":"present","rt":"845","correct":false,"confidence":-1},{"trial_n":18,"span":8,"encoder":"53932720","distractor":"53936720","target":"absent","response":"absent","rt":"1001","correct":true,"confidence":-1},{"trial_n":19,"span":8,"encoder":"15437092","distractor":"15437032","target":"absent","response":"present","rt":"1551","correct":false,"confidence":-1},{"trial_n":20,"span":7,"encoder":"3126393","distractor":"3116393","target":"absent","response":"present","rt":"2214","correct":false,"confidence":-1},{"trial_n":21,"span":6,"encoder":"914278","distractor":"914978","target":"present","response":"present","rt":"1809","correct":true,"confidence":5},{"trial_n":22,"span":6,"encoder":"346888","distractor":"346884","target":"present","response":"present","rt":"2462","correct":true,"confidence":3},{"trial_n":23,"span":7,"encoder":"8061132","distractor":"8561132","target":"present","response":"present","rt":"1334","correct":true,"confidence":3},{"trial_n":24,"span":7,"encoder":"6062201","distractor":"6062291","target":"present","response":"absent","rt":"2597","correct":false,"confidence":2},{"trial_n":25,"span":6,"encoder":"976997","distractor":"976197","target":"absent","response":"absent","rt":"5638","correct":true,"confidence":4},{"trial_n":26,"span":6,"encoder":"384744","distractor":"314744","target":"absent","response":"present","rt":"2726","correct":false,"confidence":3},{"trial_n":27,"span":5,"encoder":"85022","distractor":"35022","target":"absent","response":"absent","rt":"1939","correct":true,"confidence":5},{"trial_n":28,"span":5,"encoder":"15140","distractor":"35140","target":"present","response":"present","rt":"1920","correct":true,"confidence":3},{"trial_n":29,"span":6,"encoder":"956430","distractor":"956431","target":"absent","response":"absent","rt":"2170","correct":true,"confidence":5},{"trial_n":30,"span":6,"encoder":"777109","distractor":"779109","target":"present","response":"present","rt":"2933","correct":true,"confidence":5},{"trial_n":31,"span":7,"encoder":"8355029","distractor":"8355049","target":"present","response":"present","rt":"2782","correct":true,"confidence":4},{"trial_n":32,"span":7,"encoder":"4672365","distractor":"4372365","target":"present","response":"present","rt":"3653","correct":true,"confidence":4},{"trial_n":33,"span":8,"encoder":"96015377","distractor":"96015277","target":"absent","response":"present","rt":"4621","correct":false,"confidence":3},{"trial_n":34,"span":7,"encoder":"6174969","distractor":"6173969","target":"absent","response":"absent","rt":"4017.9999999999","correct":true,"confidence":2},{"trial_n":35,"span":7,"encoder":"0336217","distractor":"0336287","target":"present","response":"present","rt":"2900","correct":true,"confidence":4},{"trial_n":36,"span":8,"encoder":"90663178","distractor":"90667178","target":"absent","response":"absent","rt":"6165","correct":true,"confidence":3},{"trial_n":37,"span":8,"encoder":"38499044","distractor":"36499044","target":"absent","response":"present","rt":"5072","correct":false,"confidence":4},{"trial_n":38,"span":7,"encoder":"0462248","distractor":"0762248","target":"present","response":"present","rt":"2096","correct":true,"confidence":5},{"trial_n":39,"span":7,"encoder":"7526636","distractor":"7126636","target":"absent","response":"absent","rt":"3325","correct":true,"confidence":4},{"trial_n":40,"span":8,"encoder":"79859485","distractor":"70859485","target":"present","response":"absent","rt":"2163.0000000001","correct":false,"confidence":2},{"trial_n":41,"span":7,"encoder":"3453328","distractor":"3458328","target":"absent","response":"present","rt":"2792","correct":false,"confidence":5},{"trial_n":42,"span":6,"encoder":"375978","distractor":"371978","target":"present","response":"present","rt":"3456.0000000001","correct":true,"confidence":4},{"trial_n":43,"span":6,"encoder":"063142","distractor":"863142","target":"absent","response":"absent","rt":"3174","correct":true,"confidence":5},{"trial_n":44,"span":7,"encoder":"7236514","distractor":"5236514","target":"absent","response":"absent","rt":"1981","correct":true,"confidence":5},{"trial_n":45,"span":7,"encoder":"4502829","distractor":"4602829","target":"absent","response":"present","rt":"6417.0000000001","correct":false,"confidence":3},{"trial_n":46,"span":6,"encoder":"099518","distractor":"099511","target":"absent","response":"absent","rt":"2605.9999999999","correct":true,"confidence":5},{"trial_n":47,"span":6,"encoder":"721489","distractor":"720489","target":"present","response":"present","rt":"2998","correct":true,"confidence":5},{"trial_n":48,"span":7,"encoder":"0238530","distractor":"3238530","target":"absent","response":"absent","rt":"3644.0000000001","correct":true,"confidence":3},{"trial_n":49,"span":7,"encoder":"9931214","distractor":"1931214","target":"present","response":"present","rt":"3497","correct":true,"confidence":4},{"trial_n":50,"span":8,"encoder":"96217483","distractor":"96217485","target":"absent","response":"absent","rt":"2673.9999999999","correct":true,"confidence":5},{"trial_n":51,"span":8,"encoder":"02648514","distractor":"52648514","target":"present","response":"present","rt":"3458.0000000001","correct":true,"confidence":4},{"trial_n":52,"span":9,"encoder":"367292596","distractor":"367292516","target":"absent","response":"absent","rt":"3142","correct":true,"confidence":4},{"trial_n":53,"span":9,"encoder":"789682520","distractor":"789682570","target":"absent","response":"absent","rt":"2325","correct":true,"confidence":5},{"trial_n":54,"span":10,"encoder":"3052346734","distractor":"3452346734","target":"present","response":"present","rt":"3202.0000000001","correct":true,"confidence":3},{"trial_n":55,"span":10,"encoder":"6022027543","distractor":"6122027543","target":"present","response":"present","rt":"2721","correct":true,"confidence":3},{"trial_n":56,"span":11,"encoder":"93859608756","distractor":"91859608756","target":"present","response":"present","rt":"4221","correct":true,"confidence":2},{"trial_n":57,"span":11,"encoder":"48542179101","distractor":"48542179102","target":"absent","response":"absent","rt":"2754","correct":true,"confidence":5},{"trial_n":58,"span":12,"encoder":"132954947092","distractor":"142954947092","target":"absent","response":"present","rt":"2523","correct":false,"confidence":3},{"trial_n":59,"span":11,"encoder":"93642797316","distractor":"93242797316","target":"present","response":"present","rt":"3039.9999999999","correct":true,"confidence":3},{"trial_n":60,"span":11,"encoder":"54434700407","distractor":"54431700407","target":"absent","response":"absent","rt":"3871","correct":true,"confidence":3},{"trial_n":61,"span":12,"encoder":"394631453637","distractor":"394631153637","target":"absent","response":"present","rt":"3925","correct":false,"confidence":3},{"trial_n":62,"span":11,"encoder":"67723020881","distractor":"67623020881","target":"present","response":"present","rt":"5771","correct":true,"confidence":3},{"trial_n":63,"span":11,"encoder":"61175152813","distractor":"61175152713","target":"absent","response":"present","rt":"3568","correct":false,"confidence":3},{"trial_n":64,"span":10,"encoder":"9833477209","distractor":"9833177209","target":"absent","response":"present","rt":"3360","correct":false,"confidence":4},{"trial_n":65,"span":9,"encoder":"983924608","distractor":"983924208","target":"present","response":"present","rt":"3809.0000000001","correct":true,"confidence":3},{"trial_n":66,"span":9,"encoder":"205542376","distractor":"205542373","target":"absent","response":"present","rt":"3962","correct":false,"confidence":3},{"trial_n":67,"span":8,"encoder":"25680566","distractor":"25280566","target":"present","response":"present","rt":"2815","correct":true,"confidence":4},{"trial_n":68,"span":8,"encoder":"40432438","distractor":"80432438","target":"present","response":"present","rt":"3304","correct":true,"confidence":4},{"trial_n":69,"span":9,"encoder":"077880554","distractor":"074880554","target":"present","response":"absent","rt":"3470","correct":false,"confidence":3},{"trial_n":70,"span":8,"encoder":"02846806","distractor":"02896806","target":"present","response":"present","rt":"3808","correct":true,"confidence":5},{"trial_n":71,"span":8,"encoder":"53916587","distractor":"53916589","target":"present","response":"present","rt":"2128.0000000001","correct":true,"confidence":-1},{"trial_n":72,"span":8,"encoder":"77158619","distractor":"37158619","target":"present","response":"absent","rt":"2608","correct":false,"confidence":-1},{"trial_n":73,"span":7,"encoder":"8206025","distractor":"7206025","target":"absent","response":"present","rt":"2500","correct":false,"confidence":-1},{"trial_n":74,"span":6,"encoder":"998662","distractor":"198662","target":"absent","response":"absent","rt":"2204.0000000001","correct":true,"confidence":-1},{"trial_n":75,"span":6,"encoder":"180675","distractor":"180665","target":"present","response":"absent","rt":"5595","correct":false,"confidence":-1},{"trial_n":76,"span":5,"encoder":"94621","distractor":"94521","target":"absent","response":"absent","rt":"2159.0000000001","correct":true,"confidence":-1},{"trial_n":77,"span":5,"encoder":"51088","distractor":"51388","target":"absent","response":"absent","rt":"2599","correct":true,"confidence":-1},{"trial_n":78,"span":6,"encoder":"791761","distractor":"793761","target":"present","response":"absent","rt":"4984","correct":false,"confidence":-1},{"trial_n":79,"span":5,"encoder":"95564","distractor":"95574","target":"absent","response":"absent","rt":"2283","correct":true,"confidence":-1},{"trial_n":80,"span":5,"encoder":"77518","distractor":"77548","target":"absent","response":"absent","rt":"1942","correct":true,"confidence":-1},{"trial_n":81,"span":6,"encoder":"755239","distractor":"755209","target":"absent","response":"absent","rt":"1798","correct":true,"confidence":-1},{"trial_n":82,"span":6,"encoder":"014535","distractor":"014135","target":"absent","response":"absent","rt":"4336","correct":true,"confidence":-1},{"trial_n":83,"span":7,"encoder":"0342386","distractor":"1342386","target":"present","response":"absent","rt":"5346","correct":false,"confidence":-1},{"trial_n":84,"span":6,"encoder":"927341","distractor":"927241","target":"absent","response":"present","rt":"1155","correct":false,"confidence":-1},{"trial_n":85,"span":5,"encoder":"36830","distractor":"36430","target":"absent","response":"absent","rt":"974","correct":true,"confidence":-1},{"trial_n":86,"span":5,"encoder":"77958","distractor":"77968","target":"absent","response":"present","rt":"2088.9999999999","correct":false,"confidence":-1},{"trial_n":87,"span":4,"encoder":"0842","distractor":"9842","target":"present","response":"present","rt":"1433.9999999999","correct":true,"confidence":-1},{"trial_n":88,"span":4,"encoder":"8536","distractor":"8636","target":"present","response":"present","rt":"3710","correct":true,"confidence":-1},{"trial_n":89,"span":5,"encoder":"69048","distractor":"69058","target":"absent","response":"absent","rt":"2812","correct":true,"confidence":-1},{"trial_n":90,"span":5,"encoder":"75394","distractor":"45394","target":"present","response":"absent","rt":"4817","correct":false,"confidence":-1},{"trial_n":91,"span":4,"encoder":"9010","distractor":"9310","target":"present","response":"present","rt":"1639","correct":true,"confidence":5},{"trial_n":92,"span":4,"encoder":"1847","distractor":"1827","target":"absent","response":"absent","rt":"1554.9999999999","correct":true,"confidence":5},{"trial_n":93,"span":5,"encoder":"62257","distractor":"42257","target":"absent","response":"absent","rt":"1623","correct":true,"confidence":5},{"trial_n":94,"span":5,"encoder":"76119","distractor":"76189","target":"absent","response":"absent","rt":"2332","correct":true,"confidence":5},{"trial_n":95,"span":6,"encoder":"918165","distractor":"918665","target":"absent","response":"absent","rt":"2436","correct":true,"confidence":5},{"trial_n":96,"span":6,"encoder":"362029","distractor":"362028","target":"present","response":"present","rt":"2546","correct":true,"confidence":5},{"trial_n":97,"span":7,"encoder":"7644838","distractor":"7644868","target":"present","response":"present","rt":"5645.0000000001","correct":true,"confidence":3},{"trial_n":98,"span":7,"encoder":"0647288","distractor":"0607288","target":"absent","response":"absent","rt":"3817","correct":true,"confidence":5},{"trial_n":99,"span":8,"encoder":"73562898","distractor":"23562898","target":"absent","response":"absent","rt":"7569","correct":true,"confidence":5},{"trial_n":100,"span":8,"encoder":"19274249","distractor":"29274249","target":"absent","response":"absent","rt":"3577","correct":true,"confidence":4},{"trial_n":101,"span":9,"encoder":"400075692","distractor":"400075693","target":"present","response":"absent","rt":"4397","correct":false,"confidence":3},{"trial_n":102,"span":8,"encoder":"22660563","distractor":"22660569","target":"absent","response":"absent","rt":"3430","correct":true,"confidence":4},{"trial_n":103,"span":8,"encoder":"65772455","distractor":"65372455","target":"present","response":"present","rt":"5932","correct":true,"confidence":4},{"trial_n":104,"span":9,"encoder":"584616828","distractor":"584616818","target":"present","response":"present","rt":"2898.9999999998","correct":true,"confidence":5},{"trial_n":105,"span":9,"encoder":"986772560","distractor":"986732560","target":"present","response":"present","rt":"8322","correct":true,"confidence":3},{"trial_n":106,"span":10,"encoder":"3313444042","distractor":"3313444092","target":"present","response":"present","rt":"6648","correct":true,"confidence":4},{"trial_n":107,"span":10,"encoder":"3135478422","distractor":"3145478422","target":"present","response":"absent","rt":"5892","correct":false,"confidence":2},{"trial_n":108,"span":9,"encoder":"629167995","distractor":"629137995","target":"absent","response":"present","rt":"2700","correct":false,"confidence":2},{"trial_n":109,"span":8,"encoder":"52848930","distractor":"54848930","target":"present","response":"absent","rt":"2164","correct":false,"confidence":3},{"trial_n":110,"span":7,"encoder":"9745568","distractor":"9745468","target":"absent","response":"present","rt":"5125","correct":false,"confidence":3},{"trial_n":111,"span":6,"encoder":"274485","distractor":"271485","target":"present","response":"present","rt":"12022","correct":true,"confidence":3},{"trial_n":112,"span":6,"encoder":"303189","distractor":"903189","target":"absent","response":"present","rt":"3238","correct":false,"confidence":2},{"trial_n":113,"span":5,"encoder":"91751","distractor":"94751","target":"present","response":"present","rt":"2143","correct":true,"confidence":5},{"trial_n":114,"span":5,"encoder":"19706","distractor":"19906","target":"present","response":"present","rt":"1788","correct":true,"confidence":5},{"trial_n":115,"span":6,"encoder":"709817","distractor":"799817","target":"present","response":"present","rt":"2384","correct":true,"confidence":5},{"trial_n":116,"span":6,"encoder":"954553","distractor":"954953","target":"absent","response":"absent","rt":"2270","correct":true,"confidence":5},{"trial_n":117,"span":7,"encoder":"6578950","distractor":"6578959","target":"absent","response":"present","rt":"5135","correct":false,"confidence":3},{"trial_n":118,"span":6,"encoder":"111573","distractor":"311573","target":"absent","response":"absent","rt":"2368","correct":true,"confidence":5},{"trial_n":119,"span":6,"encoder":"658370","distractor":"658375","target":"present","response":"present","rt":"2073","correct":true,"confidence":5},{"trial_n":120,"span":7,"encoder":"0260850","distractor":"0260650","target":"present","response":"present","rt":"3107","correct":true,"confidence":5},{"trial_n":121,"span":7,"encoder":"5170521","distractor":"5170321","target":"absent","response":"absent","rt":"3621","correct":true,"confidence":4},{"trial_n":122,"span":8,"encoder":"45128310","distractor":"15128310","target":"absent","response":"absent","rt":"3090.0000000002","correct":true,"confidence":5},{"trial_n":123,"span":8,"encoder":"36232083","distractor":"36932083","target":"present","response":"present","rt":"3748","correct":true,"confidence":5},{"trial_n":124,"span":9,"encoder":"865972348","distractor":"865972378","target":"present","response":"present","rt":"3778","correct":true,"confidence":5},{"trial_n":125,"span":9,"encoder":"158392191","distractor":"198392191","target":"absent","response":"present","rt":"7827","correct":false,"confidence":2},{"trial_n":126,"span":8,"encoder":"71619067","distractor":"71619065","target":"absent","response":"absent","rt":"2671","correct":true,"confidence":5},{"trial_n":127,"span":8,"encoder":"26543172","distractor":"36543172","target":"present","response":"present","rt":"4032","correct":true,"confidence":5},{"trial_n":128,"span":9,"encoder":"655529209","distractor":"655529509","target":"absent","response":"present","rt":"5507","correct":false,"confidence":1},{"trial_n":129,"span":8,"encoder":"29463034","distractor":"29462034","target":"present","response":"present","rt":"3829","correct":true,"confidence":2},{"trial_n":130,"span":8,"encoder":"76086998","distractor":"72086998","target":"present","response":"present","rt":"3230","correct":true,"confidence":2},{"trial_n":131,"span":9,"encoder":"194968406","distractor":"194968496","target":"absent","response":"present","rt":"10192","correct":false,"confidence":1},{"trial_n":132,"span":8,"encoder":"39747605","distractor":"39647605","target":"absent","response":"absent","rt":"10619","correct":true,"confidence":3},{"trial_n":133,"span":8,"encoder":"92267916","distractor":"42267916","target":"present","response":"present","rt":"2882","correct":true,"confidence":4},{"trial_n":134,"span":9,"encoder":"042187929","distractor":"042087929","target":"present","response":"present","rt":"3954","correct":true,"confidence":1},{"trial_n":135,"span":9,"encoder":"196938329","distractor":"196538329","target":"present","response":"absent","rt":"7094.0000000002","correct":false,"confidence":3},{"trial_n":136,"span":8,"encoder":"19383019","distractor":"17383019","target":"present","response":"present","rt":"2550","correct":true,"confidence":3},{"trial_n":137,"span":8,"encoder":"59254285","distractor":"89254285","target":"present","response":"present","rt":"3148","correct":true,"confidence":2},{"trial_n":138,"span":9,"encoder":"210406083","distractor":"210406033","target":"present","response":"present","rt":"2323","correct":true,"confidence":5},{"trial_n":139,"span":9,"encoder":"332680636","distractor":"332680436","target":"absent","response":"absent","rt":"5716.9999999998","correct":true,"confidence":1},{"trial_n":140,"span":10,"encoder":"2764349236","distractor":"2764349235","target":"present","response":"present","rt":"2085","correct":true,"confidence":4}]