[{"trial_n":1,"n_dots":4.25,"target":"left","response":"left","rt":2530.5999999046,"correct":true,"confidence":-1},{"trial_n":2,"n_dots":4.25,"target":"left","response":"right","rt":1335.7999999523,"correct":false,"confidence":-1},{"trial_n":3,"n_dots":4.65,"target":"right","response":"right","rt":799.09999990463,"correct":true,"confidence":-1},{"trial_n":4,"n_dots":4.65,"target":"right","response":"left","rt":527.79999995232,"correct":false,"confidence":-1},{"trial_n":5,"n_dots":5.05,"target":"left","response":"left","rt":281.40000009537,"correct":true,"confidence":-1},{"trial_n":6,"n_dots":5.05,"target":"right","response":"right","rt":368.20000004768,"correct":true,"confidence":-1},{"trial_n":7,"n_dots":4.65,"target":"right","response":"right","rt":63.299999952316,"correct":true,"confidence":-1},{"trial_n":8,"n_dots":4.65,"target":"right","response":"right","rt":1081.2999999523,"correct":true,"confidence":-1},{"trial_n":9,"n_dots":4.45,"target":"left","response":"left","rt":1527,"correct":true,"confidence":-1},{"trial_n":10,"n_dots":4.45,"target":"left","response":"right","rt":647.89999985695,"correct":false,"confidence":-1},{"trial_n":11,"n_dots":4.65,"target":"left","response":"left","rt":395.90000009537,"correct":true,"confidence":-1},{"trial_n":12,"n_dots":4.65,"target":"right","response":"right","rt":478.10000014305,"correct":true,"confidence":-1},{"trial_n":13,"n_dots":4.55,"target":"right","response":"right","rt":614.79999995232,"correct":true,"confidence":-1},{"trial_n":14,"n_dots":4.55,"target":"right","response":"right","rt":433.90000009537,"correct":true,"confidence":-1},{"trial_n":15,"n_dots":4.45,"target":"left","response":"left","rt":364.70000004768,"correct":true,"confidence":-1},{"trial_n":16,"n_dots":4.45,"target":"left","response":"left","rt":445.90000009537,"correct":true,"confidence":-1},{"trial_n":17,"n_dots":4.35,"target":"left","response":"left","rt":452.5,"correct":true,"confidence":-1},{"trial_n":18,"n_dots":4.35,"target":"left","response":"left","rt":450.70000004768,"correct":true,"confidence":-1},{"trial_n":19,"n_dots":4.25,"target":"right","response":"right","rt":465.79999995232,"correct":true,"confidence":-1},{"trial_n":20,"n_dots":4.25,"target":"left","response":"left","rt":509.09999990463,"correct":true,"confidence":-1},{"trial_n":21,"n_dots":4.15,"target":"left","response":"left","rt":920.70000004768,"correct":true,"confidence":4},{"trial_n":22,"n_dots":4.15,"target":"right","response":"right","rt":794.90000009537,"correct":true,"confidence":3},{"trial_n":23,"n_dots":4.05,"target":"left","response":"left","rt":928.79999995232,"correct":true,"confidence":3},{"trial_n":24,"n_dots":4.05,"target":"left","response":"left","rt":529.29999995232,"correct":true,"confidence":3},{"trial_n":25,"n_dots":3.95,"target":"right","response":"right","rt":1063.2000000477,"correct":true,"confidence":4},{"trial_n":26,"n_dots":3.95,"target":"left","response":"left","rt":473.29999995232,"correct":true,"confidence":2},{"trial_n":27,"n_dots":3.85,"target":"right","response":"left","rt":509.90000009537,"correct":false,"confidence":4},{"trial_n":28,"n_dots":3.95,"target":"left","response":"left","rt":655,"correct":true,"confidence":4},{"trial_n":29,"n_dots":3.95,"target":"right","response":"left","rt":476,"correct":false,"confidence":4},{"trial_n":30,"n_dots":4.05,"target":"right","response":"right","rt":475.69999980927,"correct":true,"confidence":3},{"trial_n":31,"n_dots":4.05,"target":"left","response":"left","rt":560.5,"correct":true,"confidence":2},{"trial_n":32,"n_dots":3.95,"target":"left","response":"left","rt":929.89999985695,"correct":true,"confidence":4},{"trial_n":33,"n_dots":3.95,"target":"right","response":"right","rt":752.59999990463,"correct":true,"confidence":3},{"trial_n":34,"n_dots":3.85,"target":"right","response":"right","rt":1801.5,"correct":true,"confidence":4},{"trial_n":35,"n_dots":3.85,"target":"right","response":"right","rt":628.20000004768,"correct":true,"confidence":4},{"trial_n":36,"n_dots":3.75,"target":"right","response":"right","rt":1234,"correct":true,"confidence":4},{"trial_n":37,"n_dots":3.75,"target":"right","response":"right","rt":1274,"correct":true,"confidence":3},{"trial_n":38,"n_dots":3.65,"target":"right","response":"left","rt":968.20000004768,"correct":false,"confidence":2},{"trial_n":39,"n_dots":3.75,"target":"left","response":"left","rt":800.79999995232,"correct":true,"confidence":2},{"trial_n":40,"n_dots":3.75,"target":"right","response":"right","rt":917.60000014305,"correct":true,"confidence":3},{"trial_n":41,"n_dots":3.65,"target":"left","response":"left","rt":905.90000009537,"correct":true,"confidence":4},{"trial_n":42,"n_dots":3.65,"target":"left","response":"left","rt":481.09999990463,"correct":true,"confidence":4},{"trial_n":43,"n_dots":3.55,"target":"right","response":"right","rt":1431.1999998093,"correct":true,"confidence":4},{"trial_n":44,"n_dots":3.55,"target":"left","response":"left","rt":864.90000009537,"correct":true,"confidence":3},{"trial_n":45,"n_dots":3.45,"target":"right","response":"right","rt":522.5,"correct":true,"confidence":3},{"trial_n":46,"n_dots":3.45,"target":"right","response":"right","rt":866.90000009537,"correct":true,"confidence":2},{"trial_n":47,"n_dots":3.35,"target":"left","response":"left","rt":496.29999995232,"correct":true,"confidence":4},{"trial_n":48,"n_dots":3.35,"target":"left","response":"right","rt":939.40000009537,"correct":false,"confidence":4},{"trial_n":49,"n_dots":3.45,"target":"right","response":"right","rt":1405,"correct":true,"confidence":4},{"trial_n":50,"n_dots":3.45,"target":"right","response":"left","rt":658.30000019073,"correct":false,"confidence":3},{"trial_n":51,"n_dots":3.55,"target":"left","response":"left","rt":846.69999980927,"correct":true,"confidence":3},{"trial_n":52,"n_dots":3.55,"target":"left","response":"left","rt":524.29999995232,"correct":true,"confidence":2},{"trial_n":53,"n_dots":3.45,"target":"right","response":"left","rt":483.60000014305,"correct":false,"confidence":2},{"trial_n":54,"n_dots":3.55,"target":"right","response":"right","rt":741,"correct":true,"confidence":3},{"trial_n":55,"n_dots":3.55,"target":"right","response":"right","rt":490,"correct":true,"confidence":3},{"trial_n":56,"n_dots":3.45,"target":"right","response":"right","rt":765.79999995232,"correct":true,"confidence":3},{"trial_n":57,"n_dots":3.45,"target":"right","response":"right","rt":651.89999985695,"correct":true,"confidence":3},{"trial_n":58,"n_dots":3.35,"target":"left","response":"left","rt":549.59999990463,"correct":true,"confidence":3},{"trial_n":59,"n_dots":3.35,"target":"right","response":"left","rt":898.89999985695,"correct":false,"confidence":2},{"trial_n":60,"n_dots":3.45,"target":"left","response":"left","rt":859.60000014305,"correct":true,"confidence":4},{"trial_n":61,"n_dots":3.45,"target":"left","response":"left","rt":775.09999990463,"correct":true,"confidence":3},{"trial_n":62,"n_dots":3.35,"target":"left","response":"left","rt":707.09999990463,"correct":true,"confidence":3},{"trial_n":63,"n_dots":3.35,"target":"left","response":"right","rt":740.20000004768,"correct":false,"confidence":3},{"trial_n":64,"n_dots":3.45,"target":"left","response":"left","rt":426.39999985695,"correct":true,"confidence":4},{"trial_n":65,"n_dots":3.45,"target":"left","response":"left","rt":458.5,"correct":true,"confidence":5},{"trial_n":66,"n_dots":3.35,"target":"left","response":"left","rt":422.60000014305,"correct":true,"confidence":4},{"trial_n":67,"n_dots":3.35,"target":"right","response":"right","rt":515,"correct":true,"confidence":3},{"trial_n":68,"n_dots":3.25,"target":"right","response":"left","rt":533,"correct":false,"confidence":3},{"trial_n":69,"n_dots":3.35,"target":"left","response":"left","rt":469.09999990463,"correct":true,"confidence":2},{"trial_n":70,"n_dots":3.35,"target":"right","response":"right","rt":735.79999995232,"correct":true,"confidence":2},{"trial_n":71,"n_dots":3.25,"target":"right","response":"left","rt":586.60000014305,"correct":false,"confidence":2},{"trial_n":72,"n_dots":3.35,"target":"right","response":"right","rt":601.89999985695,"correct":true,"confidence":3},{"trial_n":73,"n_dots":3.35,"target":"right","response":"right","rt":639.59999990463,"correct":true,"confidence":4},{"trial_n":74,"n_dots":3.25,"target":"right","response":"right","rt":723.90000009537,"correct":true,"confidence":4},{"trial_n":75,"n_dots":3.25,"target":"left","response":"right","rt":498.40000009537,"correct":false,"confidence":3},{"trial_n":76,"n_dots":3.35,"target":"right","response":"right","rt":704.20000004768,"correct":true,"confidence":5},{"trial_n":77,"n_dots":3.35,"target":"right","response":"right","rt":1074.7999999523,"correct":true,"confidence":4},{"trial_n":78,"n_dots":3.25,"target":"left","response":"left","rt":874.90000009537,"correct":true,"confidence":3},{"trial_n":79,"n_dots":3.25,"target":"left","response":"left","rt":778.29999995232,"correct":true,"confidence":2},{"trial_n":80,"n_dots":3.15,"target":"right","response":"right","rt":1724.6000001431,"correct":true,"confidence":2},{"trial_n":81,"n_dots":3.15,"target":"left","response":"right","rt":1640,"correct":false,"confidence":2},{"trial_n":82,"n_dots":3.25,"target":"left","response":"left","rt":536.90000009537,"correct":true,"confidence":3},{"trial_n":83,"n_dots":3.25,"target":"left","response":"left","rt":440.40000009537,"correct":true,"confidence":3},{"trial_n":84,"n_dots":3.15,"target":"left","response":"right","rt":699.5,"correct":false,"confidence":2},{"trial_n":85,"n_dots":3.25,"target":"right","response":"right","rt":588.20000004768,"correct":true,"confidence":3},{"trial_n":86,"n_dots":3.25,"target":"right","response":"right","rt":532.60000014305,"correct":true,"confidence":4},{"trial_n":87,"n_dots":3.15,"target":"left","response":"left","rt":615,"correct":true,"confidence":2},{"trial_n":88,"n_dots":3.15,"target":"left","response":"left","rt":1626,"correct":true,"confidence":2},{"trial_n":89,"n_dots":3.05,"target":"left","response":"left","rt":596.20000004768,"correct":true,"confidence":2},{"trial_n":90,"n_dots":3.05,"target":"right","response":"right","rt":544.39999985695,"correct":true,"confidence":1},{"trial_n":91,"n_dots":2.95,"target":"right","response":"right","rt":565.79999995232,"correct":true,"confidence":2},{"trial_n":92,"n_dots":2.95,"target":"right","response":"right","rt":613.39999985695,"correct":true,"confidence":3},{"trial_n":93,"n_dots":2.85,"target":"left","response":"left","rt":388,"correct":true,"confidence":3},{"trial_n":94,"n_dots":2.85,"target":"left","response":"left","rt":324.20000004768,"correct":true,"confidence":2},{"trial_n":95,"n_dots":2.75,"target":"left","response":"left","rt":619.70000004768,"correct":true,"confidence":2},{"trial_n":96,"n_dots":2.75,"target":"right","response":"right","rt":811.70000004768,"correct":true,"confidence":2},{"trial_n":97,"n_dots":2.65,"target":"right","response":"left","rt":588.70000004768,"correct":false,"confidence":3},{"trial_n":98,"n_dots":2.75,"target":"right","response":"right","rt":659.89999985695,"correct":true,"confidence":3},{"trial_n":99,"n_dots":2.75,"target":"right","response":"left","rt":463.90000009537,"correct":false,"confidence":4},{"trial_n":100,"n_dots":2.85,"target":"right","response":"left","rt":453.5,"correct":false,"confidence":4},{"trial_n":101,"n_dots":2.95,"target":"left","response":"left","rt":2019.7999999523,"correct":true,"confidence":2},{"trial_n":102,"n_dots":2.95,"target":"right","response":"left","rt":392.5,"correct":false,"confidence":4},{"trial_n":103,"n_dots":3.05,"target":"right","response":"left","rt":464,"correct":false,"confidence":2},{"trial_n":104,"n_dots":3.15,"target":"left","response":"left","rt":443.20000004768,"correct":true,"confidence":3},{"trial_n":105,"n_dots":3.15,"target":"right","response":"left","rt":437.70000004768,"correct":false,"confidence":3},{"trial_n":106,"n_dots":3.25,"target":"left","response":"left","rt":606.09999990463,"correct":true,"confidence":4},{"trial_n":107,"n_dots":3.25,"target":"left","response":"left","rt":597.30000019073,"correct":true,"confidence":4},{"trial_n":108,"n_dots":3.15,"target":"right","response":"left","rt":704.29999995232,"correct":false,"confidence":4},{"trial_n":109,"n_dots":3.25,"target":"left","response":"left","rt":412,"correct":true,"confidence":3},{"trial_n":110,"n_dots":3.25,"target":"left","response":"left","rt":612.30000019073,"correct":true,"confidence":3},{"trial_n":111,"n_dots":3.15,"target":"left","response":"left","rt":479.40000009537,"correct":true,"confidence":2},{"trial_n":112,"n_dots":3.15,"target":"left","response":"left","rt":560.20000004768,"correct":true,"confidence":2},{"trial_n":113,"n_dots":3.05,"target":"right","response":"left","rt":406.40000009537,"correct":false,"confidence":3},{"trial_n":114,"n_dots":3.15,"target":"left","response":"right","rt":1417.9000000954,"correct":false,"confidence":1},{"trial_n":115,"n_dots":3.25,"target":"right","response":"left","rt":727.79999995232,"correct":false,"confidence":2},{"trial_n":116,"n_dots":3.35,"target":"left","response":"right","rt":637.59999990463,"correct":false,"confidence":3},{"trial_n":117,"n_dots":3.45,"target":"right","response":"right","rt":605.59999990463,"correct":true,"confidence":4},{"trial_n":118,"n_dots":3.45,"target":"left","response":"right","rt":852.5,"correct":false,"confidence":4},{"trial_n":119,"n_dots":3.55,"target":"left","response":"right","rt":374.29999995232,"correct":false,"confidence":4},{"trial_n":120,"n_dots":3.65,"target":"right","response":"right","rt":293.89999985695,"correct":true,"confidence":5}]