[{"trial_n":1,"span":8,"encoder":"18244373","distractor":"38244373","target":"present","response":"absent","rt":"11005.600000143","correct":false,"confidence":-1},{"trial_n":2,"span":6,"encoder":"593963","distractor":"993963","target":"present","response":"present","rt":"1576","correct":true,"confidence":-1},{"trial_n":3,"span":6,"encoder":"077449","distractor":"077349","target":"absent","response":"absent","rt":"1782.5","correct":true,"confidence":-1},{"trial_n":4,"span":8,"encoder":"70170051","distractor":"70670051","target":"absent","response":"absent","rt":"2677.7999999523","correct":true,"confidence":-1},{"trial_n":5,"span":8,"encoder":"22552882","distractor":"22552682","target":"present","response":"present","rt":"2045.7999999523","correct":true,"confidence":-1},{"trial_n":6,"span":10,"encoder":"9080710218","distractor":"9080510218","target":"present","response":"present","rt":"1771.4000000954","correct":true,"confidence":-1},{"trial_n":7,"span":10,"encoder":"7824776575","distractor":"7824776775","target":"absent","response":"present","rt":"3474.2000000477","correct":false,"confidence":-1},{"trial_n":8,"span":8,"encoder":"63943245","distractor":"63943241","target":"absent","response":"present","rt":"1593.7999999523","correct":false,"confidence":-1},{"trial_n":9,"span":6,"encoder":"612615","distractor":"912615","target":"absent","response":"absent","rt":"1346.9000000954","correct":true,"confidence":-1},{"trial_n":10,"span":6,"encoder":"511262","distractor":"511268","target":"present","response":"present","rt":"1951.7999999523","correct":true,"confidence":-1},{"trial_n":11,"span":8,"encoder":"27136039","distractor":"27146039","target":"present","response":"present","rt":"497.79999995232","correct":true,"confidence":-1},{"trial_n":12,"span":8,"encoder":"05580474","distractor":"05580674","target":"present","response":"present","rt":"1251.2000000477","correct":true,"confidence":-1},{"trial_n":13,"span":9,"encoder":"081927283","distractor":"081327283","target":"absent","response":"absent","rt":"2442.2999999523","correct":true,"confidence":-1},{"trial_n":14,"span":9,"encoder":"374782852","distractor":"334782852","target":"absent","response":"present","rt":"1414.2000000477","correct":false,"confidence":-1},{"trial_n":15,"span":8,"encoder":"56778124","distractor":"56779124","target":"absent","response":"present","rt":"1796.2999999523","correct":false,"confidence":-1},{"trial_n":16,"span":7,"encoder":"5616656","distractor":"5616636","target":"absent","response":"present","rt":"901.29999995232","correct":false,"confidence":-1},{"trial_n":17,"span":6,"encoder":"401293","distractor":"401291","target":"absent","response":"absent","rt":"2506.7000000477","correct":true,"confidence":-1},{"trial_n":18,"span":6,"encoder":"900937","distractor":"990937","target":"present","response":"absent","rt":"12418","correct":false,"confidence":-1},{"trial_n":19,"span":5,"encoder":"95441","distractor":"93441","target":"absent","response":"present","rt":"889.10000014305","correct":false,"confidence":-1},{"trial_n":20,"span":4,"encoder":"9925","distractor":"9926","target":"absent","response":"absent","rt":"1341.7999999523","correct":true,"confidence":-1},{"trial_n":21,"span":4,"encoder":"2062","distractor":"2064","target":"absent","response":"present","rt":"1271.2000000477","correct":false,"confidence":3},{"trial_n":22,"span":3,"encoder":"041","distractor":"741","target":"present","response":"present","rt":"1075.5999999046","correct":true,"confidence":5},{"trial_n":23,"span":3,"encoder":"412","distractor":"410","target":"present","response":"present","rt":"848.5","correct":true,"confidence":5},{"trial_n":24,"span":4,"encoder":"6428","distractor":"6408","target":"present","response":"present","rt":"1134.3000001907","correct":true,"confidence":5},{"trial_n":25,"span":4,"encoder":"2046","distractor":"2546","target":"present","response":"present","rt":"1225.1000001431","correct":true,"confidence":5},{"trial_n":26,"span":5,"encoder":"25614","distractor":"15614","target":"absent","response":"absent","rt":"1264.5","correct":true,"confidence":5},{"trial_n":27,"span":5,"encoder":"55691","distractor":"55091","target":"absent","response":"absent","rt":"1918.2000000477","correct":true,"confidence":4},{"trial_n":28,"span":6,"encoder":"399029","distractor":"399229","target":"absent","response":"absent","rt":"1387.2999999523","correct":true,"confidence":5},{"trial_n":29,"span":6,"encoder":"209826","distractor":"209226","target":"absent","response":"absent","rt":"1760.1000001431","correct":true,"confidence":3},{"trial_n":30,"span":7,"encoder":"1545842","distractor":"1545843","target":"absent","response":"absent","rt":"2216.5","correct":true,"confidence":3},{"trial_n":31,"span":7,"encoder":"1968358","distractor":"1961358","target":"present","response":"present","rt":"2284.4000000954","correct":true,"confidence":3},{"trial_n":32,"span":8,"encoder":"92124477","distractor":"92824477","target":"absent","response":"absent","rt":"1779.8999998569","correct":true,"confidence":4},{"trial_n":33,"span":8,"encoder":"85977676","distractor":"85976676","target":"present","response":"absent","rt":"1879.5","correct":false,"confidence":2},{"trial_n":34,"span":7,"encoder":"6626439","distractor":"6626489","target":"present","response":"present","rt":"1936.8999998569","correct":true,"confidence":3},{"trial_n":35,"span":7,"encoder":"8805285","distractor":"8809285","target":"absent","response":"absent","rt":"1579.7999999523","correct":true,"confidence":3},{"trial_n":36,"span":8,"encoder":"22298799","distractor":"22298099","target":"absent","response":"present","rt":"1375","correct":false,"confidence":3},{"trial_n":37,"span":7,"encoder":"5718162","distractor":"5728162","target":"present","response":"present","rt":"1196.3999998569","correct":true,"confidence":3},{"trial_n":38,"span":7,"encoder":"7718372","distractor":"7718379","target":"absent","response":"present","rt":"1625.2999999523","correct":false,"confidence":2},{"trial_n":39,"span":6,"encoder":"703584","distractor":"713584","target":"present","response":"absent","rt":"1295.5","correct":false,"confidence":2},{"trial_n":40,"span":5,"encoder":"16084","distractor":"16884","target":"present","response":"present","rt":"1778.2999999523","correct":true,"confidence":3},{"trial_n":41,"span":5,"encoder":"65131","distractor":"65132","target":"absent","response":"present","rt":"2449","correct":false,"confidence":3},{"trial_n":42,"span":4,"encoder":"8541","distractor":"5541","target":"absent","response":"absent","rt":"1427.6999998093","correct":true,"confidence":5},{"trial_n":43,"span":4,"encoder":"6770","distractor":"4770","target":"present","response":"present","rt":"987.89999985695","correct":true,"confidence":3},{"trial_n":44,"span":5,"encoder":"95457","distractor":"95451","target":"present","response":"present","rt":"1375.8999998569","correct":true,"confidence":4},{"trial_n":45,"span":5,"encoder":"57294","distractor":"57295","target":"absent","response":"present","rt":"17030.299999952","correct":false,"confidence":2},{"trial_n":46,"span":4,"encoder":"3945","distractor":"3943","target":"absent","response":"present","rt":"1369.3999998569","correct":false,"confidence":1},{"trial_n":47,"span":3,"encoder":"347","distractor":"340","target":"present","response":"present","rt":"970.29999995232","correct":true,"confidence":5},{"trial_n":48,"span":3,"encoder":"622","distractor":"122","target":"present","response":"present","rt":"630.70000004768","correct":true,"confidence":5},{"trial_n":49,"span":4,"encoder":"6028","distractor":"6022","target":"present","response":"present","rt":"1080.0999999046","correct":true,"confidence":5},{"trial_n":50,"span":4,"encoder":"2428","distractor":"2528","target":"present","response":"present","rt":"687.29999995232","correct":true,"confidence":5},{"trial_n":51,"span":5,"encoder":"65299","distractor":"69299","target":"present","response":"present","rt":"1722.9000000954","correct":true,"confidence":5},{"trial_n":52,"span":5,"encoder":"39331","distractor":"39311","target":"absent","response":"absent","rt":"2048.5999999046","correct":true,"confidence":4},{"trial_n":53,"span":6,"encoder":"853832","distractor":"853732","target":"absent","response":"absent","rt":"1621.0999999046","correct":true,"confidence":4},{"trial_n":54,"span":6,"encoder":"825891","distractor":"025891","target":"absent","response":"absent","rt":"1215.2999999523","correct":true,"confidence":5},{"trial_n":55,"span":7,"encoder":"0696866","distractor":"0646866","target":"present","response":"present","rt":"1712.5","correct":true,"confidence":3},{"trial_n":56,"span":7,"encoder":"4426982","distractor":"4426984","target":"present","response":"present","rt":"2143","correct":true,"confidence":3},{"trial_n":57,"span":8,"encoder":"93017226","distractor":"33017226","target":"absent","response":"absent","rt":"1012.0999999046","correct":true,"confidence":5},{"trial_n":58,"span":8,"encoder":"34718471","distractor":"34318471","target":"present","response":"absent","rt":"2701.0999999046","correct":false,"confidence":2},{"trial_n":59,"span":7,"encoder":"7430572","distractor":"7430582","target":"absent","response":"present","rt":"1065.8000001907","correct":false,"confidence":4},{"trial_n":60,"span":6,"encoder":"822095","distractor":"822097","target":"absent","response":"present","rt":"1252","correct":false,"confidence":3},{"trial_n":61,"span":5,"encoder":"82222","distractor":"22222","target":"present","response":"present","rt":"986.60000014305","correct":true,"confidence":5},{"trial_n":62,"span":5,"encoder":"93313","distractor":"93353","target":"present","response":"present","rt":"980.29999995232","correct":true,"confidence":4},{"trial_n":63,"span":6,"encoder":"724663","distractor":"724661","target":"present","response":"present","rt":"1308.9000000954","correct":true,"confidence":4},{"trial_n":64,"span":6,"encoder":"926817","distractor":"926814","target":"present","response":"present","rt":"1772.7999999523","correct":true,"confidence":4},{"trial_n":65,"span":7,"encoder":"2061379","distractor":"2041379","target":"present","response":"absent","rt":"1279","correct":false,"confidence":3},{"trial_n":66,"span":6,"encoder":"513184","distractor":"513684","target":"absent","response":"absent","rt":"1570","correct":true,"confidence":5},{"trial_n":67,"span":6,"encoder":"425104","distractor":"424104","target":"absent","response":"absent","rt":"2000.2000000477","correct":true,"confidence":3},{"trial_n":68,"span":7,"encoder":"2582796","distractor":"2582736","target":"present","response":"present","rt":"1227.2000000477","correct":true,"confidence":3},{"trial_n":69,"span":7,"encoder":"5622673","distractor":"5622670","target":"present","response":"absent","rt":"1357.1000001431","correct":false,"confidence":2},{"trial_n":70,"span":6,"encoder":"252455","distractor":"250455","target":"present","response":"absent","rt":"2170.9000000954","correct":false,"confidence":2},{"trial_n":71,"span":8,"encoder":"26612558","distractor":"26612528","target":"present","response":"absent","rt":"3164.3000001907","correct":false,"confidence":-1},{"trial_n":72,"span":7,"encoder":"6854768","distractor":"6354768","target":"present","response":"present","rt":"1064.5999999046","correct":true,"confidence":-1},{"trial_n":73,"span":7,"encoder":"8735927","distractor":"8735427","target":"absent","response":"present","rt":"385.09999990463","correct":false,"confidence":-1},{"trial_n":74,"span":6,"encoder":"580795","distractor":"580799","target":"absent","response":"absent","rt":"474.29999995232","correct":true,"confidence":-1},{"trial_n":75,"span":6,"encoder":"360216","distractor":"367216","target":"present","response":"absent","rt":"296.60000014305","correct":false,"confidence":-1},{"trial_n":76,"span":5,"encoder":"45765","distractor":"42765","target":"present","response":"absent","rt":"406.5","correct":false,"confidence":-1},{"trial_n":77,"span":4,"encoder":"5357","distractor":"5351","target":"absent","response":"absent","rt":"748.5","correct":true,"confidence":-1},{"trial_n":78,"span":4,"encoder":"5720","distractor":"5729","target":"absent","response":"present","rt":"757.5","correct":false,"confidence":-1},{"trial_n":79,"span":3,"encoder":"764","distractor":"754","target":"present","response":"absent","rt":"722.70000004768","correct":false,"confidence":-1},{"trial_n":80,"span":2,"encoder":"26","distractor":"46","target":"absent","response":"present","rt":"793.69999980927","correct":false,"confidence":-1},{"trial_n":81,"span":2,"encoder":"68","distractor":"58","target":"present","response":"present","rt":"636.29999995232","correct":true,"confidence":-1},{"trial_n":82,"span":2,"encoder":"54","distractor":"24","target":"present","response":"present","rt":"507.79999995232","correct":true,"confidence":-1},{"trial_n":83,"span":3,"encoder":"848","distractor":"948","target":"absent","response":"absent","rt":"962.29999995232","correct":true,"confidence":-1},{"trial_n":84,"span":3,"encoder":"103","distractor":"703","target":"present","response":"present","rt":"947.40000009537","correct":true,"confidence":-1},{"trial_n":85,"span":4,"encoder":"3024","distractor":"3020","target":"absent","response":"absent","rt":"1030.9000000954","correct":true,"confidence":-1},{"trial_n":86,"span":4,"encoder":"5563","distractor":"5263","target":"present","response":"present","rt":"1024.8000001907","correct":true,"confidence":-1},{"trial_n":87,"span":5,"encoder":"83978","distractor":"53978","target":"absent","response":"absent","rt":"1147.6000001431","correct":true,"confidence":-1},{"trial_n":88,"span":5,"encoder":"95850","distractor":"92850","target":"absent","response":"present","rt":"1435.1999998093","correct":false,"confidence":-1},{"trial_n":89,"span":4,"encoder":"2447","distractor":"2147","target":"present","response":"absent","rt":"713.20000004768","correct":false,"confidence":-1},{"trial_n":90,"span":3,"encoder":"603","distractor":"608","target":"present","response":"present","rt":"603.39999985695","correct":true,"confidence":-1},{"trial_n":91,"span":3,"encoder":"094","distractor":"794","target":"present","response":"present","rt":"1252.2999999523","correct":true,"confidence":5},{"trial_n":92,"span":4,"encoder":"2203","distractor":"2903","target":"absent","response":"absent","rt":"823.5","correct":true,"confidence":5},{"trial_n":93,"span":4,"encoder":"8710","distractor":"8760","target":"absent","response":"absent","rt":"960.89999985695","correct":true,"confidence":4},{"trial_n":94,"span":5,"encoder":"83221","distractor":"83227","target":"present","response":"present","rt":"2202.7999999523","correct":true,"confidence":4},{"trial_n":95,"span":5,"encoder":"17180","distractor":"17187","target":"present","response":"present","rt":"1145.9000000954","correct":true,"confidence":1},{"trial_n":96,"span":6,"encoder":"978378","distractor":"978328","target":"absent","response":"present","rt":"1267.0999999046","correct":false,"confidence":1},{"trial_n":97,"span":5,"encoder":"41954","distractor":"41154","target":"present","response":"absent","rt":"815.29999995232","correct":false,"confidence":1},{"trial_n":98,"span":4,"encoder":"5255","distractor":"2255","target":"present","response":"present","rt":"1117.6999998093","correct":true,"confidence":5},{"trial_n":99,"span":4,"encoder":"0726","distractor":"0226","target":"absent","response":"absent","rt":"1145.7999999523","correct":true,"confidence":4},{"trial_n":100,"span":5,"encoder":"95453","distractor":"95483","target":"absent","response":"absent","rt":"1415.2000000477","correct":true,"confidence":4},{"trial_n":101,"span":5,"encoder":"33000","distractor":"53000","target":"absent","response":"present","rt":"1279.9000000954","correct":false,"confidence":1},{"trial_n":102,"span":4,"encoder":"3612","distractor":"3692","target":"absent","response":"absent","rt":"1220.7000000477","correct":true,"confidence":5},{"trial_n":103,"span":4,"encoder":"6874","distractor":"6814","target":"present","response":"present","rt":"942.79999995232","correct":true,"confidence":4},{"trial_n":104,"span":5,"encoder":"73416","distractor":"73414","target":"absent","response":"absent","rt":"1144.5999999046","correct":true,"confidence":5},{"trial_n":105,"span":5,"encoder":"94663","distractor":"94563","target":"absent","response":"absent","rt":"1058.4000000954","correct":true,"confidence":4},{"trial_n":106,"span":6,"encoder":"886124","distractor":"886121","target":"present","response":"present","rt":"1209.1000001431","correct":true,"confidence":4},{"trial_n":107,"span":6,"encoder":"437452","distractor":"437432","target":"present","response":"present","rt":"1268.9000000954","correct":true,"confidence":4},{"trial_n":108,"span":7,"encoder":"4923300","distractor":"4923306","target":"absent","response":"absent","rt":"1132.5","correct":true,"confidence":4},{"trial_n":109,"span":7,"encoder":"2588661","distractor":"2588664","target":"absent","response":"absent","rt":"4165.0999999046","correct":true,"confidence":1},{"trial_n":110,"span":8,"encoder":"99588496","distractor":"99588490","target":"present","response":"absent","rt":"4114.2000000477","correct":false,"confidence":2},{"trial_n":111,"span":7,"encoder":"9737569","distractor":"9757569","target":"present","response":"present","rt":"2101.1000001431","correct":true,"confidence":2},{"trial_n":112,"span":7,"encoder":"0609920","distractor":"0609720","target":"present","response":"present","rt":"1630.6000001431","correct":true,"confidence":1},{"trial_n":113,"span":8,"encoder":"16294444","distractor":"16204444","target":"absent","response":"absent","rt":"1110.7000000477","correct":true,"confidence":3},{"trial_n":114,"span":8,"encoder":"33765451","distractor":"33765453","target":"present","response":"present","rt":"1026","correct":true,"confidence":1},{"trial_n":115,"span":9,"encoder":"372382939","distractor":"272382939","target":"absent","response":"absent","rt":"394.29999995232","correct":true,"confidence":3},{"trial_n":116,"span":9,"encoder":"240194937","distractor":"540194937","target":"present","response":"absent","rt":"876.60000014305","correct":false,"confidence":2},{"trial_n":117,"span":8,"encoder":"74427027","distractor":"74427077","target":"absent","response":"present","rt":"1030.7000000477","correct":false,"confidence":1},{"trial_n":118,"span":7,"encoder":"5976196","distractor":"5946196","target":"present","response":"present","rt":"1398.4000000954","correct":true,"confidence":3},{"trial_n":119,"span":7,"encoder":"3015769","distractor":"3012769","target":"absent","response":"present","rt":"1026.4000000954","correct":false,"confidence":2},{"trial_n":120,"span":6,"encoder":"701811","distractor":"701817","target":"absent","response":"absent","rt":"1538.4000000954","correct":true,"confidence":4},{"trial_n":121,"span":6,"encoder":"127461","distractor":"167461","target":"present","response":"present","rt":"2081.9000000954","correct":true,"confidence":3},{"trial_n":122,"span":7,"encoder":"4151510","distractor":"4151310","target":"absent","response":"absent","rt":"1250.5","correct":true,"confidence":2},{"trial_n":123,"span":7,"encoder":"0521497","distractor":"0561497","target":"present","response":"present","rt":"898.90000009537","correct":true,"confidence":1},{"trial_n":124,"span":8,"encoder":"60683662","distractor":"60683669","target":"absent","response":"present","rt":"1885","correct":false,"confidence":2},{"trial_n":125,"span":7,"encoder":"8717235","distractor":"8717237","target":"present","response":"present","rt":"963.89999985695","correct":true,"confidence":3},{"trial_n":126,"span":7,"encoder":"6083197","distractor":"6183197","target":"absent","response":"present","rt":"945.40000009537","correct":false,"confidence":2},{"trial_n":127,"span":6,"encoder":"103615","distractor":"103015","target":"absent","response":"absent","rt":"593.59999990463","correct":true,"confidence":2},{"trial_n":128,"span":6,"encoder":"657486","distractor":"657416","target":"present","response":"present","rt":"546.09999990463","correct":true,"confidence":1},{"trial_n":129,"span":7,"encoder":"6169666","distractor":"6109666","target":"absent","response":"present","rt":"1392.5999999046","correct":false,"confidence":3},{"trial_n":130,"span":6,"encoder":"647979","distractor":"645979","target":"present","response":"present","rt":"1616.5","correct":true,"confidence":3},{"trial_n":131,"span":6,"encoder":"148499","distractor":"148599","target":"present","response":"present","rt":"653.90000009537","correct":true,"confidence":3},{"trial_n":132,"span":7,"encoder":"7209663","distractor":"4209663","target":"present","response":"present","rt":"1170","correct":true,"confidence":5},{"trial_n":133,"span":7,"encoder":"5050332","distractor":"5054332","target":"absent","response":"present","rt":"1922.5999999046","correct":false,"confidence":2},{"trial_n":134,"span":6,"encoder":"723208","distractor":"723258","target":"absent","response":"present","rt":"630.19999980927","correct":false,"confidence":2},{"trial_n":135,"span":5,"encoder":"84137","distractor":"80137","target":"present","response":"present","rt":"404.19999980927","correct":true,"confidence":2},{"trial_n":136,"span":5,"encoder":"85362","distractor":"85369","target":"absent","response":"absent","rt":"379.39999985695","correct":true,"confidence":4},{"trial_n":137,"span":6,"encoder":"501262","distractor":"501263","target":"present","response":"absent","rt":"300.69999980927","correct":false,"confidence":3},{"trial_n":138,"span":5,"encoder":"55761","distractor":"57761","target":"present","response":"present","rt":"1149.2000000477","correct":true,"confidence":5},{"trial_n":139,"span":5,"encoder":"85430","distractor":"85030","target":"absent","response":"absent","rt":"1497.7000000477","correct":true,"confidence":3},{"trial_n":140,"span":6,"encoder":"008183","distractor":"008383","target":"present","response":"present","rt":"1255.7000000477","correct":true,"confidence":5}]