[{"trial_n":1,"n_dots":4.25,"target":"right","response":"left","rt":3197.6000001431,"correct":false,"confidence":-1},{"trial_n":2,"n_dots":4.25,"target":"left","response":"left","rt":1120.5,"correct":true,"confidence":-1},{"trial_n":3,"n_dots":4.25,"target":"right","response":"right","rt":1132.9000000954,"correct":true,"confidence":-1},{"trial_n":4,"n_dots":3.85,"target":"left","response":"left","rt":142.40000009537,"correct":true,"confidence":-1},{"trial_n":5,"n_dots":3.85,"target":"left","response":"left","rt":343.39999985695,"correct":true,"confidence":-1},{"trial_n":6,"n_dots":3.45,"target":"right","response":"right","rt":1090.7000000477,"correct":true,"confidence":-1},{"trial_n":7,"n_dots":3.45,"target":"left","response":"left","rt":311.70000004768,"correct":true,"confidence":-1},{"trial_n":8,"n_dots":3.25,"target":"right","response":"right","rt":403.59999990463,"correct":true,"confidence":-1},{"trial_n":9,"n_dots":3.25,"target":"right","response":"left","rt":255,"correct":false,"confidence":-1},{"trial_n":10,"n_dots":3.45,"target":"right","response":"left","rt":591.70000004768,"correct":false,"confidence":-1},{"trial_n":11,"n_dots":3.65,"target":"left","response":"left","rt":322.09999990463,"correct":true,"confidence":-1},{"trial_n":12,"n_dots":3.65,"target":"right","response":"right","rt":988.5,"correct":true,"confidence":-1},{"trial_n":13,"n_dots":3.55,"target":"left","response":"left","rt":537,"correct":true,"confidence":-1},{"trial_n":14,"n_dots":3.55,"target":"left","response":"left","rt":613.70000004768,"correct":true,"confidence":-1},{"trial_n":15,"n_dots":3.45,"target":"left","response":"right","rt":695.70000004768,"correct":false,"confidence":-1},{"trial_n":16,"n_dots":3.55,"target":"right","response":"right","rt":405.29999995232,"correct":true,"confidence":-1},{"trial_n":17,"n_dots":3.55,"target":"right","response":"right","rt":364.20000004768,"correct":true,"confidence":-1},{"trial_n":18,"n_dots":3.45,"target":"left","response":"left","rt":258.20000004768,"correct":true,"confidence":-1},{"trial_n":19,"n_dots":3.45,"target":"right","response":"left","rt":134.70000004768,"correct":false,"confidence":-1},{"trial_n":20,"n_dots":3.55,"target":"left","response":"left","rt":203.5,"correct":true,"confidence":-1},{"trial_n":21,"n_dots":3.55,"target":"left","response":"left","rt":677.5,"correct":true,"confidence":4},{"trial_n":22,"n_dots":3.45,"target":"right","response":"right","rt":501.10000014305,"correct":true,"confidence":2},{"trial_n":23,"n_dots":3.45,"target":"left","response":"left","rt":996.29999995232,"correct":true,"confidence":3},{"trial_n":24,"n_dots":3.35,"target":"right","response":"left","rt":837.20000004768,"correct":false,"confidence":3},{"trial_n":25,"n_dots":3.45,"target":"left","response":"right","rt":951.5,"correct":false,"confidence":2},{"trial_n":26,"n_dots":3.55,"target":"right","response":"left","rt":1330.2000000477,"correct":false,"confidence":1},{"trial_n":27,"n_dots":3.65,"target":"left","response":"left","rt":294.70000004768,"correct":true,"confidence":3},{"trial_n":28,"n_dots":3.65,"target":"right","response":"right","rt":621.70000004768,"correct":true,"confidence":3},{"trial_n":29,"n_dots":3.55,"target":"right","response":"right","rt":658.79999995232,"correct":true,"confidence":2},{"trial_n":30,"n_dots":3.55,"target":"left","response":"left","rt":769.80000019073,"correct":true,"confidence":2},{"trial_n":31,"n_dots":3.45,"target":"right","response":"right","rt":1420.8000001907,"correct":true,"confidence":2},{"trial_n":32,"n_dots":3.45,"target":"right","response":"left","rt":738.89999985695,"correct":false,"confidence":1},{"trial_n":33,"n_dots":3.55,"target":"right","response":"right","rt":506,"correct":true,"confidence":4},{"trial_n":34,"n_dots":3.55,"target":"left","response":"left","rt":438.10000014305,"correct":true,"confidence":3},{"trial_n":35,"n_dots":3.45,"target":"right","response":"right","rt":773.79999995232,"correct":true,"confidence":2},{"trial_n":36,"n_dots":3.45,"target":"left","response":"left","rt":450.59999990463,"correct":true,"confidence":2},{"trial_n":37,"n_dots":3.35,"target":"right","response":"right","rt":777.40000009537,"correct":true,"confidence":3},{"trial_n":38,"n_dots":3.35,"target":"left","response":"left","rt":509,"correct":true,"confidence":3},{"trial_n":39,"n_dots":3.25,"target":"left","response":"left","rt":560.19999980927,"correct":true,"confidence":2},{"trial_n":40,"n_dots":3.25,"target":"left","response":"left","rt":821.90000009537,"correct":true,"confidence":2},{"trial_n":41,"n_dots":3.15,"target":"left","response":"left","rt":592.5,"correct":true,"confidence":2},{"trial_n":42,"n_dots":3.15,"target":"left","response":"left","rt":226.59999990463,"correct":true,"confidence":3},{"trial_n":43,"n_dots":3.05,"target":"left","response":"left","rt":356.09999990463,"correct":true,"confidence":2},{"trial_n":44,"n_dots":3.05,"target":"right","response":"left","rt":313.20000004768,"correct":false,"confidence":3},{"trial_n":45,"n_dots":3.15,"target":"left","response":"left","rt":161.59999990463,"correct":true,"confidence":3},{"trial_n":46,"n_dots":3.15,"target":"left","response":"right","rt":904.09999990463,"correct":false,"confidence":1},{"trial_n":47,"n_dots":3.25,"target":"left","response":"left","rt":446.39999985695,"correct":true,"confidence":2},{"trial_n":48,"n_dots":3.25,"target":"right","response":"left","rt":370.09999990463,"correct":false,"confidence":1},{"trial_n":49,"n_dots":3.35,"target":"left","response":"left","rt":537.09999990463,"correct":true,"confidence":2},{"trial_n":50,"n_dots":3.35,"target":"left","response":"left","rt":309.40000009537,"correct":true,"confidence":2},{"trial_n":51,"n_dots":3.25,"target":"right","response":"right","rt":683.70000004768,"correct":true,"confidence":2},{"trial_n":52,"n_dots":3.25,"target":"left","response":"left","rt":312.40000009537,"correct":true,"confidence":3},{"trial_n":53,"n_dots":3.15,"target":"left","response":"left","rt":281.29999995232,"correct":true,"confidence":3},{"trial_n":54,"n_dots":3.15,"target":"right","response":"right","rt":659.69999980927,"correct":true,"confidence":2},{"trial_n":55,"n_dots":3.05,"target":"right","response":"left","rt":417.59999990463,"correct":false,"confidence":2},{"trial_n":56,"n_dots":3.15,"target":"right","response":"right","rt":629.5,"correct":true,"confidence":2},{"trial_n":57,"n_dots":3.15,"target":"left","response":"left","rt":37043.299999952,"correct":true,"confidence":1},{"trial_n":58,"n_dots":3.05,"target":"left","response":"left","rt":247.29999995232,"correct":true,"confidence":3},{"trial_n":59,"n_dots":3.05,"target":"left","response":"left","rt":145.29999995232,"correct":true,"confidence":3},{"trial_n":60,"n_dots":2.95,"target":"left","response":"left","rt":125.59999990463,"correct":true,"confidence":2},{"trial_n":61,"n_dots":2.95,"target":"left","response":"right","rt":611.20000004768,"correct":false,"confidence":1},{"trial_n":62,"n_dots":3.05,"target":"left","response":"left","rt":682.09999990463,"correct":true,"confidence":1},{"trial_n":63,"n_dots":3.05,"target":"left","response":"left","rt":242.79999995232,"correct":true,"confidence":2},{"trial_n":64,"n_dots":2.95,"target":"right","response":"left","rt":239.60000014305,"correct":false,"confidence":2},{"trial_n":65,"n_dots":3.05,"target":"right","response":"left","rt":397.10000014305,"correct":false,"confidence":1},{"trial_n":66,"n_dots":3.15,"target":"right","response":"right","rt":494.09999990463,"correct":true,"confidence":1},{"trial_n":67,"n_dots":3.15,"target":"right","response":"right","rt":448.79999995232,"correct":true,"confidence":2},{"trial_n":68,"n_dots":3.05,"target":"right","response":"left","rt":123.5,"correct":false,"confidence":3},{"trial_n":69,"n_dots":3.15,"target":"left","response":"left","rt":296.29999995232,"correct":true,"confidence":1},{"trial_n":70,"n_dots":3.15,"target":"right","response":"right","rt":1019.5,"correct":true,"confidence":1},{"trial_n":71,"n_dots":3.05,"target":"right","response":"left","rt":776.60000014305,"correct":false,"confidence":1},{"trial_n":72,"n_dots":3.15,"target":"left","response":"right","rt":1584.8999998569,"correct":false,"confidence":3},{"trial_n":73,"n_dots":3.25,"target":"right","response":"left","rt":460.20000004768,"correct":false,"confidence":2},{"trial_n":74,"n_dots":3.35,"target":"left","response":"left","rt":207.29999995232,"correct":true,"confidence":3},{"trial_n":75,"n_dots":3.35,"target":"right","response":"right","rt":652.79999995232,"correct":true,"confidence":2},{"trial_n":76,"n_dots":3.25,"target":"right","response":"left","rt":455.30000019073,"correct":false,"confidence":3},{"trial_n":77,"n_dots":3.35,"target":"right","response":"right","rt":847.89999985695,"correct":true,"confidence":3},{"trial_n":78,"n_dots":3.35,"target":"left","response":"left","rt":457.29999995232,"correct":true,"confidence":2},{"trial_n":79,"n_dots":3.25,"target":"left","response":"left","rt":229.29999995232,"correct":true,"confidence":1},{"trial_n":80,"n_dots":3.25,"target":"left","response":"left","rt":599.39999985695,"correct":true,"confidence":2},{"trial_n":81,"n_dots":3.15,"target":"left","response":"left","rt":874.40000009537,"correct":true,"confidence":2},{"trial_n":82,"n_dots":3.15,"target":"right","response":"left","rt":136.09999990463,"correct":false,"confidence":1},{"trial_n":83,"n_dots":3.25,"target":"right","response":"right","rt":1254.4000000954,"correct":true,"confidence":2},{"trial_n":84,"n_dots":3.25,"target":"left","response":"left","rt":232.30000019073,"correct":true,"confidence":3},{"trial_n":85,"n_dots":3.15,"target":"right","response":"right","rt":464.40000009537,"correct":true,"confidence":3},{"trial_n":86,"n_dots":3.15,"target":"right","response":"right","rt":549.19999980927,"correct":true,"confidence":3},{"trial_n":87,"n_dots":3.05,"target":"right","response":"left","rt":567.59999990463,"correct":false,"confidence":3},{"trial_n":88,"n_dots":3.15,"target":"left","response":"left","rt":207.20000004768,"correct":true,"confidence":2},{"trial_n":89,"n_dots":3.15,"target":"right","response":"left","rt":229.59999990463,"correct":false,"confidence":1},{"trial_n":90,"n_dots":3.25,"target":"right","response":"left","rt":97.399999856949,"correct":false,"confidence":1},{"trial_n":91,"n_dots":3.35,"target":"right","response":"right","rt":394.59999990463,"correct":true,"confidence":3},{"trial_n":92,"n_dots":3.35,"target":"left","response":"left","rt":549.09999990463,"correct":true,"confidence":4},{"trial_n":93,"n_dots":3.25,"target":"left","response":"left","rt":511.60000014305,"correct":true,"confidence":2},{"trial_n":94,"n_dots":3.25,"target":"right","response":"left","rt":230.40000009537,"correct":false,"confidence":3},{"trial_n":95,"n_dots":3.35,"target":"left","response":"left","rt":206.59999990463,"correct":true,"confidence":4},{"trial_n":96,"n_dots":3.35,"target":"right","response":"right","rt":669.29999995232,"correct":true,"confidence":3},{"trial_n":97,"n_dots":3.25,"target":"left","response":"left","rt":755,"correct":true,"confidence":2},{"trial_n":98,"n_dots":3.25,"target":"left","response":"left","rt":805.80000019073,"correct":true,"confidence":1},{"trial_n":99,"n_dots":3.15,"target":"right","response":"left","rt":305,"correct":false,"confidence":1},{"trial_n":100,"n_dots":3.25,"target":"right","response":"right","rt":581.40000009537,"correct":true,"confidence":3},{"trial_n":101,"n_dots":3.25,"target":"left","response":"left","rt":178.79999995232,"correct":true,"confidence":1},{"trial_n":102,"n_dots":3.15,"target":"right","response":"left","rt":184.60000014305,"correct":false,"confidence":1},{"trial_n":103,"n_dots":3.25,"target":"right","response":"left","rt":230.20000004768,"correct":false,"confidence":4},{"trial_n":104,"n_dots":3.35,"target":"right","response":"right","rt":419.30000019073,"correct":true,"confidence":2},{"trial_n":105,"n_dots":3.35,"target":"left","response":"left","rt":92.400000095367,"correct":true,"confidence":3},{"trial_n":106,"n_dots":3.25,"target":"right","response":"right","rt":1176.5999999046,"correct":true,"confidence":2},{"trial_n":107,"n_dots":3.25,"target":"left","response":"left","rt":253.90000009537,"correct":true,"confidence":2},{"trial_n":108,"n_dots":3.15,"target":"right","response":"right","rt":666.90000009537,"correct":true,"confidence":1},{"trial_n":109,"n_dots":3.15,"target":"right","response":"left","rt":284.39999985695,"correct":false,"confidence":1},{"trial_n":110,"n_dots":3.25,"target":"right","response":"left","rt":231.79999995232,"correct":false,"confidence":2},{"trial_n":111,"n_dots":3.35,"target":"left","response":"left","rt":566.40000009537,"correct":true,"confidence":2},{"trial_n":112,"n_dots":3.35,"target":"right","response":"right","rt":564.70000004768,"correct":true,"confidence":1},{"trial_n":113,"n_dots":3.25,"target":"left","response":"right","rt":667.60000014305,"correct":false,"confidence":2},{"trial_n":114,"n_dots":3.35,"target":"left","response":"left","rt":263.29999995232,"correct":true,"confidence":3},{"trial_n":115,"n_dots":3.35,"target":"left","response":"right","rt":525.30000019073,"correct":false,"confidence":2},{"trial_n":116,"n_dots":3.45,"target":"left","response":"left","rt":1928.7000000477,"correct":true,"confidence":1},{"trial_n":117,"n_dots":3.45,"target":"left","response":"right","rt":687.40000009537,"correct":false,"confidence":3},{"trial_n":118,"n_dots":3.55,"target":"right","response":"right","rt":773.70000004768,"correct":true,"confidence":3},{"trial_n":119,"n_dots":3.55,"target":"right","response":"left","rt":1008.7999999523,"correct":false,"confidence":2},{"trial_n":120,"n_dots":3.65,"target":"right","response":"left","rt":250.70000004768,"correct":false,"confidence":1}]