[{"trial_n":1,"n_dots":4.25,"target":"left","response":"left","rt":7756.400000006,"correct":true,"confidence":-1},{"trial_n":2,"n_dots":4.25,"target":"left","response":"left","rt":973,"correct":true,"confidence":-1},{"trial_n":3,"n_dots":3.85,"target":"left","response":"left","rt":974.90000000596,"correct":true,"confidence":-1},{"trial_n":4,"n_dots":3.85,"target":"left","response":"right","rt":1655.3999999911,"correct":false,"confidence":-1},{"trial_n":5,"n_dots":4.25,"target":"left","response":"left","rt":601.5,"correct":true,"confidence":-1},{"trial_n":6,"n_dots":4.25,"target":"left","response":"left","rt":676.79999999702,"correct":true,"confidence":-1},{"trial_n":7,"n_dots":3.85,"target":"right","response":"left","rt":989.59999999404,"correct":false,"confidence":-1},{"trial_n":8,"n_dots":4.05,"target":"right","response":"right","rt":915.40000000596,"correct":true,"confidence":-1},{"trial_n":9,"n_dots":4.05,"target":"right","response":"left","rt":1342.5,"correct":false,"confidence":-1},{"trial_n":10,"n_dots":4.25,"target":"right","response":"right","rt":450.40000000596,"correct":true,"confidence":-1},{"trial_n":11,"n_dots":4.25,"target":"left","response":"left","rt":723.90000000596,"correct":true,"confidence":-1},{"trial_n":12,"n_dots":4.05,"target":"right","response":"right","rt":766.79999999702,"correct":true,"confidence":-1},{"trial_n":13,"n_dots":4.05,"target":"right","response":"right","rt":521.10000000894,"correct":true,"confidence":-1},{"trial_n":14,"n_dots":3.95,"target":"left","response":"right","rt":697.59999999404,"correct":false,"confidence":-1},{"trial_n":15,"n_dots":4.05,"target":"right","response":"right","rt":479.69999998808,"correct":true,"confidence":-1},{"trial_n":16,"n_dots":4.05,"target":"left","response":"right","rt":1865.6000000089,"correct":false,"confidence":-1},{"trial_n":17,"n_dots":4.15,"target":"left","response":"right","rt":1160.200000003,"correct":false,"confidence":-1},{"trial_n":18,"n_dots":4.25,"target":"left","response":"right","rt":619,"correct":false,"confidence":-1},{"trial_n":19,"n_dots":4.35,"target":"left","response":"left","rt":599.09999999404,"correct":true,"confidence":-1},{"trial_n":20,"n_dots":4.35,"target":"left","response":"right","rt":397.10000000894,"correct":false,"confidence":-1},{"trial_n":21,"n_dots":4.45,"target":"right","response":"left","rt":4905.6999999881,"correct":false,"confidence":1},{"trial_n":22,"n_dots":4.55,"target":"left","response":"left","rt":736.59999999404,"correct":true,"confidence":1},{"trial_n":23,"n_dots":4.55,"target":"left","response":"right","rt":2898.5,"correct":false,"confidence":4},{"trial_n":24,"n_dots":4.65,"target":"right","response":"right","rt":51.5,"correct":true,"confidence":5},{"trial_n":25,"n_dots":4.65,"target":"right","response":"right","rt":1071.299999997,"correct":true,"confidence":5},{"trial_n":26,"n_dots":4.55,"target":"left","response":"left","rt":290.79999999702,"correct":true,"confidence":5},{"trial_n":27,"n_dots":4.55,"target":"left","response":"left","rt":560.29999999702,"correct":true,"confidence":5},{"trial_n":28,"n_dots":4.45,"target":"right","response":"right","rt":453.29999999702,"correct":true,"confidence":5},{"trial_n":29,"n_dots":4.45,"target":"right","response":"right","rt":642.89999999106,"correct":true,"confidence":5},{"trial_n":30,"n_dots":4.35,"target":"right","response":"right","rt":2870.5,"correct":true,"confidence":5},{"trial_n":31,"n_dots":4.35,"target":"left","response":"left","rt":390.29999999702,"correct":true,"confidence":5},{"trial_n":32,"n_dots":4.25,"target":"right","response":"right","rt":479.5,"correct":true,"confidence":5},{"trial_n":33,"n_dots":4.25,"target":"right","response":"right","rt":-0.5,"correct":true,"confidence":5},{"trial_n":34,"n_dots":4.15,"target":"left","response":"left","rt":63.70000000298,"correct":true,"confidence":5},{"trial_n":35,"n_dots":4.15,"target":"right","response":"right","rt":878.69999998808,"correct":true,"confidence":5},{"trial_n":36,"n_dots":4.05,"target":"right","response":"right","rt":532.10000000894,"correct":true,"confidence":5},{"trial_n":37,"n_dots":4.05,"target":"left","response":"left","rt":257.20000000298,"correct":true,"confidence":5},{"trial_n":38,"n_dots":3.95,"target":"right","response":"right","rt":522.90000000596,"correct":true,"confidence":5},{"trial_n":39,"n_dots":3.95,"target":"left","response":"left","rt":483.69999998808,"correct":true,"confidence":5},{"trial_n":40,"n_dots":3.85,"target":"right","response":"right","rt":402.69999998808,"correct":true,"confidence":5},{"trial_n":41,"n_dots":3.85,"target":"right","response":"left","rt":479.10000000894,"correct":false,"confidence":5},{"trial_n":42,"n_dots":3.95,"target":"left","response":"left","rt":400.29999999702,"correct":true,"confidence":5},{"trial_n":43,"n_dots":3.95,"target":"right","response":"right","rt":480.09999999404,"correct":true,"confidence":5},{"trial_n":44,"n_dots":3.85,"target":"right","response":"right","rt":1062.5,"correct":true,"confidence":3},{"trial_n":45,"n_dots":3.85,"target":"right","response":"right","rt":175.70000000298,"correct":true,"confidence":5},{"trial_n":46,"n_dots":3.75,"target":"right","response":"right","rt":51.20000000298,"correct":true,"confidence":5},{"trial_n":47,"n_dots":3.75,"target":"right","response":"right","rt":391.39999999106,"correct":true,"confidence":5},{"trial_n":48,"n_dots":3.65,"target":"left","response":"right","rt":1206.1000000089,"correct":false,"confidence":3},{"trial_n":49,"n_dots":3.75,"target":"right","response":"right","rt":568.79999999702,"correct":true,"confidence":4},{"trial_n":50,"n_dots":3.75,"target":"left","response":"left","rt":792.20000000298,"correct":true,"confidence":3},{"trial_n":51,"n_dots":3.65,"target":"right","response":"right","rt":422.70000000298,"correct":true,"confidence":5},{"trial_n":52,"n_dots":3.65,"target":"left","response":"left","rt":182.20000000298,"correct":true,"confidence":5},{"trial_n":53,"n_dots":3.55,"target":"left","response":"right","rt":290.20000000298,"correct":false,"confidence":2},{"trial_n":54,"n_dots":3.65,"target":"left","response":"left","rt":995.20000000298,"correct":true,"confidence":4},{"trial_n":55,"n_dots":3.65,"target":"left","response":"right","rt":1271.200000003,"correct":false,"confidence":3},{"trial_n":56,"n_dots":3.75,"target":"left","response":"left","rt":149.70000000298,"correct":true,"confidence":5},{"trial_n":57,"n_dots":3.75,"target":"right","response":"right","rt":414.39999999106,"correct":true,"confidence":5},{"trial_n":58,"n_dots":3.65,"target":"right","response":"right","rt":268.70000000298,"correct":true,"confidence":5},{"trial_n":59,"n_dots":3.65,"target":"left","response":"right","rt":856.90000000596,"correct":false,"confidence":4},{"trial_n":60,"n_dots":3.75,"target":"right","response":"right","rt":182.5,"correct":true,"confidence":4},{"trial_n":61,"n_dots":3.75,"target":"right","response":"right","rt":184,"correct":true,"confidence":5},{"trial_n":62,"n_dots":3.65,"target":"left","response":"right","rt":653.60000000894,"correct":false,"confidence":5},{"trial_n":63,"n_dots":3.75,"target":"right","response":"right","rt":477.89999999106,"correct":true,"confidence":5},{"trial_n":64,"n_dots":3.75,"target":"right","response":"right","rt":184.10000000894,"correct":true,"confidence":5},{"trial_n":65,"n_dots":3.65,"target":"right","response":"right","rt":9915.200000003,"correct":true,"confidence":1},{"trial_n":66,"n_dots":3.65,"target":"right","response":"right","rt":225.09999999404,"correct":true,"confidence":5},{"trial_n":67,"n_dots":3.55,"target":"left","response":"left","rt":132.40000000596,"correct":true,"confidence":5},{"trial_n":68,"n_dots":3.55,"target":"right","response":"right","rt":255.59999999404,"correct":true,"confidence":5},{"trial_n":69,"n_dots":3.45,"target":"right","response":"right","rt":35,"correct":true,"confidence":5},{"trial_n":70,"n_dots":3.45,"target":"right","response":"right","rt":665.70000000298,"correct":true,"confidence":5},{"trial_n":71,"n_dots":3.35,"target":"left","response":"right","rt":714.39999999106,"correct":false,"confidence":5},{"trial_n":72,"n_dots":3.45,"target":"left","response":"left","rt":571.5,"correct":true,"confidence":4},{"trial_n":73,"n_dots":3.45,"target":"right","response":"right","rt":48.09999999404,"correct":true,"confidence":5},{"trial_n":74,"n_dots":3.35,"target":"left","response":"right","rt":575.89999999106,"correct":false,"confidence":5},{"trial_n":75,"n_dots":3.45,"target":"right","response":"right","rt":7.3999999910593,"correct":true,"confidence":5},{"trial_n":76,"n_dots":3.45,"target":"right","response":"right","rt":511.79999999702,"correct":true,"confidence":4},{"trial_n":77,"n_dots":3.35,"target":"left","response":"left","rt":171.5,"correct":true,"confidence":5},{"trial_n":78,"n_dots":3.35,"target":"left","response":"right","rt":91.79999999702,"correct":false,"confidence":1},{"trial_n":79,"n_dots":3.45,"target":"right","response":"right","rt":37.70000000298,"correct":true,"confidence":5},{"trial_n":80,"n_dots":3.45,"target":"right","response":"right","rt":198.20000000298,"correct":true,"confidence":5},{"trial_n":81,"n_dots":3.35,"target":"left","response":"left","rt":250.59999999404,"correct":true,"confidence":5},{"trial_n":82,"n_dots":3.35,"target":"right","response":"right","rt":1390.400000006,"correct":true,"confidence":5},{"trial_n":83,"n_dots":3.25,"target":"left","response":"right","rt":616.40000000596,"correct":false,"confidence":5},{"trial_n":84,"n_dots":3.35,"target":"right","response":"right","rt":39.300000011921,"correct":true,"confidence":5},{"trial_n":85,"n_dots":3.35,"target":"right","response":"left","rt":16365.600000009,"correct":false,"confidence":1},{"trial_n":86,"n_dots":3.45,"target":"left","response":"right","rt":628.59999999404,"correct":false,"confidence":4},{"trial_n":87,"n_dots":3.55,"target":"right","response":"right","rt":44.20000000298,"correct":true,"confidence":5},{"trial_n":88,"n_dots":3.55,"target":"left","response":"right","rt":-1.1999999880791,"correct":false,"confidence":5},{"trial_n":89,"n_dots":3.65,"target":"right","response":"right","rt":795.80000001192,"correct":true,"confidence":5},{"trial_n":90,"n_dots":3.65,"target":"left","response":"right","rt":62,"correct":false,"confidence":5},{"trial_n":91,"n_dots":3.75,"target":"left","response":"right","rt":570.20000000298,"correct":false,"confidence":5},{"trial_n":92,"n_dots":3.85,"target":"left","response":"left","rt":530.79999999702,"correct":true,"confidence":5},{"trial_n":93,"n_dots":3.85,"target":"left","response":"left","rt":79,"correct":true,"confidence":5},{"trial_n":94,"n_dots":3.75,"target":"left","response":"right","rt":8132.299999997,"correct":false,"confidence":1},{"trial_n":95,"n_dots":3.85,"target":"left","response":"right","rt":303.20000000298,"correct":false,"confidence":5},{"trial_n":96,"n_dots":3.95,"target":"right","response":"left","rt":2581.8999999911,"correct":false,"confidence":1},{"trial_n":97,"n_dots":4.05,"target":"right","response":"right","rt":144,"correct":true,"confidence":5},{"trial_n":98,"n_dots":4.05,"target":"right","response":"right","rt":798.40000000596,"correct":true,"confidence":5},{"trial_n":99,"n_dots":3.95,"target":"left","response":"left","rt":339.80000001192,"correct":true,"confidence":5},{"trial_n":100,"n_dots":3.95,"target":"left","response":"right","rt":921.79999999702,"correct":false,"confidence":4},{"trial_n":101,"n_dots":4.05,"target":"right","response":"right","rt":173,"correct":true,"confidence":5},{"trial_n":102,"n_dots":4.05,"target":"right","response":"right","rt":496.69999998808,"correct":true,"confidence":5},{"trial_n":103,"n_dots":3.95,"target":"right","response":"right","rt":8.3999999910593,"correct":true,"confidence":5},{"trial_n":104,"n_dots":3.95,"target":"right","response":"right","rt":562.59999999404,"correct":true,"confidence":5},{"trial_n":105,"n_dots":3.85,"target":"right","response":"right","rt":82.70000000298,"correct":true,"confidence":5},{"trial_n":106,"n_dots":3.85,"target":"left","response":"left","rt":489.60000000894,"correct":true,"confidence":5},{"trial_n":107,"n_dots":3.75,"target":"left","response":"right","rt":642.09999999404,"correct":false,"confidence":5},{"trial_n":108,"n_dots":3.85,"target":"right","response":"right","rt":925.09999999404,"correct":true,"confidence":5},{"trial_n":109,"n_dots":3.85,"target":"left","response":"right","rt":667.39999999106,"correct":false,"confidence":4},{"trial_n":110,"n_dots":3.95,"target":"right","response":"right","rt":495.09999999404,"correct":true,"confidence":5},{"trial_n":111,"n_dots":3.95,"target":"left","response":"left","rt":866,"correct":true,"confidence":4},{"trial_n":112,"n_dots":3.85,"target":"left","response":"left","rt":651.80000001192,"correct":true,"confidence":1},{"trial_n":113,"n_dots":3.85,"target":"left","response":"right","rt":475.79999999702,"correct":false,"confidence":2},{"trial_n":114,"n_dots":3.95,"target":"left","response":"left","rt":283.90000000596,"correct":true,"confidence":5},{"trial_n":115,"n_dots":3.95,"target":"left","response":"left","rt":1107.700000003,"correct":true,"confidence":4},{"trial_n":116,"n_dots":3.85,"target":"right","response":"right","rt":114.5,"correct":true,"confidence":5},{"trial_n":117,"n_dots":3.85,"target":"right","response":"right","rt":162.39999999106,"correct":true,"confidence":5},{"trial_n":118,"n_dots":3.75,"target":"left","response":"left","rt":615.09999999404,"correct":true,"confidence":5},{"trial_n":119,"n_dots":3.75,"target":"left","response":"right","rt":543.09999999404,"correct":false,"confidence":5},{"trial_n":120,"n_dots":3.85,"target":"left","response":"right","rt":467.09999999404,"correct":false,"confidence":5}]