[{"trial_n":1,"min":25,"max":230,"target":"present","response":"present","rt":6948.5,"correct":true,"confidence":-1},{"trial_n":2,"min":25,"max":230,"target":"present","response":"present","rt":2958.700000003,"correct":true,"confidence":-1},{"trial_n":3,"min":41,"max":214,"target":"absent","response":"absent","rt":1457.599999994,"correct":true,"confidence":-1},{"trial_n":4,"min":41,"max":214,"target":"absent","response":"absent","rt":927.90000000596,"correct":true,"confidence":-1},{"trial_n":5,"min":57,"max":198,"target":"present","response":"absent","rt":634.29999999702,"correct":false,"confidence":-1},{"trial_n":6,"min":41,"max":214,"target":"present","response":"present","rt":1476,"correct":true,"confidence":-1},{"trial_n":7,"min":41,"max":214,"target":"present","response":"present","rt":930.40000000596,"correct":true,"confidence":-1},{"trial_n":8,"min":57,"max":198,"target":"absent","response":"absent","rt":1238.3000000119,"correct":true,"confidence":-1},{"trial_n":9,"min":57,"max":198,"target":"absent","response":"absent","rt":689.90000000596,"correct":true,"confidence":-1},{"trial_n":10,"min":73,"max":182,"target":"present","response":"present","rt":1349,"correct":true,"confidence":-1},{"trial_n":11,"min":73,"max":182,"target":"absent","response":"absent","rt":859.90000000596,"correct":true,"confidence":-1},{"trial_n":12,"min":81,"max":174,"target":"present","response":"absent","rt":619.30000001192,"correct":false,"confidence":-1},{"trial_n":13,"min":73,"max":182,"target":"absent","response":"absent","rt":614.29999999702,"correct":true,"confidence":-1},{"trial_n":14,"min":73,"max":182,"target":"absent","response":"absent","rt":555.70000000298,"correct":true,"confidence":-1},{"trial_n":15,"min":81,"max":174,"target":"present","response":"absent","rt":486.89999999106,"correct":false,"confidence":-1},{"trial_n":16,"min":73,"max":182,"target":"absent","response":"absent","rt":620.40000000596,"correct":true,"confidence":-1},{"trial_n":17,"min":73,"max":182,"target":"absent","response":"absent","rt":807.20000000298,"correct":true,"confidence":-1},{"trial_n":18,"min":81,"max":174,"target":"absent","response":"absent","rt":460.90000000596,"correct":true,"confidence":-1},{"trial_n":19,"min":81,"max":174,"target":"absent","response":"present","rt":1311,"correct":false,"confidence":-1},{"trial_n":20,"min":73,"max":182,"target":"absent","response":"absent","rt":590.39999999106,"correct":true,"confidence":-1},{"trial_n":21,"min":73,"max":182,"target":"absent","response":"absent","rt":1091.099999994,"correct":true,"confidence":5},{"trial_n":22,"min":77,"max":178,"target":"absent","response":"absent","rt":974.60000000894,"correct":true,"confidence":5},{"trial_n":23,"min":77,"max":178,"target":"present","response":"present","rt":891.5,"correct":true,"confidence":5},{"trial_n":24,"min":81,"max":174,"target":"absent","response":"absent","rt":1011.900000006,"correct":true,"confidence":4},{"trial_n":25,"min":81,"max":174,"target":"absent","response":"absent","rt":781.39999999106,"correct":true,"confidence":5},{"trial_n":26,"min":85,"max":170,"target":"present","response":"absent","rt":2387.5,"correct":false,"confidence":4},{"trial_n":27,"min":81,"max":174,"target":"absent","response":"present","rt":5094.5,"correct":false,"confidence":3},{"trial_n":28,"min":77,"max":178,"target":"absent","response":"absent","rt":636.59999999404,"correct":true,"confidence":5},{"trial_n":29,"min":77,"max":178,"target":"present","response":"present","rt":492.90000000596,"correct":true,"confidence":5},{"trial_n":30,"min":81,"max":174,"target":"present","response":"present","rt":598.40000000596,"correct":true,"confidence":5},{"trial_n":31,"min":81,"max":174,"target":"absent","response":"absent","rt":574.20000000298,"correct":true,"confidence":5},{"trial_n":32,"min":83,"max":172,"target":"present","response":"absent","rt":2169.700000003,"correct":false,"confidence":1},{"trial_n":33,"min":81,"max":174,"target":"absent","response":"absent","rt":1965.299999997,"correct":true,"confidence":5},{"trial_n":34,"min":81,"max":174,"target":"present","response":"present","rt":654.09999999404,"correct":true,"confidence":5},{"trial_n":35,"min":83,"max":172,"target":"absent","response":"absent","rt":516.29999999702,"correct":true,"confidence":5},{"trial_n":36,"min":83,"max":172,"target":"present","response":"absent","rt":671.89999999106,"correct":false,"confidence":5},{"trial_n":37,"min":81,"max":174,"target":"present","response":"absent","rt":795.70000000298,"correct":false,"confidence":1},{"trial_n":38,"min":79,"max":176,"target":"absent","response":"absent","rt":1476.6000000089,"correct":true,"confidence":5},{"trial_n":39,"min":79,"max":176,"target":"absent","response":"absent","rt":689.40000000596,"correct":true,"confidence":5},{"trial_n":40,"min":81,"max":174,"target":"present","response":"present","rt":527.09999999404,"correct":true,"confidence":5},{"trial_n":41,"min":81,"max":174,"target":"present","response":"present","rt":585,"correct":true,"confidence":5},{"trial_n":42,"min":82,"max":173,"target":"absent","response":"absent","rt":578,"correct":true,"confidence":5},{"trial_n":43,"min":82,"max":173,"target":"present","response":"absent","rt":638.60000000894,"correct":false,"confidence":5},{"trial_n":44,"min":81,"max":174,"target":"present","response":"present","rt":507.10000000894,"correct":true,"confidence":5},{"trial_n":45,"min":81,"max":174,"target":"present","response":"present","rt":554.5,"correct":true,"confidence":5},{"trial_n":46,"min":82,"max":173,"target":"absent","response":"absent","rt":572.29999999702,"correct":true,"confidence":5},{"trial_n":47,"min":82,"max":173,"target":"present","response":"absent","rt":630.70000000298,"correct":false,"confidence":5},{"trial_n":48,"min":81,"max":174,"target":"absent","response":"absent","rt":455.79999999702,"correct":true,"confidence":5},{"trial_n":49,"min":81,"max":174,"target":"absent","response":"absent","rt":500.20000000298,"correct":true,"confidence":5},{"trial_n":50,"min":82,"max":173,"target":"absent","response":"present","rt":699.40000000596,"correct":false,"confidence":5},{"trial_n":51,"min":81,"max":174,"target":"present","response":"present","rt":558.89999999106,"correct":true,"confidence":5},{"trial_n":52,"min":81,"max":174,"target":"present","response":"present","rt":537.89999999106,"correct":true,"confidence":5},{"trial_n":53,"min":82,"max":173,"target":"absent","response":"present","rt":1179.599999994,"correct":false,"confidence":5},{"trial_n":54,"min":81,"max":174,"target":"present","response":"present","rt":525.70000000298,"correct":true,"confidence":5},{"trial_n":55,"min":81,"max":174,"target":"present","response":"present","rt":583.90000000596,"correct":true,"confidence":5},{"trial_n":56,"min":82,"max":173,"target":"present","response":"absent","rt":1617.3000000119,"correct":false,"confidence":3},{"trial_n":57,"min":81,"max":174,"target":"absent","response":"present","rt":594.79999999702,"correct":false,"confidence":3},{"trial_n":58,"min":80,"max":175,"target":"present","response":"absent","rt":759.19999998808,"correct":false,"confidence":5},{"trial_n":59,"min":79,"max":176,"target":"present","response":"present","rt":469.30000001192,"correct":true,"confidence":5},{"trial_n":60,"min":79,"max":176,"target":"absent","response":"absent","rt":1019.900000006,"correct":true,"confidence":4},{"trial_n":61,"min":80,"max":175,"target":"absent","response":"absent","rt":787.29999999702,"correct":true,"confidence":4},{"trial_n":62,"min":80,"max":175,"target":"present","response":"present","rt":445.5,"correct":true,"confidence":5},{"trial_n":63,"min":81,"max":174,"target":"present","response":"absent","rt":799.5,"correct":false,"confidence":3},{"trial_n":64,"min":80,"max":175,"target":"present","response":"present","rt":496.90000000596,"correct":true,"confidence":5},{"trial_n":65,"min":80,"max":175,"target":"present","response":"absent","rt":1491,"correct":false,"confidence":3},{"trial_n":66,"min":79,"max":176,"target":"present","response":"present","rt":585.5,"correct":true,"confidence":5},{"trial_n":67,"min":79,"max":176,"target":"absent","response":"absent","rt":549.70000000298,"correct":true,"confidence":5},{"trial_n":68,"min":80,"max":175,"target":"present","response":"present","rt":1553.400000006,"correct":true,"confidence":3},{"trial_n":69,"min":80,"max":175,"target":"present","response":"present","rt":510.10000000894,"correct":true,"confidence":5},{"trial_n":70,"min":81,"max":174,"target":"absent","response":"absent","rt":655.20000000298,"correct":true,"confidence":3},{"trial_n":71,"min":41,"max":214,"target":"present","response":"present","rt":1015.099999994,"correct":true,"confidence":-1},{"trial_n":72,"min":41,"max":214,"target":"present","response":"present","rt":593.89999999106,"correct":true,"confidence":-1},{"trial_n":73,"min":57,"max":198,"target":"absent","response":"absent","rt":1371.5,"correct":true,"confidence":-1},{"trial_n":74,"min":57,"max":198,"target":"absent","response":"absent","rt":463.79999999702,"correct":true,"confidence":-1},{"trial_n":75,"min":73,"max":182,"target":"present","response":"present","rt":581,"correct":true,"confidence":-1},{"trial_n":76,"min":73,"max":182,"target":"present","response":"present","rt":504.59999999404,"correct":true,"confidence":-1},{"trial_n":77,"min":89,"max":166,"target":"present","response":"present","rt":1178.200000003,"correct":true,"confidence":-1},{"trial_n":78,"min":89,"max":166,"target":"absent","response":"absent","rt":552,"correct":true,"confidence":-1},{"trial_n":79,"min":105,"max":150,"target":"absent","response":"present","rt":674.20000000298,"correct":false,"confidence":-1},{"trial_n":80,"min":89,"max":166,"target":"absent","response":"present","rt":903.60000000894,"correct":false,"confidence":-1},{"trial_n":81,"min":81,"max":174,"target":"absent","response":"absent","rt":523.70000000298,"correct":true,"confidence":-1},{"trial_n":82,"min":81,"max":174,"target":"present","response":"present","rt":359.09999999404,"correct":true,"confidence":-1},{"trial_n":83,"min":89,"max":166,"target":"absent","response":"absent","rt":499.90000000596,"correct":true,"confidence":-1},{"trial_n":84,"min":89,"max":166,"target":"present","response":"present","rt":1237.900000006,"correct":true,"confidence":-1},{"trial_n":85,"min":97,"max":158,"target":"present","response":"absent","rt":898.29999999702,"correct":false,"confidence":-1},{"trial_n":86,"min":89,"max":166,"target":"absent","response":"absent","rt":753.20000000298,"correct":true,"confidence":-1},{"trial_n":87,"min":89,"max":166,"target":"present","response":"present","rt":382.09999999404,"correct":true,"confidence":-1},{"trial_n":88,"min":97,"max":158,"target":"absent","response":"absent","rt":330.90000000596,"correct":true,"confidence":-1},{"trial_n":89,"min":97,"max":158,"target":"present","response":"absent","rt":1012.6000000089,"correct":false,"confidence":-1},{"trial_n":90,"min":89,"max":166,"target":"absent","response":"absent","rt":1215.900000006,"correct":true,"confidence":-1},{"trial_n":91,"min":89,"max":166,"target":"present","response":"present","rt":449,"correct":true,"confidence":5},{"trial_n":92,"min":93,"max":162,"target":"absent","response":"present","rt":832.09999999404,"correct":false,"confidence":4},{"trial_n":93,"min":89,"max":166,"target":"absent","response":"present","rt":803.5,"correct":false,"confidence":5},{"trial_n":94,"min":85,"max":170,"target":"absent","response":"absent","rt":629,"correct":true,"confidence":5},{"trial_n":95,"min":85,"max":170,"target":"absent","response":"absent","rt":1371.700000003,"correct":true,"confidence":5},{"trial_n":96,"min":89,"max":166,"target":"absent","response":"absent","rt":1465.1000000089,"correct":true,"confidence":4},{"trial_n":97,"min":89,"max":166,"target":"absent","response":"absent","rt":580,"correct":true,"confidence":5},{"trial_n":98,"min":93,"max":162,"target":"present","response":"absent","rt":695.70000000298,"correct":false,"confidence":5},{"trial_n":99,"min":89,"max":166,"target":"present","response":"present","rt":625.69999998808,"correct":true,"confidence":5},{"trial_n":100,"min":89,"max":166,"target":"present","response":"present","rt":710.29999999702,"correct":true,"confidence":5},{"trial_n":101,"min":91,"max":164,"target":"absent","response":"present","rt":876.40000000596,"correct":false,"confidence":5},{"trial_n":102,"min":89,"max":166,"target":"present","response":"present","rt":967.90000000596,"correct":true,"confidence":5},{"trial_n":103,"min":89,"max":166,"target":"present","response":"present","rt":567.5,"correct":true,"confidence":5},{"trial_n":104,"min":91,"max":164,"target":"absent","response":"absent","rt":1014.700000003,"correct":true,"confidence":5},{"trial_n":105,"min":91,"max":164,"target":"present","response":"absent","rt":616.90000000596,"correct":false,"confidence":5},{"trial_n":106,"min":89,"max":166,"target":"present","response":"absent","rt":994.5,"correct":false,"confidence":4},{"trial_n":107,"min":87,"max":168,"target":"absent","response":"absent","rt":819.5,"correct":true,"confidence":1},{"trial_n":108,"min":87,"max":168,"target":"present","response":"absent","rt":2239,"correct":false,"confidence":3},{"trial_n":109,"min":85,"max":170,"target":"absent","response":"present","rt":604.09999999404,"correct":false,"confidence":4},{"trial_n":110,"min":83,"max":172,"target":"absent","response":"absent","rt":933.09999999404,"correct":true,"confidence":4},{"trial_n":111,"min":83,"max":172,"target":"absent","response":"absent","rt":1094.900000006,"correct":true,"confidence":5},{"trial_n":112,"min":84,"max":171,"target":"absent","response":"present","rt":664.79999999702,"correct":false,"confidence":1},{"trial_n":113,"min":83,"max":172,"target":"present","response":"present","rt":724.70000000298,"correct":true,"confidence":5},{"trial_n":114,"min":83,"max":172,"target":"absent","response":"absent","rt":643.59999999404,"correct":true,"confidence":5},{"trial_n":115,"min":84,"max":171,"target":"absent","response":"present","rt":670.60000000894,"correct":false,"confidence":1},{"trial_n":116,"min":83,"max":172,"target":"present","response":"present","rt":798.40000000596,"correct":true,"confidence":5},{"trial_n":117,"min":83,"max":172,"target":"absent","response":"present","rt":787.79999999702,"correct":false,"confidence":4},{"trial_n":118,"min":82,"max":173,"target":"absent","response":"present","rt":1483.5,"correct":false,"confidence":2},{"trial_n":119,"min":81,"max":174,"target":"present","response":"present","rt":633.10000000894,"correct":true,"confidence":5},{"trial_n":120,"min":81,"max":174,"target":"present","response":"present","rt":600,"correct":true,"confidence":5},{"trial_n":121,"min":82,"max":173,"target":"absent","response":"present","rt":958.5,"correct":false,"confidence":5},{"trial_n":122,"min":81,"max":174,"target":"absent","response":"absent","rt":709.5,"correct":true,"confidence":5},{"trial_n":123,"min":81,"max":174,"target":"present","response":"present","rt":969.5,"correct":true,"confidence":5},{"trial_n":124,"min":82,"max":173,"target":"present","response":"present","rt":625,"correct":true,"confidence":5},{"trial_n":125,"min":82,"max":173,"target":"absent","response":"absent","rt":584.40000000596,"correct":true,"confidence":5},{"trial_n":126,"min":83,"max":172,"target":"absent","response":"absent","rt":563.79999999702,"correct":true,"confidence":5},{"trial_n":127,"min":83,"max":172,"target":"present","response":"present","rt":490.09999999404,"correct":true,"confidence":1},{"trial_n":128,"min":84,"max":171,"target":"present","response":"present","rt":1683.599999994,"correct":true,"confidence":5},{"trial_n":129,"min":84,"max":171,"target":"present","response":"present","rt":542.90000000596,"correct":true,"confidence":5},{"trial_n":130,"min":85,"max":170,"target":"present","response":"present","rt":594.5,"correct":true,"confidence":5},{"trial_n":131,"min":85,"max":170,"target":"present","response":"present","rt":635.09999999404,"correct":true,"confidence":5},{"trial_n":132,"min":86,"max":169,"target":"absent","response":"present","rt":546.59999999404,"correct":false,"confidence":5},{"trial_n":133,"min":85,"max":170,"target":"present","response":"present","rt":518.20000000298,"correct":true,"confidence":5},{"trial_n":134,"min":85,"max":170,"target":"present","response":"present","rt":715.10000000894,"correct":true,"confidence":5},{"trial_n":135,"min":86,"max":169,"target":"present","response":"present","rt":786.09999999404,"correct":true,"confidence":5},{"trial_n":136,"min":86,"max":169,"target":"present","response":"present","rt":665.09999999404,"correct":true,"confidence":5},{"trial_n":137,"min":87,"max":168,"target":"absent","response":"present","rt":1240.099999994,"correct":false,"confidence":1},{"trial_n":138,"min":86,"max":169,"target":"present","response":"present","rt":502.80000001192,"correct":true,"confidence":5},{"trial_n":139,"min":86,"max":169,"target":"absent","response":"absent","rt":510.10000000894,"correct":true,"confidence":5},{"trial_n":140,"min":87,"max":168,"target":"present","response":"present","rt":572.59999999404,"correct":true,"confidence":5}]