[{"trial_n":1,"min":25,"max":230,"target":"present","response":"present","rt":9748.4000000954,"correct":true,"confidence":-1},{"trial_n":2,"min":25,"max":230,"target":"present","response":"present","rt":671,"correct":true,"confidence":-1},{"trial_n":3,"min":41,"max":214,"target":"absent","response":"absent","rt":519.70000004768,"correct":true,"confidence":-1},{"trial_n":4,"min":41,"max":214,"target":"absent","response":"absent","rt":280.09999990463,"correct":true,"confidence":-1},{"trial_n":5,"min":57,"max":198,"target":"present","response":"present","rt":356.59999990463,"correct":true,"confidence":-1},{"trial_n":6,"min":57,"max":198,"target":"present","response":"present","rt":253.09999990463,"correct":true,"confidence":-1},{"trial_n":7,"min":73,"max":182,"target":"present","response":"absent","rt":256.29999995232,"correct":false,"confidence":-1},{"trial_n":8,"min":57,"max":198,"target":"absent","response":"absent","rt":609.70000004768,"correct":true,"confidence":-1},{"trial_n":9,"min":57,"max":198,"target":"absent","response":"absent","rt":277.70000004768,"correct":true,"confidence":-1},{"trial_n":10,"min":73,"max":182,"target":"present","response":"absent","rt":307.20000004768,"correct":false,"confidence":-1},{"trial_n":11,"min":65,"max":190,"target":"present","response":"present","rt":393.40000009537,"correct":true,"confidence":-1},{"trial_n":12,"min":65,"max":190,"target":"absent","response":"absent","rt":457.79999995232,"correct":true,"confidence":-1},{"trial_n":13,"min":73,"max":182,"target":"absent","response":"absent","rt":307,"correct":true,"confidence":-1},{"trial_n":14,"min":73,"max":182,"target":"present","response":"present","rt":232.5,"correct":true,"confidence":-1},{"trial_n":15,"min":81,"max":174,"target":"present","response":"present","rt":468,"correct":true,"confidence":-1},{"trial_n":16,"min":81,"max":174,"target":"present","response":"present","rt":290.29999995232,"correct":true,"confidence":-1},{"trial_n":17,"min":89,"max":166,"target":"absent","response":"absent","rt":706.29999995232,"correct":true,"confidence":-1},{"trial_n":18,"min":89,"max":166,"target":"present","response":"present","rt":526.09999990463,"correct":true,"confidence":-1},{"trial_n":19,"min":97,"max":158,"target":"present","response":"absent","rt":1006.8999998569,"correct":false,"confidence":-1},{"trial_n":20,"min":89,"max":166,"target":"present","response":"present","rt":370.70000004768,"correct":true,"confidence":-1},{"trial_n":21,"min":89,"max":166,"target":"absent","response":"present","rt":946.69999980927,"correct":false,"confidence":3},{"trial_n":22,"min":85,"max":170,"target":"present","response":"present","rt":490.20000004768,"correct":true,"confidence":4},{"trial_n":23,"min":85,"max":170,"target":"present","response":"present","rt":437.5,"correct":true,"confidence":4},{"trial_n":24,"min":89,"max":166,"target":"present","response":"present","rt":364.20000004768,"correct":true,"confidence":4},{"trial_n":25,"min":89,"max":166,"target":"absent","response":"absent","rt":289.89999985695,"correct":true,"confidence":3},{"trial_n":26,"min":93,"max":162,"target":"absent","response":"present","rt":419.09999990463,"correct":false,"confidence":3},{"trial_n":27,"min":89,"max":166,"target":"absent","response":"absent","rt":521.70000004768,"correct":true,"confidence":3},{"trial_n":28,"min":89,"max":166,"target":"absent","response":"present","rt":629.39999985695,"correct":false,"confidence":4},{"trial_n":29,"min":85,"max":170,"target":"present","response":"absent","rt":1876.6000001431,"correct":false,"confidence":1},{"trial_n":30,"min":81,"max":174,"target":"absent","response":"absent","rt":1999.0999999046,"correct":true,"confidence":1},{"trial_n":31,"min":81,"max":174,"target":"absent","response":"present","rt":688.70000004768,"correct":false,"confidence":4},{"trial_n":32,"min":79,"max":176,"target":"present","response":"absent","rt":792.39999985695,"correct":false,"confidence":4},{"trial_n":33,"min":77,"max":178,"target":"absent","response":"absent","rt":1212.6000001431,"correct":true,"confidence":3},{"trial_n":34,"min":77,"max":178,"target":"present","response":"present","rt":784.79999995232,"correct":true,"confidence":2},{"trial_n":35,"min":79,"max":176,"target":"present","response":"present","rt":387,"correct":true,"confidence":5},{"trial_n":36,"min":79,"max":176,"target":"present","response":"present","rt":345.5,"correct":true,"confidence":5},{"trial_n":37,"min":81,"max":174,"target":"present","response":"present","rt":746.79999995232,"correct":true,"confidence":5},{"trial_n":38,"min":81,"max":174,"target":"absent","response":"present","rt":818.89999985695,"correct":false,"confidence":4},{"trial_n":39,"min":79,"max":176,"target":"present","response":"present","rt":730,"correct":true,"confidence":3},{"trial_n":40,"min":79,"max":176,"target":"present","response":"present","rt":599.80000019073,"correct":true,"confidence":4},{"trial_n":41,"min":80,"max":175,"target":"absent","response":"absent","rt":833.79999995232,"correct":true,"confidence":4},{"trial_n":42,"min":80,"max":175,"target":"absent","response":"absent","rt":606.5,"correct":true,"confidence":3},{"trial_n":43,"min":81,"max":174,"target":"present","response":"present","rt":612.89999985695,"correct":true,"confidence":3},{"trial_n":44,"min":81,"max":174,"target":"present","response":"present","rt":485.89999985695,"correct":true,"confidence":3},{"trial_n":45,"min":82,"max":173,"target":"present","response":"present","rt":664.59999990463,"correct":true,"confidence":4},{"trial_n":46,"min":82,"max":173,"target":"present","response":"present","rt":314.5,"correct":true,"confidence":3},{"trial_n":47,"min":83,"max":172,"target":"present","response":"present","rt":826.10000014305,"correct":true,"confidence":3},{"trial_n":48,"min":83,"max":172,"target":"absent","response":"absent","rt":763.59999990463,"correct":true,"confidence":4},{"trial_n":49,"min":84,"max":171,"target":"present","response":"present","rt":455.90000009537,"correct":true,"confidence":3},{"trial_n":50,"min":84,"max":171,"target":"absent","response":"present","rt":549.59999990463,"correct":false,"confidence":4},{"trial_n":51,"min":83,"max":172,"target":"present","response":"present","rt":518.79999995232,"correct":true,"confidence":3},{"trial_n":52,"min":83,"max":172,"target":"absent","response":"absent","rt":982.60000014305,"correct":true,"confidence":4},{"trial_n":53,"min":84,"max":171,"target":"absent","response":"absent","rt":1228.2000000477,"correct":true,"confidence":2},{"trial_n":54,"min":84,"max":171,"target":"absent","response":"absent","rt":1300.5,"correct":true,"confidence":4},{"trial_n":55,"min":85,"max":170,"target":"absent","response":"absent","rt":671.29999995232,"correct":true,"confidence":3},{"trial_n":56,"min":85,"max":170,"target":"present","response":"absent","rt":837.59999990463,"correct":false,"confidence":3},{"trial_n":57,"min":84,"max":171,"target":"absent","response":"absent","rt":896.79999995232,"correct":true,"confidence":3},{"trial_n":58,"min":84,"max":171,"target":"absent","response":"present","rt":719.59999990463,"correct":false,"confidence":2},{"trial_n":59,"min":83,"max":172,"target":"present","response":"present","rt":854.20000004768,"correct":true,"confidence":4},{"trial_n":60,"min":83,"max":172,"target":"present","response":"present","rt":601.29999995232,"correct":true,"confidence":5},{"trial_n":61,"min":84,"max":171,"target":"absent","response":"absent","rt":1025.2000000477,"correct":true,"confidence":4},{"trial_n":62,"min":84,"max":171,"target":"present","response":"present","rt":1744.7000000477,"correct":true,"confidence":4},{"trial_n":63,"min":85,"max":170,"target":"absent","response":"present","rt":792.10000014305,"correct":false,"confidence":3},{"trial_n":64,"min":84,"max":171,"target":"absent","response":"absent","rt":648.70000004768,"correct":true,"confidence":3},{"trial_n":65,"min":84,"max":171,"target":"absent","response":"absent","rt":389,"correct":true,"confidence":4},{"trial_n":66,"min":85,"max":170,"target":"absent","response":"absent","rt":272.39999985695,"correct":true,"confidence":4},{"trial_n":67,"min":85,"max":170,"target":"present","response":"absent","rt":469.5,"correct":false,"confidence":4},{"trial_n":68,"min":84,"max":171,"target":"absent","response":"absent","rt":820.39999985695,"correct":true,"confidence":4},{"trial_n":69,"min":84,"max":171,"target":"absent","response":"absent","rt":780.40000009537,"correct":true,"confidence":4},{"trial_n":70,"min":85,"max":170,"target":"absent","response":"absent","rt":589,"correct":true,"confidence":4},{"trial_n":71,"min":41,"max":214,"target":"present","response":"absent","rt":1625.2999999523,"correct":false,"confidence":-1},{"trial_n":72,"min":41,"max":214,"target":"present","response":"present","rt":913.5,"correct":true,"confidence":-1},{"trial_n":73,"min":41,"max":214,"target":"absent","response":"absent","rt":1155.5999999046,"correct":true,"confidence":-1},{"trial_n":74,"min":57,"max":198,"target":"absent","response":"absent","rt":1053.7999999523,"correct":true,"confidence":-1},{"trial_n":75,"min":57,"max":198,"target":"present","response":"present","rt":278.5,"correct":true,"confidence":-1},{"trial_n":76,"min":73,"max":182,"target":"absent","response":"present","rt":286.79999995232,"correct":false,"confidence":-1},{"trial_n":77,"min":57,"max":198,"target":"absent","response":"absent","rt":349.5,"correct":true,"confidence":-1},{"trial_n":78,"min":57,"max":198,"target":"absent","response":"absent","rt":325.59999990463,"correct":true,"confidence":-1},{"trial_n":79,"min":73,"max":182,"target":"absent","response":"absent","rt":405.70000004768,"correct":true,"confidence":-1},{"trial_n":80,"min":73,"max":182,"target":"present","response":"present","rt":239.59999990463,"correct":true,"confidence":-1},{"trial_n":81,"min":81,"max":174,"target":"absent","response":"absent","rt":291.79999995232,"correct":true,"confidence":-1},{"trial_n":82,"min":81,"max":174,"target":"absent","response":"absent","rt":274.29999995232,"correct":true,"confidence":-1},{"trial_n":83,"min":89,"max":166,"target":"present","response":"present","rt":240.40000009537,"correct":true,"confidence":-1},{"trial_n":84,"min":89,"max":166,"target":"present","response":"present","rt":247,"correct":true,"confidence":-1},{"trial_n":85,"min":97,"max":158,"target":"present","response":"absent","rt":320.90000009537,"correct":false,"confidence":-1},{"trial_n":86,"min":89,"max":166,"target":"present","response":"present","rt":351.5,"correct":true,"confidence":-1},{"trial_n":87,"min":89,"max":166,"target":"present","response":"present","rt":224.59999990463,"correct":true,"confidence":-1},{"trial_n":88,"min":97,"max":158,"target":"present","response":"present","rt":339.79999995232,"correct":true,"confidence":-1},{"trial_n":89,"min":97,"max":158,"target":"absent","response":"absent","rt":392.20000004768,"correct":true,"confidence":-1},{"trial_n":90,"min":105,"max":150,"target":"present","response":"present","rt":551.29999995232,"correct":true,"confidence":-1},{"trial_n":91,"min":105,"max":150,"target":"absent","response":"present","rt":1555.1000001431,"correct":false,"confidence":3},{"trial_n":92,"min":101,"max":154,"target":"absent","response":"present","rt":556.39999985695,"correct":false,"confidence":2},{"trial_n":93,"min":97,"max":158,"target":"absent","response":"absent","rt":1301.1000001431,"correct":true,"confidence":2},{"trial_n":94,"min":97,"max":158,"target":"absent","response":"present","rt":380.19999980927,"correct":false,"confidence":1},{"trial_n":95,"min":93,"max":162,"target":"present","response":"present","rt":1319.8999998569,"correct":true,"confidence":1},{"trial_n":96,"min":93,"max":162,"target":"present","response":"present","rt":368.5,"correct":true,"confidence":5},{"trial_n":97,"min":97,"max":158,"target":"present","response":"present","rt":694,"correct":true,"confidence":1},{"trial_n":98,"min":97,"max":158,"target":"absent","response":"absent","rt":674.60000014305,"correct":true,"confidence":2},{"trial_n":99,"min":101,"max":154,"target":"present","response":"absent","rt":433.80000019073,"correct":false,"confidence":2},{"trial_n":100,"min":97,"max":158,"target":"absent","response":"absent","rt":229.20000004768,"correct":true,"confidence":2},{"trial_n":101,"min":97,"max":158,"target":"present","response":"present","rt":306.40000009537,"correct":true,"confidence":1},{"trial_n":102,"min":99,"max":156,"target":"absent","response":"present","rt":479,"correct":false,"confidence":3},{"trial_n":103,"min":97,"max":158,"target":"absent","response":"present","rt":255.20000004768,"correct":false,"confidence":3},{"trial_n":104,"min":95,"max":160,"target":"present","response":"present","rt":276.39999985695,"correct":true,"confidence":4},{"trial_n":105,"min":95,"max":160,"target":"absent","response":"present","rt":340.20000004768,"correct":false,"confidence":1},{"trial_n":106,"min":93,"max":162,"target":"absent","response":"present","rt":690.5,"correct":false,"confidence":4},{"trial_n":107,"min":91,"max":164,"target":"absent","response":"present","rt":332.29999995232,"correct":false,"confidence":2},{"trial_n":108,"min":89,"max":166,"target":"present","response":"present","rt":389.59999990463,"correct":true,"confidence":5},{"trial_n":109,"min":89,"max":166,"target":"absent","response":"absent","rt":603.80000019073,"correct":true,"confidence":3},{"trial_n":110,"min":91,"max":164,"target":"present","response":"present","rt":202.79999995232,"correct":true,"confidence":4},{"trial_n":111,"min":91,"max":164,"target":"present","response":"present","rt":144.29999995232,"correct":true,"confidence":2},{"trial_n":112,"min":92,"max":163,"target":"present","response":"present","rt":211.89999985695,"correct":true,"confidence":2},{"trial_n":113,"min":92,"max":163,"target":"absent","response":"present","rt":338.29999995232,"correct":false,"confidence":5},{"trial_n":114,"min":91,"max":164,"target":"absent","response":"absent","rt":243.09999990463,"correct":true,"confidence":2},{"trial_n":115,"min":91,"max":164,"target":"absent","response":"absent","rt":804.19999980927,"correct":true,"confidence":2},{"trial_n":116,"min":92,"max":163,"target":"present","response":"present","rt":318.5,"correct":true,"confidence":3},{"trial_n":117,"min":92,"max":163,"target":"present","response":"present","rt":323.60000014305,"correct":true,"confidence":1},{"trial_n":118,"min":93,"max":162,"target":"absent","response":"present","rt":298.5,"correct":false,"confidence":4},{"trial_n":119,"min":92,"max":163,"target":"present","response":"present","rt":228.09999990463,"correct":true,"confidence":5},{"trial_n":120,"min":92,"max":163,"target":"present","response":"present","rt":141.10000014305,"correct":true,"confidence":4},{"trial_n":121,"min":93,"max":162,"target":"present","response":"present","rt":231.79999995232,"correct":true,"confidence":3},{"trial_n":122,"min":93,"max":162,"target":"present","response":"present","rt":311,"correct":true,"confidence":2},{"trial_n":123,"min":94,"max":161,"target":"present","response":"present","rt":161,"correct":true,"confidence":4},{"trial_n":124,"min":94,"max":161,"target":"absent","response":"absent","rt":319,"correct":true,"confidence":4},{"trial_n":125,"min":95,"max":160,"target":"absent","response":"present","rt":260.60000014305,"correct":false,"confidence":4},{"trial_n":126,"min":94,"max":161,"target":"present","response":"present","rt":212.20000004768,"correct":true,"confidence":3},{"trial_n":127,"min":94,"max":161,"target":"present","response":"present","rt":349.80000019073,"correct":true,"confidence":3},{"trial_n":128,"min":95,"max":160,"target":"absent","response":"present","rt":140.70000004768,"correct":false,"confidence":2},{"trial_n":129,"min":94,"max":161,"target":"present","response":"present","rt":292.29999995232,"correct":true,"confidence":4},{"trial_n":130,"min":94,"max":161,"target":"absent","response":"absent","rt":184.09999990463,"correct":true,"confidence":4},{"trial_n":131,"min":95,"max":160,"target":"absent","response":"absent","rt":723.90000009537,"correct":true,"confidence":1},{"trial_n":132,"min":95,"max":160,"target":"present","response":"absent","rt":575.70000004768,"correct":false,"confidence":1},{"trial_n":133,"min":94,"max":161,"target":"present","response":"present","rt":381.09999990463,"correct":true,"confidence":4},{"trial_n":134,"min":94,"max":161,"target":"present","response":"absent","rt":1177.2000000477,"correct":false,"confidence":1},{"trial_n":135,"min":93,"max":162,"target":"absent","response":"present","rt":297.5,"correct":false,"confidence":1},{"trial_n":136,"min":92,"max":163,"target":"present","response":"present","rt":637.79999995232,"correct":true,"confidence":1},{"trial_n":137,"min":92,"max":163,"target":"absent","response":"absent","rt":300.29999995232,"correct":true,"confidence":1},{"trial_n":138,"min":93,"max":162,"target":"absent","response":"absent","rt":273.40000009537,"correct":true,"confidence":1},{"trial_n":139,"min":93,"max":162,"target":"absent","response":"present","rt":386.40000009537,"correct":false,"confidence":1},{"trial_n":140,"min":92,"max":163,"target":"present","response":"present","rt":433.20000004768,"correct":true,"confidence":1}]