[{"trial_n":1,"span":8,"encoder":"04266590","distractor":"05266590","target":"present","response":"present","rt":"4681.5","correct":true,"confidence":-1},{"trial_n":2,"span":8,"encoder":"39604389","distractor":"39605389","target":"present","response":"present","rt":"1742.1000000089","correct":true,"confidence":-1},{"trial_n":3,"span":10,"encoder":"6209580862","distractor":"6209580162","target":"absent","response":"absent","rt":"3800.5","correct":true,"confidence":-1},{"trial_n":4,"span":10,"encoder":"4511294963","distractor":"4511234963","target":"absent","response":"present","rt":"2605.599999994","correct":false,"confidence":-1},{"trial_n":5,"span":8,"encoder":"55076436","distractor":"25076436","target":"present","response":"present","rt":"1160.5","correct":true,"confidence":-1},{"trial_n":6,"span":8,"encoder":"10836642","distractor":"60836642","target":"present","response":"present","rt":"1234.299999997","correct":true,"confidence":-1},{"trial_n":7,"span":10,"encoder":"2470378058","distractor":"2478378058","target":"present","response":"present","rt":"1712","correct":true,"confidence":-1},{"trial_n":8,"span":10,"encoder":"3183279711","distractor":"0183279711","target":"absent","response":"absent","rt":"2410.099999994","correct":true,"confidence":-1},{"trial_n":9,"span":12,"encoder":"863835714793","distractor":"863535714793","target":"present","response":"present","rt":"1308.799999997","correct":true,"confidence":-1},{"trial_n":10,"span":12,"encoder":"263940753014","distractor":"263940553014","target":"absent","response":"present","rt":"1716","correct":false,"confidence":-1},{"trial_n":11,"span":10,"encoder":"8027972007","distractor":"8027272007","target":"absent","response":"present","rt":"1017.400000006","correct":false,"confidence":-1},{"trial_n":12,"span":9,"encoder":"638964516","distractor":"638964596","target":"absent","response":"absent","rt":"1368.200000003","correct":true,"confidence":-1},{"trial_n":13,"span":9,"encoder":"146178931","distractor":"146178921","target":"absent","response":"absent","rt":"1179.799999997","correct":true,"confidence":-1},{"trial_n":14,"span":10,"encoder":"0609327348","distractor":"6609327348","target":"absent","response":"present","rt":"1375.599999994","correct":false,"confidence":-1},{"trial_n":15,"span":9,"encoder":"119384983","distractor":"119384988","target":"absent","response":"absent","rt":"1757.299999997","correct":true,"confidence":-1},{"trial_n":16,"span":9,"encoder":"786720318","distractor":"786720328","target":"absent","response":"present","rt":"3157.5","correct":false,"confidence":-1},{"trial_n":17,"span":8,"encoder":"90144259","distractor":"90344259","target":"present","response":"present","rt":"1559.900000006","correct":true,"confidence":-1},{"trial_n":18,"span":8,"encoder":"90491389","distractor":"90491380","target":"absent","response":"absent","rt":"1177.200000003","correct":true,"confidence":-1},{"trial_n":19,"span":9,"encoder":"436028002","distractor":"436078002","target":"present","response":"absent","rt":"1533.8999999911","correct":false,"confidence":-1},{"trial_n":20,"span":8,"encoder":"54916890","distractor":"54916896","target":"present","response":"present","rt":"1237.400000006","correct":true,"confidence":-1},{"trial_n":21,"span":8,"encoder":"88221391","distractor":"88221396","target":"present","response":"absent","rt":"2317.799999997","correct":false,"confidence":4},{"trial_n":22,"span":7,"encoder":"3488689","distractor":"3488688","target":"absent","response":"absent","rt":"2999.1000000089","correct":true,"confidence":5},{"trial_n":23,"span":7,"encoder":"2128785","distractor":"2188785","target":"absent","response":"absent","rt":"2993.3999999911","correct":true,"confidence":4},{"trial_n":24,"span":8,"encoder":"69823267","distractor":"69821267","target":"absent","response":"present","rt":"2051.3999999911","correct":false,"confidence":5},{"trial_n":25,"span":7,"encoder":"0141754","distractor":"2141754","target":"absent","response":"absent","rt":"1448.8999999911","correct":true,"confidence":5},{"trial_n":26,"span":7,"encoder":"6217054","distractor":"6297054","target":"present","response":"present","rt":"1490.200000003","correct":true,"confidence":5},{"trial_n":27,"span":8,"encoder":"57493509","distractor":"17493509","target":"present","response":"present","rt":"2120.299999997","correct":true,"confidence":3},{"trial_n":28,"span":8,"encoder":"10242333","distractor":"10242331","target":"present","response":"present","rt":"3443.8999999911","correct":true,"confidence":4},{"trial_n":29,"span":9,"encoder":"313123794","distractor":"313125794","target":"present","response":"absent","rt":"1829.099999994","correct":false,"confidence":1},{"trial_n":30,"span":8,"encoder":"60899979","distractor":"60899379","target":"absent","response":"absent","rt":"4794.8999999911","correct":true,"confidence":5},{"trial_n":31,"span":8,"encoder":"95623185","distractor":"95623165","target":"absent","response":"absent","rt":"3169.200000003","correct":true,"confidence":5},{"trial_n":32,"span":9,"encoder":"661488877","distractor":"661488872","target":"present","response":"present","rt":"2205.8000000119","correct":true,"confidence":5},{"trial_n":33,"span":9,"encoder":"107148929","distractor":"407148929","target":"absent","response":"present","rt":"5247.099999994","correct":false,"confidence":5},{"trial_n":34,"span":8,"encoder":"86949774","distractor":"86919774","target":"absent","response":"present","rt":"2742.5","correct":false,"confidence":5},{"trial_n":35,"span":7,"encoder":"9058328","distractor":"9058324","target":"absent","response":"absent","rt":"1411","correct":true,"confidence":5},{"trial_n":36,"span":7,"encoder":"6209063","distractor":"9209063","target":"present","response":"present","rt":"2386.3000000119","correct":true,"confidence":5},{"trial_n":37,"span":8,"encoder":"04961885","distractor":"34961885","target":"present","response":"present","rt":"3105.799999997","correct":true,"confidence":4},{"trial_n":38,"span":8,"encoder":"39341335","distractor":"39341338","target":"absent","response":"absent","rt":"1473.6999999881","correct":true,"confidence":5},{"trial_n":39,"span":9,"encoder":"299526981","distractor":"299527981","target":"absent","response":"absent","rt":"4062.200000003","correct":true,"confidence":5},{"trial_n":40,"span":9,"encoder":"729795990","distractor":"729795992","target":"present","response":"present","rt":"3263.8999999911","correct":true,"confidence":5},{"trial_n":41,"span":10,"encoder":"8056583876","distractor":"8056583877","target":"present","response":"present","rt":"5438.3999999911","correct":true,"confidence":4},{"trial_n":42,"span":10,"encoder":"1954716817","distractor":"1954316817","target":"absent","response":"absent","rt":"3974.299999997","correct":true,"confidence":4},{"trial_n":43,"span":11,"encoder":"32018493105","distractor":"32018493155","target":"absent","response":"absent","rt":"2314.3000000119","correct":true,"confidence":5},{"trial_n":44,"span":11,"encoder":"42874003419","distractor":"42874003519","target":"present","response":"absent","rt":"4381.5","correct":false,"confidence":5},{"trial_n":45,"span":10,"encoder":"8911422606","distractor":"8912422606","target":"present","response":"present","rt":"3446.700000003","correct":true,"confidence":4},{"trial_n":46,"span":10,"encoder":"3725418733","distractor":"3725318733","target":"present","response":"absent","rt":"11606.899999991","correct":false,"confidence":3},{"trial_n":47,"span":9,"encoder":"611993647","distractor":"211993647","target":"present","response":"present","rt":"2824.8000000119","correct":true,"confidence":5},{"trial_n":48,"span":9,"encoder":"010336072","distractor":"010336062","target":"absent","response":"absent","rt":"2360.599999994","correct":true,"confidence":5},{"trial_n":49,"span":10,"encoder":"9782619684","distractor":"9782613684","target":"present","response":"present","rt":"2796.1999999881","correct":true,"confidence":4},{"trial_n":50,"span":10,"encoder":"8973875723","distractor":"3973875723","target":"present","response":"present","rt":"5075.400000006","correct":true,"confidence":4},{"trial_n":51,"span":11,"encoder":"68669267190","distractor":"38669267190","target":"present","response":"absent","rt":"8590","correct":false,"confidence":3},{"trial_n":52,"span":10,"encoder":"1631229760","distractor":"1631229764","target":"absent","response":"absent","rt":"1256.700000003","correct":true,"confidence":5},{"trial_n":53,"span":10,"encoder":"7583427426","distractor":"7683427426","target":"present","response":"present","rt":"6390.099999994","correct":true,"confidence":4},{"trial_n":54,"span":11,"encoder":"58108227424","distractor":"58108227422","target":"present","response":"absent","rt":"5134.799999997","correct":false,"confidence":4},{"trial_n":55,"span":10,"encoder":"4218736283","distractor":"4218736273","target":"present","response":"present","rt":"4481.1999999881","correct":true,"confidence":5},{"trial_n":56,"span":10,"encoder":"2996619305","distractor":"2096619305","target":"present","response":"present","rt":"2420.799999997","correct":true,"confidence":5},{"trial_n":57,"span":11,"encoder":"12080502594","distractor":"42080502594","target":"absent","response":"present","rt":"6617.099999994","correct":false,"confidence":2},{"trial_n":58,"span":10,"encoder":"7138997163","distractor":"7188997163","target":"absent","response":"present","rt":"2306.299999997","correct":false,"confidence":4},{"trial_n":59,"span":9,"encoder":"567604313","distractor":"567684313","target":"absent","response":"absent","rt":"2440.599999994","correct":true,"confidence":2},{"trial_n":60,"span":9,"encoder":"702894958","distractor":"702894950","target":"absent","response":"absent","rt":"1399.200000003","correct":true,"confidence":5},{"trial_n":61,"span":10,"encoder":"2904581483","distractor":"9904581483","target":"present","response":"present","rt":"1942.299999997","correct":true,"confidence":5},{"trial_n":62,"span":10,"encoder":"1682602558","distractor":"1682603558","target":"present","response":"present","rt":"1586.799999997","correct":true,"confidence":5},{"trial_n":63,"span":11,"encoder":"90421186082","distractor":"90421686082","target":"absent","response":"present","rt":"1397.700000003","correct":false,"confidence":4},{"trial_n":64,"span":10,"encoder":"8015937551","distractor":"8015637551","target":"absent","response":"absent","rt":"3619.599999994","correct":true,"confidence":4},{"trial_n":65,"span":10,"encoder":"1727206931","distractor":"1727206971","target":"absent","response":"absent","rt":"2085.8999999911","correct":true,"confidence":5},{"trial_n":66,"span":11,"encoder":"33600743707","distractor":"32600743707","target":"present","response":"present","rt":"5959.1000000089","correct":true,"confidence":4},{"trial_n":67,"span":11,"encoder":"07796509769","distractor":"06796509769","target":"absent","response":"absent","rt":"3877.799999997","correct":true,"confidence":5},{"trial_n":68,"span":12,"encoder":"921521119619","distractor":"921521111619","target":"present","response":"present","rt":"4413.799999997","correct":true,"confidence":4},{"trial_n":69,"span":12,"encoder":"088905388142","distractor":"988905388142","target":"present","response":"absent","rt":"3030.799999997","correct":false,"confidence":3},{"trial_n":70,"span":11,"encoder":"18112050493","distractor":"19112050493","target":"present","response":"present","rt":"1914","correct":true,"confidence":4},{"trial_n":71,"span":8,"encoder":"75334954","distractor":"75634954","target":"present","response":"absent","rt":"9938.6000000089","correct":false,"confidence":-1},{"trial_n":72,"span":7,"encoder":"1421420","distractor":"1221420","target":"present","response":"absent","rt":"3867.700000003","correct":false,"confidence":-1},{"trial_n":73,"span":6,"encoder":"992690","distractor":"492690","target":"absent","response":"absent","rt":"2997.400000006","correct":true,"confidence":-1},{"trial_n":74,"span":6,"encoder":"576317","distractor":"576117","target":"absent","response":"absent","rt":"2163.8999999911","correct":true,"confidence":-1},{"trial_n":75,"span":7,"encoder":"3495368","distractor":"3495068","target":"present","response":"present","rt":"2533.5","correct":true,"confidence":-1},{"trial_n":76,"span":7,"encoder":"8344485","distractor":"8340485","target":"absent","response":"absent","rt":"4199.200000003","correct":true,"confidence":-1},{"trial_n":77,"span":8,"encoder":"67046207","distractor":"37046207","target":"absent","response":"absent","rt":"3497.6999999881","correct":true,"confidence":-1},{"trial_n":78,"span":8,"encoder":"10758624","distractor":"12758624","target":"present","response":"present","rt":"3465","correct":true,"confidence":-1},{"trial_n":79,"span":9,"encoder":"277082166","distractor":"277082266","target":"absent","response":"absent","rt":"1976.1000000089","correct":true,"confidence":-1},{"trial_n":80,"span":9,"encoder":"406763224","distractor":"406963224","target":"present","response":"present","rt":"5014.599999994","correct":true,"confidence":-1},{"trial_n":81,"span":10,"encoder":"9352178249","distractor":"9352178269","target":"present","response":"present","rt":"2238.799999997","correct":true,"confidence":-1},{"trial_n":82,"span":10,"encoder":"6237909782","distractor":"6137909782","target":"absent","response":"absent","rt":"4117.099999994","correct":true,"confidence":-1},{"trial_n":83,"span":11,"encoder":"11961641559","distractor":"11991641559","target":"present","response":"present","rt":"8041","correct":true,"confidence":-1},{"trial_n":84,"span":11,"encoder":"82923496422","distractor":"82923497422","target":"present","response":"present","rt":"3207","correct":true,"confidence":-1},{"trial_n":85,"span":12,"encoder":"854834277492","distractor":"554834277492","target":"absent","response":"absent","rt":"4067.8999999911","correct":true,"confidence":-1},{"trial_n":86,"span":12,"encoder":"737826132092","distractor":"737826132096","target":"present","response":"present","rt":"1734.299999997","correct":true,"confidence":-1},{"trial_n":87,"span":13,"encoder":"0469615790992","distractor":"0459615790992","target":"present","response":"present","rt":"3721.1000000089","correct":true,"confidence":-1},{"trial_n":88,"span":13,"encoder":"3844615818381","distractor":"3844615818481","target":"present","response":"present","rt":"2418.099999994","correct":true,"confidence":-1},{"trial_n":89,"span":14,"encoder":"21466785527567","distractor":"24466785527567","target":"present","response":"present","rt":"3237","correct":true,"confidence":-1},{"trial_n":90,"span":14,"encoder":"01074907231052","distractor":"01074907291052","target":"present","response":"absent","rt":"8061.1000000089","correct":false,"confidence":-1},{"trial_n":91,"span":13,"encoder":"5057100465994","distractor":"3057100465994","target":"present","response":"absent","rt":"5276.8999999911","correct":false,"confidence":4},{"trial_n":92,"span":12,"encoder":"081528114343","distractor":"081568114343","target":"absent","response":"absent","rt":"7110.8999999911","correct":true,"confidence":2},{"trial_n":93,"span":12,"encoder":"965968074123","distractor":"965968074122","target":"absent","response":"absent","rt":"1405.599999994","correct":true,"confidence":5},{"trial_n":94,"span":13,"encoder":"9623802126156","distractor":"9623802127156","target":"absent","response":"absent","rt":"3116.099999994","correct":true,"confidence":4},{"trial_n":95,"span":13,"encoder":"2707864588381","distractor":"3707864588381","target":"present","response":"present","rt":"5015","correct":true,"confidence":4},{"trial_n":96,"span":14,"encoder":"47465816347390","distractor":"47465816345390","target":"present","response":"present","rt":"9727.299999997","correct":true,"confidence":5},{"trial_n":97,"span":14,"encoder":"59625325668880","distractor":"59625375668880","target":"present","response":"present","rt":"7617.1000000089","correct":true,"confidence":2},{"trial_n":98,"span":15,"encoder":"872658757162187","distractor":"872658757062187","target":"present","response":"absent","rt":"14138","correct":false,"confidence":2},{"trial_n":99,"span":14,"encoder":"83403910788906","distractor":"63403910788906","target":"absent","response":"absent","rt":"4267.799999997","correct":true,"confidence":5},{"trial_n":100,"span":14,"encoder":"71450682993446","distractor":"71450382993446","target":"absent","response":"absent","rt":"7011.1999999881","correct":true,"confidence":4},{"trial_n":101,"span":15,"encoder":"448733905409936","distractor":"448733905409036","target":"present","response":"present","rt":"7673.1000000089","correct":true,"confidence":5},{"trial_n":102,"span":15,"encoder":"501604102342574","distractor":"501604106342574","target":"present","response":"absent","rt":"10922.899999991","correct":false,"confidence":2},{"trial_n":103,"span":14,"encoder":"87507561258986","distractor":"87507561258486","target":"present","response":"present","rt":"3253.900000006","correct":true,"confidence":5},{"trial_n":104,"span":14,"encoder":"54879012641616","distractor":"44879012641616","target":"present","response":"present","rt":"5226.799999997","correct":true,"confidence":4},{"trial_n":105,"span":15,"encoder":"966262755899802","distractor":"966262755892802","target":"present","response":"present","rt":"9014.099999994","correct":true,"confidence":3},{"trial_n":106,"span":15,"encoder":"751158454284693","distractor":"751158414284693","target":"present","response":"absent","rt":"7287","correct":false,"confidence":4},{"trial_n":107,"span":14,"encoder":"22438502178619","distractor":"22438502168619","target":"absent","response":"absent","rt":"5454.900000006","correct":true,"confidence":4},{"trial_n":108,"span":14,"encoder":"77631506540336","distractor":"77631506540436","target":"absent","response":"absent","rt":"1808.3999999911","correct":true,"confidence":5},{"trial_n":109,"span":15,"encoder":"745093994403027","distractor":"745096994403027","target":"absent","response":"present","rt":"6217.8999999911","correct":false,"confidence":4},{"trial_n":110,"span":14,"encoder":"19497507079365","distractor":"19447507079365","target":"present","response":"absent","rt":"4360.6000000089","correct":false,"confidence":4},{"trial_n":111,"span":13,"encoder":"8347171132847","distractor":"8387171132847","target":"absent","response":"absent","rt":"6638.1000000089","correct":true,"confidence":5},{"trial_n":112,"span":13,"encoder":"8286519676947","distractor":"8286519676949","target":"absent","response":"absent","rt":"1522.599999994","correct":true,"confidence":5},{"trial_n":113,"span":14,"encoder":"60759613287120","distractor":"60759617287120","target":"absent","response":"present","rt":"4074","correct":false,"confidence":2},{"trial_n":114,"span":13,"encoder":"2144726454467","distractor":"2144926454467","target":"present","response":"absent","rt":"7041.200000003","correct":false,"confidence":5},{"trial_n":115,"span":12,"encoder":"322671275017","distractor":"022671275017","target":"absent","response":"absent","rt":"3442.200000003","correct":true,"confidence":5},{"trial_n":116,"span":12,"encoder":"959092600538","distractor":"959092600548","target":"absent","response":"absent","rt":"1361.799999997","correct":true,"confidence":5},{"trial_n":117,"span":13,"encoder":"7896044316375","distractor":"7496044316375","target":"present","response":"absent","rt":"5019.700000003","correct":false,"confidence":3},{"trial_n":118,"span":12,"encoder":"504024987845","distractor":"504054987845","target":"present","response":"present","rt":"3855.1999999881","correct":true,"confidence":4},{"trial_n":119,"span":12,"encoder":"227969337766","distractor":"227969338766","target":"present","response":"absent","rt":"5047.099999994","correct":false,"confidence":5},{"trial_n":120,"span":11,"encoder":"79538374677","distractor":"79538394677","target":"absent","response":"present","rt":"8895.3999999911","correct":false,"confidence":2},{"trial_n":121,"span":10,"encoder":"5959659481","distractor":"5759659481","target":"present","response":"present","rt":"4832.700000003","correct":true,"confidence":5},{"trial_n":122,"span":10,"encoder":"2617049958","distractor":"2617449958","target":"absent","response":"present","rt":"113759.8","correct":false,"confidence":1},{"trial_n":123,"span":9,"encoder":"660312878","distractor":"660382878","target":"absent","response":"absent","rt":"2917.6999999881","correct":true,"confidence":5},{"trial_n":124,"span":9,"encoder":"128994701","distractor":"128994601","target":"present","response":"absent","rt":"1640.299999997","correct":false,"confidence":5},{"trial_n":125,"span":8,"encoder":"68083442","distractor":"68083447","target":"absent","response":"absent","rt":"1833.900000006","correct":true,"confidence":5},{"trial_n":126,"span":8,"encoder":"24227093","distractor":"24527093","target":"absent","response":"absent","rt":"1418","correct":true,"confidence":5},{"trial_n":127,"span":9,"encoder":"562933000","distractor":"562933008","target":"absent","response":"present","rt":"4365","correct":false,"confidence":5},{"trial_n":128,"span":8,"encoder":"42740214","distractor":"42540214","target":"absent","response":"absent","rt":"3742.400000006","correct":true,"confidence":5},{"trial_n":129,"span":8,"encoder":"36499220","distractor":"36499620","target":"present","response":"present","rt":"1487.200000003","correct":true,"confidence":5},{"trial_n":130,"span":9,"encoder":"659324883","distractor":"459324883","target":"present","response":"absent","rt":"3236.799999997","correct":false,"confidence":4},{"trial_n":131,"span":8,"encoder":"27815023","distractor":"27815223","target":"present","response":"present","rt":"3034","correct":true,"confidence":5},{"trial_n":132,"span":8,"encoder":"18997672","distractor":"08997672","target":"absent","response":"absent","rt":"4999.5","correct":true,"confidence":5},{"trial_n":133,"span":9,"encoder":"576184303","distractor":"576194303","target":"absent","response":"absent","rt":"3150.299999997","correct":true,"confidence":5},{"trial_n":134,"span":9,"encoder":"248415453","distractor":"248415473","target":"absent","response":"present","rt":"5303.5","correct":false,"confidence":4},{"trial_n":135,"span":8,"encoder":"03108131","distractor":"03108139","target":"absent","response":"absent","rt":"2172.3999999911","correct":true,"confidence":5},{"trial_n":136,"span":8,"encoder":"23313549","distractor":"43313549","target":"absent","response":"absent","rt":"2844.1999999881","correct":true,"confidence":5},{"trial_n":137,"span":9,"encoder":"836080620","distractor":"836580620","target":"present","response":"present","rt":"7993.799999997","correct":true,"confidence":4},{"trial_n":138,"span":9,"encoder":"605548203","distractor":"605548803","target":"absent","response":"absent","rt":"1494.200000003","correct":true,"confidence":5},{"trial_n":139,"span":10,"encoder":"7004832702","distractor":"7004842702","target":"present","response":"present","rt":"3720.3999999911","correct":true,"confidence":1},{"trial_n":140,"span":10,"encoder":"1542967077","distractor":"1742967077","target":"absent","response":"absent","rt":"2699.299999997","correct":true,"confidence":5}]