[{"trial_n":1,"min":25,"max":230,"target":"present","response":"absent","rt":36914,"correct":false,"confidence":-1},{"trial_n":2,"min":25,"max":230,"target":"present","response":"present","rt":2343,"correct":true,"confidence":-1},{"trial_n":3,"min":25,"max":230,"target":"absent","response":"absent","rt":1326,"correct":true,"confidence":-1},{"trial_n":4,"min":41,"max":214,"target":"absent","response":"absent","rt":855,"correct":true,"confidence":-1},{"trial_n":5,"min":41,"max":214,"target":"present","response":"absent","rt":6273,"correct":false,"confidence":-1},{"trial_n":6,"min":25,"max":230,"target":"present","response":"present","rt":553.99999999999,"correct":true,"confidence":-1},{"trial_n":7,"min":25,"max":230,"target":"present","response":"present","rt":586,"correct":true,"confidence":-1},{"trial_n":8,"min":41,"max":214,"target":"absent","response":"absent","rt":395,"correct":true,"confidence":-1},{"trial_n":9,"min":41,"max":214,"target":"present","response":"present","rt":475,"correct":true,"confidence":-1},{"trial_n":10,"min":57,"max":198,"target":"absent","response":"absent","rt":360,"correct":true,"confidence":-1},{"trial_n":11,"min":57,"max":198,"target":"absent","response":"absent","rt":359.00000000001,"correct":true,"confidence":-1},{"trial_n":12,"min":65,"max":190,"target":"present","response":"present","rt":375,"correct":true,"confidence":-1},{"trial_n":13,"min":65,"max":190,"target":"absent","response":"absent","rt":422,"correct":true,"confidence":-1},{"trial_n":14,"min":73,"max":182,"target":"absent","response":"absent","rt":557.00000000001,"correct":true,"confidence":-1},{"trial_n":15,"min":73,"max":182,"target":"present","response":"present","rt":778.00000000001,"correct":true,"confidence":-1},{"trial_n":16,"min":81,"max":174,"target":"present","response":"present","rt":360,"correct":true,"confidence":-1},{"trial_n":17,"min":81,"max":174,"target":"absent","response":"absent","rt":284,"correct":true,"confidence":-1},{"trial_n":18,"min":89,"max":166,"target":"present","response":"present","rt":358.00000000001,"correct":true,"confidence":-1},{"trial_n":19,"min":89,"max":166,"target":"present","response":"present","rt":470,"correct":true,"confidence":-1},{"trial_n":20,"min":97,"max":158,"target":"present","response":"absent","rt":480,"correct":false,"confidence":-1},{"trial_n":21,"min":93,"max":162,"target":"absent","response":"absent","rt":871,"correct":true,"confidence":2},{"trial_n":22,"min":93,"max":162,"target":"absent","response":"absent","rt":849,"correct":true,"confidence":2},{"trial_n":23,"min":97,"max":158,"target":"absent","response":"present","rt":1313,"correct":false,"confidence":3},{"trial_n":24,"min":93,"max":162,"target":"absent","response":"absent","rt":1206,"correct":true,"confidence":2},{"trial_n":25,"min":93,"max":162,"target":"present","response":"absent","rt":1254,"correct":false,"confidence":1},{"trial_n":26,"min":89,"max":166,"target":"absent","response":"absent","rt":1092,"correct":true,"confidence":1},{"trial_n":27,"min":89,"max":166,"target":"absent","response":"absent","rt":1605,"correct":true,"confidence":3},{"trial_n":28,"min":93,"max":162,"target":"absent","response":"present","rt":4166,"correct":false,"confidence":3},{"trial_n":29,"min":89,"max":166,"target":"absent","response":"present","rt":1540,"correct":false,"confidence":3},{"trial_n":30,"min":85,"max":170,"target":"present","response":"present","rt":1817,"correct":true,"confidence":2},{"trial_n":31,"min":85,"max":170,"target":"present","response":"absent","rt":1825,"correct":false,"confidence":2},{"trial_n":32,"min":83,"max":172,"target":"present","response":"present","rt":1408,"correct":true,"confidence":2},{"trial_n":33,"min":83,"max":172,"target":"absent","response":"absent","rt":3575,"correct":true,"confidence":1},{"trial_n":34,"min":85,"max":170,"target":"present","response":"absent","rt":2969,"correct":false,"confidence":2},{"trial_n":35,"min":83,"max":172,"target":"present","response":"present","rt":1376,"correct":true,"confidence":2},{"trial_n":36,"min":83,"max":172,"target":"present","response":"present","rt":2335,"correct":true,"confidence":4},{"trial_n":37,"min":85,"max":170,"target":"present","response":"present","rt":1560,"correct":true,"confidence":1},{"trial_n":38,"min":85,"max":170,"target":"present","response":"present","rt":1841,"correct":true,"confidence":3},{"trial_n":39,"min":87,"max":168,"target":"absent","response":"present","rt":1541,"correct":false,"confidence":3},{"trial_n":40,"min":85,"max":170,"target":"absent","response":"absent","rt":1306,"correct":true,"confidence":2},{"trial_n":41,"min":85,"max":170,"target":"present","response":"present","rt":1817,"correct":true,"confidence":3},{"trial_n":42,"min":86,"max":169,"target":"present","response":"absent","rt":2667,"correct":false,"confidence":3},{"trial_n":43,"min":85,"max":170,"target":"present","response":"present","rt":1285,"correct":true,"confidence":2},{"trial_n":44,"min":85,"max":170,"target":"present","response":"present","rt":2474,"correct":true,"confidence":3},{"trial_n":45,"min":86,"max":169,"target":"present","response":"present","rt":1207,"correct":true,"confidence":3},{"trial_n":46,"min":86,"max":169,"target":"absent","response":"present","rt":1051,"correct":false,"confidence":3},{"trial_n":47,"min":85,"max":170,"target":"absent","response":"present","rt":1258,"correct":false,"confidence":2},{"trial_n":48,"min":84,"max":171,"target":"absent","response":"present","rt":1504,"correct":false,"confidence":2},{"trial_n":49,"min":83,"max":172,"target":"present","response":"present","rt":936,"correct":true,"confidence":3},{"trial_n":50,"min":83,"max":172,"target":"present","response":"present","rt":1063,"correct":true,"confidence":3},{"trial_n":51,"min":84,"max":171,"target":"absent","response":"present","rt":1777,"correct":false,"confidence":2},{"trial_n":52,"min":83,"max":172,"target":"present","response":"present","rt":1348,"correct":true,"confidence":3},{"trial_n":53,"min":83,"max":172,"target":"absent","response":"present","rt":709,"correct":false,"confidence":3},{"trial_n":54,"min":82,"max":173,"target":"absent","response":"present","rt":880.00000000006,"correct":false,"confidence":3},{"trial_n":55,"min":81,"max":174,"target":"absent","response":"present","rt":1428.9999999999,"correct":false,"confidence":3},{"trial_n":56,"min":80,"max":175,"target":"absent","response":"present","rt":1469,"correct":false,"confidence":3},{"trial_n":57,"min":79,"max":176,"target":"present","response":"present","rt":1078,"correct":true,"confidence":3},{"trial_n":58,"min":79,"max":176,"target":"absent","response":"present","rt":1344,"correct":false,"confidence":4},{"trial_n":59,"min":78,"max":177,"target":"present","response":"present","rt":874,"correct":true,"confidence":3},{"trial_n":60,"min":78,"max":177,"target":"present","response":"present","rt":840,"correct":true,"confidence":4},{"trial_n":61,"min":79,"max":176,"target":"absent","response":"present","rt":1245,"correct":false,"confidence":4},{"trial_n":62,"min":78,"max":177,"target":"absent","response":"present","rt":956,"correct":false,"confidence":4},{"trial_n":63,"min":77,"max":178,"target":"absent","response":"present","rt":814,"correct":false,"confidence":4},{"trial_n":64,"min":76,"max":179,"target":"present","response":"present","rt":914.00000000006,"correct":true,"confidence":5},{"trial_n":65,"min":76,"max":179,"target":"absent","response":"present","rt":978.00000000006,"correct":false,"confidence":4},{"trial_n":66,"min":75,"max":180,"target":"present","response":"present","rt":961,"correct":true,"confidence":5},{"trial_n":67,"min":75,"max":180,"target":"present","response":"present","rt":1114.9999999999,"correct":true,"confidence":5},{"trial_n":68,"min":76,"max":179,"target":"absent","response":"present","rt":984.99999999994,"correct":false,"confidence":4},{"trial_n":69,"min":75,"max":180,"target":"absent","response":"present","rt":850,"correct":false,"confidence":4},{"trial_n":70,"min":74,"max":181,"target":"present","response":"present","rt":822,"correct":true,"confidence":4},{"trial_n":71,"min":41,"max":214,"target":"present","response":"present","rt":2426.0000000001,"correct":true,"confidence":-1},{"trial_n":72,"min":41,"max":214,"target":"present","response":"present","rt":1282,"correct":true,"confidence":-1},{"trial_n":73,"min":57,"max":198,"target":"absent","response":"absent","rt":1591.0000000001,"correct":true,"confidence":-1},{"trial_n":74,"min":57,"max":198,"target":"absent","response":"present","rt":861.00000000006,"correct":false,"confidence":-1},{"trial_n":75,"min":41,"max":214,"target":"present","response":"present","rt":715,"correct":true,"confidence":-1},{"trial_n":76,"min":41,"max":214,"target":"present","response":"present","rt":1287,"correct":true,"confidence":-1},{"trial_n":77,"min":57,"max":198,"target":"absent","response":"absent","rt":1128,"correct":true,"confidence":-1},{"trial_n":78,"min":57,"max":198,"target":"absent","response":"absent","rt":647,"correct":true,"confidence":-1},{"trial_n":79,"min":73,"max":182,"target":"absent","response":"absent","rt":746.99999999994,"correct":true,"confidence":-1},{"trial_n":80,"min":73,"max":182,"target":"present","response":"absent","rt":535,"correct":false,"confidence":-1},{"trial_n":81,"min":65,"max":190,"target":"present","response":"present","rt":389,"correct":true,"confidence":-1},{"trial_n":82,"min":65,"max":190,"target":"absent","response":"absent","rt":445.99999999994,"correct":true,"confidence":-1},{"trial_n":83,"min":73,"max":182,"target":"present","response":"present","rt":373.99999999994,"correct":true,"confidence":-1},{"trial_n":84,"min":73,"max":182,"target":"absent","response":"absent","rt":658,"correct":true,"confidence":-1},{"trial_n":85,"min":81,"max":174,"target":"absent","response":"absent","rt":1008,"correct":true,"confidence":-1},{"trial_n":86,"min":81,"max":174,"target":"present","response":"present","rt":572,"correct":true,"confidence":-1},{"trial_n":87,"min":89,"max":166,"target":"absent","response":"present","rt":488.99999999994,"correct":false,"confidence":-1},{"trial_n":88,"min":81,"max":174,"target":"present","response":"present","rt":615,"correct":true,"confidence":-1},{"trial_n":89,"min":81,"max":174,"target":"present","response":"present","rt":563.99999999994,"correct":true,"confidence":-1},{"trial_n":90,"min":89,"max":166,"target":"absent","response":"absent","rt":675,"correct":true,"confidence":-1},{"trial_n":91,"min":89,"max":166,"target":"present","response":"present","rt":379,"correct":true,"confidence":3},{"trial_n":92,"min":93,"max":162,"target":"present","response":"present","rt":586,"correct":true,"confidence":4},{"trial_n":93,"min":93,"max":162,"target":"present","response":"present","rt":893,"correct":true,"confidence":2},{"trial_n":94,"min":97,"max":158,"target":"present","response":"present","rt":477.00000000006,"correct":true,"confidence":2},{"trial_n":95,"min":97,"max":158,"target":"present","response":"present","rt":549,"correct":true,"confidence":3},{"trial_n":96,"min":101,"max":154,"target":"present","response":"present","rt":575,"correct":true,"confidence":2},{"trial_n":97,"min":101,"max":154,"target":"absent","response":"present","rt":636,"correct":false,"confidence":3},{"trial_n":98,"min":97,"max":158,"target":"present","response":"present","rt":936,"correct":true,"confidence":3},{"trial_n":99,"min":97,"max":158,"target":"present","response":"present","rt":2114,"correct":true,"confidence":1},{"trial_n":100,"min":101,"max":154,"target":"absent","response":"present","rt":804,"correct":false,"confidence":2},{"trial_n":101,"min":99,"max":156,"target":"absent","response":"present","rt":565,"correct":false,"confidence":2},{"trial_n":102,"min":97,"max":158,"target":"present","response":"present","rt":892,"correct":true,"confidence":3},{"trial_n":103,"min":97,"max":158,"target":"present","response":"absent","rt":3564,"correct":false,"confidence":1},{"trial_n":104,"min":95,"max":160,"target":"absent","response":"present","rt":1066.0000000001,"correct":false,"confidence":2},{"trial_n":105,"min":93,"max":162,"target":"present","response":"present","rt":477,"correct":true,"confidence":3},{"trial_n":106,"min":93,"max":162,"target":"absent","response":"absent","rt":1942,"correct":true,"confidence":2},{"trial_n":107,"min":95,"max":160,"target":"absent","response":"present","rt":501.00000000006,"correct":false,"confidence":2},{"trial_n":108,"min":93,"max":162,"target":"absent","response":"present","rt":593,"correct":false,"confidence":1},{"trial_n":109,"min":91,"max":164,"target":"absent","response":"absent","rt":1350,"correct":true,"confidence":1},{"trial_n":110,"min":91,"max":164,"target":"present","response":"present","rt":908.99999999994,"correct":true,"confidence":1},{"trial_n":111,"min":92,"max":163,"target":"absent","response":"present","rt":927,"correct":false,"confidence":2},{"trial_n":112,"min":91,"max":164,"target":"absent","response":"absent","rt":425.00000000006,"correct":true,"confidence":1},{"trial_n":113,"min":91,"max":164,"target":"present","response":"present","rt":857,"correct":true,"confidence":1},{"trial_n":114,"min":92,"max":163,"target":"absent","response":"present","rt":801,"correct":false,"confidence":1},{"trial_n":115,"min":91,"max":164,"target":"absent","response":"absent","rt":983,"correct":true,"confidence":1},{"trial_n":116,"min":91,"max":164,"target":"absent","response":"present","rt":1670.9999999999,"correct":false,"confidence":1},{"trial_n":117,"min":90,"max":165,"target":"absent","response":"present","rt":782.00000000006,"correct":false,"confidence":1},{"trial_n":118,"min":89,"max":166,"target":"present","response":"absent","rt":591,"correct":false,"confidence":1},{"trial_n":119,"min":88,"max":167,"target":"present","response":"present","rt":599,"correct":true,"confidence":1},{"trial_n":120,"min":88,"max":167,"target":"present","response":"present","rt":550,"correct":true,"confidence":2},{"trial_n":121,"min":89,"max":166,"target":"present","response":"present","rt":671,"correct":true,"confidence":1},{"trial_n":122,"min":89,"max":166,"target":"present","response":"present","rt":583.99999999994,"correct":true,"confidence":3},{"trial_n":123,"min":90,"max":165,"target":"absent","response":"present","rt":879,"correct":false,"confidence":1},{"trial_n":124,"min":89,"max":166,"target":"absent","response":"present","rt":533,"correct":false,"confidence":1},{"trial_n":125,"min":88,"max":167,"target":"absent","response":"present","rt":999,"correct":false,"confidence":1},{"trial_n":126,"min":87,"max":168,"target":"present","response":"present","rt":817.00000000006,"correct":true,"confidence":1},{"trial_n":127,"min":87,"max":168,"target":"absent","response":"present","rt":653.00000000006,"correct":false,"confidence":1},{"trial_n":128,"min":86,"max":169,"target":"present","response":"present","rt":730.99999999994,"correct":true,"confidence":3},{"trial_n":129,"min":86,"max":169,"target":"present","response":"present","rt":546.00000000006,"correct":true,"confidence":3},{"trial_n":130,"min":87,"max":168,"target":"absent","response":"absent","rt":2125,"correct":true,"confidence":1},{"trial_n":131,"min":87,"max":168,"target":"absent","response":"present","rt":584.99999999994,"correct":false,"confidence":1},{"trial_n":132,"min":86,"max":169,"target":"absent","response":"present","rt":831,"correct":false,"confidence":1},{"trial_n":133,"min":85,"max":170,"target":"absent","response":"present","rt":288,"correct":false,"confidence":3},{"trial_n":134,"min":84,"max":171,"target":"absent","response":"absent","rt":2215,"correct":true,"confidence":4},{"trial_n":135,"min":84,"max":171,"target":"present","response":"present","rt":1966,"correct":true,"confidence":3},{"trial_n":136,"min":85,"max":170,"target":"absent","response":"present","rt":1254,"correct":false,"confidence":1},{"trial_n":137,"min":84,"max":171,"target":"present","response":"present","rt":911,"correct":true,"confidence":3},{"trial_n":138,"min":84,"max":171,"target":"present","response":"absent","rt":1950,"correct":false,"confidence":1},{"trial_n":139,"min":83,"max":172,"target":"present","response":"present","rt":375,"correct":true,"confidence":3},{"trial_n":140,"min":83,"max":172,"target":"present","response":"present","rt":993.99999999988,"correct":true,"confidence":2}]