[{"trial_n":1,"n_dots":4.25,"target":"left","response":"right","rt":2885,"correct":false,"confidence":-1},{"trial_n":2,"n_dots":4.25,"target":"left","response":"left","rt":933,"correct":true,"confidence":-1},{"trial_n":3,"n_dots":4.25,"target":"right","response":"right","rt":634,"correct":true,"confidence":-1},{"trial_n":4,"n_dots":3.85,"target":"right","response":"right","rt":647,"correct":true,"confidence":-1},{"trial_n":5,"n_dots":3.85,"target":"right","response":"right","rt":615,"correct":true,"confidence":-1},{"trial_n":6,"n_dots":3.45,"target":"right","response":"left","rt":737,"correct":false,"confidence":-1},{"trial_n":7,"n_dots":3.85,"target":"right","response":"right","rt":620,"correct":true,"confidence":-1},{"trial_n":8,"n_dots":3.85,"target":"right","response":"right","rt":507,"correct":true,"confidence":-1},{"trial_n":9,"n_dots":3.65,"target":"right","response":"right","rt":520,"correct":true,"confidence":-1},{"trial_n":10,"n_dots":3.65,"target":"left","response":"right","rt":432,"correct":false,"confidence":-1},{"trial_n":11,"n_dots":3.85,"target":"right","response":"right","rt":651,"correct":true,"confidence":-1},{"trial_n":12,"n_dots":3.85,"target":"right","response":"right","rt":429,"correct":true,"confidence":-1},{"trial_n":13,"n_dots":3.75,"target":"left","response":"left","rt":466,"correct":true,"confidence":-1},{"trial_n":14,"n_dots":3.75,"target":"right","response":"right","rt":326,"correct":true,"confidence":-1},{"trial_n":15,"n_dots":3.65,"target":"right","response":"right","rt":836,"correct":true,"confidence":-1},{"trial_n":16,"n_dots":3.65,"target":"right","response":"left","rt":576,"correct":false,"confidence":-1},{"trial_n":17,"n_dots":3.75,"target":"right","response":"right","rt":554,"correct":true,"confidence":-1},{"trial_n":18,"n_dots":3.75,"target":"right","response":"right","rt":425,"correct":true,"confidence":-1},{"trial_n":19,"n_dots":3.65,"target":"right","response":"right","rt":417,"correct":true,"confidence":-1},{"trial_n":20,"n_dots":3.65,"target":"left","response":"left","rt":629,"correct":true,"confidence":-1},{"trial_n":21,"n_dots":3.55,"target":"left","response":"left","rt":489,"correct":true,"confidence":4},{"trial_n":22,"n_dots":3.55,"target":"left","response":"right","rt":468,"correct":false,"confidence":3},{"trial_n":23,"n_dots":3.65,"target":"right","response":"left","rt":531,"correct":false,"confidence":3},{"trial_n":24,"n_dots":3.75,"target":"right","response":"right","rt":588,"correct":true,"confidence":3},{"trial_n":25,"n_dots":3.75,"target":"left","response":"left","rt":595,"correct":true,"confidence":5},{"trial_n":26,"n_dots":3.65,"target":"left","response":"left","rt":556,"correct":true,"confidence":4},{"trial_n":27,"n_dots":3.65,"target":"right","response":"right","rt":665,"correct":true,"confidence":4},{"trial_n":28,"n_dots":3.55,"target":"left","response":"left","rt":1619,"correct":true,"confidence":2},{"trial_n":29,"n_dots":3.55,"target":"right","response":"right","rt":561,"correct":true,"confidence":4},{"trial_n":30,"n_dots":3.45,"target":"right","response":"left","rt":347,"correct":false,"confidence":3},{"trial_n":31,"n_dots":3.55,"target":"right","response":"right","rt":1089,"correct":true,"confidence":4},{"trial_n":32,"n_dots":3.55,"target":"left","response":"left","rt":601,"correct":true,"confidence":3},{"trial_n":33,"n_dots":3.45,"target":"right","response":"right","rt":498,"correct":true,"confidence":4},{"trial_n":34,"n_dots":3.45,"target":"left","response":"left","rt":552,"correct":true,"confidence":5},{"trial_n":35,"n_dots":3.35,"target":"right","response":"right","rt":1999,"correct":true,"confidence":4},{"trial_n":36,"n_dots":3.35,"target":"left","response":"left","rt":497,"correct":true,"confidence":4},{"trial_n":37,"n_dots":3.25,"target":"left","response":"left","rt":441,"correct":true,"confidence":5},{"trial_n":38,"n_dots":3.25,"target":"left","response":"right","rt":535,"correct":false,"confidence":3},{"trial_n":39,"n_dots":3.35,"target":"right","response":"right","rt":1175,"correct":true,"confidence":1},{"trial_n":40,"n_dots":3.35,"target":"left","response":"left","rt":304,"correct":true,"confidence":4},{"trial_n":41,"n_dots":3.25,"target":"left","response":"left","rt":448,"correct":true,"confidence":4},{"trial_n":42,"n_dots":3.25,"target":"left","response":"left","rt":1801,"correct":true,"confidence":3},{"trial_n":43,"n_dots":3.15,"target":"right","response":"right","rt":1084,"correct":true,"confidence":4},{"trial_n":44,"n_dots":3.15,"target":"left","response":"left","rt":1670,"correct":true,"confidence":5},{"trial_n":45,"n_dots":3.05,"target":"left","response":"right","rt":2104,"correct":false,"confidence":2},{"trial_n":46,"n_dots":3.15,"target":"right","response":"left","rt":419,"correct":false,"confidence":3},{"trial_n":47,"n_dots":3.25,"target":"right","response":"right","rt":246,"correct":true,"confidence":4},{"trial_n":48,"n_dots":3.25,"target":"left","response":"left","rt":380,"correct":true,"confidence":4},{"trial_n":49,"n_dots":3.15,"target":"left","response":"left","rt":349,"correct":true,"confidence":2},{"trial_n":50,"n_dots":3.15,"target":"left","response":"left","rt":270,"correct":true,"confidence":3},{"trial_n":51,"n_dots":3.05,"target":"right","response":"right","rt":443,"correct":true,"confidence":4},{"trial_n":52,"n_dots":3.05,"target":"left","response":"left","rt":156,"correct":true,"confidence":5},{"trial_n":53,"n_dots":2.95,"target":"left","response":"left","rt":73,"correct":true,"confidence":2},{"trial_n":54,"n_dots":2.95,"target":"left","response":"right","rt":344,"correct":false,"confidence":4},{"trial_n":55,"n_dots":3.05,"target":"right","response":"left","rt":199,"correct":false,"confidence":3},{"trial_n":56,"n_dots":3.15,"target":"right","response":"right","rt":306,"correct":true,"confidence":4},{"trial_n":57,"n_dots":3.15,"target":"left","response":"left","rt":163,"correct":true,"confidence":3},{"trial_n":58,"n_dots":3.05,"target":"left","response":"left","rt":205,"correct":true,"confidence":4},{"trial_n":59,"n_dots":3.05,"target":"left","response":"left","rt":546,"correct":true,"confidence":4},{"trial_n":60,"n_dots":2.95,"target":"left","response":"left","rt":233,"correct":true,"confidence":4},{"trial_n":61,"n_dots":2.95,"target":"left","response":"right","rt":317,"correct":false,"confidence":4},{"trial_n":62,"n_dots":3.05,"target":"right","response":"right","rt":431,"correct":true,"confidence":3},{"trial_n":63,"n_dots":3.05,"target":"right","response":"left","rt":116,"correct":false,"confidence":4},{"trial_n":64,"n_dots":3.15,"target":"right","response":"right","rt":458,"correct":true,"confidence":5},{"trial_n":65,"n_dots":3.15,"target":"left","response":"left","rt":373,"correct":true,"confidence":2},{"trial_n":66,"n_dots":3.05,"target":"right","response":"right","rt":322,"correct":true,"confidence":4},{"trial_n":67,"n_dots":3.05,"target":"left","response":"left","rt":515,"correct":true,"confidence":3},{"trial_n":68,"n_dots":2.95,"target":"right","response":"right","rt":139,"correct":true,"confidence":4},{"trial_n":69,"n_dots":2.95,"target":"right","response":"right","rt":374,"correct":true,"confidence":2},{"trial_n":70,"n_dots":2.85,"target":"right","response":"right","rt":663,"correct":true,"confidence":4},{"trial_n":71,"n_dots":2.85,"target":"right","response":"left","rt":284,"correct":false,"confidence":2},{"trial_n":72,"n_dots":2.95,"target":"right","response":"right","rt":511,"correct":true,"confidence":2},{"trial_n":73,"n_dots":2.95,"target":"left","response":"left","rt":456,"correct":true,"confidence":3},{"trial_n":74,"n_dots":2.85,"target":"right","response":"right","rt":550,"correct":true,"confidence":4},{"trial_n":75,"n_dots":2.85,"target":"left","response":"right","rt":381,"correct":false,"confidence":2},{"trial_n":76,"n_dots":2.95,"target":"right","response":"right","rt":323,"correct":true,"confidence":3},{"trial_n":77,"n_dots":2.95,"target":"left","response":"left","rt":134,"correct":true,"confidence":3},{"trial_n":78,"n_dots":2.85,"target":"right","response":"right","rt":896,"correct":true,"confidence":3},{"trial_n":79,"n_dots":2.85,"target":"right","response":"right","rt":640,"correct":true,"confidence":5},{"trial_n":80,"n_dots":2.75,"target":"left","response":"left","rt":653,"correct":true,"confidence":4},{"trial_n":81,"n_dots":2.75,"target":"left","response":"right","rt":188,"correct":false,"confidence":4},{"trial_n":82,"n_dots":2.85,"target":"right","response":"left","rt":644,"correct":false,"confidence":3},{"trial_n":83,"n_dots":2.95,"target":"left","response":"right","rt":321,"correct":false,"confidence":2},{"trial_n":84,"n_dots":3.05,"target":"right","response":"left","rt":341,"correct":false,"confidence":3},{"trial_n":85,"n_dots":3.15,"target":"right","response":"right","rt":506,"correct":true,"confidence":4},{"trial_n":86,"n_dots":3.15,"target":"left","response":"left","rt":92,"correct":true,"confidence":2},{"trial_n":87,"n_dots":3.05,"target":"right","response":"right","rt":744,"correct":true,"confidence":2},{"trial_n":88,"n_dots":3.05,"target":"right","response":"right","rt":496,"correct":true,"confidence":4},{"trial_n":89,"n_dots":2.95,"target":"left","response":"left","rt":399,"correct":true,"confidence":5},{"trial_n":90,"n_dots":2.95,"target":"left","response":"left","rt":240,"correct":true,"confidence":4},{"trial_n":91,"n_dots":2.85,"target":"left","response":"left","rt":276,"correct":true,"confidence":3},{"trial_n":92,"n_dots":2.85,"target":"left","response":"left","rt":694,"correct":true,"confidence":4},{"trial_n":93,"n_dots":2.75,"target":"left","response":"left","rt":749,"correct":true,"confidence":4},{"trial_n":94,"n_dots":2.75,"target":"left","response":"left","rt":78,"correct":true,"confidence":5},{"trial_n":95,"n_dots":2.65,"target":"left","response":"right","rt":493,"correct":false,"confidence":1},{"trial_n":96,"n_dots":2.75,"target":"left","response":"left","rt":561,"correct":true,"confidence":2},{"trial_n":97,"n_dots":2.75,"target":"right","response":"right","rt":562,"correct":true,"confidence":3},{"trial_n":98,"n_dots":2.65,"target":"left","response":"left","rt":497,"correct":true,"confidence":3},{"trial_n":99,"n_dots":2.65,"target":"right","response":"right","rt":450,"correct":true,"confidence":3},{"trial_n":100,"n_dots":2.55,"target":"right","response":"left","rt":709,"correct":false,"confidence":4},{"trial_n":101,"n_dots":2.65,"target":"left","response":"left","rt":315,"correct":true,"confidence":3},{"trial_n":102,"n_dots":2.65,"target":"left","response":"left","rt":453,"correct":true,"confidence":4},{"trial_n":103,"n_dots":2.55,"target":"right","response":"right","rt":195,"correct":true,"confidence":4},{"trial_n":104,"n_dots":2.55,"target":"left","response":"left","rt":229,"correct":true,"confidence":4},{"trial_n":105,"n_dots":2.45,"target":"right","response":"right","rt":421,"correct":true,"confidence":5},{"trial_n":106,"n_dots":2.45,"target":"left","response":"left","rt":516,"correct":true,"confidence":2},{"trial_n":107,"n_dots":2.35,"target":"right","response":"right","rt":16,"correct":true,"confidence":4},{"trial_n":108,"n_dots":2.35,"target":"right","response":"left","rt":548,"correct":false,"confidence":4},{"trial_n":109,"n_dots":2.45,"target":"left","response":"left","rt":603,"correct":true,"confidence":4},{"trial_n":110,"n_dots":2.45,"target":"right","response":"right","rt":851,"correct":true,"confidence":4},{"trial_n":111,"n_dots":2.35,"target":"right","response":"right","rt":404,"correct":true,"confidence":5},{"trial_n":112,"n_dots":2.35,"target":"left","response":"left","rt":496,"correct":true,"confidence":4},{"trial_n":113,"n_dots":2.25,"target":"left","response":"left","rt":1744,"correct":true,"confidence":2},{"trial_n":114,"n_dots":2.25,"target":"right","response":"right","rt":393,"correct":true,"confidence":4},{"trial_n":115,"n_dots":2.15,"target":"left","response":"right","rt":417,"correct":false,"confidence":4},{"trial_n":116,"n_dots":2.25,"target":"left","response":"left","rt":334,"correct":true,"confidence":4},{"trial_n":117,"n_dots":2.25,"target":"right","response":"left","rt":591,"correct":false,"confidence":4},{"trial_n":118,"n_dots":2.35,"target":"left","response":"right","rt":421,"correct":false,"confidence":2},{"trial_n":119,"n_dots":2.45,"target":"right","response":"left","rt":272,"correct":false,"confidence":2},{"trial_n":120,"n_dots":2.55,"target":"left","response":"right","rt":740,"correct":false,"confidence":1}]