[{"trial_n":1,"n_dots":4.25,"target":"right","response":"right","rt":1632,"correct":true,"confidence":-1},{"trial_n":2,"n_dots":4.25,"target":"left","response":"left","rt":975.00000000006,"correct":true,"confidence":-1},{"trial_n":3,"n_dots":3.85,"target":"left","response":"left","rt":953.00000000012,"correct":true,"confidence":-1},{"trial_n":4,"n_dots":3.85,"target":"left","response":"left","rt":3401,"correct":true,"confidence":-1},{"trial_n":5,"n_dots":3.45,"target":"left","response":"left","rt":606.00000000012,"correct":true,"confidence":-1},{"trial_n":6,"n_dots":3.45,"target":"left","response":"left","rt":765,"correct":true,"confidence":-1},{"trial_n":7,"n_dots":3.05,"target":"right","response":"right","rt":553,"correct":true,"confidence":-1},{"trial_n":8,"n_dots":3.05,"target":"left","response":"left","rt":816,"correct":true,"confidence":-1},{"trial_n":9,"n_dots":2.85,"target":"right","response":"left","rt":484.99999999988,"correct":false,"confidence":-1},{"trial_n":10,"n_dots":3.05,"target":"right","response":"right","rt":562,"correct":true,"confidence":-1},{"trial_n":11,"n_dots":3.05,"target":"right","response":"right","rt":879,"correct":true,"confidence":-1},{"trial_n":12,"n_dots":2.85,"target":"right","response":"left","rt":1835,"correct":false,"confidence":-1},{"trial_n":13,"n_dots":2.95,"target":"right","response":"left","rt":865,"correct":false,"confidence":-1},{"trial_n":14,"n_dots":3.05,"target":"left","response":"left","rt":282,"correct":true,"confidence":-1},{"trial_n":15,"n_dots":3.05,"target":"left","response":"left","rt":143,"correct":true,"confidence":-1},{"trial_n":16,"n_dots":2.95,"target":"right","response":"left","rt":351,"correct":false,"confidence":-1},{"trial_n":17,"n_dots":3.05,"target":"right","response":"left","rt":623,"correct":false,"confidence":-1},{"trial_n":18,"n_dots":3.15,"target":"left","response":"left","rt":138,"correct":true,"confidence":-1},{"trial_n":19,"n_dots":3.15,"target":"right","response":"left","rt":234,"correct":false,"confidence":-1},{"trial_n":20,"n_dots":3.25,"target":"left","response":"left","rt":3552,"correct":true,"confidence":-1},{"trial_n":21,"n_dots":3.25,"target":"right","response":"left","rt":392.99999999988,"correct":false,"confidence":1},{"trial_n":22,"n_dots":3.35,"target":"left","response":"left","rt":6471.0000000001,"correct":true,"confidence":1},{"trial_n":23,"n_dots":3.35,"target":"left","response":"left","rt":2012.9999999999,"correct":true,"confidence":2},{"trial_n":24,"n_dots":3.25,"target":"left","response":"left","rt":1257,"correct":true,"confidence":2},{"trial_n":25,"n_dots":3.25,"target":"right","response":"right","rt":429,"correct":true,"confidence":3},{"trial_n":26,"n_dots":3.15,"target":"right","response":"left","rt":791.99999999988,"correct":false,"confidence":2},{"trial_n":27,"n_dots":3.25,"target":"right","response":"right","rt":823,"correct":true,"confidence":1},{"trial_n":28,"n_dots":3.25,"target":"left","response":"left","rt":712,"correct":true,"confidence":2},{"trial_n":29,"n_dots":3.15,"target":"right","response":"left","rt":1355.0000000001,"correct":false,"confidence":1},{"trial_n":30,"n_dots":3.25,"target":"right","response":"right","rt":735,"correct":true,"confidence":2},{"trial_n":31,"n_dots":3.25,"target":"right","response":"right","rt":994.00000000012,"correct":true,"confidence":1},{"trial_n":32,"n_dots":3.15,"target":"left","response":"left","rt":802,"correct":true,"confidence":3},{"trial_n":33,"n_dots":3.15,"target":"right","response":"left","rt":888,"correct":false,"confidence":2},{"trial_n":34,"n_dots":3.25,"target":"left","response":"left","rt":835.99999999988,"correct":true,"confidence":2},{"trial_n":35,"n_dots":3.25,"target":"left","response":"right","rt":4749,"correct":false,"confidence":1},{"trial_n":36,"n_dots":3.35,"target":"right","response":"left","rt":1635,"correct":false,"confidence":3},{"trial_n":37,"n_dots":3.45,"target":"left","response":"left","rt":1146,"correct":true,"confidence":3},{"trial_n":38,"n_dots":3.45,"target":"left","response":"left","rt":672,"correct":true,"confidence":2},{"trial_n":39,"n_dots":3.35,"target":"right","response":"right","rt":659,"correct":true,"confidence":1},{"trial_n":40,"n_dots":3.35,"target":"right","response":"left","rt":718,"correct":false,"confidence":1},{"trial_n":41,"n_dots":3.45,"target":"left","response":"right","rt":187,"correct":false,"confidence":2},{"trial_n":42,"n_dots":3.55,"target":"left","response":"left","rt":1480,"correct":true,"confidence":2},{"trial_n":43,"n_dots":3.55,"target":"left","response":"left","rt":856,"correct":true,"confidence":3},{"trial_n":44,"n_dots":3.45,"target":"left","response":"left","rt":354.00000000012,"correct":true,"confidence":2},{"trial_n":45,"n_dots":3.45,"target":"right","response":"left","rt":817,"correct":false,"confidence":2},{"trial_n":46,"n_dots":3.55,"target":"right","response":"left","rt":300,"correct":false,"confidence":2},{"trial_n":47,"n_dots":3.65,"target":"left","response":"left","rt":280,"correct":true,"confidence":4},{"trial_n":48,"n_dots":3.65,"target":"left","response":"left","rt":327.99999999988,"correct":true,"confidence":4},{"trial_n":49,"n_dots":3.55,"target":"left","response":"left","rt":565,"correct":true,"confidence":3},{"trial_n":50,"n_dots":3.55,"target":"right","response":"left","rt":1188,"correct":false,"confidence":2},{"trial_n":51,"n_dots":3.65,"target":"left","response":"left","rt":200.99999999988,"correct":true,"confidence":4},{"trial_n":52,"n_dots":3.65,"target":"right","response":"left","rt":572,"correct":false,"confidence":2},{"trial_n":53,"n_dots":3.75,"target":"left","response":"left","rt":719.99999999988,"correct":true,"confidence":3},{"trial_n":54,"n_dots":3.75,"target":"left","response":"left","rt":3565,"correct":true,"confidence":3},{"trial_n":55,"n_dots":3.65,"target":"right","response":"left","rt":652.00000000012,"correct":false,"confidence":3},{"trial_n":56,"n_dots":3.75,"target":"left","response":"left","rt":290,"correct":true,"confidence":4},{"trial_n":57,"n_dots":3.75,"target":"right","response":"left","rt":806,"correct":false,"confidence":2},{"trial_n":58,"n_dots":3.85,"target":"right","response":"left","rt":687,"correct":false,"confidence":3},{"trial_n":59,"n_dots":3.95,"target":"left","response":"left","rt":938.00000000012,"correct":true,"confidence":2},{"trial_n":60,"n_dots":3.95,"target":"left","response":"left","rt":457.99999999988,"correct":true,"confidence":4},{"trial_n":61,"n_dots":3.85,"target":"right","response":"right","rt":491.99999999988,"correct":true,"confidence":2},{"trial_n":62,"n_dots":3.85,"target":"left","response":"left","rt":154,"correct":true,"confidence":3},{"trial_n":63,"n_dots":3.75,"target":"right","response":"right","rt":474.00000000012,"correct":true,"confidence":3},{"trial_n":64,"n_dots":3.75,"target":"left","response":"left","rt":46,"correct":true,"confidence":3},{"trial_n":65,"n_dots":3.65,"target":"left","response":"left","rt":371.00000000012,"correct":true,"confidence":4},{"trial_n":66,"n_dots":3.65,"target":"left","response":"left","rt":341,"correct":true,"confidence":3},{"trial_n":67,"n_dots":3.55,"target":"right","response":"right","rt":645,"correct":true,"confidence":2},{"trial_n":68,"n_dots":3.55,"target":"right","response":"left","rt":947,"correct":false,"confidence":1},{"trial_n":69,"n_dots":3.65,"target":"right","response":"left","rt":294,"correct":false,"confidence":3},{"trial_n":70,"n_dots":3.75,"target":"left","response":"left","rt":1026,"correct":true,"confidence":4},{"trial_n":71,"n_dots":3.75,"target":"right","response":"right","rt":989,"correct":true,"confidence":2},{"trial_n":72,"n_dots":3.65,"target":"left","response":"left","rt":139,"correct":true,"confidence":3},{"trial_n":73,"n_dots":3.65,"target":"right","response":"left","rt":887,"correct":false,"confidence":2},{"trial_n":74,"n_dots":3.75,"target":"right","response":"left","rt":286,"correct":false,"confidence":2},{"trial_n":75,"n_dots":3.85,"target":"right","response":"left","rt":355,"correct":false,"confidence":2},{"trial_n":76,"n_dots":3.95,"target":"right","response":"left","rt":882,"correct":false,"confidence":3},{"trial_n":77,"n_dots":4.05,"target":"left","response":"left","rt":2177,"correct":true,"confidence":1},{"trial_n":78,"n_dots":4.05,"target":"right","response":"left","rt":787,"correct":false,"confidence":2},{"trial_n":79,"n_dots":4.15,"target":"right","response":"right","rt":590,"correct":true,"confidence":3},{"trial_n":80,"n_dots":4.15,"target":"left","response":"left","rt":808,"correct":true,"confidence":1},{"trial_n":81,"n_dots":4.05,"target":"left","response":"left","rt":187,"correct":true,"confidence":5},{"trial_n":82,"n_dots":4.05,"target":"left","response":"left","rt":534,"correct":true,"confidence":4},{"trial_n":83,"n_dots":3.95,"target":"right","response":"left","rt":790.99999999988,"correct":false,"confidence":2},{"trial_n":84,"n_dots":4.05,"target":"left","response":"left","rt":581,"correct":true,"confidence":3},{"trial_n":85,"n_dots":4.05,"target":"right","response":"left","rt":262,"correct":false,"confidence":2},{"trial_n":86,"n_dots":4.15,"target":"left","response":"left","rt":150,"correct":true,"confidence":3},{"trial_n":87,"n_dots":4.15,"target":"right","response":"right","rt":641,"correct":true,"confidence":1},{"trial_n":88,"n_dots":4.05,"target":"right","response":"left","rt":1030,"correct":false,"confidence":2},{"trial_n":89,"n_dots":4.15,"target":"right","response":"left","rt":1029.0000000001,"correct":false,"confidence":1},{"trial_n":90,"n_dots":4.25,"target":"right","response":"right","rt":325,"correct":true,"confidence":3},{"trial_n":91,"n_dots":4.25,"target":"right","response":"left","rt":579.99999999988,"correct":false,"confidence":2},{"trial_n":92,"n_dots":4.35,"target":"right","response":"right","rt":943.00000000012,"correct":true,"confidence":2},{"trial_n":93,"n_dots":4.35,"target":"right","response":"left","rt":951.00000000012,"correct":false,"confidence":1},{"trial_n":94,"n_dots":4.45,"target":"right","response":"right","rt":767,"correct":true,"confidence":2},{"trial_n":95,"n_dots":4.45,"target":"left","response":"left","rt":438,"correct":true,"confidence":3},{"trial_n":96,"n_dots":4.35,"target":"left","response":"left","rt":563,"correct":true,"confidence":3},{"trial_n":97,"n_dots":4.35,"target":"left","response":"left","rt":565.00000000012,"correct":true,"confidence":3},{"trial_n":98,"n_dots":4.25,"target":"left","response":"left","rt":633,"correct":true,"confidence":4},{"trial_n":99,"n_dots":4.25,"target":"left","response":"left","rt":434,"correct":true,"confidence":3},{"trial_n":100,"n_dots":4.15,"target":"left","response":"left","rt":510,"correct":true,"confidence":3},{"trial_n":101,"n_dots":4.15,"target":"right","response":"left","rt":1674.9999999999,"correct":false,"confidence":1},{"trial_n":102,"n_dots":4.25,"target":"right","response":"left","rt":771,"correct":false,"confidence":1},{"trial_n":103,"n_dots":4.35,"target":"left","response":"left","rt":315.99999999988,"correct":true,"confidence":3},{"trial_n":104,"n_dots":4.35,"target":"left","response":"left","rt":321,"correct":true,"confidence":2},{"trial_n":105,"n_dots":4.25,"target":"left","response":"left","rt":1180,"correct":true,"confidence":2},{"trial_n":106,"n_dots":4.25,"target":"right","response":"right","rt":802.00000000012,"correct":true,"confidence":1},{"trial_n":107,"n_dots":4.15,"target":"right","response":"left","rt":639,"correct":false,"confidence":1},{"trial_n":108,"n_dots":4.25,"target":"right","response":"left","rt":968.99999999988,"correct":false,"confidence":1},{"trial_n":109,"n_dots":4.35,"target":"right","response":"right","rt":726,"correct":true,"confidence":2},{"trial_n":110,"n_dots":4.35,"target":"right","response":"right","rt":1506,"correct":true,"confidence":1},{"trial_n":111,"n_dots":4.25,"target":"left","response":"left","rt":642.00000000012,"correct":true,"confidence":2},{"trial_n":112,"n_dots":4.25,"target":"right","response":"right","rt":1097.9999999999,"correct":true,"confidence":1},{"trial_n":113,"n_dots":4.15,"target":"left","response":"left","rt":339,"correct":true,"confidence":1},{"trial_n":114,"n_dots":4.15,"target":"left","response":"left","rt":618,"correct":true,"confidence":4},{"trial_n":115,"n_dots":4.05,"target":"left","response":"left","rt":107.00000000012,"correct":true,"confidence":4},{"trial_n":116,"n_dots":4.05,"target":"left","response":"left","rt":99.999999999884,"correct":true,"confidence":4},{"trial_n":117,"n_dots":3.95,"target":"left","response":"left","rt":250,"correct":true,"confidence":2},{"trial_n":118,"n_dots":3.95,"target":"right","response":"right","rt":699,"correct":true,"confidence":2},{"trial_n":119,"n_dots":3.85,"target":"right","response":"left","rt":1026.0000000001,"correct":false,"confidence":1},{"trial_n":120,"n_dots":3.95,"target":"left","response":"left","rt":541.99999999988,"correct":true,"confidence":2}]