[{"trial_n":1,"span":8,"encoder":"00920378","distractor":"00920478","target":"present","response":"absent","rt":"3872","correct":false,"confidence":-1},{"trial_n":2,"span":6,"encoder":"802751","distractor":"802750","target":"present","response":"absent","rt":"3519","correct":false,"confidence":-1},{"trial_n":3,"span":4,"encoder":"5619","distractor":"5609","target":"absent","response":"absent","rt":"1791","correct":true,"confidence":-1},{"trial_n":4,"span":4,"encoder":"9558","distractor":"9548","target":"absent","response":"absent","rt":"2261","correct":true,"confidence":-1},{"trial_n":5,"span":6,"encoder":"301177","distractor":"301197","target":"present","response":"absent","rt":"2141","correct":false,"confidence":-1},{"trial_n":6,"span":4,"encoder":"7460","distractor":"7420","target":"present","response":"present","rt":"1265","correct":true,"confidence":-1},{"trial_n":7,"span":4,"encoder":"4494","distractor":"4474","target":"present","response":"present","rt":"1112","correct":true,"confidence":-1},{"trial_n":8,"span":6,"encoder":"026487","distractor":"086487","target":"absent","response":"absent","rt":"1988","correct":true,"confidence":-1},{"trial_n":9,"span":6,"encoder":"467783","distractor":"467743","target":"present","response":"absent","rt":"3012","correct":false,"confidence":-1},{"trial_n":10,"span":4,"encoder":"6987","distractor":"6917","target":"absent","response":"absent","rt":"1294","correct":true,"confidence":-1},{"trial_n":11,"span":4,"encoder":"9337","distractor":"9377","target":"present","response":"present","rt":"1360","correct":true,"confidence":-1},{"trial_n":12,"span":5,"encoder":"43562","distractor":"43662","target":"absent","response":"absent","rt":"1299","correct":true,"confidence":-1},{"trial_n":13,"span":5,"encoder":"30787","distractor":"34787","target":"present","response":"present","rt":"1256","correct":true,"confidence":-1},{"trial_n":14,"span":6,"encoder":"570247","distractor":"570217","target":"present","response":"absent","rt":"2617","correct":false,"confidence":-1},{"trial_n":15,"span":5,"encoder":"26416","distractor":"46416","target":"present","response":"present","rt":"1395","correct":true,"confidence":-1},{"trial_n":16,"span":5,"encoder":"85310","distractor":"85314","target":"present","response":"present","rt":"1270","correct":true,"confidence":-1},{"trial_n":17,"span":6,"encoder":"195796","distractor":"195746","target":"present","response":"present","rt":"1368","correct":true,"confidence":-1},{"trial_n":18,"span":6,"encoder":"457740","distractor":"457742","target":"present","response":"present","rt":"738","correct":true,"confidence":-1},{"trial_n":19,"span":7,"encoder":"8368593","distractor":"8328593","target":"present","response":"present","rt":"2162","correct":true,"confidence":-1},{"trial_n":20,"span":7,"encoder":"0859734","distractor":"0854734","target":"present","response":"present","rt":"4302","correct":true,"confidence":-1},{"trial_n":21,"span":8,"encoder":"80725103","distractor":"84725103","target":"absent","response":"present","rt":"4765","correct":false,"confidence":3},{"trial_n":22,"span":7,"encoder":"7776237","distractor":"7774237","target":"absent","response":"absent","rt":"1922","correct":true,"confidence":3},{"trial_n":23,"span":7,"encoder":"7685786","distractor":"7682786","target":"absent","response":"absent","rt":"2033","correct":true,"confidence":3},{"trial_n":24,"span":8,"encoder":"84903919","distractor":"84103919","target":"absent","response":"present","rt":"3135","correct":false,"confidence":2},{"trial_n":25,"span":7,"encoder":"0590465","distractor":"0594465","target":"present","response":"present","rt":"2144","correct":true,"confidence":3},{"trial_n":26,"span":7,"encoder":"3412042","distractor":"5412042","target":"absent","response":"absent","rt":"3895","correct":true,"confidence":1},{"trial_n":27,"span":8,"encoder":"02786925","distractor":"02786924","target":"absent","response":"absent","rt":"3502","correct":true,"confidence":2},{"trial_n":28,"span":8,"encoder":"60188821","distractor":"60183821","target":"absent","response":"present","rt":"4249","correct":false,"confidence":1},{"trial_n":29,"span":7,"encoder":"2185684","distractor":"2585684","target":"present","response":"present","rt":"2585","correct":true,"confidence":2},{"trial_n":30,"span":7,"encoder":"8843204","distractor":"8843201","target":"present","response":"present","rt":"1460","correct":true,"confidence":3},{"trial_n":31,"span":8,"encoder":"57677321","distractor":"57677324","target":"absent","response":"absent","rt":"2176","correct":true,"confidence":3},{"trial_n":32,"span":8,"encoder":"95895078","distractor":"25895078","target":"present","response":"present","rt":"3204","correct":true,"confidence":2},{"trial_n":33,"span":9,"encoder":"635811053","distractor":"635811043","target":"present","response":"present","rt":"3395","correct":true,"confidence":2},{"trial_n":34,"span":9,"encoder":"611666977","distractor":"611626977","target":"absent","response":"absent","rt":"4641","correct":true,"confidence":1},{"trial_n":35,"span":10,"encoder":"3942586669","distractor":"3942486669","target":"absent","response":"absent","rt":"2198","correct":true,"confidence":1},{"trial_n":36,"span":10,"encoder":"3707350569","distractor":"3707350529","target":"absent","response":"absent","rt":"2434","correct":true,"confidence":4},{"trial_n":37,"span":11,"encoder":"11850243070","distractor":"11850243060","target":"present","response":"present","rt":"3634","correct":true,"confidence":2},{"trial_n":38,"span":11,"encoder":"81566392163","distractor":"81566332163","target":"present","response":"present","rt":"4042","correct":true,"confidence":1},{"trial_n":39,"span":12,"encoder":"446993717570","distractor":"416993717570","target":"present","response":"present","rt":"2675","correct":true,"confidence":1},{"trial_n":40,"span":12,"encoder":"503627123859","distractor":"503627123851","target":"absent","response":"absent","rt":"1740","correct":true,"confidence":5},{"trial_n":41,"span":13,"encoder":"6490476050007","distractor":"6490476070007","target":"absent","response":"absent","rt":"2878","correct":true,"confidence":3},{"trial_n":42,"span":13,"encoder":"4909131487837","distractor":"4909181487837","target":"present","response":"present","rt":"2331","correct":true,"confidence":2},{"trial_n":43,"span":14,"encoder":"84467663953680","distractor":"84467663953683","target":"absent","response":"absent","rt":"3328","correct":true,"confidence":5},{"trial_n":44,"span":14,"encoder":"89782339004250","distractor":"89782339014250","target":"absent","response":"absent","rt":"1962.0000000001","correct":true,"confidence":1},{"trial_n":45,"span":15,"encoder":"961423157759441","distractor":"961423157719441","target":"present","response":"present","rt":"2482","correct":true,"confidence":1},{"trial_n":46,"span":15,"encoder":"280647868244964","distractor":"280647868244965","target":"absent","response":"absent","rt":"1564","correct":true,"confidence":5},{"trial_n":47,"span":16,"encoder":"9889225212676362","distractor":"9889225212876362","target":"present","response":"present","rt":"3118.0000000001","correct":true,"confidence":2},{"trial_n":48,"span":16,"encoder":"6070262570239089","distractor":"6060262570239089","target":"present","response":"present","rt":"2671.9999999999","correct":true,"confidence":2},{"trial_n":49,"span":17,"encoder":"10942592451447633","distractor":"10942592401447633","target":"absent","response":"present","rt":"2154","correct":false,"confidence":2},{"trial_n":50,"span":16,"encoder":"8712446761514796","distractor":"8712846761514796","target":"present","response":"absent","rt":"3063.0000000001","correct":false,"confidence":3},{"trial_n":51,"span":15,"encoder":"574861556624137","distractor":"524861556624137","target":"present","response":"present","rt":"3201.0000000001","correct":true,"confidence":2},{"trial_n":52,"span":15,"encoder":"394621940946487","distractor":"394651940946487","target":"present","response":"present","rt":"4133.9999999999","correct":true,"confidence":3},{"trial_n":53,"span":16,"encoder":"6786418616956483","distractor":"6786418616956482","target":"present","response":"present","rt":"3106.9999999999","correct":true,"confidence":3},{"trial_n":54,"span":16,"encoder":"5483478036687776","distractor":"5383478036687776","target":"absent","response":"present","rt":"3513.9999999999","correct":false,"confidence":1},{"trial_n":55,"span":15,"encoder":"440446218058103","distractor":"440446218058203","target":"absent","response":"absent","rt":"2932.0000000001","correct":true,"confidence":4},{"trial_n":56,"span":15,"encoder":"277713014948034","distractor":"277763014948034","target":"absent","response":"present","rt":"5210.0000000001","correct":false,"confidence":2},{"trial_n":57,"span":14,"encoder":"60161208788517","distractor":"60161208788537","target":"absent","response":"absent","rt":"3994.0000000001","correct":true,"confidence":4},{"trial_n":58,"span":14,"encoder":"26199567258299","distractor":"26199566258299","target":"present","response":"absent","rt":"3256","correct":false,"confidence":1},{"trial_n":59,"span":13,"encoder":"3387359610112","distractor":"3387359610412","target":"present","response":"absent","rt":"4486","correct":false,"confidence":1},{"trial_n":60,"span":12,"encoder":"514881494491","distractor":"514881454491","target":"absent","response":"absent","rt":"2751","correct":true,"confidence":4},{"trial_n":61,"span":12,"encoder":"348360621123","distractor":"348390621123","target":"present","response":"present","rt":"2434","correct":true,"confidence":2},{"trial_n":62,"span":13,"encoder":"2177127334514","distractor":"2177127394514","target":"absent","response":"present","rt":"3671","correct":false,"confidence":2},{"trial_n":63,"span":12,"encoder":"661937185806","distractor":"660937185806","target":"present","response":"present","rt":"2085","correct":true,"confidence":2},{"trial_n":64,"span":12,"encoder":"170188066681","distractor":"171188066681","target":"absent","response":"absent","rt":"2431","correct":true,"confidence":4},{"trial_n":65,"span":13,"encoder":"7925852062849","distractor":"7925852062809","target":"absent","response":"absent","rt":"5530","correct":true,"confidence":3},{"trial_n":66,"span":13,"encoder":"9061083681061","distractor":"9061083681261","target":"absent","response":"present","rt":"2876","correct":false,"confidence":2},{"trial_n":67,"span":12,"encoder":"250594327180","distractor":"280594327180","target":"absent","response":"absent","rt":"5533","correct":true,"confidence":1},{"trial_n":68,"span":12,"encoder":"040898887046","distractor":"940898887046","target":"absent","response":"present","rt":"2466.9999999999","correct":false,"confidence":3},{"trial_n":69,"span":11,"encoder":"70667414740","distractor":"70665414740","target":"absent","response":"present","rt":"4414","correct":false,"confidence":1},{"trial_n":70,"span":10,"encoder":"8878902937","distractor":"8878902933","target":"present","response":"present","rt":"2485.9999999999","correct":true,"confidence":2},{"trial_n":71,"span":8,"encoder":"22011227","distractor":"22511227","target":"present","response":"absent","rt":"6362","correct":false,"confidence":-1},{"trial_n":72,"span":7,"encoder":"5619836","distractor":"5619036","target":"present","response":"present","rt":"1905","correct":true,"confidence":-1},{"trial_n":73,"span":7,"encoder":"2683205","distractor":"2683209","target":"absent","response":"absent","rt":"1377.0000000001","correct":true,"confidence":-1},{"trial_n":74,"span":8,"encoder":"30214912","distractor":"30254912","target":"absent","response":"absent","rt":"1114.9999999999","correct":true,"confidence":-1},{"trial_n":75,"span":8,"encoder":"83600354","distractor":"83600154","target":"present","response":"present","rt":"1743","correct":true,"confidence":-1},{"trial_n":76,"span":9,"encoder":"755189288","distractor":"755189238","target":"present","response":"present","rt":"2584","correct":true,"confidence":-1},{"trial_n":77,"span":9,"encoder":"525894616","distractor":"525894816","target":"present","response":"present","rt":"1779","correct":true,"confidence":-1},{"trial_n":78,"span":10,"encoder":"0313920043","distractor":"9313920043","target":"absent","response":"present","rt":"5452.9999999999","correct":false,"confidence":-1},{"trial_n":79,"span":9,"encoder":"075705664","distractor":"075705660","target":"absent","response":"absent","rt":"3845","correct":true,"confidence":-1},{"trial_n":80,"span":9,"encoder":"578657046","distractor":"578658046","target":"present","response":"absent","rt":"4714","correct":false,"confidence":-1},{"trial_n":81,"span":8,"encoder":"63038790","distractor":"60038790","target":"absent","response":"absent","rt":"2098.9999999999","correct":true,"confidence":-1},{"trial_n":82,"span":8,"encoder":"65541361","distractor":"65531361","target":"present","response":"present","rt":"2866.9999999999","correct":true,"confidence":-1},{"trial_n":83,"span":9,"encoder":"110185925","distractor":"110145925","target":"present","response":"present","rt":"4602","correct":true,"confidence":-1},{"trial_n":84,"span":9,"encoder":"101344360","distractor":"109344360","target":"absent","response":"absent","rt":"5857","correct":true,"confidence":-1},{"trial_n":85,"span":10,"encoder":"4136781548","distractor":"4126781548","target":"present","response":"present","rt":"5223","correct":true,"confidence":-1},{"trial_n":86,"span":10,"encoder":"5659169637","distractor":"5659119637","target":"present","response":"present","rt":"5845","correct":true,"confidence":-1},{"trial_n":87,"span":11,"encoder":"33993590266","distractor":"83993590266","target":"present","response":"present","rt":"5914","correct":true,"confidence":-1},{"trial_n":88,"span":11,"encoder":"66696961894","distractor":"66690961894","target":"present","response":"present","rt":"3669","correct":true,"confidence":-1},{"trial_n":89,"span":12,"encoder":"453715388697","distractor":"453815388697","target":"present","response":"present","rt":"3716","correct":true,"confidence":-1},{"trial_n":90,"span":12,"encoder":"492638780661","distractor":"492338780661","target":"absent","response":"present","rt":"5525","correct":false,"confidence":-1},{"trial_n":91,"span":11,"encoder":"79299128170","distractor":"89299128170","target":"absent","response":"absent","rt":"4087.9999999999","correct":true,"confidence":2},{"trial_n":92,"span":11,"encoder":"28362297775","distractor":"28360297775","target":"present","response":"present","rt":"3391.0000000001","correct":true,"confidence":1},{"trial_n":93,"span":12,"encoder":"093392195058","distractor":"093392195358","target":"present","response":"present","rt":"3133","correct":true,"confidence":3},{"trial_n":94,"span":12,"encoder":"886820049212","distractor":"886820049272","target":"absent","response":"absent","rt":"3111","correct":true,"confidence":2},{"trial_n":95,"span":13,"encoder":"2711477210204","distractor":"2711577210204","target":"present","response":"present","rt":"4123","correct":true,"confidence":2},{"trial_n":96,"span":13,"encoder":"9659459522084","distractor":"9659459522684","target":"present","response":"present","rt":"1975","correct":true,"confidence":4},{"trial_n":97,"span":14,"encoder":"97125671727377","distractor":"97125661727377","target":"present","response":"absent","rt":"7526","correct":false,"confidence":1},{"trial_n":98,"span":13,"encoder":"1720158100706","distractor":"1920158100706","target":"absent","response":"absent","rt":"3303","correct":true,"confidence":2},{"trial_n":99,"span":13,"encoder":"0424578901324","distractor":"0424578901024","target":"absent","response":"present","rt":"4518","correct":false,"confidence":2},{"trial_n":100,"span":12,"encoder":"386250232002","distractor":"386210232002","target":"absent","response":"present","rt":"4370","correct":false,"confidence":2},{"trial_n":101,"span":11,"encoder":"06015458863","distractor":"06015458843","target":"absent","response":"absent","rt":"1443","correct":true,"confidence":4},{"trial_n":102,"span":11,"encoder":"39459192702","distractor":"39459192752","target":"absent","response":"absent","rt":"1837.9999999999","correct":true,"confidence":3},{"trial_n":103,"span":12,"encoder":"941910621089","distractor":"941910625089","target":"absent","response":"absent","rt":"2275","correct":true,"confidence":3},{"trial_n":104,"span":12,"encoder":"243374115984","distractor":"243374175984","target":"present","response":"absent","rt":"4313","correct":false,"confidence":2},{"trial_n":105,"span":11,"encoder":"87033290432","distractor":"87033290492","target":"present","response":"present","rt":"2178.9999999999","correct":true,"confidence":4},{"trial_n":106,"span":11,"encoder":"52683678261","distractor":"52603678261","target":"absent","response":"present","rt":"3149.9999999999","correct":false,"confidence":1},{"trial_n":107,"span":10,"encoder":"2151364181","distractor":"2151364180","target":"absent","response":"absent","rt":"1275.0000000001","correct":true,"confidence":4},{"trial_n":108,"span":10,"encoder":"9834824023","distractor":"9834824028","target":"absent","response":"absent","rt":"2617.0000000002","correct":true,"confidence":3},{"trial_n":109,"span":11,"encoder":"47911715152","distractor":"47911715158","target":"absent","response":"absent","rt":"1451","correct":true,"confidence":2},{"trial_n":110,"span":11,"encoder":"30117505192","distractor":"30117505162","target":"present","response":"present","rt":"1546","correct":true,"confidence":3},{"trial_n":111,"span":12,"encoder":"277083088272","distractor":"277083038272","target":"absent","response":"absent","rt":"3243","correct":true,"confidence":2},{"trial_n":112,"span":12,"encoder":"648440845746","distractor":"648440845748","target":"present","response":"present","rt":"1524","correct":true,"confidence":4},{"trial_n":113,"span":13,"encoder":"5733210498754","distractor":"5733260498754","target":"present","response":"present","rt":"5091","correct":true,"confidence":1},{"trial_n":114,"span":13,"encoder":"4672897860622","distractor":"4672847860622","target":"present","response":"present","rt":"2730","correct":true,"confidence":1},{"trial_n":115,"span":14,"encoder":"69261865107488","distractor":"69261865107482","target":"absent","response":"absent","rt":"1561","correct":true,"confidence":1},{"trial_n":116,"span":14,"encoder":"01410059893809","distractor":"01410057893809","target":"absent","response":"absent","rt":"2958","correct":true,"confidence":1},{"trial_n":117,"span":15,"encoder":"792796191870095","distractor":"792796191877095","target":"absent","response":"absent","rt":"2719","correct":true,"confidence":3},{"trial_n":118,"span":15,"encoder":"333284246452800","distractor":"336284246452800","target":"absent","response":"present","rt":"5146","correct":false,"confidence":2},{"trial_n":119,"span":14,"encoder":"19643522969412","distractor":"19643527969412","target":"absent","response":"absent","rt":"27436","correct":true,"confidence":1},{"trial_n":120,"span":14,"encoder":"73959945563378","distractor":"73159945563378","target":"absent","response":"present","rt":"23594","correct":false,"confidence":1},{"trial_n":121,"span":13,"encoder":"9947582402729","distractor":"9947582402329","target":"present","response":"absent","rt":"9991","correct":false,"confidence":1},{"trial_n":122,"span":12,"encoder":"992674358209","distractor":"990674358209","target":"absent","response":"absent","rt":"2591","correct":true,"confidence":4},{"trial_n":123,"span":12,"encoder":"196021283524","distractor":"196001283524","target":"present","response":"present","rt":"3063","correct":true,"confidence":5},{"trial_n":124,"span":13,"encoder":"1757260769450","distractor":"1757260759450","target":"absent","response":"absent","rt":"9106","correct":true,"confidence":1},{"trial_n":125,"span":13,"encoder":"2723150968996","distractor":"2723150908996","target":"present","response":"absent","rt":"11680","correct":false,"confidence":1},{"trial_n":126,"span":12,"encoder":"481753514634","distractor":"481753584634","target":"absent","response":"absent","rt":"10791","correct":true,"confidence":1},{"trial_n":127,"span":12,"encoder":"245843662099","distractor":"215843662099","target":"absent","response":"absent","rt":"4581","correct":true,"confidence":2},{"trial_n":128,"span":13,"encoder":"0406910498924","distractor":"0406910448924","target":"present","response":"absent","rt":"4818","correct":false,"confidence":1},{"trial_n":129,"span":12,"encoder":"909824367275","distractor":"909824367215","target":"present","response":"absent","rt":"12608","correct":false,"confidence":1},{"trial_n":130,"span":11,"encoder":"68725217164","distractor":"68725217160","target":"present","response":"present","rt":"2928.9999999998","correct":true,"confidence":3},{"trial_n":131,"span":11,"encoder":"57531565742","distractor":"57531565744","target":"present","response":"present","rt":"2927","correct":true,"confidence":4},{"trial_n":132,"span":12,"encoder":"401246397773","distractor":"401246395773","target":"absent","response":"absent","rt":"12020","correct":true,"confidence":1},{"trial_n":133,"span":12,"encoder":"976556652662","distractor":"976556652162","target":"present","response":"present","rt":"6858","correct":true,"confidence":1},{"trial_n":134,"span":13,"encoder":"2040887155278","distractor":"2040887195278","target":"absent","response":"present","rt":"3729","correct":false,"confidence":1},{"trial_n":135,"span":12,"encoder":"924393457196","distractor":"924393457096","target":"present","response":"absent","rt":"4327","correct":false,"confidence":1},{"trial_n":136,"span":11,"encoder":"70030123936","distractor":"70030133936","target":"present","response":"present","rt":"4951","correct":true,"confidence":1},{"trial_n":137,"span":11,"encoder":"08412664129","distractor":"08412664122","target":"present","response":"present","rt":"4285.0000000002","correct":true,"confidence":4},{"trial_n":138,"span":12,"encoder":"469261513558","distractor":"469261113558","target":"absent","response":"absent","rt":"3589","correct":true,"confidence":4},{"trial_n":139,"span":12,"encoder":"590651139708","distractor":"590611139708","target":"present","response":"present","rt":"2702","correct":true,"confidence":1},{"trial_n":140,"span":13,"encoder":"7236772898603","distractor":"7276772898603","target":"absent","response":"present","rt":"6631","correct":false,"confidence":1}]