[{"trial_n":1,"min":25,"max":230,"target":"present","response":"absent","rt":2807,"correct":false,"confidence":-1},{"trial_n":2,"min":25,"max":230,"target":"present","response":"present","rt":945,"correct":true,"confidence":-1},{"trial_n":3,"min":25,"max":230,"target":"absent","response":"absent","rt":3125,"correct":true,"confidence":-1},{"trial_n":4,"min":41,"max":214,"target":"absent","response":"absent","rt":784,"correct":true,"confidence":-1},{"trial_n":5,"min":41,"max":214,"target":"present","response":"present","rt":569,"correct":true,"confidence":-1},{"trial_n":6,"min":57,"max":198,"target":"present","response":"present","rt":604,"correct":true,"confidence":-1},{"trial_n":7,"min":57,"max":198,"target":"present","response":"present","rt":689,"correct":true,"confidence":-1},{"trial_n":8,"min":73,"max":182,"target":"absent","response":"absent","rt":793,"correct":true,"confidence":-1},{"trial_n":9,"min":73,"max":182,"target":"absent","response":"absent","rt":1157,"correct":true,"confidence":-1},{"trial_n":10,"min":89,"max":166,"target":"absent","response":"absent","rt":635,"correct":true,"confidence":-1},{"trial_n":11,"min":89,"max":166,"target":"present","response":"present","rt":733,"correct":true,"confidence":-1},{"trial_n":12,"min":97,"max":158,"target":"absent","response":"absent","rt":657,"correct":true,"confidence":-1},{"trial_n":13,"min":97,"max":158,"target":"present","response":"absent","rt":585,"correct":false,"confidence":-1},{"trial_n":14,"min":89,"max":166,"target":"absent","response":"absent","rt":749,"correct":true,"confidence":-1},{"trial_n":15,"min":89,"max":166,"target":"absent","response":"absent","rt":704,"correct":true,"confidence":-1},{"trial_n":16,"min":97,"max":158,"target":"absent","response":"absent","rt":542,"correct":true,"confidence":-1},{"trial_n":17,"min":97,"max":158,"target":"absent","response":"absent","rt":1108,"correct":true,"confidence":-1},{"trial_n":18,"min":105,"max":150,"target":"absent","response":"absent","rt":680,"correct":true,"confidence":-1},{"trial_n":19,"min":105,"max":150,"target":"present","response":"absent","rt":611,"correct":false,"confidence":-1},{"trial_n":20,"min":97,"max":158,"target":"present","response":"absent","rt":910,"correct":false,"confidence":-1},{"trial_n":21,"min":93,"max":162,"target":"present","response":"absent","rt":1019,"correct":false,"confidence":4},{"trial_n":22,"min":89,"max":166,"target":"absent","response":"present","rt":960,"correct":false,"confidence":4},{"trial_n":23,"min":85,"max":170,"target":"present","response":"absent","rt":1200,"correct":false,"confidence":3},{"trial_n":24,"min":81,"max":174,"target":"absent","response":"present","rt":4464,"correct":false,"confidence":2},{"trial_n":25,"min":77,"max":178,"target":"present","response":"present","rt":1151,"correct":true,"confidence":3},{"trial_n":26,"min":77,"max":178,"target":"absent","response":"absent","rt":924,"correct":true,"confidence":3},{"trial_n":27,"min":81,"max":174,"target":"present","response":"absent","rt":2681,"correct":false,"confidence":4},{"trial_n":28,"min":77,"max":178,"target":"present","response":"absent","rt":1110,"correct":false,"confidence":4},{"trial_n":29,"min":73,"max":182,"target":"present","response":"present","rt":2002,"correct":true,"confidence":5},{"trial_n":30,"min":73,"max":182,"target":"present","response":"present","rt":896,"correct":true,"confidence":5},{"trial_n":31,"min":75,"max":180,"target":"present","response":"present","rt":1092,"correct":true,"confidence":5},{"trial_n":32,"min":75,"max":180,"target":"absent","response":"absent","rt":932,"correct":true,"confidence":4},{"trial_n":33,"min":77,"max":178,"target":"present","response":"present","rt":1649,"correct":true,"confidence":5},{"trial_n":34,"min":77,"max":178,"target":"present","response":"present","rt":929,"correct":true,"confidence":5},{"trial_n":35,"min":79,"max":176,"target":"present","response":"present","rt":703,"correct":true,"confidence":5},{"trial_n":36,"min":79,"max":176,"target":"absent","response":"absent","rt":951,"correct":true,"confidence":2},{"trial_n":37,"min":81,"max":174,"target":"absent","response":"absent","rt":977,"correct":true,"confidence":4},{"trial_n":38,"min":81,"max":174,"target":"absent","response":"absent","rt":905,"correct":true,"confidence":4},{"trial_n":39,"min":83,"max":172,"target":"absent","response":"absent","rt":730,"correct":true,"confidence":1},{"trial_n":40,"min":83,"max":172,"target":"absent","response":"absent","rt":2094,"correct":true,"confidence":3},{"trial_n":41,"min":84,"max":171,"target":"absent","response":"absent","rt":1152,"correct":true,"confidence":5},{"trial_n":42,"min":84,"max":171,"target":"present","response":"present","rt":925,"correct":true,"confidence":3},{"trial_n":43,"min":85,"max":170,"target":"absent","response":"absent","rt":1151,"correct":true,"confidence":5},{"trial_n":44,"min":85,"max":170,"target":"absent","response":"absent","rt":911,"correct":true,"confidence":5},{"trial_n":45,"min":86,"max":169,"target":"present","response":"present","rt":1112,"correct":true,"confidence":3},{"trial_n":46,"min":86,"max":169,"target":"absent","response":"absent","rt":923,"correct":true,"confidence":5},{"trial_n":47,"min":87,"max":168,"target":"present","response":"absent","rt":1658,"correct":false,"confidence":4},{"trial_n":48,"min":86,"max":169,"target":"present","response":"absent","rt":937,"correct":false,"confidence":5},{"trial_n":49,"min":85,"max":170,"target":"present","response":"present","rt":924,"correct":true,"confidence":3},{"trial_n":50,"min":85,"max":170,"target":"present","response":"absent","rt":962,"correct":false,"confidence":4},{"trial_n":51,"min":84,"max":171,"target":"absent","response":"absent","rt":1301,"correct":true,"confidence":3},{"trial_n":52,"min":84,"max":171,"target":"absent","response":"absent","rt":808,"correct":true,"confidence":5},{"trial_n":53,"min":85,"max":170,"target":"present","response":"present","rt":844,"correct":true,"confidence":3},{"trial_n":54,"min":85,"max":170,"target":"present","response":"absent","rt":928,"correct":false,"confidence":4},{"trial_n":55,"min":84,"max":171,"target":"present","response":"absent","rt":732,"correct":false,"confidence":4},{"trial_n":56,"min":83,"max":172,"target":"absent","response":"absent","rt":914,"correct":true,"confidence":4},{"trial_n":57,"min":83,"max":172,"target":"present","response":"absent","rt":917,"correct":false,"confidence":5},{"trial_n":58,"min":82,"max":173,"target":"absent","response":"absent","rt":651,"correct":true,"confidence":5},{"trial_n":59,"min":82,"max":173,"target":"absent","response":"absent","rt":715,"correct":true,"confidence":5},{"trial_n":60,"min":83,"max":172,"target":"absent","response":"absent","rt":751,"correct":true,"confidence":4},{"trial_n":61,"min":83,"max":172,"target":"absent","response":"absent","rt":2153,"correct":true,"confidence":3},{"trial_n":62,"min":84,"max":171,"target":"present","response":"present","rt":1850,"correct":true,"confidence":5},{"trial_n":63,"min":84,"max":171,"target":"absent","response":"absent","rt":842,"correct":true,"confidence":3},{"trial_n":64,"min":85,"max":170,"target":"present","response":"present","rt":1305,"correct":true,"confidence":3},{"trial_n":65,"min":85,"max":170,"target":"present","response":"absent","rt":927,"correct":false,"confidence":5},{"trial_n":66,"min":84,"max":171,"target":"present","response":"present","rt":950,"correct":true,"confidence":5},{"trial_n":67,"min":84,"max":171,"target":"present","response":"present","rt":878,"correct":true,"confidence":5},{"trial_n":68,"min":85,"max":170,"target":"present","response":"present","rt":1320,"correct":true,"confidence":5},{"trial_n":69,"min":85,"max":170,"target":"absent","response":"absent","rt":732,"correct":true,"confidence":4},{"trial_n":70,"min":86,"max":169,"target":"absent","response":"absent","rt":821,"correct":true,"confidence":5},{"trial_n":71,"min":41,"max":214,"target":"present","response":"present","rt":2792,"correct":true,"confidence":-1},{"trial_n":72,"min":41,"max":214,"target":"present","response":"present","rt":544,"correct":true,"confidence":-1},{"trial_n":73,"min":57,"max":198,"target":"absent","response":"absent","rt":365,"correct":true,"confidence":-1},{"trial_n":74,"min":57,"max":198,"target":"absent","response":"absent","rt":311,"correct":true,"confidence":-1},{"trial_n":75,"min":73,"max":182,"target":"present","response":"present","rt":375,"correct":true,"confidence":-1},{"trial_n":76,"min":73,"max":182,"target":"present","response":"present","rt":495,"correct":true,"confidence":-1},{"trial_n":77,"min":89,"max":166,"target":"present","response":"present","rt":294,"correct":true,"confidence":-1},{"trial_n":78,"min":89,"max":166,"target":"present","response":"present","rt":812,"correct":true,"confidence":-1},{"trial_n":79,"min":105,"max":150,"target":"present","response":"absent","rt":679,"correct":false,"confidence":-1},{"trial_n":80,"min":89,"max":166,"target":"absent","response":"present","rt":585,"correct":false,"confidence":-1},{"trial_n":81,"min":81,"max":174,"target":"absent","response":"absent","rt":705,"correct":true,"confidence":-1},{"trial_n":82,"min":81,"max":174,"target":"present","response":"present","rt":1220,"correct":true,"confidence":-1},{"trial_n":83,"min":89,"max":166,"target":"present","response":"absent","rt":672,"correct":false,"confidence":-1},{"trial_n":84,"min":81,"max":174,"target":"present","response":"present","rt":427,"correct":true,"confidence":-1},{"trial_n":85,"min":81,"max":174,"target":"absent","response":"present","rt":806,"correct":false,"confidence":-1},{"trial_n":86,"min":73,"max":182,"target":"present","response":"absent","rt":1606,"correct":false,"confidence":-1},{"trial_n":87,"min":65,"max":190,"target":"absent","response":"absent","rt":478,"correct":true,"confidence":-1},{"trial_n":88,"min":65,"max":190,"target":"absent","response":"absent","rt":482,"correct":true,"confidence":-1},{"trial_n":89,"min":73,"max":182,"target":"present","response":"present","rt":657,"correct":true,"confidence":-1},{"trial_n":90,"min":73,"max":182,"target":"present","response":"present","rt":478,"correct":true,"confidence":-1},{"trial_n":91,"min":77,"max":178,"target":"absent","response":"absent","rt":1261,"correct":true,"confidence":4},{"trial_n":92,"min":77,"max":178,"target":"present","response":"present","rt":322,"correct":true,"confidence":5},{"trial_n":93,"min":81,"max":174,"target":"absent","response":"absent","rt":607,"correct":true,"confidence":4},{"trial_n":94,"min":81,"max":174,"target":"present","response":"present","rt":602,"correct":true,"confidence":4},{"trial_n":95,"min":85,"max":170,"target":"absent","response":"absent","rt":805,"correct":true,"confidence":5},{"trial_n":96,"min":85,"max":170,"target":"absent","response":"present","rt":1107,"correct":false,"confidence":1},{"trial_n":97,"min":81,"max":174,"target":"present","response":"absent","rt":713,"correct":false,"confidence":1},{"trial_n":98,"min":77,"max":178,"target":"absent","response":"absent","rt":740,"correct":true,"confidence":5},{"trial_n":99,"min":77,"max":178,"target":"absent","response":"present","rt":476,"correct":false,"confidence":2},{"trial_n":100,"min":73,"max":182,"target":"present","response":"present","rt":307,"correct":true,"confidence":4},{"trial_n":101,"min":73,"max":182,"target":"absent","response":"absent","rt":449,"correct":true,"confidence":4},{"trial_n":102,"min":75,"max":180,"target":"present","response":"present","rt":361,"correct":true,"confidence":4},{"trial_n":103,"min":75,"max":180,"target":"absent","response":"absent","rt":495,"correct":true,"confidence":1},{"trial_n":104,"min":77,"max":178,"target":"present","response":"present","rt":257,"correct":true,"confidence":5},{"trial_n":105,"min":77,"max":178,"target":"absent","response":"absent","rt":480,"correct":true,"confidence":4},{"trial_n":106,"min":79,"max":176,"target":"present","response":"present","rt":515,"correct":true,"confidence":4},{"trial_n":107,"min":79,"max":176,"target":"present","response":"present","rt":402,"correct":true,"confidence":5},{"trial_n":108,"min":81,"max":174,"target":"absent","response":"absent","rt":460,"correct":true,"confidence":2},{"trial_n":109,"min":81,"max":174,"target":"present","response":"present","rt":377,"correct":true,"confidence":4},{"trial_n":110,"min":83,"max":172,"target":"absent","response":"absent","rt":472,"correct":true,"confidence":4},{"trial_n":111,"min":83,"max":172,"target":"absent","response":"present","rt":1330,"correct":false,"confidence":1},{"trial_n":112,"min":82,"max":173,"target":"present","response":"present","rt":572,"correct":true,"confidence":1},{"trial_n":113,"min":82,"max":173,"target":"absent","response":"absent","rt":453,"correct":true,"confidence":1},{"trial_n":114,"min":83,"max":172,"target":"present","response":"present","rt":413,"correct":true,"confidence":4},{"trial_n":115,"min":83,"max":172,"target":"absent","response":"absent","rt":577,"correct":true,"confidence":1},{"trial_n":116,"min":84,"max":171,"target":"absent","response":"present","rt":835,"correct":false,"confidence":1},{"trial_n":117,"min":83,"max":172,"target":"absent","response":"absent","rt":455,"correct":true,"confidence":1},{"trial_n":118,"min":83,"max":172,"target":"present","response":"present","rt":387,"correct":true,"confidence":5},{"trial_n":119,"min":84,"max":171,"target":"absent","response":"absent","rt":564,"correct":true,"confidence":1},{"trial_n":120,"min":84,"max":171,"target":"absent","response":"absent","rt":545,"correct":true,"confidence":1},{"trial_n":121,"min":85,"max":170,"target":"present","response":"present","rt":352,"correct":true,"confidence":4},{"trial_n":122,"min":85,"max":170,"target":"present","response":"present","rt":376,"correct":true,"confidence":4},{"trial_n":123,"min":86,"max":169,"target":"absent","response":"absent","rt":730,"correct":true,"confidence":1},{"trial_n":124,"min":86,"max":169,"target":"present","response":"present","rt":662,"correct":true,"confidence":1},{"trial_n":125,"min":87,"max":168,"target":"present","response":"present","rt":1040,"correct":true,"confidence":1},{"trial_n":126,"min":87,"max":168,"target":"present","response":"absent","rt":1202,"correct":false,"confidence":2},{"trial_n":127,"min":86,"max":169,"target":"absent","response":"present","rt":467,"correct":false,"confidence":2},{"trial_n":128,"min":85,"max":170,"target":"absent","response":"present","rt":767,"correct":false,"confidence":2},{"trial_n":129,"min":84,"max":171,"target":"absent","response":"absent","rt":831,"correct":true,"confidence":2},{"trial_n":130,"min":84,"max":171,"target":"absent","response":"absent","rt":635,"correct":true,"confidence":2},{"trial_n":131,"min":85,"max":170,"target":"present","response":"present","rt":388,"correct":true,"confidence":3},{"trial_n":132,"min":85,"max":170,"target":"present","response":"present","rt":406,"correct":true,"confidence":2},{"trial_n":133,"min":86,"max":169,"target":"absent","response":"present","rt":767,"correct":false,"confidence":1},{"trial_n":134,"min":85,"max":170,"target":"present","response":"present","rt":743,"correct":true,"confidence":2},{"trial_n":135,"min":85,"max":170,"target":"absent","response":"present","rt":505,"correct":false,"confidence":2},{"trial_n":136,"min":84,"max":171,"target":"present","response":"absent","rt":385,"correct":false,"confidence":2},{"trial_n":137,"min":83,"max":172,"target":"absent","response":"present","rt":1039,"correct":false,"confidence":2},{"trial_n":138,"min":82,"max":173,"target":"present","response":"present","rt":364,"correct":true,"confidence":4},{"trial_n":139,"min":82,"max":173,"target":"absent","response":"absent","rt":802,"correct":true,"confidence":4},{"trial_n":140,"min":83,"max":172,"target":"present","response":"present","rt":676,"correct":true,"confidence":2}]