[{"trial_n":1,"span":8,"encoder":"72542945","distractor":"02542945","target":"present","response":"present","rt":"4206","correct":true,"confidence":-1},{"trial_n":2,"span":8,"encoder":"15529426","distractor":"15529421","target":"present","response":"present","rt":"2956","correct":true,"confidence":-1},{"trial_n":3,"span":10,"encoder":"1334991991","distractor":"1334991191","target":"absent","response":"present","rt":"3309","correct":false,"confidence":-1},{"trial_n":4,"span":8,"encoder":"13973951","distractor":"83973951","target":"absent","response":"absent","rt":"1813","correct":true,"confidence":-1},{"trial_n":5,"span":8,"encoder":"29275432","distractor":"29875432","target":"present","response":"present","rt":"2108","correct":true,"confidence":-1},{"trial_n":6,"span":10,"encoder":"7172536732","distractor":"7172532732","target":"absent","response":"present","rt":"3811","correct":false,"confidence":-1},{"trial_n":7,"span":8,"encoder":"77392492","distractor":"77398492","target":"present","response":"present","rt":"1694","correct":true,"confidence":-1},{"trial_n":8,"span":8,"encoder":"60598788","distractor":"60593788","target":"absent","response":"absent","rt":"1333","correct":true,"confidence":-1},{"trial_n":9,"span":10,"encoder":"8146618235","distractor":"8148618235","target":"absent","response":"absent","rt":"1848","correct":true,"confidence":-1},{"trial_n":10,"span":10,"encoder":"4080230871","distractor":"4080236871","target":"absent","response":"absent","rt":"1754","correct":true,"confidence":-1},{"trial_n":11,"span":12,"encoder":"879713681051","distractor":"879713684051","target":"absent","response":"present","rt":"2390","correct":false,"confidence":-1},{"trial_n":12,"span":11,"encoder":"22705257417","distractor":"22205257417","target":"absent","response":"absent","rt":"3294","correct":true,"confidence":-1},{"trial_n":13,"span":11,"encoder":"42604342576","distractor":"42604345576","target":"present","response":"present","rt":"1405","correct":true,"confidence":-1},{"trial_n":14,"span":12,"encoder":"864567239897","distractor":"564567239897","target":"absent","response":"absent","rt":"1759","correct":true,"confidence":-1},{"trial_n":15,"span":12,"encoder":"777390691825","distractor":"777397691825","target":"absent","response":"present","rt":"1639","correct":false,"confidence":-1},{"trial_n":16,"span":11,"encoder":"19380565065","distractor":"19380585065","target":"present","response":"present","rt":"1004","correct":true,"confidence":-1},{"trial_n":17,"span":11,"encoder":"76727383429","distractor":"76707383429","target":"present","response":"absent","rt":"1256","correct":false,"confidence":-1},{"trial_n":18,"span":10,"encoder":"1423131354","distractor":"1423101354","target":"present","response":"present","rt":"1198","correct":true,"confidence":-1},{"trial_n":19,"span":10,"encoder":"2911592622","distractor":"2911592662","target":"present","response":"absent","rt":"1508","correct":false,"confidence":-1},{"trial_n":20,"span":9,"encoder":"897486147","distractor":"897486149","target":"absent","response":"present","rt":"1258","correct":false,"confidence":-1},{"trial_n":21,"span":8,"encoder":"01622025","distractor":"01632025","target":"present","response":"present","rt":"1929","correct":true,"confidence":4},{"trial_n":22,"span":8,"encoder":"06650393","distractor":"06650383","target":"absent","response":"absent","rt":"2534","correct":true,"confidence":5},{"trial_n":23,"span":9,"encoder":"303747591","distractor":"303748591","target":"present","response":"present","rt":"1954","correct":true,"confidence":5},{"trial_n":24,"span":9,"encoder":"559126884","distractor":"559126184","target":"present","response":"present","rt":"2089","correct":true,"confidence":4},{"trial_n":25,"span":10,"encoder":"3003213228","distractor":"3303213228","target":"present","response":"present","rt":"2146","correct":true,"confidence":4},{"trial_n":26,"span":10,"encoder":"8883220639","distractor":"8683220639","target":"absent","response":"absent","rt":"3520","correct":true,"confidence":3},{"trial_n":27,"span":11,"encoder":"76936118629","distractor":"76936116629","target":"present","response":"present","rt":"2456","correct":true,"confidence":3},{"trial_n":28,"span":11,"encoder":"40046437041","distractor":"42046437041","target":"absent","response":"present","rt":"5378","correct":false,"confidence":5},{"trial_n":29,"span":10,"encoder":"6168194378","distractor":"7168194378","target":"absent","response":"absent","rt":"6713","correct":true,"confidence":2},{"trial_n":30,"span":10,"encoder":"9170082232","distractor":"9370082232","target":"present","response":"present","rt":"2995","correct":true,"confidence":4},{"trial_n":31,"span":11,"encoder":"17165877669","distractor":"17145877669","target":"present","response":"present","rt":"3970","correct":true,"confidence":5},{"trial_n":32,"span":11,"encoder":"78484971939","distractor":"78484970939","target":"present","response":"present","rt":"2081","correct":true,"confidence":1},{"trial_n":33,"span":12,"encoder":"485677805469","distractor":"485677805069","target":"absent","response":"present","rt":"1878","correct":false,"confidence":3},{"trial_n":34,"span":11,"encoder":"84105890384","distractor":"84165890384","target":"absent","response":"absent","rt":"2952","correct":true,"confidence":2},{"trial_n":35,"span":11,"encoder":"05230474613","distractor":"15230474613","target":"present","response":"present","rt":"4379","correct":true,"confidence":4},{"trial_n":36,"span":12,"encoder":"754773984923","distractor":"755773984923","target":"absent","response":"present","rt":"2112","correct":false,"confidence":5},{"trial_n":37,"span":11,"encoder":"74630985748","distractor":"78630985748","target":"absent","response":"absent","rt":"3211","correct":true,"confidence":2},{"trial_n":38,"span":11,"encoder":"65113110901","distractor":"65313110901","target":"present","response":"present","rt":"2134","correct":true,"confidence":3},{"trial_n":39,"span":12,"encoder":"162232746661","distractor":"162232746651","target":"absent","response":"present","rt":"2391","correct":false,"confidence":4},{"trial_n":40,"span":11,"encoder":"92923623969","distractor":"92929623969","target":"present","response":"present","rt":"2739","correct":true,"confidence":2},{"trial_n":41,"span":11,"encoder":"92042096730","distractor":"92542096730","target":"present","response":"present","rt":"3669","correct":true,"confidence":5},{"trial_n":42,"span":12,"encoder":"552986249565","distractor":"552986249505","target":"absent","response":"present","rt":"2925","correct":false,"confidence":4},{"trial_n":43,"span":11,"encoder":"70743335273","distractor":"70743385273","target":"absent","response":"absent","rt":"2104","correct":true,"confidence":4},{"trial_n":44,"span":11,"encoder":"07137305835","distractor":"07137303835","target":"present","response":"present","rt":"2295","correct":true,"confidence":1},{"trial_n":45,"span":12,"encoder":"612946542474","distractor":"612146542474","target":"present","response":"absent","rt":"20500","correct":false,"confidence":1},{"trial_n":46,"span":11,"encoder":"36511111138","distractor":"36511111135","target":"absent","response":"present","rt":"2412","correct":false,"confidence":3},{"trial_n":47,"span":10,"encoder":"6072998085","distractor":"6072998685","target":"absent","response":"present","rt":"9949","correct":false,"confidence":3},{"trial_n":48,"span":9,"encoder":"754607421","distractor":"754607441","target":"present","response":"present","rt":"1275","correct":true,"confidence":4},{"trial_n":49,"span":9,"encoder":"750049792","distractor":"750099792","target":"absent","response":"absent","rt":"3837","correct":true,"confidence":5},{"trial_n":50,"span":10,"encoder":"8489860930","distractor":"3489860930","target":"absent","response":"absent","rt":"6863","correct":true,"confidence":5},{"trial_n":51,"span":10,"encoder":"7389398574","distractor":"7385398574","target":"present","response":"present","rt":"1450","correct":true,"confidence":4},{"trial_n":52,"span":11,"encoder":"21420877681","distractor":"21420777681","target":"absent","response":"present","rt":"2301","correct":false,"confidence":4},{"trial_n":53,"span":10,"encoder":"5625948299","distractor":"5425948299","target":"present","response":"present","rt":"1525","correct":true,"confidence":5},{"trial_n":54,"span":10,"encoder":"8391413118","distractor":"8591413118","target":"absent","response":"present","rt":"1628","correct":false,"confidence":4},{"trial_n":55,"span":9,"encoder":"192816003","distractor":"192816503","target":"absent","response":"absent","rt":"1381","correct":true,"confidence":5},{"trial_n":56,"span":9,"encoder":"794640572","distractor":"744640572","target":"present","response":"present","rt":"3952","correct":true,"confidence":5},{"trial_n":57,"span":10,"encoder":"4213186984","distractor":"4213186924","target":"present","response":"present","rt":"4194","correct":true,"confidence":5},{"trial_n":58,"span":10,"encoder":"9701229582","distractor":"9701229584","target":"absent","response":"absent","rt":"2770","correct":true,"confidence":5},{"trial_n":59,"span":11,"encoder":"02850095233","distractor":"02853095233","target":"present","response":"present","rt":"1971","correct":true,"confidence":4},{"trial_n":60,"span":11,"encoder":"88421687094","distractor":"88721687094","target":"absent","response":"present","rt":"2801","correct":false,"confidence":2},{"trial_n":61,"span":10,"encoder":"4265910136","distractor":"4265970136","target":"absent","response":"present","rt":"1518","correct":false,"confidence":3},{"trial_n":62,"span":9,"encoder":"421588861","distractor":"481588861","target":"present","response":"absent","rt":"2551","correct":false,"confidence":4},{"trial_n":63,"span":8,"encoder":"98749703","distractor":"98709703","target":"present","response":"present","rt":"4330","correct":true,"confidence":4},{"trial_n":64,"span":8,"encoder":"62046009","distractor":"62046079","target":"present","response":"present","rt":"2491","correct":true,"confidence":5},{"trial_n":65,"span":9,"encoder":"763388315","distractor":"763388317","target":"present","response":"present","rt":"6116","correct":true,"confidence":5},{"trial_n":66,"span":9,"encoder":"344742573","distractor":"344752573","target":"absent","response":"absent","rt":"4053","correct":true,"confidence":3},{"trial_n":67,"span":10,"encoder":"8030650249","distractor":"8030650449","target":"present","response":"present","rt":"1698","correct":true,"confidence":4},{"trial_n":68,"span":10,"encoder":"0797726125","distractor":"0597726125","target":"absent","response":"present","rt":"3062","correct":false,"confidence":5},{"trial_n":69,"span":9,"encoder":"837136531","distractor":"837106531","target":"present","response":"present","rt":"2316","correct":true,"confidence":4},{"trial_n":70,"span":9,"encoder":"733153514","distractor":"733151514","target":"present","response":"present","rt":"4144","correct":true,"confidence":5},{"trial_n":71,"span":8,"encoder":"83041301","distractor":"83041361","target":"present","response":"present","rt":"4723","correct":true,"confidence":-1},{"trial_n":72,"span":8,"encoder":"66849505","distractor":"66849005","target":"present","response":"present","rt":"2284","correct":true,"confidence":-1},{"trial_n":73,"span":9,"encoder":"776907464","distractor":"776907964","target":"absent","response":"absent","rt":"1657","correct":true,"confidence":-1},{"trial_n":74,"span":9,"encoder":"786900019","distractor":"786200019","target":"absent","response":"present","rt":"4055","correct":false,"confidence":-1},{"trial_n":75,"span":8,"encoder":"97454281","distractor":"91454281","target":"present","response":"present","rt":"4612","correct":true,"confidence":-1},{"trial_n":76,"span":8,"encoder":"84361629","distractor":"34361629","target":"present","response":"present","rt":"2488","correct":true,"confidence":-1},{"trial_n":77,"span":9,"encoder":"103846411","distractor":"183846411","target":"absent","response":"present","rt":"2851","correct":false,"confidence":-1},{"trial_n":78,"span":8,"encoder":"92383303","distractor":"52383303","target":"present","response":"absent","rt":"2553","correct":false,"confidence":-1},{"trial_n":79,"span":7,"encoder":"7202847","distractor":"6202847","target":"absent","response":"present","rt":"918","correct":false,"confidence":-1},{"trial_n":80,"span":6,"encoder":"005700","distractor":"005740","target":"absent","response":"absent","rt":"2354","correct":true,"confidence":-1},{"trial_n":81,"span":6,"encoder":"371003","distractor":"371000","target":"present","response":"absent","rt":"174076","correct":false,"confidence":-1},{"trial_n":82,"span":5,"encoder":"87706","distractor":"82706","target":"present","response":"present","rt":"3964","correct":true,"confidence":-1},{"trial_n":83,"span":5,"encoder":"05742","distractor":"04742","target":"absent","response":"absent","rt":"6997","correct":true,"confidence":-1},{"trial_n":84,"span":6,"encoder":"497619","distractor":"897619","target":"present","response":"present","rt":"3679","correct":true,"confidence":-1},{"trial_n":85,"span":6,"encoder":"191269","distractor":"141269","target":"absent","response":"absent","rt":"9633","correct":true,"confidence":-1},{"trial_n":86,"span":7,"encoder":"0869323","distractor":"0869353","target":"absent","response":"present","rt":"2914","correct":false,"confidence":-1},{"trial_n":87,"span":6,"encoder":"293570","distractor":"290570","target":"present","response":"absent","rt":"2017","correct":false,"confidence":-1},{"trial_n":88,"span":5,"encoder":"00376","distractor":"00396","target":"present","response":"present","rt":"3049","correct":true,"confidence":-1},{"trial_n":89,"span":5,"encoder":"63560","distractor":"68560","target":"absent","response":"absent","rt":"6374","correct":true,"confidence":-1},{"trial_n":90,"span":6,"encoder":"480520","distractor":"480530","target":"absent","response":"absent","rt":"3241","correct":true,"confidence":-1},{"trial_n":91,"span":6,"encoder":"747978","distractor":"647978","target":"absent","response":"absent","rt":"2919","correct":true,"confidence":5},{"trial_n":92,"span":7,"encoder":"8918187","distractor":"8948187","target":"present","response":"absent","rt":"5786","correct":false,"confidence":3},{"trial_n":93,"span":6,"encoder":"190311","distractor":"199311","target":"absent","response":"absent","rt":"1857","correct":true,"confidence":5},{"trial_n":94,"span":6,"encoder":"961777","distractor":"961771","target":"present","response":"present","rt":"3976","correct":true,"confidence":5},{"trial_n":95,"span":7,"encoder":"5167087","distractor":"5167287","target":"absent","response":"absent","rt":"2818","correct":true,"confidence":5},{"trial_n":96,"span":7,"encoder":"4174613","distractor":"4174619","target":"absent","response":"absent","rt":"2345","correct":true,"confidence":5},{"trial_n":97,"span":8,"encoder":"31241389","distractor":"31241309","target":"present","response":"present","rt":"4785","correct":true,"confidence":4},{"trial_n":98,"span":8,"encoder":"14787805","distractor":"14287805","target":"present","response":"present","rt":"2953","correct":true,"confidence":5},{"trial_n":99,"span":9,"encoder":"240935324","distractor":"245935324","target":"absent","response":"absent","rt":"6768","correct":true,"confidence":4},{"trial_n":100,"span":9,"encoder":"787331194","distractor":"787331191","target":"absent","response":"absent","rt":"5488","correct":true,"confidence":5},{"trial_n":101,"span":10,"encoder":"4123985137","distractor":"4123785137","target":"present","response":"present","rt":"4956","correct":true,"confidence":3},{"trial_n":102,"span":10,"encoder":"2965516505","distractor":"2962516505","target":"present","response":"absent","rt":"7058","correct":false,"confidence":2},{"trial_n":103,"span":9,"encoder":"980929047","distractor":"988929047","target":"present","response":"present","rt":"3738","correct":true,"confidence":3},{"trial_n":104,"span":9,"encoder":"358458557","distractor":"358458957","target":"absent","response":"present","rt":"3961","correct":false,"confidence":2},{"trial_n":105,"span":8,"encoder":"25036795","distractor":"25836795","target":"absent","response":"absent","rt":"5320","correct":true,"confidence":2},{"trial_n":106,"span":8,"encoder":"44529438","distractor":"44529428","target":"present","response":"present","rt":"4267","correct":true,"confidence":4},{"trial_n":107,"span":9,"encoder":"809827489","distractor":"809822489","target":"absent","response":"absent","rt":"5254","correct":true,"confidence":4},{"trial_n":108,"span":9,"encoder":"571531260","distractor":"571531269","target":"absent","response":"absent","rt":"1370","correct":true,"confidence":5},{"trial_n":109,"span":10,"encoder":"7346632911","distractor":"7346631911","target":"absent","response":"absent","rt":"3861","correct":true,"confidence":5},{"trial_n":110,"span":10,"encoder":"2169555186","distractor":"2169556186","target":"absent","response":"absent","rt":"4121","correct":true,"confidence":4},{"trial_n":111,"span":11,"encoder":"17880223582","distractor":"17880223572","target":"present","response":"present","rt":"1941","correct":true,"confidence":2},{"trial_n":112,"span":11,"encoder":"47119288160","distractor":"47119288165","target":"present","response":"present","rt":"2884","correct":true,"confidence":4},{"trial_n":113,"span":12,"encoder":"086852264215","distractor":"086852264219","target":"present","response":"present","rt":"1801","correct":true,"confidence":5},{"trial_n":114,"span":12,"encoder":"393339381815","distractor":"393337381815","target":"present","response":"present","rt":"6778","correct":true,"confidence":4},{"trial_n":115,"span":13,"encoder":"5786578614037","distractor":"5786558614037","target":"present","response":"present","rt":"5406","correct":true,"confidence":3},{"trial_n":116,"span":13,"encoder":"7015592721434","distractor":"7015593721434","target":"absent","response":"present","rt":"6407","correct":false,"confidence":2},{"trial_n":117,"span":12,"encoder":"506099673634","distractor":"506099773634","target":"absent","response":"present","rt":"4418","correct":false,"confidence":3},{"trial_n":118,"span":11,"encoder":"80988297022","distractor":"80988297025","target":"absent","response":"present","rt":"5017","correct":false,"confidence":3},{"trial_n":119,"span":10,"encoder":"4665793773","distractor":"4668793773","target":"absent","response":"absent","rt":"5616","correct":true,"confidence":3},{"trial_n":120,"span":10,"encoder":"5677282251","distractor":"5677282291","target":"absent","response":"present","rt":"295596","correct":false,"confidence":2},{"trial_n":121,"span":9,"encoder":"858231456","distractor":"858235456","target":"present","response":"present","rt":"1738","correct":true,"confidence":4},{"trial_n":122,"span":9,"encoder":"794030220","distractor":"734030220","target":"present","response":"present","rt":"4715","correct":true,"confidence":4},{"trial_n":123,"span":10,"encoder":"1688563788","distractor":"1688963788","target":"present","response":"present","rt":"7172","correct":true,"confidence":5},{"trial_n":124,"span":10,"encoder":"6721377082","distractor":"6721277082","target":"present","response":"present","rt":"3085","correct":true,"confidence":4},{"trial_n":125,"span":11,"encoder":"69145470209","distractor":"69145470249","target":"present","response":"present","rt":"11791","correct":true,"confidence":5},{"trial_n":126,"span":11,"encoder":"68308451147","distractor":"68304451147","target":"absent","response":"present","rt":"3168","correct":false,"confidence":1},{"trial_n":127,"span":10,"encoder":"0471608997","distractor":"0471008997","target":"present","response":"absent","rt":"3544","correct":false,"confidence":3},{"trial_n":128,"span":9,"encoder":"025959584","distractor":"025559584","target":"present","response":"present","rt":"3780","correct":true,"confidence":5},{"trial_n":129,"span":9,"encoder":"209683315","distractor":"309683315","target":"absent","response":"absent","rt":"4738","correct":true,"confidence":4},{"trial_n":130,"span":10,"encoder":"6213785416","distractor":"6210785416","target":"present","response":"present","rt":"6652","correct":true,"confidence":3},{"trial_n":131,"span":10,"encoder":"2439982150","distractor":"2435982150","target":"absent","response":"absent","rt":"3731","correct":true,"confidence":4},{"trial_n":132,"span":11,"encoder":"97116035803","distractor":"97116034803","target":"absent","response":"present","rt":"3086","correct":false,"confidence":3},{"trial_n":133,"span":10,"encoder":"6436493043","distractor":"6436463043","target":"absent","response":"present","rt":"2560","correct":false,"confidence":1},{"trial_n":134,"span":9,"encoder":"475069322","distractor":"475019322","target":"present","response":"absent","rt":"8011","correct":false,"confidence":4},{"trial_n":135,"span":8,"encoder":"45385068","distractor":"45385368","target":"present","response":"present","rt":"2907","correct":true,"confidence":3},{"trial_n":136,"span":8,"encoder":"01185357","distractor":"01185350","target":"absent","response":"absent","rt":"3727","correct":true,"confidence":5},{"trial_n":137,"span":9,"encoder":"619944563","distractor":"614944563","target":"absent","response":"absent","rt":"2206","correct":true,"confidence":5},{"trial_n":138,"span":9,"encoder":"556952404","distractor":"356952404","target":"present","response":"present","rt":"2418","correct":true,"confidence":5},{"trial_n":139,"span":10,"encoder":"6270374403","distractor":"6279374403","target":"present","response":"absent","rt":"3881","correct":false,"confidence":3},{"trial_n":140,"span":9,"encoder":"287232058","distractor":"257232058","target":"present","response":"absent","rt":"2268","correct":false,"confidence":5}]