[{"trial_n":1,"span":8,"encoder":"72407433","distractor":"72407483","target":"present","response":"present","rt":"3306","correct":true,"confidence":-1},{"trial_n":2,"span":8,"encoder":"54699641","distractor":"44699641","target":"present","response":"absent","rt":"3394","correct":false,"confidence":-1},{"trial_n":3,"span":6,"encoder":"633316","distractor":"633336","target":"absent","response":"absent","rt":"1553","correct":true,"confidence":-1},{"trial_n":4,"span":6,"encoder":"681440","distractor":"681400","target":"absent","response":"present","rt":"4227","correct":false,"confidence":-1},{"trial_n":5,"span":4,"encoder":"3626","distractor":"3666","target":"present","response":"present","rt":"3169","correct":true,"confidence":-1},{"trial_n":6,"span":4,"encoder":"1198","distractor":"1798","target":"present","response":"present","rt":"1506","correct":true,"confidence":-1},{"trial_n":7,"span":6,"encoder":"082882","distractor":"087882","target":"absent","response":"absent","rt":"1835","correct":true,"confidence":-1},{"trial_n":8,"span":6,"encoder":"122489","distractor":"124489","target":"present","response":"absent","rt":"2705","correct":false,"confidence":-1},{"trial_n":9,"span":4,"encoder":"5562","distractor":"5592","target":"absent","response":"absent","rt":"2068","correct":true,"confidence":-1},{"trial_n":10,"span":4,"encoder":"3079","distractor":"3179","target":"absent","response":"absent","rt":"2911","correct":true,"confidence":-1},{"trial_n":11,"span":6,"encoder":"113049","distractor":"163049","target":"present","response":"absent","rt":"1052","correct":false,"confidence":-1},{"trial_n":12,"span":5,"encoder":"83485","distractor":"83486","target":"absent","response":"absent","rt":"1290","correct":true,"confidence":-1},{"trial_n":13,"span":5,"encoder":"15479","distractor":"25479","target":"present","response":"present","rt":"1877","correct":true,"confidence":-1},{"trial_n":14,"span":6,"encoder":"202103","distractor":"205103","target":"present","response":"absent","rt":"3615","correct":false,"confidence":-1},{"trial_n":15,"span":5,"encoder":"69716","distractor":"99716","target":"absent","response":"absent","rt":"1239","correct":true,"confidence":-1},{"trial_n":16,"span":5,"encoder":"95365","distractor":"95335","target":"present","response":"present","rt":"1718","correct":true,"confidence":-1},{"trial_n":17,"span":6,"encoder":"536294","distractor":"531294","target":"absent","response":"absent","rt":"6320","correct":true,"confidence":-1},{"trial_n":18,"span":6,"encoder":"646939","distractor":"646930","target":"absent","response":"absent","rt":"2078","correct":true,"confidence":-1},{"trial_n":19,"span":7,"encoder":"8528971","distractor":"8521971","target":"present","response":"present","rt":"2499","correct":true,"confidence":-1},{"trial_n":20,"span":7,"encoder":"0898195","distractor":"0898895","target":"present","response":"present","rt":"2303","correct":true,"confidence":-1},{"trial_n":21,"span":8,"encoder":"76953333","distractor":"76953633","target":"absent","response":"absent","rt":"4586","correct":true,"confidence":4},{"trial_n":22,"span":8,"encoder":"89924720","distractor":"89924726","target":"present","response":"absent","rt":"3459","correct":false,"confidence":5},{"trial_n":23,"span":7,"encoder":"7824194","distractor":"7894194","target":"present","response":"present","rt":"6229","correct":true,"confidence":5},{"trial_n":24,"span":7,"encoder":"2431661","distractor":"2435661","target":"absent","response":"absent","rt":"5546","correct":true,"confidence":4},{"trial_n":25,"span":8,"encoder":"68549817","distractor":"68349817","target":"present","response":"present","rt":"3962","correct":true,"confidence":3},{"trial_n":26,"span":8,"encoder":"70543968","distractor":"70547968","target":"present","response":"present","rt":"4271","correct":true,"confidence":3},{"trial_n":27,"span":9,"encoder":"372892847","distractor":"372892247","target":"absent","response":"absent","rt":"4859","correct":true,"confidence":2},{"trial_n":28,"span":9,"encoder":"912000882","distractor":"912000282","target":"absent","response":"present","rt":"3877","correct":false,"confidence":3},{"trial_n":29,"span":8,"encoder":"51622074","distractor":"51022074","target":"absent","response":"absent","rt":"4357","correct":true,"confidence":4},{"trial_n":30,"span":8,"encoder":"02280413","distractor":"08280413","target":"absent","response":"absent","rt":"5645","correct":true,"confidence":4},{"trial_n":31,"span":9,"encoder":"117904950","distractor":"111904950","target":"absent","response":"absent","rt":"4079","correct":true,"confidence":5},{"trial_n":32,"span":9,"encoder":"473777939","distractor":"473777839","target":"present","response":"present","rt":"13705","correct":true,"confidence":2},{"trial_n":33,"span":10,"encoder":"6234493021","distractor":"6234494021","target":"absent","response":"present","rt":"6308","correct":false,"confidence":3},{"trial_n":34,"span":9,"encoder":"577262580","distractor":"577262510","target":"present","response":"absent","rt":"5067","correct":false,"confidence":2},{"trial_n":35,"span":8,"encoder":"25051018","distractor":"65051018","target":"present","response":"present","rt":"2744","correct":true,"confidence":5},{"trial_n":36,"span":8,"encoder":"47954813","distractor":"47934813","target":"absent","response":"absent","rt":"4198","correct":true,"confidence":4},{"trial_n":37,"span":9,"encoder":"809105684","distractor":"809105384","target":"present","response":"present","rt":"2901.0000000001","correct":true,"confidence":5},{"trial_n":38,"span":9,"encoder":"703675618","distractor":"703775618","target":"absent","response":"present","rt":"4389","correct":false,"confidence":3},{"trial_n":39,"span":8,"encoder":"49137178","distractor":"45137178","target":"absent","response":"present","rt":"6623","correct":false,"confidence":4},{"trial_n":40,"span":7,"encoder":"2798502","distractor":"2798562","target":"absent","response":"present","rt":"5501.0000000001","correct":false,"confidence":3},{"trial_n":41,"span":6,"encoder":"252036","distractor":"251036","target":"absent","response":"absent","rt":"4048","correct":true,"confidence":5},{"trial_n":42,"span":6,"encoder":"875578","distractor":"875575","target":"present","response":"present","rt":"2200","correct":true,"confidence":5},{"trial_n":43,"span":7,"encoder":"6668235","distractor":"6668275","target":"present","response":"present","rt":"2003","correct":true,"confidence":5},{"trial_n":44,"span":7,"encoder":"6744460","distractor":"6444460","target":"absent","response":"absent","rt":"1859","correct":true,"confidence":5},{"trial_n":45,"span":8,"encoder":"49251514","distractor":"49258514","target":"absent","response":"absent","rt":"3853","correct":true,"confidence":4},{"trial_n":46,"span":8,"encoder":"38601047","distractor":"38601041","target":"absent","response":"absent","rt":"2951","correct":true,"confidence":5},{"trial_n":47,"span":9,"encoder":"837989637","distractor":"837989638","target":"present","response":"absent","rt":"13684","correct":false,"confidence":2},{"trial_n":48,"span":8,"encoder":"39629184","distractor":"39669184","target":"present","response":"absent","rt":"6660","correct":false,"confidence":4},{"trial_n":49,"span":7,"encoder":"5970806","distractor":"5974806","target":"absent","response":"present","rt":"6554","correct":false,"confidence":3},{"trial_n":50,"span":6,"encoder":"622267","distractor":"622567","target":"absent","response":"absent","rt":"3186","correct":true,"confidence":5},{"trial_n":51,"span":6,"encoder":"639181","distractor":"039181","target":"present","response":"present","rt":"2715","correct":true,"confidence":5},{"trial_n":52,"span":7,"encoder":"5284816","distractor":"5284616","target":"present","response":"absent","rt":"3051","correct":false,"confidence":4},{"trial_n":53,"span":6,"encoder":"984759","distractor":"984755","target":"absent","response":"absent","rt":"4059.9999999999","correct":true,"confidence":5},{"trial_n":54,"span":6,"encoder":"487884","distractor":"487882","target":"absent","response":"absent","rt":"4552","correct":true,"confidence":4},{"trial_n":55,"span":7,"encoder":"1807881","distractor":"1807885","target":"present","response":"present","rt":"2499.0000000001","correct":true,"confidence":5},{"trial_n":56,"span":7,"encoder":"9394761","distractor":"9398761","target":"present","response":"absent","rt":"4705","correct":false,"confidence":3},{"trial_n":57,"span":6,"encoder":"141709","distractor":"142709","target":"present","response":"present","rt":"3073.0000000001","correct":true,"confidence":5},{"trial_n":58,"span":6,"encoder":"850713","distractor":"810713","target":"absent","response":"absent","rt":"1727","correct":true,"confidence":5},{"trial_n":59,"span":7,"encoder":"2854010","distractor":"4854010","target":"present","response":"present","rt":"3412","correct":true,"confidence":5},{"trial_n":60,"span":7,"encoder":"4617764","distractor":"4627764","target":"present","response":"present","rt":"11194","correct":true,"confidence":2},{"trial_n":61,"span":8,"encoder":"09104484","distractor":"09104489","target":"present","response":"present","rt":"5545","correct":true,"confidence":4},{"trial_n":62,"span":8,"encoder":"95668118","distractor":"95668018","target":"present","response":"present","rt":"2907","correct":true,"confidence":4},{"trial_n":63,"span":9,"encoder":"426398615","distractor":"486398615","target":"present","response":"present","rt":"3530.9999999998","correct":true,"confidence":5},{"trial_n":64,"span":9,"encoder":"894730502","distractor":"194730502","target":"present","response":"absent","rt":"4102","correct":false,"confidence":3},{"trial_n":65,"span":8,"encoder":"56794083","distractor":"66794083","target":"absent","response":"absent","rt":"1476","correct":true,"confidence":5},{"trial_n":66,"span":8,"encoder":"96312758","distractor":"96312058","target":"absent","response":"absent","rt":"5535","correct":true,"confidence":5},{"trial_n":67,"span":9,"encoder":"886954451","distractor":"886957451","target":"absent","response":"absent","rt":"3328","correct":true,"confidence":5},{"trial_n":68,"span":9,"encoder":"946963785","distractor":"946983785","target":"present","response":"present","rt":"5580","correct":true,"confidence":3},{"trial_n":69,"span":10,"encoder":"2524372660","distractor":"2504372660","target":"present","response":"present","rt":"9118","correct":true,"confidence":3},{"trial_n":70,"span":10,"encoder":"2260564852","distractor":"2260564052","target":"absent","response":"absent","rt":"8988","correct":true,"confidence":3},{"trial_n":71,"span":8,"encoder":"76975389","distractor":"76975384","target":"present","response":"present","rt":"4922","correct":true,"confidence":-1},{"trial_n":72,"span":8,"encoder":"00027230","distractor":"00027250","target":"present","response":"present","rt":"3342","correct":true,"confidence":-1},{"trial_n":73,"span":9,"encoder":"177793570","distractor":"177799570","target":"absent","response":"absent","rt":"2269.0000000002","correct":true,"confidence":-1},{"trial_n":74,"span":9,"encoder":"032292363","distractor":"032292365","target":"absent","response":"absent","rt":"5810","correct":true,"confidence":-1},{"trial_n":75,"span":10,"encoder":"8285831572","distractor":"8285838572","target":"present","response":"present","rt":"4459","correct":true,"confidence":-1},{"trial_n":76,"span":10,"encoder":"4704411459","distractor":"4704411559","target":"present","response":"present","rt":"7393","correct":true,"confidence":-1},{"trial_n":77,"span":11,"encoder":"38683684941","distractor":"38683680941","target":"absent","response":"absent","rt":"2364","correct":true,"confidence":-1},{"trial_n":78,"span":11,"encoder":"80248237019","distractor":"80242237019","target":"present","response":"present","rt":"4585","correct":true,"confidence":-1},{"trial_n":79,"span":12,"encoder":"587393463357","distractor":"587398463357","target":"absent","response":"present","rt":"6052","correct":false,"confidence":-1},{"trial_n":80,"span":11,"encoder":"88704529956","distractor":"88304529956","target":"absent","response":"absent","rt":"4007","correct":true,"confidence":-1},{"trial_n":81,"span":11,"encoder":"60771142546","distractor":"60771148546","target":"present","response":"absent","rt":"6586","correct":false,"confidence":-1},{"trial_n":82,"span":10,"encoder":"9160139508","distractor":"9360139508","target":"present","response":"present","rt":"10912","correct":true,"confidence":-1},{"trial_n":83,"span":10,"encoder":"8970036609","distractor":"8970436609","target":"present","response":"absent","rt":"3646","correct":false,"confidence":-1},{"trial_n":84,"span":9,"encoder":"680308417","distractor":"680908417","target":"present","response":"present","rt":"5705","correct":true,"confidence":-1},{"trial_n":85,"span":9,"encoder":"939593169","distractor":"939093169","target":"present","response":"present","rt":"3503","correct":true,"confidence":-1},{"trial_n":86,"span":10,"encoder":"4051600518","distractor":"4051900518","target":"present","response":"present","rt":"3146","correct":true,"confidence":-1},{"trial_n":87,"span":10,"encoder":"1557841206","distractor":"1557841106","target":"absent","response":"absent","rt":"2065","correct":true,"confidence":-1},{"trial_n":88,"span":11,"encoder":"29302401588","distractor":"25302401588","target":"absent","response":"present","rt":"4470","correct":false,"confidence":-1},{"trial_n":89,"span":10,"encoder":"3162335458","distractor":"9162335458","target":"present","response":"present","rt":"7620.0000000002","correct":true,"confidence":-1},{"trial_n":90,"span":10,"encoder":"0039273021","distractor":"0039271021","target":"present","response":"present","rt":"9447.9999999998","correct":true,"confidence":-1},{"trial_n":91,"span":11,"encoder":"76805925431","distractor":"76805125431","target":"present","response":"absent","rt":"7475","correct":false,"confidence":3},{"trial_n":92,"span":10,"encoder":"8124832504","distractor":"8184832504","target":"absent","response":"absent","rt":"5350","correct":true,"confidence":4},{"trial_n":93,"span":10,"encoder":"3110620619","distractor":"2110620619","target":"absent","response":"absent","rt":"3170.9999999998","correct":true,"confidence":5},{"trial_n":94,"span":11,"encoder":"29607410586","distractor":"29608410586","target":"present","response":"absent","rt":"8900.0000000002","correct":false,"confidence":2},{"trial_n":95,"span":10,"encoder":"0075655215","distractor":"0075695215","target":"present","response":"present","rt":"3519","correct":true,"confidence":5},{"trial_n":96,"span":10,"encoder":"2817310005","distractor":"2887310005","target":"present","response":"present","rt":"4431","correct":true,"confidence":5},{"trial_n":97,"span":11,"encoder":"35698049300","distractor":"45698049300","target":"absent","response":"absent","rt":"2837","correct":true,"confidence":5},{"trial_n":98,"span":11,"encoder":"00727759597","distractor":"00727759527","target":"present","response":"present","rt":"13310","correct":true,"confidence":1},{"trial_n":99,"span":12,"encoder":"567658700210","distractor":"567258700210","target":"absent","response":"absent","rt":"5341","correct":true,"confidence":5},{"trial_n":100,"span":12,"encoder":"634481218694","distractor":"634481518694","target":"absent","response":"absent","rt":"28746","correct":true,"confidence":3},{"trial_n":101,"span":13,"encoder":"8232814531423","distractor":"8232814531223","target":"present","response":"absent","rt":"21492","correct":false,"confidence":1},{"trial_n":102,"span":12,"encoder":"913791572941","distractor":"913491572941","target":"absent","response":"present","rt":"11070","correct":false,"confidence":2},{"trial_n":103,"span":11,"encoder":"58917052540","distractor":"58917053540","target":"absent","response":"absent","rt":"4965","correct":true,"confidence":5},{"trial_n":104,"span":11,"encoder":"68363698323","distractor":"68360698323","target":"present","response":"present","rt":"9037","correct":true,"confidence":5},{"trial_n":105,"span":12,"encoder":"310373601049","distractor":"310573601049","target":"present","response":"present","rt":"6967","correct":true,"confidence":5},{"trial_n":106,"span":12,"encoder":"481962490340","distractor":"481962690340","target":"absent","response":"absent","rt":"27945","correct":true,"confidence":4},{"trial_n":107,"span":13,"encoder":"0781725340461","distractor":"0781725346461","target":"absent","response":"absent","rt":"28076","correct":true,"confidence":3},{"trial_n":108,"span":13,"encoder":"2215262752197","distractor":"2215232752197","target":"present","response":"absent","rt":"24518","correct":false,"confidence":4},{"trial_n":109,"span":12,"encoder":"557923716382","distractor":"557923716352","target":"present","response":"present","rt":"7783","correct":true,"confidence":3},{"trial_n":110,"span":12,"encoder":"758819928245","distractor":"758819328245","target":"absent","response":"present","rt":"10629","correct":false,"confidence":4},{"trial_n":111,"span":11,"encoder":"75506020424","distractor":"75506026424","target":"absent","response":"present","rt":"17890","correct":false,"confidence":4},{"trial_n":112,"span":10,"encoder":"0928196554","distractor":"0928193554","target":"absent","response":"absent","rt":"2846.9999999998","correct":true,"confidence":5},{"trial_n":113,"span":10,"encoder":"5580933198","distractor":"5580733198","target":"absent","response":"absent","rt":"7151.9999999995","correct":true,"confidence":5},{"trial_n":114,"span":11,"encoder":"70009818886","distractor":"70009318886","target":"present","response":"present","rt":"4830.0000000005","correct":true,"confidence":5},{"trial_n":115,"span":11,"encoder":"26020635185","distractor":"26020635180","target":"present","response":"absent","rt":"12737","correct":false,"confidence":3},{"trial_n":116,"span":10,"encoder":"6159686439","distractor":"6959686439","target":"present","response":"absent","rt":"11478","correct":false,"confidence":3},{"trial_n":117,"span":9,"encoder":"627540309","distractor":"687540309","target":"absent","response":"absent","rt":"6447","correct":true,"confidence":5},{"trial_n":118,"span":9,"encoder":"008990180","distractor":"008980180","target":"present","response":"absent","rt":"14725","correct":false,"confidence":3},{"trial_n":119,"span":8,"encoder":"67435029","distractor":"68435029","target":"absent","response":"absent","rt":"1788","correct":true,"confidence":5},{"trial_n":120,"span":8,"encoder":"46684091","distractor":"66684091","target":"present","response":"present","rt":"2401","correct":true,"confidence":5},{"trial_n":121,"span":9,"encoder":"946593516","distractor":"946593519","target":"absent","response":"absent","rt":"8439.0000000005","correct":true,"confidence":1},{"trial_n":122,"span":9,"encoder":"556863194","distractor":"556263194","target":"absent","response":"absent","rt":"10095","correct":true,"confidence":5},{"trial_n":123,"span":10,"encoder":"0549706094","distractor":"0549706794","target":"absent","response":"absent","rt":"9308","correct":true,"confidence":5},{"trial_n":124,"span":10,"encoder":"3829101219","distractor":"7829101219","target":"absent","response":"absent","rt":"3764","correct":true,"confidence":5},{"trial_n":125,"span":11,"encoder":"20259565778","distractor":"20659565778","target":"absent","response":"absent","rt":"16575","correct":true,"confidence":4},{"trial_n":126,"span":11,"encoder":"01958105726","distractor":"01158105726","target":"absent","response":"absent","rt":"3723","correct":true,"confidence":5},{"trial_n":127,"span":12,"encoder":"379840044408","distractor":"379040044408","target":"present","response":"present","rt":"7246","correct":true,"confidence":5},{"trial_n":128,"span":12,"encoder":"705408870876","distractor":"705407870876","target":"present","response":"absent","rt":"16116","correct":false,"confidence":3},{"trial_n":129,"span":11,"encoder":"41218984692","distractor":"41218984696","target":"present","response":"present","rt":"10788","correct":true,"confidence":1},{"trial_n":130,"span":11,"encoder":"81152817502","distractor":"81152017502","target":"present","response":"present","rt":"14253","correct":true,"confidence":4},{"trial_n":131,"span":12,"encoder":"011852799112","distractor":"011852799152","target":"present","response":"present","rt":"3069.9999999995","correct":true,"confidence":5},{"trial_n":132,"span":12,"encoder":"897110745941","distractor":"897810745941","target":"absent","response":"absent","rt":"11174","correct":true,"confidence":5},{"trial_n":133,"span":13,"encoder":"7506431150556","distractor":"7506831150556","target":"present","response":"present","rt":"5769","correct":true,"confidence":1},{"trial_n":134,"span":13,"encoder":"5253365022917","distractor":"5253365022937","target":"absent","response":"absent","rt":"2029.9999999995","correct":true,"confidence":5},{"trial_n":135,"span":14,"encoder":"00133589888034","distractor":"09133589888034","target":"absent","response":"present","rt":"3916","correct":false,"confidence":4},{"trial_n":136,"span":13,"encoder":"6351118946692","distractor":"6351118956692","target":"absent","response":"present","rt":"10067","correct":false,"confidence":3},{"trial_n":137,"span":12,"encoder":"697828447243","distractor":"697828445243","target":"present","response":"present","rt":"2566","correct":true,"confidence":5},{"trial_n":138,"span":12,"encoder":"958547176315","distractor":"758547176315","target":"present","response":"absent","rt":"6506","correct":false,"confidence":4},{"trial_n":139,"span":11,"encoder":"14567838897","distractor":"14567839897","target":"absent","response":"absent","rt":"9465","correct":true,"confidence":4},{"trial_n":140,"span":11,"encoder":"94910304568","distractor":"94910344568","target":"absent","response":"absent","rt":"3268","correct":true,"confidence":5}]