[{"trial_n":1,"n_dots":4.25,"target":"left","response":"left","rt":5795,"correct":true,"confidence":-1},{"trial_n":2,"n_dots":4.25,"target":"left","response":"left","rt":484,"correct":true,"confidence":-1},{"trial_n":3,"n_dots":3.85,"target":"right","response":"right","rt":985,"correct":true,"confidence":-1},{"trial_n":4,"n_dots":3.85,"target":"left","response":"left","rt":375,"correct":true,"confidence":-1},{"trial_n":5,"n_dots":3.45,"target":"left","response":"left","rt":354,"correct":true,"confidence":-1},{"trial_n":6,"n_dots":3.45,"target":"left","response":"left","rt":334,"correct":true,"confidence":-1},{"trial_n":7,"n_dots":3.05,"target":"right","response":"right","rt":466,"correct":true,"confidence":-1},{"trial_n":8,"n_dots":3.05,"target":"left","response":"left","rt":315.99999999999,"correct":true,"confidence":-1},{"trial_n":9,"n_dots":2.85,"target":"right","response":"right","rt":1778,"correct":true,"confidence":-1},{"trial_n":10,"n_dots":2.85,"target":"left","response":"left","rt":367,"correct":true,"confidence":-1},{"trial_n":11,"n_dots":2.65,"target":"right","response":"right","rt":1024,"correct":true,"confidence":-1},{"trial_n":12,"n_dots":2.65,"target":"left","response":"left","rt":366,"correct":true,"confidence":-1},{"trial_n":13,"n_dots":2.55,"target":"left","response":"left","rt":345,"correct":true,"confidence":-1},{"trial_n":14,"n_dots":2.55,"target":"left","response":"left","rt":299.00000000001,"correct":true,"confidence":-1},{"trial_n":15,"n_dots":2.45,"target":"right","response":"right","rt":1166,"correct":true,"confidence":-1},{"trial_n":16,"n_dots":2.45,"target":"right","response":"right","rt":858.99999999999,"correct":true,"confidence":-1},{"trial_n":17,"n_dots":2.35,"target":"right","response":"left","rt":294,"correct":false,"confidence":-1},{"trial_n":18,"n_dots":2.45,"target":"left","response":"left","rt":295,"correct":true,"confidence":-1},{"trial_n":19,"n_dots":2.45,"target":"right","response":"right","rt":365,"correct":true,"confidence":-1},{"trial_n":20,"n_dots":2.35,"target":"left","response":"left","rt":1014,"correct":true,"confidence":-1},{"trial_n":21,"n_dots":2.35,"target":"right","response":"left","rt":604,"correct":false,"confidence":4},{"trial_n":22,"n_dots":2.45,"target":"right","response":"left","rt":294.99999999999,"correct":false,"confidence":5},{"trial_n":23,"n_dots":2.55,"target":"right","response":"left","rt":2344,"correct":false,"confidence":5},{"trial_n":24,"n_dots":2.65,"target":"right","response":"left","rt":419.99999999999,"correct":false,"confidence":5},{"trial_n":25,"n_dots":2.75,"target":"left","response":"left","rt":391.00000000001,"correct":true,"confidence":5},{"trial_n":26,"n_dots":2.75,"target":"right","response":"left","rt":949.99999999999,"correct":false,"confidence":4},{"trial_n":27,"n_dots":2.85,"target":"right","response":"left","rt":730.00000000001,"correct":false,"confidence":5},{"trial_n":28,"n_dots":2.95,"target":"left","response":"left","rt":1248,"correct":true,"confidence":5},{"trial_n":29,"n_dots":2.95,"target":"right","response":"right","rt":14454,"correct":true,"confidence":4},{"trial_n":30,"n_dots":2.85,"target":"right","response":"right","rt":1141,"correct":true,"confidence":3},{"trial_n":31,"n_dots":2.85,"target":"left","response":"left","rt":1023,"correct":true,"confidence":3},{"trial_n":32,"n_dots":2.75,"target":"right","response":"left","rt":747.99999999997,"correct":false,"confidence":4},{"trial_n":33,"n_dots":2.85,"target":"left","response":"left","rt":1132,"correct":true,"confidence":4},{"trial_n":34,"n_dots":2.85,"target":"right","response":"right","rt":1520,"correct":true,"confidence":3},{"trial_n":35,"n_dots":2.75,"target":"right","response":"right","rt":2028,"correct":true,"confidence":3},{"trial_n":36,"n_dots":2.75,"target":"right","response":"right","rt":5091,"correct":true,"confidence":2},{"trial_n":37,"n_dots":2.65,"target":"right","response":"right","rt":1315,"correct":true,"confidence":2},{"trial_n":38,"n_dots":2.65,"target":"right","response":"left","rt":1073,"correct":false,"confidence":3},{"trial_n":39,"n_dots":2.75,"target":"left","response":"right","rt":3998,"correct":false,"confidence":3},{"trial_n":40,"n_dots":2.85,"target":"left","response":"left","rt":880,"correct":true,"confidence":5},{"trial_n":41,"n_dots":2.85,"target":"left","response":"left","rt":609,"correct":true,"confidence":5},{"trial_n":42,"n_dots":2.75,"target":"left","response":"left","rt":741,"correct":true,"confidence":5},{"trial_n":43,"n_dots":2.75,"target":"left","response":"left","rt":2168.0000000001,"correct":true,"confidence":3},{"trial_n":44,"n_dots":2.65,"target":"right","response":"left","rt":1323,"correct":false,"confidence":3},{"trial_n":45,"n_dots":2.75,"target":"left","response":"left","rt":287,"correct":true,"confidence":5},{"trial_n":46,"n_dots":2.75,"target":"left","response":"left","rt":2027,"correct":true,"confidence":3},{"trial_n":47,"n_dots":2.65,"target":"right","response":"left","rt":295,"correct":false,"confidence":4},{"trial_n":48,"n_dots":2.75,"target":"left","response":"left","rt":512,"correct":true,"confidence":3},{"trial_n":49,"n_dots":2.75,"target":"left","response":"left","rt":527,"correct":true,"confidence":5},{"trial_n":50,"n_dots":2.65,"target":"right","response":"right","rt":708,"correct":true,"confidence":3},{"trial_n":51,"n_dots":2.65,"target":"right","response":"left","rt":477,"correct":false,"confidence":5},{"trial_n":52,"n_dots":2.75,"target":"left","response":"left","rt":3048,"correct":true,"confidence":4},{"trial_n":53,"n_dots":2.75,"target":"left","response":"left","rt":1947,"correct":true,"confidence":3},{"trial_n":54,"n_dots":2.65,"target":"left","response":"left","rt":145.00000000006,"correct":true,"confidence":4},{"trial_n":55,"n_dots":2.65,"target":"right","response":"right","rt":1003.9999999999,"correct":true,"confidence":4},{"trial_n":56,"n_dots":2.55,"target":"right","response":"right","rt":983,"correct":true,"confidence":3},{"trial_n":57,"n_dots":2.55,"target":"right","response":"left","rt":1401,"correct":false,"confidence":3},{"trial_n":58,"n_dots":2.65,"target":"left","response":"right","rt":1855,"correct":false,"confidence":1},{"trial_n":59,"n_dots":2.75,"target":"left","response":"right","rt":2347,"correct":false,"confidence":2},{"trial_n":60,"n_dots":2.85,"target":"left","response":"left","rt":2101,"correct":true,"confidence":2},{"trial_n":61,"n_dots":2.85,"target":"right","response":"left","rt":882,"correct":false,"confidence":3},{"trial_n":62,"n_dots":2.95,"target":"right","response":"left","rt":524,"correct":false,"confidence":3},{"trial_n":63,"n_dots":3.05,"target":"right","response":"left","rt":696,"correct":false,"confidence":1},{"trial_n":64,"n_dots":3.15,"target":"left","response":"left","rt":318.99999999988,"correct":true,"confidence":5},{"trial_n":65,"n_dots":3.15,"target":"right","response":"left","rt":1050,"correct":false,"confidence":4},{"trial_n":66,"n_dots":3.25,"target":"right","response":"right","rt":1255,"correct":true,"confidence":2},{"trial_n":67,"n_dots":3.25,"target":"right","response":"left","rt":383,"correct":false,"confidence":5},{"trial_n":68,"n_dots":3.35,"target":"right","response":"left","rt":2887.0000000001,"correct":false,"confidence":3},{"trial_n":69,"n_dots":3.45,"target":"right","response":"right","rt":2036,"correct":true,"confidence":4},{"trial_n":70,"n_dots":3.45,"target":"right","response":"right","rt":1918,"correct":true,"confidence":4},{"trial_n":71,"n_dots":3.35,"target":"right","response":"left","rt":2234,"correct":false,"confidence":2},{"trial_n":72,"n_dots":3.45,"target":"left","response":"left","rt":532,"correct":true,"confidence":4},{"trial_n":73,"n_dots":3.45,"target":"right","response":"left","rt":3863,"correct":false,"confidence":2},{"trial_n":74,"n_dots":3.55,"target":"left","response":"right","rt":3384,"correct":false,"confidence":2},{"trial_n":75,"n_dots":3.65,"target":"left","response":"left","rt":1288,"correct":true,"confidence":3},{"trial_n":76,"n_dots":3.65,"target":"left","response":"right","rt":1804,"correct":false,"confidence":2},{"trial_n":77,"n_dots":3.75,"target":"right","response":"right","rt":2268,"correct":true,"confidence":4},{"trial_n":78,"n_dots":3.75,"target":"left","response":"left","rt":2227,"correct":true,"confidence":4},{"trial_n":79,"n_dots":3.65,"target":"left","response":"left","rt":2033,"correct":true,"confidence":3},{"trial_n":80,"n_dots":3.65,"target":"right","response":"right","rt":1181.9999999999,"correct":true,"confidence":5},{"trial_n":81,"n_dots":3.55,"target":"left","response":"left","rt":425.99999999988,"correct":true,"confidence":4},{"trial_n":82,"n_dots":3.55,"target":"left","response":"left","rt":812,"correct":true,"confidence":4},{"trial_n":83,"n_dots":3.45,"target":"right","response":"right","rt":1223,"correct":true,"confidence":3},{"trial_n":84,"n_dots":3.45,"target":"right","response":"right","rt":1219.0000000001,"correct":true,"confidence":3},{"trial_n":85,"n_dots":3.35,"target":"right","response":"left","rt":3080.0000000001,"correct":false,"confidence":2},{"trial_n":86,"n_dots":3.45,"target":"right","response":"left","rt":1782,"correct":false,"confidence":2},{"trial_n":87,"n_dots":3.55,"target":"right","response":"left","rt":1750,"correct":false,"confidence":3},{"trial_n":88,"n_dots":3.65,"target":"left","response":"left","rt":961,"correct":true,"confidence":4},{"trial_n":89,"n_dots":3.65,"target":"left","response":"left","rt":1199.9999999999,"correct":true,"confidence":5},{"trial_n":90,"n_dots":3.55,"target":"right","response":"right","rt":1512,"correct":true,"confidence":3},{"trial_n":91,"n_dots":3.55,"target":"right","response":"right","rt":1471,"correct":true,"confidence":3},{"trial_n":92,"n_dots":3.45,"target":"left","response":"left","rt":2414,"correct":true,"confidence":4},{"trial_n":93,"n_dots":3.45,"target":"right","response":"right","rt":1817,"correct":true,"confidence":4},{"trial_n":94,"n_dots":3.35,"target":"right","response":"right","rt":991,"correct":true,"confidence":4},{"trial_n":95,"n_dots":3.35,"target":"left","response":"left","rt":2182,"correct":true,"confidence":4},{"trial_n":96,"n_dots":3.25,"target":"right","response":"right","rt":1124.0000000001,"correct":true,"confidence":3},{"trial_n":97,"n_dots":3.25,"target":"left","response":"left","rt":817,"correct":true,"confidence":5},{"trial_n":98,"n_dots":3.15,"target":"left","response":"left","rt":1029,"correct":true,"confidence":4},{"trial_n":99,"n_dots":3.15,"target":"left","response":"left","rt":695,"correct":true,"confidence":4},{"trial_n":100,"n_dots":3.05,"target":"right","response":"right","rt":1674.9999999999,"correct":true,"confidence":5},{"trial_n":101,"n_dots":3.05,"target":"left","response":"left","rt":475,"correct":true,"confidence":4},{"trial_n":102,"n_dots":2.95,"target":"left","response":"left","rt":359,"correct":true,"confidence":5},{"trial_n":103,"n_dots":2.95,"target":"right","response":"right","rt":1016.9999999998,"correct":true,"confidence":4},{"trial_n":104,"n_dots":2.85,"target":"left","response":"left","rt":284,"correct":true,"confidence":5},{"trial_n":105,"n_dots":2.85,"target":"right","response":"left","rt":421,"correct":false,"confidence":4},{"trial_n":106,"n_dots":2.95,"target":"right","response":"left","rt":304,"correct":false,"confidence":5},{"trial_n":107,"n_dots":3.05,"target":"left","response":"left","rt":326,"correct":true,"confidence":5},{"trial_n":108,"n_dots":3.05,"target":"right","response":"right","rt":447,"correct":true,"confidence":3},{"trial_n":109,"n_dots":2.95,"target":"left","response":"left","rt":264,"correct":true,"confidence":5},{"trial_n":110,"n_dots":2.95,"target":"left","response":"left","rt":374,"correct":true,"confidence":5},{"trial_n":111,"n_dots":2.85,"target":"left","response":"right","rt":442,"correct":false,"confidence":3},{"trial_n":112,"n_dots":2.95,"target":"left","response":"right","rt":1813,"correct":false,"confidence":2},{"trial_n":113,"n_dots":3.05,"target":"right","response":"right","rt":627,"correct":true,"confidence":3},{"trial_n":114,"n_dots":3.05,"target":"left","response":"left","rt":248,"correct":true,"confidence":5},{"trial_n":115,"n_dots":2.95,"target":"right","response":"left","rt":228,"correct":false,"confidence":4},{"trial_n":116,"n_dots":3.05,"target":"left","response":"left","rt":220,"correct":true,"confidence":5},{"trial_n":117,"n_dots":3.05,"target":"left","response":"left","rt":1316.0000000002,"correct":true,"confidence":2},{"trial_n":118,"n_dots":2.95,"target":"left","response":"right","rt":437,"correct":false,"confidence":3},{"trial_n":119,"n_dots":3.05,"target":"right","response":"right","rt":540,"correct":true,"confidence":4},{"trial_n":120,"n_dots":3.05,"target":"left","response":"right","rt":3362,"correct":false,"confidence":2}]