[{"trial_n":1,"min":25,"max":230,"target":"present","response":"present","rt":6893,"correct":true,"confidence":-1},{"trial_n":2,"min":25,"max":230,"target":"present","response":"present","rt":783,"correct":true,"confidence":-1},{"trial_n":3,"min":41,"max":214,"target":"absent","response":"absent","rt":621,"correct":true,"confidence":-1},{"trial_n":4,"min":41,"max":214,"target":"absent","response":"absent","rt":407,"correct":true,"confidence":-1},{"trial_n":5,"min":57,"max":198,"target":"present","response":"present","rt":367,"correct":true,"confidence":-1},{"trial_n":6,"min":57,"max":198,"target":"present","response":"present","rt":265,"correct":true,"confidence":-1},{"trial_n":7,"min":73,"max":182,"target":"absent","response":"absent","rt":355,"correct":true,"confidence":-1},{"trial_n":8,"min":73,"max":182,"target":"present","response":"absent","rt":292,"correct":false,"confidence":-1},{"trial_n":9,"min":57,"max":198,"target":"present","response":"present","rt":494,"correct":true,"confidence":-1},{"trial_n":10,"min":57,"max":198,"target":"present","response":"present","rt":406.00000000001,"correct":true,"confidence":-1},{"trial_n":11,"min":65,"max":190,"target":"present","response":"present","rt":414,"correct":true,"confidence":-1},{"trial_n":12,"min":65,"max":190,"target":"absent","response":"absent","rt":409,"correct":true,"confidence":-1},{"trial_n":13,"min":73,"max":182,"target":"absent","response":"absent","rt":492,"correct":true,"confidence":-1},{"trial_n":14,"min":73,"max":182,"target":"absent","response":"present","rt":649.00000000001,"correct":false,"confidence":-1},{"trial_n":15,"min":65,"max":190,"target":"absent","response":"absent","rt":317,"correct":true,"confidence":-1},{"trial_n":16,"min":65,"max":190,"target":"absent","response":"absent","rt":346,"correct":true,"confidence":-1},{"trial_n":17,"min":73,"max":182,"target":"absent","response":"absent","rt":290,"correct":true,"confidence":-1},{"trial_n":18,"min":73,"max":182,"target":"present","response":"present","rt":516,"correct":true,"confidence":-1},{"trial_n":19,"min":81,"max":174,"target":"absent","response":"absent","rt":392,"correct":true,"confidence":-1},{"trial_n":20,"min":81,"max":174,"target":"present","response":"present","rt":452,"correct":true,"confidence":-1},{"trial_n":21,"min":85,"max":170,"target":"present","response":"present","rt":528.99999999999,"correct":true,"confidence":5},{"trial_n":22,"min":85,"max":170,"target":"absent","response":"present","rt":882,"correct":false,"confidence":4},{"trial_n":23,"min":81,"max":174,"target":"absent","response":"absent","rt":1035,"correct":true,"confidence":4},{"trial_n":24,"min":81,"max":174,"target":"present","response":"present","rt":1244,"correct":true,"confidence":5},{"trial_n":25,"min":85,"max":170,"target":"present","response":"present","rt":734,"correct":true,"confidence":5},{"trial_n":26,"min":85,"max":170,"target":"absent","response":"present","rt":976,"correct":false,"confidence":5},{"trial_n":27,"min":81,"max":174,"target":"absent","response":"present","rt":1514,"correct":false,"confidence":4},{"trial_n":28,"min":77,"max":178,"target":"present","response":"present","rt":864,"correct":true,"confidence":4},{"trial_n":29,"min":77,"max":178,"target":"absent","response":"absent","rt":995,"correct":true,"confidence":4},{"trial_n":30,"min":81,"max":174,"target":"present","response":"present","rt":838.00000000001,"correct":true,"confidence":5},{"trial_n":31,"min":81,"max":174,"target":"absent","response":"absent","rt":903,"correct":true,"confidence":3},{"trial_n":32,"min":83,"max":172,"target":"present","response":"present","rt":912,"correct":true,"confidence":3},{"trial_n":33,"min":83,"max":172,"target":"absent","response":"present","rt":1563,"correct":false,"confidence":4},{"trial_n":34,"min":81,"max":174,"target":"present","response":"present","rt":723.00000000001,"correct":true,"confidence":5},{"trial_n":35,"min":81,"max":174,"target":"present","response":"present","rt":698,"correct":true,"confidence":5},{"trial_n":36,"min":83,"max":172,"target":"present","response":"present","rt":736,"correct":true,"confidence":5},{"trial_n":37,"min":83,"max":172,"target":"absent","response":"absent","rt":799,"correct":true,"confidence":4},{"trial_n":38,"min":85,"max":170,"target":"present","response":"present","rt":760,"correct":true,"confidence":5},{"trial_n":39,"min":85,"max":170,"target":"absent","response":"absent","rt":728,"correct":true,"confidence":5},{"trial_n":40,"min":87,"max":168,"target":"present","response":"present","rt":938.00000000001,"correct":true,"confidence":4},{"trial_n":41,"min":87,"max":168,"target":"present","response":"present","rt":812.00000000003,"correct":true,"confidence":4},{"trial_n":42,"min":88,"max":167,"target":"absent","response":"absent","rt":772,"correct":true,"confidence":5},{"trial_n":43,"min":88,"max":167,"target":"absent","response":"absent","rt":767,"correct":true,"confidence":5},{"trial_n":44,"min":89,"max":166,"target":"present","response":"present","rt":1767,"correct":true,"confidence":3},{"trial_n":45,"min":89,"max":166,"target":"absent","response":"present","rt":2353,"correct":false,"confidence":3},{"trial_n":46,"min":88,"max":167,"target":"present","response":"present","rt":3575,"correct":true,"confidence":3},{"trial_n":47,"min":88,"max":167,"target":"absent","response":"absent","rt":836,"correct":true,"confidence":5},{"trial_n":48,"min":89,"max":166,"target":"absent","response":"absent","rt":773,"correct":true,"confidence":5},{"trial_n":49,"min":89,"max":166,"target":"present","response":"absent","rt":693,"correct":false,"confidence":5},{"trial_n":50,"min":88,"max":167,"target":"absent","response":"absent","rt":693,"correct":true,"confidence":5},{"trial_n":51,"min":88,"max":167,"target":"absent","response":"absent","rt":706.00000000003,"correct":true,"confidence":5},{"trial_n":52,"min":89,"max":166,"target":"absent","response":"present","rt":2182,"correct":false,"confidence":2},{"trial_n":53,"min":88,"max":167,"target":"present","response":"present","rt":1090,"correct":true,"confidence":4},{"trial_n":54,"min":88,"max":167,"target":"present","response":"absent","rt":691,"correct":false,"confidence":3},{"trial_n":55,"min":87,"max":168,"target":"absent","response":"absent","rt":726,"correct":true,"confidence":5},{"trial_n":56,"min":87,"max":168,"target":"present","response":"present","rt":1080,"correct":true,"confidence":5},{"trial_n":57,"min":88,"max":167,"target":"present","response":"present","rt":1104,"correct":true,"confidence":5},{"trial_n":58,"min":88,"max":167,"target":"absent","response":"present","rt":1375,"correct":false,"confidence":3},{"trial_n":59,"min":87,"max":168,"target":"present","response":"present","rt":4037,"correct":true,"confidence":3},{"trial_n":60,"min":87,"max":168,"target":"absent","response":"present","rt":843,"correct":false,"confidence":4},{"trial_n":61,"min":86,"max":169,"target":"absent","response":"absent","rt":812,"correct":true,"confidence":5},{"trial_n":62,"min":86,"max":169,"target":"present","response":"present","rt":864.99999999994,"correct":true,"confidence":5},{"trial_n":63,"min":87,"max":168,"target":"present","response":"present","rt":1117,"correct":true,"confidence":4},{"trial_n":64,"min":87,"max":168,"target":"absent","response":"absent","rt":750,"correct":true,"confidence":5},{"trial_n":65,"min":88,"max":167,"target":"present","response":"absent","rt":873,"correct":false,"confidence":5},{"trial_n":66,"min":87,"max":168,"target":"absent","response":"absent","rt":720,"correct":true,"confidence":5},{"trial_n":67,"min":87,"max":168,"target":"present","response":"absent","rt":1042,"correct":false,"confidence":4},{"trial_n":68,"min":86,"max":169,"target":"absent","response":"present","rt":2268,"correct":false,"confidence":2},{"trial_n":69,"min":85,"max":170,"target":"present","response":"present","rt":829,"correct":true,"confidence":5},{"trial_n":70,"min":85,"max":170,"target":"present","response":"present","rt":718,"correct":true,"confidence":5},{"trial_n":71,"min":41,"max":214,"target":"present","response":"present","rt":1719,"correct":true,"confidence":-1},{"trial_n":72,"min":41,"max":214,"target":"present","response":"present","rt":758,"correct":true,"confidence":-1},{"trial_n":73,"min":57,"max":198,"target":"absent","response":"absent","rt":793,"correct":true,"confidence":-1},{"trial_n":74,"min":57,"max":198,"target":"absent","response":"absent","rt":439,"correct":true,"confidence":-1},{"trial_n":75,"min":73,"max":182,"target":"present","response":"present","rt":192,"correct":true,"confidence":-1},{"trial_n":76,"min":73,"max":182,"target":"present","response":"absent","rt":1704,"correct":false,"confidence":-1},{"trial_n":77,"min":57,"max":198,"target":"present","response":"present","rt":438,"correct":true,"confidence":-1},{"trial_n":78,"min":57,"max":198,"target":"present","response":"present","rt":321,"correct":true,"confidence":-1},{"trial_n":79,"min":73,"max":182,"target":"absent","response":"absent","rt":610,"correct":true,"confidence":-1},{"trial_n":80,"min":73,"max":182,"target":"absent","response":"absent","rt":859,"correct":true,"confidence":-1},{"trial_n":81,"min":81,"max":174,"target":"absent","response":"absent","rt":808.00000000006,"correct":true,"confidence":-1},{"trial_n":82,"min":81,"max":174,"target":"present","response":"present","rt":679,"correct":true,"confidence":-1},{"trial_n":83,"min":89,"max":166,"target":"present","response":"present","rt":726,"correct":true,"confidence":-1},{"trial_n":84,"min":89,"max":166,"target":"absent","response":"absent","rt":922,"correct":true,"confidence":-1},{"trial_n":85,"min":97,"max":158,"target":"present","response":"absent","rt":818,"correct":false,"confidence":-1},{"trial_n":86,"min":89,"max":166,"target":"present","response":"present","rt":451,"correct":true,"confidence":-1},{"trial_n":87,"min":89,"max":166,"target":"absent","response":"present","rt":822,"correct":false,"confidence":-1},{"trial_n":88,"min":81,"max":174,"target":"present","response":"absent","rt":420.00000000006,"correct":false,"confidence":-1},{"trial_n":89,"min":73,"max":182,"target":"absent","response":"absent","rt":743.00000000006,"correct":true,"confidence":-1},{"trial_n":90,"min":73,"max":182,"target":"absent","response":"absent","rt":652,"correct":true,"confidence":-1},{"trial_n":91,"min":77,"max":178,"target":"present","response":"present","rt":605,"correct":true,"confidence":5},{"trial_n":92,"min":77,"max":178,"target":"absent","response":"absent","rt":805,"correct":true,"confidence":5},{"trial_n":93,"min":81,"max":174,"target":"present","response":"present","rt":662.00000000006,"correct":true,"confidence":5},{"trial_n":94,"min":81,"max":174,"target":"absent","response":"absent","rt":775.99999999994,"correct":true,"confidence":5},{"trial_n":95,"min":85,"max":170,"target":"absent","response":"absent","rt":1608.9999999999,"correct":true,"confidence":3},{"trial_n":96,"min":85,"max":170,"target":"absent","response":"absent","rt":1551,"correct":true,"confidence":2},{"trial_n":97,"min":89,"max":166,"target":"absent","response":"absent","rt":3656.0000000001,"correct":true,"confidence":2},{"trial_n":98,"min":89,"max":166,"target":"present","response":"present","rt":760.99999999994,"correct":true,"confidence":4},{"trial_n":99,"min":93,"max":162,"target":"absent","response":"absent","rt":1365,"correct":true,"confidence":2},{"trial_n":100,"min":93,"max":162,"target":"absent","response":"absent","rt":2336.0000000001,"correct":true,"confidence":2},{"trial_n":101,"min":95,"max":160,"target":"absent","response":"present","rt":840.99999999988,"correct":false,"confidence":3},{"trial_n":102,"min":93,"max":162,"target":"present","response":"present","rt":2356,"correct":true,"confidence":1},{"trial_n":103,"min":93,"max":162,"target":"present","response":"present","rt":463.99999999988,"correct":true,"confidence":5},{"trial_n":104,"min":95,"max":160,"target":"absent","response":"absent","rt":942,"correct":true,"confidence":4},{"trial_n":105,"min":95,"max":160,"target":"absent","response":"present","rt":889,"correct":false,"confidence":3},{"trial_n":106,"min":93,"max":162,"target":"present","response":"absent","rt":1917,"correct":false,"confidence":1},{"trial_n":107,"min":91,"max":164,"target":"present","response":"present","rt":523,"correct":true,"confidence":5},{"trial_n":108,"min":91,"max":164,"target":"present","response":"present","rt":727,"correct":true,"confidence":3},{"trial_n":109,"min":93,"max":162,"target":"absent","response":"absent","rt":645,"correct":true,"confidence":5},{"trial_n":110,"min":93,"max":162,"target":"present","response":"present","rt":1206.9999999999,"correct":true,"confidence":3},{"trial_n":111,"min":94,"max":161,"target":"present","response":"present","rt":467,"correct":true,"confidence":5},{"trial_n":112,"min":94,"max":161,"target":"present","response":"present","rt":576,"correct":true,"confidence":4},{"trial_n":113,"min":95,"max":160,"target":"present","response":"present","rt":634,"correct":true,"confidence":4},{"trial_n":114,"min":95,"max":160,"target":"absent","response":"present","rt":941.99999999988,"correct":false,"confidence":2},{"trial_n":115,"min":94,"max":161,"target":"absent","response":"present","rt":575.99999999988,"correct":false,"confidence":2},{"trial_n":116,"min":93,"max":162,"target":"present","response":"present","rt":748,"correct":true,"confidence":2},{"trial_n":117,"min":93,"max":162,"target":"absent","response":"present","rt":4689,"correct":false,"confidence":1},{"trial_n":118,"min":92,"max":163,"target":"present","response":"present","rt":672,"correct":true,"confidence":3},{"trial_n":119,"min":92,"max":163,"target":"absent","response":"present","rt":4184.0000000001,"correct":false,"confidence":1},{"trial_n":120,"min":91,"max":164,"target":"absent","response":"absent","rt":894,"correct":true,"confidence":1},{"trial_n":121,"min":91,"max":164,"target":"present","response":"present","rt":639,"correct":true,"confidence":5},{"trial_n":122,"min":92,"max":163,"target":"present","response":"present","rt":563,"correct":true,"confidence":5},{"trial_n":123,"min":92,"max":163,"target":"present","response":"present","rt":1844,"correct":true,"confidence":3},{"trial_n":124,"min":93,"max":162,"target":"present","response":"present","rt":628,"correct":true,"confidence":4},{"trial_n":125,"min":93,"max":162,"target":"absent","response":"absent","rt":881,"correct":true,"confidence":2},{"trial_n":126,"min":94,"max":161,"target":"absent","response":"absent","rt":5933,"correct":true,"confidence":1},{"trial_n":127,"min":94,"max":161,"target":"present","response":"present","rt":501,"correct":true,"confidence":3},{"trial_n":128,"min":95,"max":160,"target":"present","response":"present","rt":1285,"correct":true,"confidence":2},{"trial_n":129,"min":95,"max":160,"target":"absent","response":"absent","rt":936,"correct":true,"confidence":3},{"trial_n":130,"min":96,"max":159,"target":"present","response":"absent","rt":2325.9999999999,"correct":false,"confidence":1},{"trial_n":131,"min":95,"max":160,"target":"present","response":"present","rt":559,"correct":true,"confidence":5},{"trial_n":132,"min":95,"max":160,"target":"absent","response":"present","rt":1433,"correct":false,"confidence":1},{"trial_n":133,"min":94,"max":161,"target":"absent","response":"absent","rt":942,"correct":true,"confidence":1},{"trial_n":134,"min":94,"max":161,"target":"present","response":"present","rt":551.99999999988,"correct":true,"confidence":4},{"trial_n":135,"min":95,"max":160,"target":"present","response":"present","rt":670,"correct":true,"confidence":4},{"trial_n":136,"min":95,"max":160,"target":"absent","response":"absent","rt":1021.9999999999,"correct":true,"confidence":1},{"trial_n":137,"min":96,"max":159,"target":"absent","response":"absent","rt":1075,"correct":true,"confidence":3},{"trial_n":138,"min":96,"max":159,"target":"absent","response":"present","rt":974.00000000012,"correct":false,"confidence":3},{"trial_n":139,"min":95,"max":160,"target":"absent","response":"present","rt":1960,"correct":false,"confidence":1},{"trial_n":140,"min":94,"max":161,"target":"present","response":"present","rt":1467.9999999998,"correct":true,"confidence":5}]