[{"trial_n":1,"min":25,"max":230,"target":"present","response":"absent","rt":9588,"correct":false,"confidence":-1},{"trial_n":2,"min":25,"max":230,"target":"present","response":"present","rt":767,"correct":true,"confidence":-1},{"trial_n":3,"min":25,"max":230,"target":"absent","response":"absent","rt":532,"correct":true,"confidence":-1},{"trial_n":4,"min":41,"max":214,"target":"absent","response":"absent","rt":342,"correct":true,"confidence":-1},{"trial_n":5,"min":41,"max":214,"target":"present","response":"present","rt":332.00000000001,"correct":true,"confidence":-1},{"trial_n":6,"min":57,"max":198,"target":"present","response":"present","rt":354,"correct":true,"confidence":-1},{"trial_n":7,"min":57,"max":198,"target":"absent","response":"absent","rt":286,"correct":true,"confidence":-1},{"trial_n":8,"min":73,"max":182,"target":"present","response":"present","rt":711,"correct":true,"confidence":-1},{"trial_n":9,"min":73,"max":182,"target":"present","response":"present","rt":636.99999999999,"correct":true,"confidence":-1},{"trial_n":10,"min":89,"max":166,"target":"present","response":"present","rt":413.00000000001,"correct":true,"confidence":-1},{"trial_n":11,"min":89,"max":166,"target":"present","response":"present","rt":638,"correct":true,"confidence":-1},{"trial_n":12,"min":97,"max":158,"target":"present","response":"absent","rt":450.00000000001,"correct":false,"confidence":-1},{"trial_n":13,"min":89,"max":166,"target":"absent","response":"absent","rt":565,"correct":true,"confidence":-1},{"trial_n":14,"min":89,"max":166,"target":"present","response":"present","rt":577,"correct":true,"confidence":-1},{"trial_n":15,"min":97,"max":158,"target":"present","response":"present","rt":608,"correct":true,"confidence":-1},{"trial_n":16,"min":97,"max":158,"target":"absent","response":"present","rt":671,"correct":false,"confidence":-1},{"trial_n":17,"min":89,"max":166,"target":"present","response":"present","rt":413,"correct":true,"confidence":-1},{"trial_n":18,"min":89,"max":166,"target":"present","response":"present","rt":574,"correct":true,"confidence":-1},{"trial_n":19,"min":97,"max":158,"target":"absent","response":"present","rt":577,"correct":false,"confidence":-1},{"trial_n":20,"min":89,"max":166,"target":"absent","response":"absent","rt":401,"correct":true,"confidence":-1},{"trial_n":21,"min":89,"max":166,"target":"present","response":"present","rt":1563,"correct":true,"confidence":2},{"trial_n":22,"min":93,"max":162,"target":"present","response":"absent","rt":728,"correct":false,"confidence":3},{"trial_n":23,"min":89,"max":166,"target":"absent","response":"absent","rt":1412,"correct":true,"confidence":2},{"trial_n":24,"min":89,"max":166,"target":"absent","response":"absent","rt":993,"correct":true,"confidence":3},{"trial_n":25,"min":93,"max":162,"target":"absent","response":"present","rt":1303,"correct":false,"confidence":2},{"trial_n":26,"min":89,"max":166,"target":"present","response":"absent","rt":2028,"correct":false,"confidence":2},{"trial_n":27,"min":85,"max":170,"target":"present","response":"present","rt":1843,"correct":true,"confidence":4},{"trial_n":28,"min":85,"max":170,"target":"absent","response":"present","rt":1327,"correct":false,"confidence":3},{"trial_n":29,"min":81,"max":174,"target":"absent","response":"absent","rt":1050,"correct":true,"confidence":3},{"trial_n":30,"min":81,"max":174,"target":"present","response":"absent","rt":976,"correct":false,"confidence":2},{"trial_n":31,"min":79,"max":176,"target":"absent","response":"present","rt":1107,"correct":false,"confidence":3},{"trial_n":32,"min":77,"max":178,"target":"absent","response":"present","rt":1049,"correct":false,"confidence":3},{"trial_n":33,"min":75,"max":180,"target":"present","response":"present","rt":707,"correct":true,"confidence":3},{"trial_n":34,"min":75,"max":180,"target":"absent","response":"present","rt":1080,"correct":false,"confidence":4},{"trial_n":35,"min":73,"max":182,"target":"present","response":"present","rt":759,"correct":true,"confidence":4},{"trial_n":36,"min":73,"max":182,"target":"present","response":"present","rt":544,"correct":true,"confidence":4},{"trial_n":37,"min":75,"max":180,"target":"present","response":"present","rt":624.00000000003,"correct":true,"confidence":4},{"trial_n":38,"min":75,"max":180,"target":"absent","response":"absent","rt":1519,"correct":true,"confidence":2},{"trial_n":39,"min":77,"max":178,"target":"present","response":"present","rt":655,"correct":true,"confidence":4},{"trial_n":40,"min":77,"max":178,"target":"present","response":"present","rt":730,"correct":true,"confidence":4},{"trial_n":41,"min":78,"max":177,"target":"present","response":"present","rt":994,"correct":true,"confidence":4},{"trial_n":42,"min":78,"max":177,"target":"present","response":"present","rt":1610,"correct":true,"confidence":3},{"trial_n":43,"min":79,"max":176,"target":"present","response":"present","rt":551,"correct":true,"confidence":4},{"trial_n":44,"min":79,"max":176,"target":"absent","response":"present","rt":742,"correct":false,"confidence":3},{"trial_n":45,"min":78,"max":177,"target":"absent","response":"absent","rt":813.00000000003,"correct":true,"confidence":3},{"trial_n":46,"min":78,"max":177,"target":"absent","response":"absent","rt":1233,"correct":true,"confidence":2},{"trial_n":47,"min":79,"max":176,"target":"absent","response":"absent","rt":961.00000000003,"correct":true,"confidence":2},{"trial_n":48,"min":79,"max":176,"target":"absent","response":"present","rt":1471,"correct":false,"confidence":2},{"trial_n":49,"min":78,"max":177,"target":"absent","response":"present","rt":771,"correct":false,"confidence":2},{"trial_n":50,"min":77,"max":178,"target":"present","response":"present","rt":906,"correct":true,"confidence":4},{"trial_n":51,"min":77,"max":178,"target":"present","response":"present","rt":659,"correct":true,"confidence":3},{"trial_n":52,"min":78,"max":177,"target":"absent","response":"absent","rt":676,"correct":true,"confidence":2},{"trial_n":53,"min":78,"max":177,"target":"present","response":"absent","rt":848,"correct":false,"confidence":3},{"trial_n":54,"min":77,"max":178,"target":"present","response":"present","rt":594,"correct":true,"confidence":3},{"trial_n":55,"min":77,"max":178,"target":"absent","response":"absent","rt":789,"correct":true,"confidence":2},{"trial_n":56,"min":78,"max":177,"target":"absent","response":"present","rt":687,"correct":false,"confidence":3},{"trial_n":57,"min":77,"max":178,"target":"absent","response":"absent","rt":1057,"correct":true,"confidence":2},{"trial_n":58,"min":77,"max":178,"target":"absent","response":"absent","rt":904.00000000003,"correct":true,"confidence":3},{"trial_n":59,"min":78,"max":177,"target":"present","response":"present","rt":531,"correct":true,"confidence":4},{"trial_n":60,"min":78,"max":177,"target":"absent","response":"present","rt":986,"correct":false,"confidence":3},{"trial_n":61,"min":77,"max":178,"target":"absent","response":"absent","rt":674,"correct":true,"confidence":3},{"trial_n":62,"min":77,"max":178,"target":"present","response":"present","rt":772.99999999997,"correct":true,"confidence":3},{"trial_n":63,"min":78,"max":177,"target":"absent","response":"present","rt":737,"correct":false,"confidence":3},{"trial_n":64,"min":77,"max":178,"target":"present","response":"present","rt":1675,"correct":true,"confidence":4},{"trial_n":65,"min":77,"max":178,"target":"absent","response":"present","rt":809,"correct":false,"confidence":3},{"trial_n":66,"min":76,"max":179,"target":"present","response":"present","rt":569,"correct":true,"confidence":4},{"trial_n":67,"min":76,"max":179,"target":"absent","response":"present","rt":1025,"correct":false,"confidence":3},{"trial_n":68,"min":75,"max":180,"target":"absent","response":"absent","rt":593.00000000003,"correct":true,"confidence":3},{"trial_n":69,"min":75,"max":180,"target":"absent","response":"absent","rt":613,"correct":true,"confidence":3},{"trial_n":70,"min":76,"max":179,"target":"present","response":"absent","rt":540.00000000003,"correct":false,"confidence":3},{"trial_n":71,"min":41,"max":214,"target":"present","response":"absent","rt":5504,"correct":false,"confidence":-1},{"trial_n":72,"min":41,"max":214,"target":"present","response":"present","rt":1387,"correct":true,"confidence":-1},{"trial_n":73,"min":41,"max":214,"target":"absent","response":"absent","rt":785,"correct":true,"confidence":-1},{"trial_n":74,"min":57,"max":198,"target":"absent","response":"absent","rt":632,"correct":true,"confidence":-1},{"trial_n":75,"min":57,"max":198,"target":"present","response":"absent","rt":423,"correct":false,"confidence":-1},{"trial_n":76,"min":41,"max":214,"target":"absent","response":"absent","rt":752,"correct":true,"confidence":-1},{"trial_n":77,"min":41,"max":214,"target":"absent","response":"absent","rt":315.99999999994,"correct":true,"confidence":-1},{"trial_n":78,"min":57,"max":198,"target":"absent","response":"absent","rt":357,"correct":true,"confidence":-1},{"trial_n":79,"min":57,"max":198,"target":"absent","response":"absent","rt":387,"correct":true,"confidence":-1},{"trial_n":80,"min":73,"max":182,"target":"absent","response":"absent","rt":606,"correct":true,"confidence":-1},{"trial_n":81,"min":73,"max":182,"target":"absent","response":"absent","rt":558,"correct":true,"confidence":-1},{"trial_n":82,"min":81,"max":174,"target":"absent","response":"absent","rt":675.99999999994,"correct":true,"confidence":-1},{"trial_n":83,"min":81,"max":174,"target":"absent","response":"absent","rt":525.99999999994,"correct":true,"confidence":-1},{"trial_n":84,"min":89,"max":166,"target":"present","response":"present","rt":556,"correct":true,"confidence":-1},{"trial_n":85,"min":89,"max":166,"target":"present","response":"present","rt":738,"correct":true,"confidence":-1},{"trial_n":86,"min":97,"max":158,"target":"absent","response":"present","rt":623,"correct":false,"confidence":-1},{"trial_n":87,"min":89,"max":166,"target":"present","response":"absent","rt":568.99999999994,"correct":false,"confidence":-1},{"trial_n":88,"min":81,"max":174,"target":"present","response":"present","rt":582,"correct":true,"confidence":-1},{"trial_n":89,"min":81,"max":174,"target":"present","response":"absent","rt":399,"correct":false,"confidence":-1},{"trial_n":90,"min":73,"max":182,"target":"present","response":"present","rt":696,"correct":true,"confidence":-1},{"trial_n":91,"min":73,"max":182,"target":"present","response":"present","rt":607,"correct":true,"confidence":4},{"trial_n":92,"min":77,"max":178,"target":"present","response":"present","rt":334.00000000006,"correct":true,"confidence":5},{"trial_n":93,"min":77,"max":178,"target":"absent","response":"absent","rt":601,"correct":true,"confidence":4},{"trial_n":94,"min":81,"max":174,"target":"absent","response":"present","rt":623.99999999988,"correct":false,"confidence":2},{"trial_n":95,"min":77,"max":178,"target":"absent","response":"absent","rt":539.99999999994,"correct":true,"confidence":4},{"trial_n":96,"min":77,"max":178,"target":"absent","response":"absent","rt":730,"correct":true,"confidence":3},{"trial_n":97,"min":81,"max":174,"target":"present","response":"present","rt":603,"correct":true,"confidence":3},{"trial_n":98,"min":81,"max":174,"target":"absent","response":"absent","rt":525,"correct":true,"confidence":2},{"trial_n":99,"min":85,"max":170,"target":"absent","response":"absent","rt":703,"correct":true,"confidence":2},{"trial_n":100,"min":85,"max":170,"target":"absent","response":"absent","rt":860,"correct":true,"confidence":3},{"trial_n":101,"min":87,"max":168,"target":"present","response":"present","rt":690,"correct":true,"confidence":3},{"trial_n":102,"min":87,"max":168,"target":"present","response":"present","rt":477.99999999988,"correct":true,"confidence":4},{"trial_n":103,"min":89,"max":166,"target":"present","response":"present","rt":418,"correct":true,"confidence":4},{"trial_n":104,"min":89,"max":166,"target":"present","response":"present","rt":767,"correct":true,"confidence":3},{"trial_n":105,"min":91,"max":164,"target":"present","response":"present","rt":526.00000000012,"correct":true,"confidence":3},{"trial_n":106,"min":91,"max":164,"target":"absent","response":"absent","rt":518.00000000012,"correct":true,"confidence":3},{"trial_n":107,"min":93,"max":162,"target":"present","response":"present","rt":1576.0000000001,"correct":true,"confidence":3},{"trial_n":108,"min":93,"max":162,"target":"present","response":"present","rt":509,"correct":true,"confidence":3},{"trial_n":109,"min":95,"max":160,"target":"present","response":"present","rt":620,"correct":true,"confidence":3},{"trial_n":110,"min":95,"max":160,"target":"present","response":"present","rt":589,"correct":true,"confidence":3},{"trial_n":111,"min":96,"max":159,"target":"absent","response":"absent","rt":654,"correct":true,"confidence":3},{"trial_n":112,"min":96,"max":159,"target":"present","response":"present","rt":684,"correct":true,"confidence":2},{"trial_n":113,"min":97,"max":158,"target":"absent","response":"present","rt":528,"correct":false,"confidence":2},{"trial_n":114,"min":96,"max":159,"target":"absent","response":"present","rt":648,"correct":false,"confidence":2},{"trial_n":115,"min":95,"max":160,"target":"present","response":"present","rt":571,"correct":true,"confidence":3},{"trial_n":116,"min":95,"max":160,"target":"present","response":"absent","rt":728,"correct":false,"confidence":2},{"trial_n":117,"min":94,"max":161,"target":"present","response":"present","rt":1104.9999999999,"correct":true,"confidence":2},{"trial_n":118,"min":94,"max":161,"target":"present","response":"absent","rt":749.00000000012,"correct":false,"confidence":2},{"trial_n":119,"min":93,"max":162,"target":"present","response":"present","rt":533.00000000012,"correct":true,"confidence":3},{"trial_n":120,"min":93,"max":162,"target":"absent","response":"absent","rt":889,"correct":true,"confidence":3},{"trial_n":121,"min":94,"max":161,"target":"present","response":"present","rt":624.00000000012,"correct":true,"confidence":2},{"trial_n":122,"min":94,"max":161,"target":"present","response":"present","rt":943,"correct":true,"confidence":2},{"trial_n":123,"min":95,"max":160,"target":"absent","response":"present","rt":366,"correct":false,"confidence":2},{"trial_n":124,"min":94,"max":161,"target":"absent","response":"present","rt":605,"correct":false,"confidence":3},{"trial_n":125,"min":93,"max":162,"target":"absent","response":"present","rt":681,"correct":false,"confidence":3},{"trial_n":126,"min":92,"max":163,"target":"present","response":"present","rt":722,"correct":true,"confidence":2},{"trial_n":127,"min":92,"max":163,"target":"present","response":"present","rt":1686,"correct":true,"confidence":2},{"trial_n":128,"min":93,"max":162,"target":"absent","response":"present","rt":894,"correct":false,"confidence":3},{"trial_n":129,"min":92,"max":163,"target":"absent","response":"present","rt":551,"correct":false,"confidence":2},{"trial_n":130,"min":91,"max":164,"target":"absent","response":"absent","rt":1004.0000000001,"correct":true,"confidence":3},{"trial_n":131,"min":91,"max":164,"target":"present","response":"present","rt":571,"correct":true,"confidence":2},{"trial_n":132,"min":92,"max":163,"target":"absent","response":"present","rt":515,"correct":false,"confidence":2},{"trial_n":133,"min":91,"max":164,"target":"present","response":"present","rt":542,"correct":true,"confidence":3},{"trial_n":134,"min":91,"max":164,"target":"absent","response":"present","rt":789,"correct":false,"confidence":1},{"trial_n":135,"min":90,"max":165,"target":"absent","response":"absent","rt":847,"correct":true,"confidence":2},{"trial_n":136,"min":90,"max":165,"target":"present","response":"present","rt":529,"correct":true,"confidence":4},{"trial_n":137,"min":91,"max":164,"target":"absent","response":"present","rt":962,"correct":false,"confidence":3},{"trial_n":138,"min":90,"max":165,"target":"present","response":"present","rt":558,"correct":true,"confidence":3},{"trial_n":139,"min":90,"max":165,"target":"absent","response":"present","rt":767,"correct":false,"confidence":2},{"trial_n":140,"min":89,"max":166,"target":"present","response":"present","rt":2158,"correct":true,"confidence":4}]