[{"trial_n":1,"min":25,"max":230,"target":"present","response":"absent","rt":9876.5,"correct":false,"confidence":-1},{"trial_n":2,"min":25,"max":230,"target":"present","response":"present","rt":2068.2000000477,"correct":true,"confidence":-1},{"trial_n":3,"min":25,"max":230,"target":"absent","response":"absent","rt":703.30000007153,"correct":true,"confidence":-1},{"trial_n":4,"min":41,"max":214,"target":"absent","response":"absent","rt":487.10000002384,"correct":true,"confidence":-1},{"trial_n":5,"min":41,"max":214,"target":"present","response":"present","rt":487.60000002384,"correct":true,"confidence":-1},{"trial_n":6,"min":57,"max":198,"target":"present","response":"present","rt":880,"correct":true,"confidence":-1},{"trial_n":7,"min":57,"max":198,"target":"present","response":"present","rt":353.20000004768,"correct":true,"confidence":-1},{"trial_n":8,"min":73,"max":182,"target":"absent","response":"absent","rt":502.29999995232,"correct":true,"confidence":-1},{"trial_n":9,"min":73,"max":182,"target":"present","response":"present","rt":500.20000004768,"correct":true,"confidence":-1},{"trial_n":10,"min":89,"max":166,"target":"present","response":"absent","rt":566.80000007153,"correct":false,"confidence":-1},{"trial_n":11,"min":81,"max":174,"target":"absent","response":"absent","rt":721.59999990463,"correct":true,"confidence":-1},{"trial_n":12,"min":81,"max":174,"target":"present","response":"absent","rt":649.29999995232,"correct":false,"confidence":-1},{"trial_n":13,"min":73,"max":182,"target":"absent","response":"absent","rt":650.5,"correct":true,"confidence":-1},{"trial_n":14,"min":73,"max":182,"target":"present","response":"present","rt":249.89999997616,"correct":true,"confidence":-1},{"trial_n":15,"min":81,"max":174,"target":"present","response":"present","rt":767.70000004768,"correct":true,"confidence":-1},{"trial_n":16,"min":81,"max":174,"target":"absent","response":"absent","rt":505.20000004768,"correct":true,"confidence":-1},{"trial_n":17,"min":89,"max":166,"target":"absent","response":"absent","rt":447.5,"correct":true,"confidence":-1},{"trial_n":18,"min":89,"max":166,"target":"present","response":"absent","rt":374.70000004768,"correct":false,"confidence":-1},{"trial_n":19,"min":81,"max":174,"target":"present","response":"absent","rt":621.70000004768,"correct":false,"confidence":-1},{"trial_n":20,"min":73,"max":182,"target":"absent","response":"absent","rt":894.09999990463,"correct":true,"confidence":-1},{"trial_n":21,"min":73,"max":182,"target":"present","response":"present","rt":987.10000002384,"correct":true,"confidence":2},{"trial_n":22,"min":77,"max":178,"target":"absent","response":"absent","rt":2829.5,"correct":true,"confidence":1},{"trial_n":23,"min":77,"max":178,"target":"present","response":"present","rt":1446.8000000715,"correct":true,"confidence":4},{"trial_n":24,"min":81,"max":174,"target":"absent","response":"present","rt":1455.8999999762,"correct":false,"confidence":3},{"trial_n":25,"min":77,"max":178,"target":"present","response":"absent","rt":1400.1000000238,"correct":false,"confidence":2},{"trial_n":26,"min":73,"max":182,"target":"absent","response":"absent","rt":1237.1000000238,"correct":true,"confidence":4},{"trial_n":27,"min":73,"max":182,"target":"absent","response":"absent","rt":1710.1000000238,"correct":true,"confidence":1},{"trial_n":28,"min":77,"max":178,"target":"absent","response":"absent","rt":2902.3000000715,"correct":true,"confidence":3},{"trial_n":29,"min":77,"max":178,"target":"present","response":"present","rt":991.80000007153,"correct":true,"confidence":3},{"trial_n":30,"min":81,"max":174,"target":"absent","response":"absent","rt":2725.2000000477,"correct":true,"confidence":4},{"trial_n":31,"min":81,"max":174,"target":"present","response":"present","rt":916.29999995232,"correct":true,"confidence":5},{"trial_n":32,"min":83,"max":172,"target":"present","response":"present","rt":963.89999997616,"correct":true,"confidence":3},{"trial_n":33,"min":83,"max":172,"target":"absent","response":"absent","rt":2419.5,"correct":true,"confidence":3},{"trial_n":34,"min":85,"max":170,"target":"absent","response":"present","rt":1817.8999999762,"correct":false,"confidence":2},{"trial_n":35,"min":83,"max":172,"target":"absent","response":"absent","rt":1760.1999999285,"correct":true,"confidence":4},{"trial_n":36,"min":83,"max":172,"target":"present","response":"present","rt":3467.7999999523,"correct":true,"confidence":1},{"trial_n":37,"min":85,"max":170,"target":"present","response":"absent","rt":1450.8000000715,"correct":false,"confidence":3},{"trial_n":38,"min":83,"max":172,"target":"absent","response":"present","rt":854.30000007153,"correct":false,"confidence":4},{"trial_n":39,"min":81,"max":174,"target":"present","response":"present","rt":785.20000004768,"correct":true,"confidence":3},{"trial_n":40,"min":81,"max":174,"target":"absent","response":"present","rt":1152.2999999523,"correct":false,"confidence":2},{"trial_n":41,"min":80,"max":175,"target":"absent","response":"present","rt":787.29999995232,"correct":false,"confidence":3},{"trial_n":42,"min":79,"max":176,"target":"absent","response":"absent","rt":1055.2000000477,"correct":true,"confidence":2},{"trial_n":43,"min":79,"max":176,"target":"present","response":"present","rt":503.59999990463,"correct":true,"confidence":4},{"trial_n":44,"min":80,"max":175,"target":"absent","response":"absent","rt":1632.3999999762,"correct":true,"confidence":2},{"trial_n":45,"min":80,"max":175,"target":"absent","response":"present","rt":760.89999997616,"correct":false,"confidence":3},{"trial_n":46,"min":79,"max":176,"target":"present","response":"present","rt":1922.7000000477,"correct":true,"confidence":5},{"trial_n":47,"min":79,"max":176,"target":"present","response":"present","rt":3046.3000000715,"correct":true,"confidence":5},{"trial_n":48,"min":80,"max":175,"target":"absent","response":"absent","rt":1266.5,"correct":true,"confidence":3},{"trial_n":49,"min":80,"max":175,"target":"present","response":"present","rt":2272.5999999046,"correct":true,"confidence":4},{"trial_n":50,"min":81,"max":174,"target":"present","response":"present","rt":1992.7999999523,"correct":true,"confidence":2},{"trial_n":51,"min":81,"max":174,"target":"present","response":"present","rt":1742.1000000238,"correct":true,"confidence":5},{"trial_n":52,"min":82,"max":173,"target":"absent","response":"present","rt":2331,"correct":false,"confidence":3},{"trial_n":53,"min":81,"max":174,"target":"present","response":"present","rt":1187.1000000238,"correct":true,"confidence":2},{"trial_n":54,"min":81,"max":174,"target":"absent","response":"present","rt":4351.8999999762,"correct":false,"confidence":4},{"trial_n":55,"min":80,"max":175,"target":"present","response":"absent","rt":727.20000004768,"correct":false,"confidence":1},{"trial_n":56,"min":79,"max":176,"target":"present","response":"absent","rt":1088.8000000715,"correct":false,"confidence":3},{"trial_n":57,"min":78,"max":177,"target":"present","response":"present","rt":797.89999997616,"correct":true,"confidence":5},{"trial_n":58,"min":78,"max":177,"target":"present","response":"present","rt":796.70000004768,"correct":true,"confidence":5},{"trial_n":59,"min":79,"max":176,"target":"absent","response":"present","rt":2688.3999999762,"correct":false,"confidence":1},{"trial_n":60,"min":78,"max":177,"target":"absent","response":"absent","rt":916.20000004768,"correct":true,"confidence":1},{"trial_n":61,"min":78,"max":177,"target":"absent","response":"absent","rt":971.10000002384,"correct":true,"confidence":3},{"trial_n":62,"min":79,"max":176,"target":"absent","response":"absent","rt":932.69999992847,"correct":true,"confidence":4},{"trial_n":63,"min":79,"max":176,"target":"present","response":"present","rt":930.80000007153,"correct":true,"confidence":3},{"trial_n":64,"min":80,"max":175,"target":"present","response":"present","rt":939.20000004768,"correct":true,"confidence":4},{"trial_n":65,"min":80,"max":175,"target":"absent","response":"absent","rt":1533.3999999762,"correct":true,"confidence":3},{"trial_n":66,"min":81,"max":174,"target":"absent","response":"present","rt":787.5,"correct":false,"confidence":3},{"trial_n":67,"min":80,"max":175,"target":"present","response":"present","rt":1833.3999999762,"correct":true,"confidence":3},{"trial_n":68,"min":80,"max":175,"target":"absent","response":"absent","rt":718.39999997616,"correct":true,"confidence":4},{"trial_n":69,"min":81,"max":174,"target":"absent","response":"absent","rt":938.10000002384,"correct":true,"confidence":5},{"trial_n":70,"min":81,"max":174,"target":"present","response":"present","rt":569,"correct":true,"confidence":5},{"trial_n":71,"min":41,"max":214,"target":"present","response":"present","rt":7045.6000000238,"correct":true,"confidence":-1},{"trial_n":72,"min":41,"max":214,"target":"present","response":"present","rt":882.39999997616,"correct":true,"confidence":-1},{"trial_n":73,"min":57,"max":198,"target":"absent","response":"absent","rt":652.79999995232,"correct":true,"confidence":-1},{"trial_n":74,"min":57,"max":198,"target":"absent","response":"absent","rt":692.69999992847,"correct":true,"confidence":-1},{"trial_n":75,"min":73,"max":182,"target":"present","response":"present","rt":589.70000004768,"correct":true,"confidence":-1},{"trial_n":76,"min":73,"max":182,"target":"present","response":"present","rt":908.5,"correct":true,"confidence":-1},{"trial_n":77,"min":89,"max":166,"target":"present","response":"present","rt":599.79999995232,"correct":true,"confidence":-1},{"trial_n":78,"min":89,"max":166,"target":"present","response":"absent","rt":571.79999995232,"correct":false,"confidence":-1},{"trial_n":79,"min":73,"max":182,"target":"present","response":"present","rt":461.80000007153,"correct":true,"confidence":-1},{"trial_n":80,"min":73,"max":182,"target":"absent","response":"absent","rt":728.19999992847,"correct":true,"confidence":-1},{"trial_n":81,"min":81,"max":174,"target":"absent","response":"absent","rt":1017.2999999523,"correct":true,"confidence":-1},{"trial_n":82,"min":81,"max":174,"target":"present","response":"present","rt":710.79999995232,"correct":true,"confidence":-1},{"trial_n":83,"min":89,"max":166,"target":"present","response":"present","rt":858.20000004768,"correct":true,"confidence":-1},{"trial_n":84,"min":89,"max":166,"target":"present","response":"present","rt":569.70000004768,"correct":true,"confidence":-1},{"trial_n":85,"min":97,"max":158,"target":"present","response":"present","rt":2242,"correct":true,"confidence":-1},{"trial_n":86,"min":97,"max":158,"target":"present","response":"present","rt":725.09999990463,"correct":true,"confidence":-1},{"trial_n":87,"min":105,"max":150,"target":"absent","response":"present","rt":811.79999995232,"correct":false,"confidence":-1},{"trial_n":88,"min":97,"max":158,"target":"present","response":"present","rt":608.29999995232,"correct":true,"confidence":-1},{"trial_n":89,"min":97,"max":158,"target":"absent","response":"absent","rt":413,"correct":true,"confidence":-1},{"trial_n":90,"min":105,"max":150,"target":"absent","response":"present","rt":761.20000004768,"correct":false,"confidence":-1},{"trial_n":91,"min":101,"max":154,"target":"present","response":"present","rt":4002.4000000954,"correct":true,"confidence":1},{"trial_n":92,"min":101,"max":154,"target":"absent","response":"present","rt":3087.7000000477,"correct":false,"confidence":1},{"trial_n":93,"min":97,"max":158,"target":"absent","response":"present","rt":423.79999995232,"correct":false,"confidence":3},{"trial_n":94,"min":93,"max":162,"target":"absent","response":"present","rt":482.40000009537,"correct":false,"confidence":3},{"trial_n":95,"min":89,"max":166,"target":"present","response":"present","rt":1139.3999999762,"correct":true,"confidence":3},{"trial_n":96,"min":89,"max":166,"target":"present","response":"present","rt":408.5,"correct":true,"confidence":4},{"trial_n":97,"min":93,"max":162,"target":"present","response":"present","rt":567.89999997616,"correct":true,"confidence":4},{"trial_n":98,"min":93,"max":162,"target":"present","response":"present","rt":753.20000004768,"correct":true,"confidence":1},{"trial_n":99,"min":97,"max":158,"target":"present","response":"present","rt":685.39999997616,"correct":true,"confidence":3},{"trial_n":100,"min":97,"max":158,"target":"absent","response":"present","rt":672.40000009537,"correct":false,"confidence":3},{"trial_n":101,"min":95,"max":160,"target":"present","response":"present","rt":395.69999992847,"correct":true,"confidence":4},{"trial_n":102,"min":95,"max":160,"target":"absent","response":"present","rt":967.5,"correct":false,"confidence":2},{"trial_n":103,"min":93,"max":162,"target":"absent","response":"present","rt":588.79999995232,"correct":false,"confidence":2},{"trial_n":104,"min":91,"max":164,"target":"absent","response":"absent","rt":838.89999997616,"correct":true,"confidence":3},{"trial_n":105,"min":91,"max":164,"target":"absent","response":"present","rt":1162.7000000477,"correct":false,"confidence":1},{"trial_n":106,"min":89,"max":166,"target":"absent","response":"absent","rt":823.29999995232,"correct":true,"confidence":3},{"trial_n":107,"min":89,"max":166,"target":"present","response":"present","rt":723,"correct":true,"confidence":3},{"trial_n":108,"min":91,"max":164,"target":"present","response":"present","rt":1463.3999999762,"correct":true,"confidence":2},{"trial_n":109,"min":91,"max":164,"target":"absent","response":"absent","rt":2065.2999999523,"correct":true,"confidence":1},{"trial_n":110,"min":93,"max":162,"target":"absent","response":"absent","rt":1418.8000000715,"correct":true,"confidence":1},{"trial_n":111,"min":93,"max":162,"target":"absent","response":"present","rt":932.10000002384,"correct":false,"confidence":3},{"trial_n":112,"min":92,"max":163,"target":"present","response":"present","rt":1231.4000000954,"correct":true,"confidence":3},{"trial_n":113,"min":92,"max":163,"target":"present","response":"absent","rt":1750.7000000477,"correct":false,"confidence":1},{"trial_n":114,"min":91,"max":164,"target":"present","response":"present","rt":394.20000004768,"correct":true,"confidence":4},{"trial_n":115,"min":91,"max":164,"target":"present","response":"present","rt":671.09999990463,"correct":true,"confidence":5},{"trial_n":116,"min":92,"max":163,"target":"present","response":"present","rt":546.89999997616,"correct":true,"confidence":3},{"trial_n":117,"min":92,"max":163,"target":"present","response":"present","rt":394.70000004768,"correct":true,"confidence":3},{"trial_n":118,"min":93,"max":162,"target":"absent","response":"present","rt":1013.2999999523,"correct":false,"confidence":2},{"trial_n":119,"min":92,"max":163,"target":"present","response":"present","rt":485.59999990463,"correct":true,"confidence":4},{"trial_n":120,"min":92,"max":163,"target":"present","response":"present","rt":474.39999997616,"correct":true,"confidence":3},{"trial_n":121,"min":93,"max":162,"target":"absent","response":"present","rt":1090.1000000238,"correct":false,"confidence":2},{"trial_n":122,"min":92,"max":163,"target":"present","response":"present","rt":632.69999992847,"correct":true,"confidence":1},{"trial_n":123,"min":92,"max":163,"target":"present","response":"present","rt":1293.5,"correct":true,"confidence":1},{"trial_n":124,"min":93,"max":162,"target":"absent","response":"absent","rt":2159.6999999285,"correct":true,"confidence":1},{"trial_n":125,"min":93,"max":162,"target":"absent","response":"present","rt":406.10000002384,"correct":false,"confidence":3},{"trial_n":126,"min":92,"max":163,"target":"absent","response":"present","rt":970.69999992847,"correct":false,"confidence":3},{"trial_n":127,"min":91,"max":164,"target":"absent","response":"absent","rt":967.90000009537,"correct":true,"confidence":4},{"trial_n":128,"min":91,"max":164,"target":"absent","response":"absent","rt":996.60000002384,"correct":true,"confidence":3},{"trial_n":129,"min":92,"max":163,"target":"absent","response":"present","rt":1267.7999999523,"correct":false,"confidence":3},{"trial_n":130,"min":91,"max":164,"target":"absent","response":"absent","rt":688.89999997616,"correct":true,"confidence":4},{"trial_n":131,"min":91,"max":164,"target":"absent","response":"present","rt":784.70000004768,"correct":false,"confidence":2},{"trial_n":132,"min":90,"max":165,"target":"present","response":"present","rt":518.89999997616,"correct":true,"confidence":4},{"trial_n":133,"min":90,"max":165,"target":"absent","response":"absent","rt":724.39999997616,"correct":true,"confidence":2},{"trial_n":134,"min":91,"max":164,"target":"present","response":"present","rt":533.20000004768,"correct":true,"confidence":2},{"trial_n":135,"min":91,"max":164,"target":"present","response":"present","rt":448.89999997616,"correct":true,"confidence":4},{"trial_n":136,"min":92,"max":163,"target":"absent","response":"present","rt":1100.8000000715,"correct":false,"confidence":1},{"trial_n":137,"min":91,"max":164,"target":"present","response":"present","rt":466.19999992847,"correct":true,"confidence":5},{"trial_n":138,"min":91,"max":164,"target":"absent","response":"present","rt":849.79999995232,"correct":false,"confidence":5},{"trial_n":139,"min":90,"max":165,"target":"absent","response":"absent","rt":1936.8999999762,"correct":true,"confidence":1},{"trial_n":140,"min":90,"max":165,"target":"absent","response":"present","rt":867,"correct":false,"confidence":2}]