[{"trial_n":1,"n_dots":4.25,"target":"left","response":"left","rt":3274,"correct":true,"confidence":-1},{"trial_n":2,"n_dots":4.25,"target":"right","response":"left","rt":1743,"correct":false,"confidence":-1},{"trial_n":3,"n_dots":4.65,"target":"right","response":"right","rt":561,"correct":true,"confidence":-1},{"trial_n":4,"n_dots":4.65,"target":"right","response":"right","rt":342,"correct":true,"confidence":-1},{"trial_n":5,"n_dots":4.25,"target":"left","response":"left","rt":669,"correct":true,"confidence":-1},{"trial_n":6,"n_dots":4.25,"target":"left","response":"left","rt":4419,"correct":true,"confidence":-1},{"trial_n":7,"n_dots":3.85,"target":"left","response":"left","rt":532,"correct":true,"confidence":-1},{"trial_n":8,"n_dots":3.85,"target":"right","response":"left","rt":516.00000000001,"correct":false,"confidence":-1},{"trial_n":9,"n_dots":4.05,"target":"right","response":"right","rt":514,"correct":true,"confidence":-1},{"trial_n":10,"n_dots":4.05,"target":"right","response":"left","rt":521.99999999999,"correct":false,"confidence":-1},{"trial_n":11,"n_dots":4.25,"target":"left","response":"left","rt":671,"correct":true,"confidence":-1},{"trial_n":12,"n_dots":4.25,"target":"right","response":"left","rt":510.00000000001,"correct":false,"confidence":-1},{"trial_n":13,"n_dots":4.35,"target":"left","response":"left","rt":329,"correct":true,"confidence":-1},{"trial_n":14,"n_dots":4.35,"target":"right","response":"right","rt":418,"correct":true,"confidence":-1},{"trial_n":15,"n_dots":4.25,"target":"left","response":"left","rt":485,"correct":true,"confidence":-1},{"trial_n":16,"n_dots":4.25,"target":"left","response":"left","rt":298.99999999997,"correct":true,"confidence":-1},{"trial_n":17,"n_dots":4.15,"target":"right","response":"left","rt":396.00000000003,"correct":false,"confidence":-1},{"trial_n":18,"n_dots":4.25,"target":"right","response":"right","rt":433,"correct":true,"confidence":-1},{"trial_n":19,"n_dots":4.25,"target":"left","response":"left","rt":81,"correct":true,"confidence":-1},{"trial_n":20,"n_dots":4.15,"target":"right","response":"right","rt":177,"correct":true,"confidence":-1},{"trial_n":21,"n_dots":4.15,"target":"right","response":"right","rt":634.00000000003,"correct":true,"confidence":2},{"trial_n":22,"n_dots":4.05,"target":"left","response":"left","rt":360,"correct":true,"confidence":4},{"trial_n":23,"n_dots":4.05,"target":"right","response":"left","rt":843,"correct":false,"confidence":3},{"trial_n":24,"n_dots":4.15,"target":"left","response":"left","rt":322.00000000003,"correct":true,"confidence":4},{"trial_n":25,"n_dots":4.15,"target":"right","response":"left","rt":573,"correct":false,"confidence":2},{"trial_n":26,"n_dots":4.25,"target":"left","response":"left","rt":365,"correct":true,"confidence":4},{"trial_n":27,"n_dots":4.25,"target":"right","response":"right","rt":540.99999999997,"correct":true,"confidence":2},{"trial_n":28,"n_dots":4.15,"target":"right","response":"left","rt":723,"correct":false,"confidence":2},{"trial_n":29,"n_dots":4.25,"target":"right","response":"right","rt":420,"correct":true,"confidence":4},{"trial_n":30,"n_dots":4.25,"target":"right","response":"left","rt":876,"correct":false,"confidence":3},{"trial_n":31,"n_dots":4.35,"target":"left","response":"left","rt":316,"correct":true,"confidence":4},{"trial_n":32,"n_dots":4.35,"target":"left","response":"left","rt":580,"correct":true,"confidence":3},{"trial_n":33,"n_dots":4.25,"target":"left","response":"left","rt":564,"correct":true,"confidence":3},{"trial_n":34,"n_dots":4.25,"target":"right","response":"right","rt":1003,"correct":true,"confidence":2},{"trial_n":35,"n_dots":4.15,"target":"right","response":"left","rt":329,"correct":false,"confidence":3},{"trial_n":36,"n_dots":4.25,"target":"right","response":"right","rt":627.99999999997,"correct":true,"confidence":2},{"trial_n":37,"n_dots":4.25,"target":"left","response":"left","rt":499,"correct":true,"confidence":3},{"trial_n":38,"n_dots":4.15,"target":"left","response":"left","rt":326,"correct":true,"confidence":4},{"trial_n":39,"n_dots":4.15,"target":"right","response":"right","rt":531,"correct":true,"confidence":2},{"trial_n":40,"n_dots":4.05,"target":"right","response":"right","rt":482,"correct":true,"confidence":2},{"trial_n":41,"n_dots":4.05,"target":"left","response":"left","rt":319,"correct":true,"confidence":4},{"trial_n":42,"n_dots":3.95,"target":"left","response":"left","rt":167,"correct":true,"confidence":4},{"trial_n":43,"n_dots":3.95,"target":"right","response":"right","rt":374,"correct":true,"confidence":3},{"trial_n":44,"n_dots":3.85,"target":"right","response":"right","rt":761,"correct":true,"confidence":2},{"trial_n":45,"n_dots":3.85,"target":"right","response":"right","rt":394.99999999997,"correct":true,"confidence":2},{"trial_n":46,"n_dots":3.75,"target":"right","response":"left","rt":350.00000000003,"correct":false,"confidence":2},{"trial_n":47,"n_dots":3.85,"target":"right","response":"right","rt":435.99999999997,"correct":true,"confidence":2},{"trial_n":48,"n_dots":3.85,"target":"right","response":"right","rt":795,"correct":true,"confidence":1},{"trial_n":49,"n_dots":3.75,"target":"left","response":"left","rt":50,"correct":true,"confidence":4},{"trial_n":50,"n_dots":3.75,"target":"right","response":"left","rt":789,"correct":false,"confidence":3},{"trial_n":51,"n_dots":3.85,"target":"left","response":"left","rt":524,"correct":true,"confidence":3},{"trial_n":52,"n_dots":3.85,"target":"left","response":"left","rt":45,"correct":true,"confidence":3},{"trial_n":53,"n_dots":3.75,"target":"left","response":"left","rt":970.99999999994,"correct":true,"confidence":3},{"trial_n":54,"n_dots":3.75,"target":"right","response":"right","rt":615,"correct":true,"confidence":3},{"trial_n":55,"n_dots":3.65,"target":"left","response":"left","rt":492,"correct":true,"confidence":2},{"trial_n":56,"n_dots":3.65,"target":"right","response":"right","rt":408.00000000006,"correct":true,"confidence":2},{"trial_n":57,"n_dots":3.55,"target":"right","response":"right","rt":514,"correct":true,"confidence":2},{"trial_n":58,"n_dots":3.55,"target":"left","response":"left","rt":28,"correct":true,"confidence":2},{"trial_n":59,"n_dots":3.45,"target":"right","response":"right","rt":43,"correct":true,"confidence":2},{"trial_n":60,"n_dots":3.45,"target":"left","response":"left","rt":132,"correct":true,"confidence":3},{"trial_n":61,"n_dots":3.35,"target":"left","response":"left","rt":419,"correct":true,"confidence":3},{"trial_n":62,"n_dots":3.35,"target":"left","response":"left","rt":64,"correct":true,"confidence":3},{"trial_n":63,"n_dots":3.25,"target":"left","response":"left","rt":209,"correct":true,"confidence":3},{"trial_n":64,"n_dots":3.25,"target":"right","response":"right","rt":257,"correct":true,"confidence":2},{"trial_n":65,"n_dots":3.15,"target":"left","response":"left","rt":252,"correct":true,"confidence":2},{"trial_n":66,"n_dots":3.15,"target":"right","response":"left","rt":292,"correct":false,"confidence":2},{"trial_n":67,"n_dots":3.25,"target":"left","response":"left","rt":347.99999999994,"correct":true,"confidence":4},{"trial_n":68,"n_dots":3.25,"target":"right","response":"left","rt":474,"correct":false,"confidence":3},{"trial_n":69,"n_dots":3.35,"target":"left","response":"left","rt":158,"correct":true,"confidence":3},{"trial_n":70,"n_dots":3.35,"target":"left","response":"left","rt":130,"correct":true,"confidence":3},{"trial_n":71,"n_dots":3.25,"target":"left","response":"right","rt":464,"correct":false,"confidence":2},{"trial_n":72,"n_dots":3.35,"target":"right","response":"left","rt":376,"correct":false,"confidence":3},{"trial_n":73,"n_dots":3.45,"target":"left","response":"left","rt":358,"correct":true,"confidence":4},{"trial_n":74,"n_dots":3.45,"target":"left","response":"left","rt":518,"correct":true,"confidence":4},{"trial_n":75,"n_dots":3.35,"target":"left","response":"left","rt":193.99999999994,"correct":true,"confidence":4},{"trial_n":76,"n_dots":3.35,"target":"right","response":"left","rt":87,"correct":false,"confidence":4},{"trial_n":77,"n_dots":3.45,"target":"left","response":"left","rt":1031,"correct":true,"confidence":4},{"trial_n":78,"n_dots":3.45,"target":"right","response":"right","rt":363,"correct":true,"confidence":3},{"trial_n":79,"n_dots":3.35,"target":"left","response":"left","rt":345,"correct":true,"confidence":4},{"trial_n":80,"n_dots":3.35,"target":"right","response":"right","rt":549,"correct":true,"confidence":3},{"trial_n":81,"n_dots":3.25,"target":"right","response":"left","rt":251.99999999994,"correct":false,"confidence":4},{"trial_n":82,"n_dots":3.35,"target":"left","response":"left","rt":692,"correct":true,"confidence":4},{"trial_n":83,"n_dots":3.35,"target":"left","response":"left","rt":53.999999999942,"correct":true,"confidence":4},{"trial_n":84,"n_dots":3.25,"target":"left","response":"left","rt":238,"correct":true,"confidence":3},{"trial_n":85,"n_dots":3.25,"target":"left","response":"right","rt":402,"correct":false,"confidence":1},{"trial_n":86,"n_dots":3.35,"target":"left","response":"left","rt":500,"correct":true,"confidence":3},{"trial_n":87,"n_dots":3.35,"target":"right","response":"left","rt":405,"correct":false,"confidence":2},{"trial_n":88,"n_dots":3.45,"target":"left","response":"left","rt":639,"correct":true,"confidence":4},{"trial_n":89,"n_dots":3.45,"target":"right","response":"left","rt":486,"correct":false,"confidence":3},{"trial_n":90,"n_dots":3.55,"target":"left","response":"left","rt":266,"correct":true,"confidence":3},{"trial_n":91,"n_dots":3.55,"target":"left","response":"left","rt":85.999999999942,"correct":true,"confidence":3},{"trial_n":92,"n_dots":3.45,"target":"right","response":"right","rt":325,"correct":true,"confidence":3},{"trial_n":93,"n_dots":3.45,"target":"left","response":"left","rt":247,"correct":true,"confidence":3},{"trial_n":94,"n_dots":3.35,"target":"left","response":"left","rt":90,"correct":true,"confidence":4},{"trial_n":95,"n_dots":3.35,"target":"right","response":"right","rt":154,"correct":true,"confidence":3},{"trial_n":96,"n_dots":3.25,"target":"left","response":"left","rt":702,"correct":true,"confidence":2},{"trial_n":97,"n_dots":3.25,"target":"left","response":"left","rt":3666,"correct":true,"confidence":5},{"trial_n":98,"n_dots":3.15,"target":"right","response":"left","rt":416,"correct":false,"confidence":3},{"trial_n":99,"n_dots":3.25,"target":"right","response":"left","rt":92,"correct":false,"confidence":3},{"trial_n":100,"n_dots":3.35,"target":"left","response":"right","rt":490,"correct":false,"confidence":2},{"trial_n":101,"n_dots":3.45,"target":"right","response":"right","rt":738,"correct":true,"confidence":3},{"trial_n":102,"n_dots":3.45,"target":"right","response":"right","rt":280,"correct":true,"confidence":3},{"trial_n":103,"n_dots":3.35,"target":"right","response":"right","rt":378,"correct":true,"confidence":3},{"trial_n":104,"n_dots":3.35,"target":"left","response":"left","rt":390,"correct":true,"confidence":3},{"trial_n":105,"n_dots":3.25,"target":"right","response":"right","rt":149.99999999994,"correct":true,"confidence":3},{"trial_n":106,"n_dots":3.25,"target":"left","response":"left","rt":139.00000000006,"correct":true,"confidence":3},{"trial_n":107,"n_dots":3.15,"target":"right","response":"right","rt":125,"correct":true,"confidence":3},{"trial_n":108,"n_dots":3.15,"target":"left","response":"left","rt":752,"correct":true,"confidence":4},{"trial_n":109,"n_dots":3.05,"target":"right","response":"right","rt":160.00000000006,"correct":true,"confidence":4},{"trial_n":110,"n_dots":3.05,"target":"right","response":"right","rt":471.99999999994,"correct":true,"confidence":3},{"trial_n":111,"n_dots":2.95,"target":"right","response":"left","rt":478,"correct":false,"confidence":3},{"trial_n":112,"n_dots":3.05,"target":"right","response":"right","rt":375,"correct":true,"confidence":1},{"trial_n":113,"n_dots":3.05,"target":"left","response":"left","rt":122.00000000006,"correct":true,"confidence":3},{"trial_n":114,"n_dots":2.95,"target":"left","response":"right","rt":347,"correct":false,"confidence":3},{"trial_n":115,"n_dots":3.05,"target":"left","response":"left","rt":580,"correct":true,"confidence":2},{"trial_n":116,"n_dots":3.05,"target":"left","response":"left","rt":53,"correct":true,"confidence":4},{"trial_n":117,"n_dots":2.95,"target":"right","response":"left","rt":489,"correct":false,"confidence":3},{"trial_n":118,"n_dots":3.05,"target":"right","response":"right","rt":67,"correct":true,"confidence":2},{"trial_n":119,"n_dots":3.05,"target":"left","response":"left","rt":305,"correct":true,"confidence":3},{"trial_n":120,"n_dots":2.95,"target":"right","response":"left","rt":510,"correct":false,"confidence":3}]