[{"trial_n":1,"span":8,"encoder":"25631516","distractor":"25531516","target":"present","response":"present","rt":"9360","correct":true,"confidence":-1},{"trial_n":2,"span":8,"encoder":"12284051","distractor":"10284051","target":"present","response":"absent","rt":"1907","correct":false,"confidence":-1},{"trial_n":3,"span":6,"encoder":"272266","distractor":"272296","target":"absent","response":"present","rt":"1794","correct":false,"confidence":-1},{"trial_n":4,"span":4,"encoder":"0524","distractor":"8524","target":"absent","response":"absent","rt":"1813","correct":true,"confidence":-1},{"trial_n":5,"span":4,"encoder":"8055","distractor":"1055","target":"present","response":"present","rt":"2452","correct":true,"confidence":-1},{"trial_n":6,"span":6,"encoder":"524057","distractor":"924057","target":"absent","response":"absent","rt":"2046","correct":true,"confidence":-1},{"trial_n":7,"span":6,"encoder":"903746","distractor":"903756","target":"present","response":"present","rt":"1244","correct":true,"confidence":-1},{"trial_n":8,"span":8,"encoder":"70648755","distractor":"70648750","target":"present","response":"present","rt":"1286","correct":true,"confidence":-1},{"trial_n":9,"span":8,"encoder":"63289402","distractor":"63289442","target":"present","response":"present","rt":"1505","correct":true,"confidence":-1},{"trial_n":10,"span":10,"encoder":"8259679111","distractor":"8257679111","target":"absent","response":"present","rt":"928","correct":false,"confidence":-1},{"trial_n":11,"span":8,"encoder":"13236734","distractor":"13236754","target":"present","response":"present","rt":"1680","correct":true,"confidence":-1},{"trial_n":12,"span":8,"encoder":"63265931","distractor":"63263931","target":"absent","response":"present","rt":"820","correct":false,"confidence":-1},{"trial_n":13,"span":7,"encoder":"1235771","distractor":"2235771","target":"absent","response":"present","rt":"1258","correct":false,"confidence":-1},{"trial_n":14,"span":6,"encoder":"402780","distractor":"402781","target":"absent","response":"absent","rt":"2070","correct":true,"confidence":-1},{"trial_n":15,"span":6,"encoder":"961186","distractor":"968186","target":"present","response":"present","rt":"957","correct":true,"confidence":-1},{"trial_n":16,"span":7,"encoder":"6126380","distractor":"9126380","target":"present","response":"present","rt":"1207","correct":true,"confidence":-1},{"trial_n":17,"span":7,"encoder":"9889615","distractor":"9889695","target":"absent","response":"present","rt":"1307","correct":false,"confidence":-1},{"trial_n":18,"span":6,"encoder":"589664","distractor":"539664","target":"absent","response":"present","rt":"1879","correct":false,"confidence":-1},{"trial_n":19,"span":5,"encoder":"74454","distractor":"74434","target":"present","response":"present","rt":"1518","correct":true,"confidence":-1},{"trial_n":20,"span":5,"encoder":"18631","distractor":"18635","target":"absent","response":"absent","rt":"2222","correct":true,"confidence":-1},{"trial_n":21,"span":6,"encoder":"428764","distractor":"418764","target":"absent","response":"absent","rt":"2441","correct":true,"confidence":3},{"trial_n":22,"span":6,"encoder":"175467","distractor":"170467","target":"present","response":"present","rt":"2996","correct":true,"confidence":3},{"trial_n":23,"span":7,"encoder":"1011078","distractor":"1081078","target":"absent","response":"absent","rt":"2162","correct":true,"confidence":4},{"trial_n":24,"span":7,"encoder":"4968258","distractor":"4966258","target":"present","response":"present","rt":"2467","correct":true,"confidence":4},{"trial_n":25,"span":8,"encoder":"17326717","distractor":"17226717","target":"present","response":"present","rt":"2372","correct":true,"confidence":3},{"trial_n":26,"span":8,"encoder":"21792436","distractor":"21992436","target":"absent","response":"absent","rt":"2296","correct":true,"confidence":3},{"trial_n":27,"span":9,"encoder":"479638314","distractor":"479688314","target":"present","response":"present","rt":"1900","correct":true,"confidence":3},{"trial_n":28,"span":9,"encoder":"240473468","distractor":"240473668","target":"absent","response":"absent","rt":"2198","correct":true,"confidence":3},{"trial_n":29,"span":10,"encoder":"3271059862","distractor":"7271059862","target":"present","response":"present","rt":"2288","correct":true,"confidence":2},{"trial_n":30,"span":10,"encoder":"6440569311","distractor":"6440769311","target":"present","response":"present","rt":"3263","correct":true,"confidence":2},{"trial_n":31,"span":11,"encoder":"96281464980","distractor":"36281464980","target":"present","response":"present","rt":"2637","correct":true,"confidence":2},{"trial_n":32,"span":11,"encoder":"42685646891","distractor":"46685646891","target":"absent","response":"present","rt":"1943","correct":false,"confidence":2},{"trial_n":33,"span":10,"encoder":"7128813033","distractor":"7128813053","target":"present","response":"present","rt":"1907","correct":true,"confidence":3},{"trial_n":34,"span":10,"encoder":"8993259235","distractor":"8990259235","target":"present","response":"present","rt":"2286","correct":true,"confidence":3},{"trial_n":35,"span":11,"encoder":"63210163353","distractor":"63210163352","target":"absent","response":"present","rt":"2286","correct":false,"confidence":3},{"trial_n":36,"span":10,"encoder":"4994494636","distractor":"4974494636","target":"present","response":"present","rt":"1178","correct":true,"confidence":3},{"trial_n":37,"span":10,"encoder":"8268578117","distractor":"8268578167","target":"present","response":"present","rt":"1654.9999999999","correct":true,"confidence":2},{"trial_n":38,"span":11,"encoder":"88500797729","distractor":"88550797729","target":"absent","response":"present","rt":"1789.0000000001","correct":false,"confidence":3},{"trial_n":39,"span":10,"encoder":"5737416595","distractor":"5747416595","target":"present","response":"present","rt":"1507","correct":true,"confidence":2},{"trial_n":40,"span":10,"encoder":"9752616013","distractor":"5752616013","target":"absent","response":"absent","rt":"2455.0000000001","correct":true,"confidence":3},{"trial_n":41,"span":11,"encoder":"42910118165","distractor":"42210118165","target":"absent","response":"absent","rt":"2226","correct":true,"confidence":2},{"trial_n":42,"span":11,"encoder":"93235445388","distractor":"93235445988","target":"absent","response":"present","rt":"1893","correct":false,"confidence":2},{"trial_n":43,"span":10,"encoder":"0504566322","distractor":"9504566322","target":"present","response":"present","rt":"1967","correct":true,"confidence":3},{"trial_n":44,"span":10,"encoder":"0942912374","distractor":"0442912374","target":"absent","response":"absent","rt":"2579.9999999999","correct":true,"confidence":2},{"trial_n":45,"span":11,"encoder":"58560008745","distractor":"58560808745","target":"present","response":"present","rt":"2089","correct":true,"confidence":3},{"trial_n":46,"span":11,"encoder":"43509089424","distractor":"43509089124","target":"absent","response":"present","rt":"2352","correct":false,"confidence":2},{"trial_n":47,"span":10,"encoder":"8863805848","distractor":"8863805843","target":"present","response":"absent","rt":"3002.9999999999","correct":false,"confidence":2},{"trial_n":48,"span":9,"encoder":"559904106","distractor":"559904136","target":"absent","response":"present","rt":"2458.0000000001","correct":false,"confidence":3},{"trial_n":49,"span":8,"encoder":"50979360","distractor":"50978360","target":"present","response":"present","rt":"1078","correct":true,"confidence":3},{"trial_n":50,"span":8,"encoder":"09211814","distractor":"06211814","target":"absent","response":"absent","rt":"2451.0000000001","correct":true,"confidence":3},{"trial_n":51,"span":9,"encoder":"095158874","distractor":"095158814","target":"absent","response":"present","rt":"1857.0000000001","correct":false,"confidence":3},{"trial_n":52,"span":8,"encoder":"19432842","distractor":"19432848","target":"absent","response":"absent","rt":"1956","correct":true,"confidence":5},{"trial_n":53,"span":8,"encoder":"09997409","distractor":"09990409","target":"present","response":"present","rt":"1816","correct":true,"confidence":4},{"trial_n":54,"span":9,"encoder":"314571847","distractor":"314071847","target":"present","response":"present","rt":"1769","correct":true,"confidence":3},{"trial_n":55,"span":9,"encoder":"724366019","distractor":"724368019","target":"absent","response":"absent","rt":"2189","correct":true,"confidence":3},{"trial_n":56,"span":10,"encoder":"8660283814","distractor":"1660283814","target":"absent","response":"present","rt":"2596","correct":false,"confidence":3},{"trial_n":57,"span":9,"encoder":"710293031","distractor":"710493031","target":"absent","response":"present","rt":"1770","correct":false,"confidence":3},{"trial_n":58,"span":8,"encoder":"82756417","distractor":"82756410","target":"present","response":"present","rt":"2073","correct":true,"confidence":3},{"trial_n":59,"span":8,"encoder":"05989242","distractor":"05989272","target":"present","response":"present","rt":"1716","correct":true,"confidence":3},{"trial_n":60,"span":9,"encoder":"265934414","distractor":"265933414","target":"present","response":"present","rt":"2777","correct":true,"confidence":3},{"trial_n":61,"span":9,"encoder":"922252816","distractor":"962252816","target":"absent","response":"absent","rt":"2754.0000000001","correct":true,"confidence":4},{"trial_n":62,"span":10,"encoder":"1674886423","distractor":"1674880423","target":"present","response":"present","rt":"2137.0000000001","correct":true,"confidence":3},{"trial_n":63,"span":10,"encoder":"6598308603","distractor":"1598308603","target":"present","response":"present","rt":"1863","correct":true,"confidence":3},{"trial_n":64,"span":11,"encoder":"48240519142","distractor":"48240511142","target":"present","response":"present","rt":"1584","correct":true,"confidence":3},{"trial_n":65,"span":11,"encoder":"56479706340","distractor":"56479701340","target":"absent","response":"absent","rt":"3076.0000000001","correct":true,"confidence":3},{"trial_n":66,"span":12,"encoder":"733888801628","distractor":"736888801628","target":"present","response":"present","rt":"2506.9999999999","correct":true,"confidence":3},{"trial_n":67,"span":12,"encoder":"756787740272","distractor":"756787770272","target":"present","response":"present","rt":"2654","correct":true,"confidence":2},{"trial_n":68,"span":13,"encoder":"1221087005304","distractor":"1221017005304","target":"absent","response":"present","rt":"3738","correct":false,"confidence":2},{"trial_n":69,"span":12,"encoder":"644820890134","distractor":"644823890134","target":"absent","response":"present","rt":"2169","correct":false,"confidence":3},{"trial_n":70,"span":11,"encoder":"64089858263","distractor":"64059858263","target":"absent","response":"present","rt":"2352","correct":false,"confidence":3},{"trial_n":71,"span":8,"encoder":"61057410","distractor":"60057410","target":"present","response":"absent","rt":"7114.0000000001","correct":false,"confidence":-1},{"trial_n":72,"span":7,"encoder":"0953609","distractor":"0950609","target":"present","response":"absent","rt":"1917","correct":false,"confidence":-1},{"trial_n":73,"span":6,"encoder":"493565","distractor":"473565","target":"absent","response":"absent","rt":"2041","correct":true,"confidence":-1},{"trial_n":74,"span":6,"encoder":"567038","distractor":"563038","target":"absent","response":"absent","rt":"3428","correct":true,"confidence":-1},{"trial_n":75,"span":7,"encoder":"1627060","distractor":"1627070","target":"present","response":"absent","rt":"2272.0000000001","correct":false,"confidence":-1},{"trial_n":76,"span":6,"encoder":"797171","distractor":"797971","target":"present","response":"present","rt":"3762.0000000001","correct":true,"confidence":-1},{"trial_n":77,"span":6,"encoder":"820908","distractor":"800908","target":"absent","response":"absent","rt":"1649","correct":true,"confidence":-1},{"trial_n":78,"span":7,"encoder":"7358696","distractor":"7358896","target":"absent","response":"absent","rt":"2732","correct":true,"confidence":-1},{"trial_n":79,"span":7,"encoder":"3022417","distractor":"3022497","target":"absent","response":"absent","rt":"2210","correct":true,"confidence":-1},{"trial_n":80,"span":8,"encoder":"92747830","distractor":"92347830","target":"absent","response":"absent","rt":"3874","correct":true,"confidence":-1},{"trial_n":81,"span":8,"encoder":"08781467","distractor":"08781477","target":"present","response":"absent","rt":"3330","correct":false,"confidence":-1},{"trial_n":82,"span":7,"encoder":"9995014","distractor":"9995010","target":"absent","response":"absent","rt":"2408","correct":true,"confidence":-1},{"trial_n":83,"span":7,"encoder":"3366153","distractor":"3306153","target":"absent","response":"absent","rt":"2604","correct":true,"confidence":-1},{"trial_n":84,"span":8,"encoder":"84469385","distractor":"14469385","target":"present","response":"present","rt":"2653","correct":true,"confidence":-1},{"trial_n":85,"span":8,"encoder":"13516038","distractor":"13596038","target":"absent","response":"present","rt":"2533.9999999999","correct":false,"confidence":-1},{"trial_n":86,"span":7,"encoder":"0130614","distractor":"0130616","target":"absent","response":"absent","rt":"2543","correct":true,"confidence":-1},{"trial_n":87,"span":7,"encoder":"3982834","distractor":"3882834","target":"absent","response":"absent","rt":"2349","correct":true,"confidence":-1},{"trial_n":88,"span":8,"encoder":"12638270","distractor":"12638274","target":"present","response":"present","rt":"3162","correct":true,"confidence":-1},{"trial_n":89,"span":8,"encoder":"18177008","distractor":"18177208","target":"present","response":"absent","rt":"3001.0000000001","correct":false,"confidence":-1},{"trial_n":90,"span":7,"encoder":"0753885","distractor":"0053885","target":"absent","response":"absent","rt":"2375","correct":true,"confidence":-1},{"trial_n":91,"span":7,"encoder":"0487612","distractor":"0487692","target":"present","response":"absent","rt":"4046","correct":false,"confidence":2},{"trial_n":92,"span":6,"encoder":"305618","distractor":"303618","target":"present","response":"present","rt":"4291","correct":true,"confidence":1},{"trial_n":93,"span":6,"encoder":"776260","distractor":"706260","target":"present","response":"present","rt":"4699","correct":true,"confidence":3},{"trial_n":94,"span":7,"encoder":"9001370","distractor":"9001374","target":"present","response":"present","rt":"4103.9999999999","correct":true,"confidence":2},{"trial_n":95,"span":7,"encoder":"2345711","distractor":"2145711","target":"present","response":"present","rt":"3896.0000000001","correct":true,"confidence":4},{"trial_n":96,"span":8,"encoder":"80863364","distractor":"80863365","target":"present","response":"present","rt":"3405.9999999999","correct":true,"confidence":2},{"trial_n":97,"span":8,"encoder":"25273934","distractor":"25263934","target":"present","response":"present","rt":"2500","correct":true,"confidence":4},{"trial_n":98,"span":9,"encoder":"948872548","distractor":"968872548","target":"present","response":"present","rt":"2376","correct":true,"confidence":4},{"trial_n":99,"span":9,"encoder":"239616455","distractor":"239616495","target":"absent","response":"present","rt":"3357","correct":false,"confidence":2},{"trial_n":100,"span":8,"encoder":"97288684","distractor":"97248684","target":"present","response":"present","rt":"2134.0000000001","correct":true,"confidence":5},{"trial_n":101,"span":8,"encoder":"09536531","distractor":"09536535","target":"present","response":"present","rt":"2806","correct":true,"confidence":2},{"trial_n":102,"span":9,"encoder":"900528927","distractor":"900578927","target":"present","response":"present","rt":"2186","correct":true,"confidence":5},{"trial_n":103,"span":9,"encoder":"201534891","distractor":"201534895","target":"present","response":"present","rt":"2251","correct":true,"confidence":2},{"trial_n":104,"span":10,"encoder":"7413668328","distractor":"7213668328","target":"absent","response":"absent","rt":"2311","correct":true,"confidence":5},{"trial_n":105,"span":10,"encoder":"7407556399","distractor":"6407556399","target":"present","response":"present","rt":"2430","correct":true,"confidence":5},{"trial_n":106,"span":11,"encoder":"22156198457","distractor":"22156108457","target":"present","response":"present","rt":"3570.0000000001","correct":true,"confidence":1},{"trial_n":107,"span":11,"encoder":"18060335922","distractor":"18060335222","target":"present","response":"present","rt":"3770","correct":true,"confidence":1},{"trial_n":108,"span":12,"encoder":"038307461271","distractor":"038307441271","target":"present","response":"present","rt":"3592","correct":true,"confidence":2},{"trial_n":109,"span":12,"encoder":"776984601275","distractor":"376984601275","target":"absent","response":"absent","rt":"2170","correct":true,"confidence":4},{"trial_n":110,"span":13,"encoder":"1588926285705","distractor":"1588926283705","target":"present","response":"present","rt":"3574","correct":true,"confidence":1},{"trial_n":111,"span":13,"encoder":"6549177799499","distractor":"6549177799999","target":"present","response":"absent","rt":"5815","correct":false,"confidence":2},{"trial_n":112,"span":12,"encoder":"941048028491","distractor":"941048028498","target":"absent","response":"present","rt":"2496","correct":false,"confidence":1},{"trial_n":113,"span":11,"encoder":"03083285995","distractor":"03083282995","target":"present","response":"present","rt":"3320","correct":true,"confidence":2},{"trial_n":114,"span":11,"encoder":"42054031213","distractor":"42054031219","target":"absent","response":"present","rt":"2928.9999999998","correct":false,"confidence":1},{"trial_n":115,"span":10,"encoder":"8047812213","distractor":"8247812213","target":"absent","response":"absent","rt":"3163","correct":true,"confidence":3},{"trial_n":116,"span":10,"encoder":"4586459544","distractor":"4506459544","target":"present","response":"present","rt":"2145","correct":true,"confidence":5},{"trial_n":117,"span":11,"encoder":"77640797616","distractor":"77640797676","target":"absent","response":"present","rt":"2807","correct":false,"confidence":2},{"trial_n":118,"span":10,"encoder":"5442171285","distractor":"6442171285","target":"absent","response":"absent","rt":"1768","correct":true,"confidence":4},{"trial_n":119,"span":10,"encoder":"0458437698","distractor":"0458437628","target":"present","response":"absent","rt":"4122","correct":false,"confidence":2},{"trial_n":120,"span":9,"encoder":"683585335","distractor":"683583335","target":"present","response":"present","rt":"2008","correct":true,"confidence":1},{"trial_n":121,"span":9,"encoder":"840967375","distractor":"540967375","target":"absent","response":"present","rt":"2266","correct":false,"confidence":1},{"trial_n":122,"span":8,"encoder":"57450256","distractor":"57420256","target":"absent","response":"absent","rt":"3605","correct":true,"confidence":4},{"trial_n":123,"span":8,"encoder":"14970243","distractor":"15970243","target":"absent","response":"absent","rt":"1910","correct":true,"confidence":2},{"trial_n":124,"span":9,"encoder":"818704011","distractor":"898704011","target":"absent","response":"absent","rt":"1338","correct":true,"confidence":5},{"trial_n":125,"span":9,"encoder":"046634320","distractor":"046634620","target":"absent","response":"present","rt":"3004","correct":false,"confidence":2},{"trial_n":126,"span":8,"encoder":"47063959","distractor":"47063954","target":"present","response":"absent","rt":"2887","correct":false,"confidence":2},{"trial_n":127,"span":7,"encoder":"3108946","distractor":"3108941","target":"absent","response":"present","rt":"2492","correct":false,"confidence":2},{"trial_n":128,"span":6,"encoder":"553076","distractor":"533076","target":"absent","response":"present","rt":"5898.9999999998","correct":false,"confidence":3},{"trial_n":129,"span":5,"encoder":"49326","distractor":"49306","target":"absent","response":"absent","rt":"3402","correct":true,"confidence":2},{"trial_n":130,"span":5,"encoder":"75415","distractor":"75215","target":"present","response":"present","rt":"2397.0000000002","correct":true,"confidence":5},{"trial_n":131,"span":6,"encoder":"459150","distractor":"459350","target":"present","response":"absent","rt":"2579","correct":false,"confidence":2},{"trial_n":132,"span":5,"encoder":"01392","distractor":"01352","target":"present","response":"present","rt":"1726","correct":true,"confidence":5},{"trial_n":133,"span":5,"encoder":"64849","distractor":"74849","target":"present","response":"present","rt":"2026","correct":true,"confidence":5},{"trial_n":134,"span":6,"encoder":"693754","distractor":"695754","target":"present","response":"present","rt":"3975.0000000002","correct":true,"confidence":5},{"trial_n":135,"span":6,"encoder":"107882","distractor":"107822","target":"absent","response":"absent","rt":"2534","correct":true,"confidence":3},{"trial_n":136,"span":7,"encoder":"4169876","distractor":"4169872","target":"absent","response":"absent","rt":"3006.9999999998","correct":true,"confidence":2},{"trial_n":137,"span":7,"encoder":"3407324","distractor":"3477324","target":"absent","response":"absent","rt":"1992","correct":true,"confidence":5},{"trial_n":138,"span":8,"encoder":"95955257","distractor":"99955257","target":"absent","response":"absent","rt":"1780","correct":true,"confidence":5},{"trial_n":139,"span":8,"encoder":"79323814","distractor":"09323814","target":"absent","response":"absent","rt":"1582","correct":true,"confidence":5},{"trial_n":140,"span":9,"encoder":"159412552","distractor":"159412557","target":"absent","response":"present","rt":"3462","correct":false,"confidence":2}]