[{"trial_n":1,"span":8,"encoder":"05939619","distractor":"03939619","target":"present","response":"absent","rt":"12968.800000072","correct":false,"confidence":-1},{"trial_n":2,"span":6,"encoder":"107666","distractor":"105666","target":"present","response":"present","rt":"3518.3000000715","correct":true,"confidence":-1},{"trial_n":3,"span":6,"encoder":"310254","distractor":"310154","target":"absent","response":"absent","rt":"3059.6000000238","correct":true,"confidence":-1},{"trial_n":4,"span":8,"encoder":"57535503","distractor":"57235503","target":"absent","response":"present","rt":"3824","correct":false,"confidence":-1},{"trial_n":5,"span":6,"encoder":"268730","distractor":"264730","target":"present","response":"absent","rt":"1577.8000000715","correct":false,"confidence":-1},{"trial_n":6,"span":4,"encoder":"0500","distractor":"0100","target":"present","response":"present","rt":"1659.8999999762","correct":true,"confidence":-1},{"trial_n":7,"span":4,"encoder":"5013","distractor":"5018","target":"present","response":"present","rt":"1049.3999999762","correct":true,"confidence":-1},{"trial_n":8,"span":6,"encoder":"568308","distractor":"468308","target":"present","response":"present","rt":"2629.8999999762","correct":true,"confidence":-1},{"trial_n":9,"span":6,"encoder":"416453","distractor":"716453","target":"absent","response":"absent","rt":"1585.2999999523","correct":true,"confidence":-1},{"trial_n":10,"span":8,"encoder":"54110753","distractor":"24110753","target":"absent","response":"present","rt":"2463.5","correct":false,"confidence":-1},{"trial_n":11,"span":6,"encoder":"989263","distractor":"989261","target":"present","response":"present","rt":"2394.2999999523","correct":true,"confidence":-1},{"trial_n":12,"span":6,"encoder":"371210","distractor":"375210","target":"absent","response":"present","rt":"1672.9000000954","correct":false,"confidence":-1},{"trial_n":13,"span":5,"encoder":"52231","distractor":"52271","target":"present","response":"absent","rt":"1689.1000000238","correct":false,"confidence":-1},{"trial_n":14,"span":4,"encoder":"4884","distractor":"4881","target":"present","response":"present","rt":"1195.6999999285","correct":true,"confidence":-1},{"trial_n":15,"span":4,"encoder":"1903","distractor":"1907","target":"absent","response":"absent","rt":"1546.9000000954","correct":true,"confidence":-1},{"trial_n":16,"span":5,"encoder":"40100","distractor":"40120","target":"present","response":"present","rt":"1835.1000000238","correct":true,"confidence":-1},{"trial_n":17,"span":5,"encoder":"67933","distractor":"67633","target":"present","response":"present","rt":"2319.5","correct":true,"confidence":-1},{"trial_n":18,"span":6,"encoder":"498964","distractor":"498464","target":"present","response":"present","rt":"1492.1000000238","correct":true,"confidence":-1},{"trial_n":19,"span":6,"encoder":"520923","distractor":"530923","target":"absent","response":"present","rt":"2676.5999999046","correct":false,"confidence":-1},{"trial_n":20,"span":5,"encoder":"55125","distractor":"59125","target":"absent","response":"absent","rt":"1172.8999999762","correct":true,"confidence":-1},{"trial_n":21,"span":5,"encoder":"46517","distractor":"43517","target":"present","response":"present","rt":"2427.3000000715","correct":true,"confidence":5},{"trial_n":22,"span":6,"encoder":"317184","distractor":"517184","target":"absent","response":"absent","rt":"3204.2999999523","correct":true,"confidence":4},{"trial_n":23,"span":6,"encoder":"608862","distractor":"608872","target":"absent","response":"absent","rt":"3439","correct":true,"confidence":5},{"trial_n":24,"span":7,"encoder":"0546826","distractor":"0546526","target":"absent","response":"present","rt":"3835.6999999285","correct":false,"confidence":3},{"trial_n":25,"span":6,"encoder":"943418","distractor":"643418","target":"present","response":"present","rt":"2034.8000000715","correct":true,"confidence":4},{"trial_n":26,"span":6,"encoder":"014354","distractor":"014324","target":"absent","response":"present","rt":"4299.7999999523","correct":false,"confidence":4},{"trial_n":27,"span":5,"encoder":"13827","distractor":"13823","target":"present","response":"present","rt":"3846.7000000477","correct":true,"confidence":5},{"trial_n":28,"span":5,"encoder":"89052","distractor":"89152","target":"present","response":"present","rt":"3535.9000000954","correct":true,"confidence":5},{"trial_n":29,"span":6,"encoder":"338098","distractor":"338092","target":"absent","response":"absent","rt":"2808.1000000238","correct":true,"confidence":5},{"trial_n":30,"span":6,"encoder":"116188","distractor":"136188","target":"absent","response":"absent","rt":"2053.1999999285","correct":true,"confidence":5},{"trial_n":31,"span":7,"encoder":"3962722","distractor":"3962422","target":"present","response":"present","rt":"4171.3999999762","correct":true,"confidence":4},{"trial_n":32,"span":7,"encoder":"5560105","distractor":"5560145","target":"absent","response":"absent","rt":"2026.1000000238","correct":true,"confidence":5},{"trial_n":33,"span":8,"encoder":"56696482","distractor":"56696485","target":"present","response":"present","rt":"4417.8999999762","correct":true,"confidence":4},{"trial_n":34,"span":8,"encoder":"80614336","distractor":"80612336","target":"present","response":"present","rt":"3679.2000000477","correct":true,"confidence":4},{"trial_n":35,"span":9,"encoder":"270915397","distractor":"270915387","target":"present","response":"absent","rt":"3656.2999999523","correct":false,"confidence":4},{"trial_n":36,"span":8,"encoder":"85566447","distractor":"85566747","target":"absent","response":"absent","rt":"2219.5","correct":true,"confidence":5},{"trial_n":37,"span":8,"encoder":"80630155","distractor":"80690155","target":"present","response":"present","rt":"3543.3000000715","correct":true,"confidence":3},{"trial_n":38,"span":9,"encoder":"191962381","distractor":"191969381","target":"absent","response":"absent","rt":"4551.8000000715","correct":true,"confidence":5},{"trial_n":39,"span":9,"encoder":"768924375","distractor":"769924375","target":"present","response":"present","rt":"4151.3000000715","correct":true,"confidence":4},{"trial_n":40,"span":10,"encoder":"7541744733","distractor":"7441744733","target":"absent","response":"present","rt":"3152.6000000238","correct":false,"confidence":3},{"trial_n":41,"span":9,"encoder":"585951578","distractor":"385951578","target":"absent","response":"absent","rt":"2212.7000000477","correct":true,"confidence":5},{"trial_n":42,"span":9,"encoder":"764272534","distractor":"764272034","target":"absent","response":"absent","rt":"4292.3000000715","correct":true,"confidence":3},{"trial_n":43,"span":10,"encoder":"8603653188","distractor":"8603650188","target":"absent","response":"absent","rt":"2294","correct":true,"confidence":4},{"trial_n":44,"span":10,"encoder":"5099186431","distractor":"5099186491","target":"absent","response":"present","rt":"6118.8999999762","correct":false,"confidence":3},{"trial_n":45,"span":9,"encoder":"910715799","distractor":"910716799","target":"present","response":"present","rt":"5397.7999999523","correct":true,"confidence":4},{"trial_n":46,"span":9,"encoder":"411143556","distractor":"411153556","target":"absent","response":"present","rt":"4182","correct":false,"confidence":3},{"trial_n":47,"span":8,"encoder":"15712383","distractor":"16712383","target":"present","response":"present","rt":"3170.6999999285","correct":true,"confidence":5},{"trial_n":48,"span":8,"encoder":"93255306","distractor":"93255906","target":"present","response":"present","rt":"4098.5999999046","correct":true,"confidence":4},{"trial_n":49,"span":9,"encoder":"477930376","distractor":"477930476","target":"present","response":"absent","rt":"2396","correct":false,"confidence":3},{"trial_n":50,"span":8,"encoder":"25595611","distractor":"20595611","target":"present","response":"present","rt":"5381.5999999046","correct":true,"confidence":4},{"trial_n":51,"span":8,"encoder":"69487967","distractor":"79487967","target":"present","response":"present","rt":"2871.5","correct":true,"confidence":2},{"trial_n":52,"span":9,"encoder":"023730355","distractor":"013730355","target":"present","response":"present","rt":"5598.7999999523","correct":true,"confidence":3},{"trial_n":53,"span":9,"encoder":"623016821","distractor":"673016821","target":"present","response":"absent","rt":"4958","correct":false,"confidence":2},{"trial_n":54,"span":8,"encoder":"03280192","distractor":"03200192","target":"present","response":"present","rt":"4016.7999999523","correct":true,"confidence":3},{"trial_n":55,"span":8,"encoder":"01981036","distractor":"01982036","target":"present","response":"present","rt":"6174.8000000715","correct":true,"confidence":5},{"trial_n":56,"span":9,"encoder":"050290341","distractor":"050250341","target":"absent","response":"absent","rt":"3989.6000000238","correct":true,"confidence":5},{"trial_n":57,"span":9,"encoder":"683124333","distractor":"685124333","target":"present","response":"present","rt":"2555.8999999762","correct":true,"confidence":2},{"trial_n":58,"span":10,"encoder":"7417001212","distractor":"7417001219","target":"absent","response":"absent","rt":"3173.3999999762","correct":true,"confidence":4},{"trial_n":59,"span":10,"encoder":"8575013079","distractor":"8575013078","target":"absent","response":"absent","rt":"7038.2000000477","correct":true,"confidence":3},{"trial_n":60,"span":11,"encoder":"45603982315","distractor":"45503982315","target":"absent","response":"absent","rt":"1538.8999999762","correct":true,"confidence":4},{"trial_n":61,"span":11,"encoder":"78684159422","distractor":"78684159522","target":"absent","response":"absent","rt":"43687.799999952","correct":true,"confidence":1},{"trial_n":62,"span":12,"encoder":"539290620442","distractor":"539290620440","target":"absent","response":"absent","rt":"2273.2000000477","correct":true,"confidence":5},{"trial_n":63,"span":12,"encoder":"244173955208","distractor":"234173955208","target":"absent","response":"absent","rt":"3464.8000000715","correct":true,"confidence":5},{"trial_n":64,"span":13,"encoder":"8309112743195","distractor":"8389112743195","target":"present","response":"absent","rt":"3130.8999999762","correct":false,"confidence":2},{"trial_n":65,"span":12,"encoder":"568038142929","distractor":"568038142529","target":"absent","response":"absent","rt":"3411.8999999762","correct":true,"confidence":1},{"trial_n":66,"span":12,"encoder":"211974749152","distractor":"211974748152","target":"absent","response":"present","rt":"1750.4000000954","correct":false,"confidence":2},{"trial_n":67,"span":11,"encoder":"15462536506","distractor":"19462536506","target":"present","response":"present","rt":"3349.1000000238","correct":true,"confidence":2},{"trial_n":68,"span":11,"encoder":"65228516421","distractor":"65228016421","target":"absent","response":"present","rt":"1582.3999999762","correct":false,"confidence":3},{"trial_n":69,"span":10,"encoder":"3759987351","distractor":"3459987351","target":"absent","response":"present","rt":"2659.5","correct":false,"confidence":4},{"trial_n":70,"span":9,"encoder":"415918699","distractor":"415918691","target":"present","response":"present","rt":"1929.6000000238","correct":true,"confidence":3},{"trial_n":71,"span":8,"encoder":"43963613","distractor":"13963613","target":"present","response":"present","rt":"6001.5","correct":true,"confidence":-1},{"trial_n":72,"span":8,"encoder":"52458488","distractor":"52458428","target":"present","response":"present","rt":"1815.2999999523","correct":true,"confidence":-1},{"trial_n":73,"span":9,"encoder":"181344379","distractor":"181144379","target":"absent","response":"absent","rt":"9965.3000000715","correct":true,"confidence":-1},{"trial_n":74,"span":9,"encoder":"469772074","distractor":"469792074","target":"absent","response":"absent","rt":"6466.1000000238","correct":true,"confidence":-1},{"trial_n":75,"span":10,"encoder":"7690730275","distractor":"7695730275","target":"present","response":"present","rt":"9134.3999999762","correct":true,"confidence":-1},{"trial_n":76,"span":10,"encoder":"7402244389","distractor":"7402644389","target":"absent","response":"absent","rt":"2628.1000000238","correct":true,"confidence":-1},{"trial_n":77,"span":11,"encoder":"04940844899","distractor":"04940644899","target":"absent","response":"absent","rt":"6431.6000000238","correct":true,"confidence":-1},{"trial_n":78,"span":11,"encoder":"06287487226","distractor":"06287487222","target":"present","response":"present","rt":"5714.8999999762","correct":true,"confidence":-1},{"trial_n":79,"span":12,"encoder":"282967604302","distractor":"282967304302","target":"present","response":"present","rt":"8296.6000000238","correct":true,"confidence":-1},{"trial_n":80,"span":12,"encoder":"687210270507","distractor":"687210272507","target":"absent","response":"absent","rt":"12246.700000048","correct":true,"confidence":-1},{"trial_n":81,"span":13,"encoder":"4147275477786","distractor":"4147275417786","target":"absent","response":"absent","rt":"1873.6999999285","correct":true,"confidence":-1},{"trial_n":82,"span":13,"encoder":"3212378753610","distractor":"3612378753610","target":"present","response":"present","rt":"2044.3000000715","correct":true,"confidence":-1},{"trial_n":83,"span":14,"encoder":"06436938263008","distractor":"06436938262008","target":"absent","response":"present","rt":"15066.899999976","correct":false,"confidence":-1},{"trial_n":84,"span":13,"encoder":"3898368160761","distractor":"3898358160761","target":"absent","response":"present","rt":"6165.1000000238","correct":false,"confidence":-1},{"trial_n":85,"span":12,"encoder":"587262083839","distractor":"587242083839","target":"absent","response":"absent","rt":"6808.9000000954","correct":true,"confidence":-1},{"trial_n":86,"span":12,"encoder":"280915544169","distractor":"280913544169","target":"absent","response":"absent","rt":"1674.2000000477","correct":true,"confidence":-1},{"trial_n":87,"span":13,"encoder":"4934603539076","distractor":"0934603539076","target":"absent","response":"absent","rt":"5836","correct":true,"confidence":-1},{"trial_n":88,"span":13,"encoder":"8539725033332","distractor":"8539725036332","target":"absent","response":"absent","rt":"1659.3999999762","correct":true,"confidence":-1},{"trial_n":89,"span":14,"encoder":"91886645241846","distractor":"91886645141846","target":"present","response":"present","rt":"8353.7000000477","correct":true,"confidence":-1},{"trial_n":90,"span":14,"encoder":"68385125687157","distractor":"68385128687157","target":"absent","response":"present","rt":"2491.2000000477","correct":false,"confidence":-1},{"trial_n":91,"span":13,"encoder":"3222057801458","distractor":"3222057802458","target":"absent","response":"present","rt":"8535.8999999762","correct":false,"confidence":3},{"trial_n":92,"span":12,"encoder":"160025193877","distractor":"160025193837","target":"present","response":"present","rt":"3141.5","correct":true,"confidence":5},{"trial_n":93,"span":12,"encoder":"734256648731","distractor":"734256048731","target":"absent","response":"absent","rt":"2886.5","correct":true,"confidence":5},{"trial_n":94,"span":13,"encoder":"2741530997081","distractor":"2791530997081","target":"present","response":"absent","rt":"8100.1000000238","correct":false,"confidence":2},{"trial_n":95,"span":12,"encoder":"412416494868","distractor":"412416490868","target":"absent","response":"absent","rt":"4374.2000000477","correct":true,"confidence":5},{"trial_n":96,"span":12,"encoder":"452523929974","distractor":"452523329974","target":"absent","response":"absent","rt":"5020.5","correct":true,"confidence":4},{"trial_n":97,"span":13,"encoder":"1501447121823","distractor":"1501447128823","target":"present","response":"present","rt":"4179.6000000238","correct":true,"confidence":5},{"trial_n":98,"span":13,"encoder":"0788428643531","distractor":"1788428643531","target":"present","response":"present","rt":"4016.6000000238","correct":true,"confidence":3},{"trial_n":99,"span":14,"encoder":"77228782962771","distractor":"77268782962771","target":"present","response":"present","rt":"3525.2000000477","correct":true,"confidence":5},{"trial_n":100,"span":14,"encoder":"63952856029463","distractor":"66952856029463","target":"absent","response":"absent","rt":"9221","correct":true,"confidence":3},{"trial_n":101,"span":15,"encoder":"790782112375046","distractor":"790783112375046","target":"present","response":"absent","rt":"9085.8999999762","correct":false,"confidence":2},{"trial_n":102,"span":14,"encoder":"42620235846692","distractor":"42620235546692","target":"absent","response":"absent","rt":"7766.8000000715","correct":true,"confidence":3},{"trial_n":103,"span":14,"encoder":"71452763239128","distractor":"71452763239138","target":"absent","response":"absent","rt":"22506.400000095","correct":true,"confidence":3},{"trial_n":104,"span":15,"encoder":"885984412924393","distractor":"885884412924393","target":"present","response":"present","rt":"8000.5","correct":true,"confidence":5},{"trial_n":105,"span":15,"encoder":"807419099664976","distractor":"807419099624976","target":"absent","response":"absent","rt":"5922.1999999285","correct":true,"confidence":4},{"trial_n":106,"span":16,"encoder":"1112175083738647","distractor":"1112175083738667","target":"present","response":"present","rt":"6632.6000000238","correct":true,"confidence":3},{"trial_n":107,"span":16,"encoder":"0989862055062694","distractor":"0989662055062694","target":"present","response":"present","rt":"3888","correct":true,"confidence":3},{"trial_n":108,"span":17,"encoder":"84654334881811628","distractor":"84654334882811628","target":"present","response":"present","rt":"11196.200000048","correct":true,"confidence":2},{"trial_n":109,"span":17,"encoder":"75101966486791681","distractor":"75701966486791681","target":"present","response":"present","rt":"15333.700000048","correct":true,"confidence":1},{"trial_n":110,"span":18,"encoder":"257584384120815015","distractor":"157584384120815015","target":"present","response":"present","rt":"3287.3999999762","correct":true,"confidence":5},{"trial_n":111,"span":18,"encoder":"315741609391155797","distractor":"312741609391155797","target":"present","response":"absent","rt":"6855.0999999046","correct":false,"confidence":1},{"trial_n":112,"span":17,"encoder":"19792477143457996","distractor":"19796477143457996","target":"absent","response":"present","rt":"13269.300000072","correct":false,"confidence":1},{"trial_n":113,"span":16,"encoder":"4979083524996968","distractor":"4979083524296968","target":"absent","response":"absent","rt":"4278.2999999523","correct":true,"confidence":5},{"trial_n":114,"span":16,"encoder":"8643819998898771","distractor":"8643819999898771","target":"present","response":"present","rt":"3220","correct":true,"confidence":4},{"trial_n":115,"span":17,"encoder":"32145965413216407","distractor":"32145960413216407","target":"present","response":"present","rt":"10546.899999976","correct":true,"confidence":2},{"trial_n":116,"span":17,"encoder":"50374607873561768","distractor":"50374607873561168","target":"present","response":"present","rt":"2616.8000000715","correct":true,"confidence":5},{"trial_n":117,"span":18,"encoder":"519934004679742303","distractor":"519934074679742303","target":"present","response":"present","rt":"2913.2999999523","correct":true,"confidence":5},{"trial_n":118,"span":18,"encoder":"645592390591550529","distractor":"645592390541550529","target":"present","response":"present","rt":"13915.300000072","correct":true,"confidence":1},{"trial_n":119,"span":19,"encoder":"7520340189614051461","distractor":"7520390189614051461","target":"present","response":"present","rt":"11471.200000048","correct":true,"confidence":2},{"trial_n":120,"span":19,"encoder":"0639769216637388615","distractor":"0639769206637388615","target":"present","response":"present","rt":"16420","correct":true,"confidence":1},{"trial_n":121,"span":20,"encoder":"58900069674015658648","distractor":"58900019674015658648","target":"absent","response":"absent","rt":"10908.800000072","correct":true,"confidence":2},{"trial_n":122,"span":20,"encoder":"28845774960112368292","distractor":"28845774960112368262","target":"present","response":"present","rt":"13861.899999976","correct":true,"confidence":3},{"trial_n":123,"span":21,"encoder":"790598712152456723556","distractor":"798598712152456723556","target":"absent","response":"present","rt":"17287.799999952","correct":false,"confidence":1},{"trial_n":124,"span":20,"encoder":"32219661901574003247","distractor":"32219661901573003247","target":"present","response":"present","rt":"11160.600000024","correct":true,"confidence":1},{"trial_n":125,"span":20,"encoder":"19530615543361971462","distractor":"19530515543361971462","target":"absent","response":"absent","rt":"10442.399999976","correct":true,"confidence":2},{"trial_n":126,"span":21,"encoder":"463722185740589925508","distractor":"463322185740589925508","target":"present","response":"absent","rt":"8008","correct":false,"confidence":2},{"trial_n":127,"span":20,"encoder":"72157814366276616461","distractor":"72157814362276616461","target":"absent","response":"absent","rt":"5821","correct":true,"confidence":4},{"trial_n":128,"span":20,"encoder":"40587949906109563701","distractor":"40587949906109567701","target":"present","response":"present","rt":"5216.5999999046","correct":true,"confidence":3},{"trial_n":129,"span":21,"encoder":"955899273153817819914","distractor":"955899273153807819914","target":"present","response":"present","rt":"11093.300000072","correct":true,"confidence":1},{"trial_n":130,"span":21,"encoder":"392342442606276971976","distractor":"392342442606276371976","target":"present","response":"present","rt":"5382.8999999762","correct":true,"confidence":1},{"trial_n":131,"span":22,"encoder":"4469984405778473095772","distractor":"4469484405778473095772","target":"present","response":"present","rt":"11374.5","correct":true,"confidence":2},{"trial_n":132,"span":22,"encoder":"9332780929924135276108","distractor":"9332780929924135276198","target":"absent","response":"absent","rt":"3399.8999999762","correct":true,"confidence":3},{"trial_n":133,"span":23,"encoder":"15199237143236208048052","distractor":"15199237143236208148052","target":"present","response":"present","rt":"3945.1000000238","correct":true,"confidence":4},{"trial_n":134,"span":23,"encoder":"67615825941095236924565","distractor":"67615825947095236924565","target":"absent","response":"absent","rt":"6727.1000000238","correct":true,"confidence":1},{"trial_n":135,"span":24,"encoder":"953991744135180702491939","distractor":"953991744135180705491939","target":"absent","response":"absent","rt":"5656.5","correct":true,"confidence":3},{"trial_n":136,"span":24,"encoder":"109472109420624769841071","distractor":"109672109420624769841071","target":"absent","response":"absent","rt":"8384.2999999523","correct":true,"confidence":1},{"trial_n":137,"span":25,"encoder":"8003857319576900790193855","distractor":"8003857319576970790193855","target":"present","response":"present","rt":"10463.899999976","correct":true,"confidence":2},{"trial_n":138,"span":25,"encoder":"1676084170328686571579711","distractor":"1672084170328686571579711","target":"absent","response":"absent","rt":"5734.6000000238","correct":true,"confidence":5},{"trial_n":139,"span":26,"encoder":"60625633678225625033981826","distractor":"60625633678225695033981826","target":"absent","response":"present","rt":"12174.100000024","correct":false,"confidence":1},{"trial_n":140,"span":25,"encoder":"6261902500339987098039748","distractor":"6261902550339987098039748","target":"absent","response":"absent","rt":"4043.1000000238","correct":true,"confidence":5}]