[{"trial_n":1,"n_dots":4.25,"target":"left","response":"left","rt":4264.8000000715,"correct":true,"confidence":-1},{"trial_n":2,"n_dots":4.25,"target":"left","response":"right","rt":841.5,"correct":false,"confidence":-1},{"trial_n":3,"n_dots":4.65,"target":"left","response":"left","rt":360.10000002384,"correct":true,"confidence":-1},{"trial_n":4,"n_dots":4.65,"target":"right","response":"right","rt":362.89999997616,"correct":true,"confidence":-1},{"trial_n":5,"n_dots":4.25,"target":"right","response":"right","rt":473.09999990463,"correct":true,"confidence":-1},{"trial_n":6,"n_dots":4.25,"target":"left","response":"left","rt":485,"correct":true,"confidence":-1},{"trial_n":7,"n_dots":3.85,"target":"right","response":"right","rt":459.60000002384,"correct":true,"confidence":-1},{"trial_n":8,"n_dots":3.85,"target":"right","response":"right","rt":644.5,"correct":true,"confidence":-1},{"trial_n":9,"n_dots":3.65,"target":"right","response":"right","rt":447.90000009537,"correct":true,"confidence":-1},{"trial_n":10,"n_dots":3.65,"target":"right","response":"right","rt":562.80000007153,"correct":true,"confidence":-1},{"trial_n":11,"n_dots":3.45,"target":"right","response":"right","rt":570.5,"correct":true,"confidence":-1},{"trial_n":12,"n_dots":3.45,"target":"left","response":"left","rt":295.79999995232,"correct":true,"confidence":-1},{"trial_n":13,"n_dots":3.35,"target":"right","response":"left","rt":455.80000007153,"correct":false,"confidence":-1},{"trial_n":14,"n_dots":3.45,"target":"left","response":"left","rt":765.79999995232,"correct":true,"confidence":-1},{"trial_n":15,"n_dots":3.45,"target":"right","response":"left","rt":396.40000009537,"correct":false,"confidence":-1},{"trial_n":16,"n_dots":3.55,"target":"right","response":"left","rt":376.29999995232,"correct":false,"confidence":-1},{"trial_n":17,"n_dots":3.65,"target":"left","response":"left","rt":878.10000002384,"correct":true,"confidence":-1},{"trial_n":18,"n_dots":3.65,"target":"left","response":"left","rt":231.89999997616,"correct":true,"confidence":-1},{"trial_n":19,"n_dots":3.55,"target":"right","response":"left","rt":450.20000004768,"correct":false,"confidence":-1},{"trial_n":20,"n_dots":3.65,"target":"left","response":"left","rt":377.29999995232,"correct":true,"confidence":-1},{"trial_n":21,"n_dots":3.65,"target":"right","response":"left","rt":709.30000007153,"correct":false,"confidence":2},{"trial_n":22,"n_dots":3.75,"target":"left","response":"left","rt":454.10000002384,"correct":true,"confidence":4},{"trial_n":23,"n_dots":3.75,"target":"left","response":"left","rt":509.89999997616,"correct":true,"confidence":3},{"trial_n":24,"n_dots":3.65,"target":"left","response":"left","rt":326.80000007153,"correct":true,"confidence":5},{"trial_n":25,"n_dots":3.65,"target":"left","response":"left","rt":493.70000004768,"correct":true,"confidence":4},{"trial_n":26,"n_dots":3.55,"target":"right","response":"right","rt":644.69999992847,"correct":true,"confidence":3},{"trial_n":27,"n_dots":3.55,"target":"right","response":"left","rt":604,"correct":false,"confidence":2},{"trial_n":28,"n_dots":3.65,"target":"right","response":"right","rt":848.20000004768,"correct":true,"confidence":2},{"trial_n":29,"n_dots":3.65,"target":"left","response":"left","rt":406,"correct":true,"confidence":4},{"trial_n":30,"n_dots":3.55,"target":"left","response":"left","rt":1044.8999999762,"correct":true,"confidence":1},{"trial_n":31,"n_dots":3.55,"target":"left","response":"left","rt":405.5,"correct":true,"confidence":2},{"trial_n":32,"n_dots":3.45,"target":"right","response":"left","rt":587.60000002384,"correct":false,"confidence":2},{"trial_n":33,"n_dots":3.55,"target":"right","response":"right","rt":1219.5999999046,"correct":true,"confidence":2},{"trial_n":34,"n_dots":3.55,"target":"left","response":"left","rt":681.20000004768,"correct":true,"confidence":2},{"trial_n":35,"n_dots":3.45,"target":"left","response":"left","rt":711.29999995232,"correct":true,"confidence":1},{"trial_n":36,"n_dots":3.45,"target":"right","response":"right","rt":509,"correct":true,"confidence":3},{"trial_n":37,"n_dots":3.35,"target":"left","response":"left","rt":483.40000009537,"correct":true,"confidence":3},{"trial_n":38,"n_dots":3.35,"target":"right","response":"right","rt":1282.3999999762,"correct":true,"confidence":1},{"trial_n":39,"n_dots":3.25,"target":"left","response":"left","rt":739.29999995232,"correct":true,"confidence":3},{"trial_n":40,"n_dots":3.25,"target":"right","response":"left","rt":622.20000004768,"correct":false,"confidence":2},{"trial_n":41,"n_dots":3.35,"target":"right","response":"right","rt":902,"correct":true,"confidence":4},{"trial_n":42,"n_dots":3.35,"target":"right","response":"left","rt":465,"correct":false,"confidence":4},{"trial_n":43,"n_dots":3.45,"target":"left","response":"left","rt":395.89999997616,"correct":true,"confidence":3},{"trial_n":44,"n_dots":3.45,"target":"left","response":"left","rt":373.40000009537,"correct":true,"confidence":4},{"trial_n":45,"n_dots":3.35,"target":"right","response":"right","rt":523,"correct":true,"confidence":2},{"trial_n":46,"n_dots":3.35,"target":"left","response":"left","rt":303.70000004768,"correct":true,"confidence":5},{"trial_n":47,"n_dots":3.25,"target":"right","response":"right","rt":719.29999995232,"correct":true,"confidence":2},{"trial_n":48,"n_dots":3.25,"target":"right","response":"left","rt":910.70000004768,"correct":false,"confidence":2},{"trial_n":49,"n_dots":3.35,"target":"right","response":"right","rt":546.70000004768,"correct":true,"confidence":3},{"trial_n":50,"n_dots":3.35,"target":"left","response":"left","rt":530.39999997616,"correct":true,"confidence":3},{"trial_n":51,"n_dots":3.25,"target":"left","response":"right","rt":1382.7999999523,"correct":false,"confidence":1},{"trial_n":52,"n_dots":3.35,"target":"right","response":"right","rt":565.70000004768,"correct":true,"confidence":2},{"trial_n":53,"n_dots":3.35,"target":"left","response":"left","rt":355.70000004768,"correct":true,"confidence":4},{"trial_n":54,"n_dots":3.25,"target":"left","response":"left","rt":296.29999995232,"correct":true,"confidence":4},{"trial_n":55,"n_dots":3.25,"target":"left","response":"left","rt":949.29999995232,"correct":true,"confidence":3},{"trial_n":56,"n_dots":3.15,"target":"right","response":"left","rt":585.79999995232,"correct":false,"confidence":2},{"trial_n":57,"n_dots":3.25,"target":"left","response":"left","rt":325.19999992847,"correct":true,"confidence":2},{"trial_n":58,"n_dots":3.25,"target":"left","response":"left","rt":421.20000004768,"correct":true,"confidence":3},{"trial_n":59,"n_dots":3.15,"target":"right","response":"right","rt":582.5,"correct":true,"confidence":2},{"trial_n":60,"n_dots":3.15,"target":"left","response":"left","rt":749.20000004768,"correct":true,"confidence":2},{"trial_n":61,"n_dots":3.05,"target":"right","response":"right","rt":415.60000002384,"correct":true,"confidence":3},{"trial_n":62,"n_dots":3.05,"target":"left","response":"left","rt":748.89999997616,"correct":true,"confidence":1},{"trial_n":63,"n_dots":2.95,"target":"left","response":"left","rt":561.20000004768,"correct":true,"confidence":2},{"trial_n":64,"n_dots":2.95,"target":"right","response":"right","rt":462.79999995232,"correct":true,"confidence":2},{"trial_n":65,"n_dots":2.85,"target":"left","response":"left","rt":676.89999997616,"correct":true,"confidence":2},{"trial_n":66,"n_dots":2.85,"target":"right","response":"left","rt":914.29999995232,"correct":false,"confidence":1},{"trial_n":67,"n_dots":2.95,"target":"left","response":"right","rt":901,"correct":false,"confidence":2},{"trial_n":68,"n_dots":3.05,"target":"left","response":"left","rt":597.39999997616,"correct":true,"confidence":2},{"trial_n":69,"n_dots":3.05,"target":"left","response":"left","rt":438.89999997616,"correct":true,"confidence":1},{"trial_n":70,"n_dots":2.95,"target":"right","response":"right","rt":347.20000004768,"correct":true,"confidence":3},{"trial_n":71,"n_dots":2.95,"target":"left","response":"left","rt":414.59999990463,"correct":true,"confidence":2},{"trial_n":72,"n_dots":2.85,"target":"left","response":"left","rt":339.39999997616,"correct":true,"confidence":2},{"trial_n":73,"n_dots":2.85,"target":"left","response":"left","rt":431.80000007153,"correct":true,"confidence":1},{"trial_n":74,"n_dots":2.75,"target":"left","response":"left","rt":352.79999995232,"correct":true,"confidence":3},{"trial_n":75,"n_dots":2.75,"target":"right","response":"right","rt":629.29999995232,"correct":true,"confidence":3},{"trial_n":76,"n_dots":2.65,"target":"right","response":"left","rt":831.20000004768,"correct":false,"confidence":1},{"trial_n":77,"n_dots":2.75,"target":"right","response":"right","rt":493.69999992847,"correct":true,"confidence":2},{"trial_n":78,"n_dots":2.75,"target":"left","response":"left","rt":486.20000004768,"correct":true,"confidence":1},{"trial_n":79,"n_dots":2.65,"target":"right","response":"right","rt":463.70000004768,"correct":true,"confidence":3},{"trial_n":80,"n_dots":2.65,"target":"right","response":"left","rt":422.20000004768,"correct":false,"confidence":1},{"trial_n":81,"n_dots":2.75,"target":"left","response":"left","rt":922.30000007153,"correct":true,"confidence":3},{"trial_n":82,"n_dots":2.75,"target":"right","response":"right","rt":464.10000002384,"correct":true,"confidence":2},{"trial_n":83,"n_dots":2.65,"target":"right","response":"right","rt":519.39999997616,"correct":true,"confidence":3},{"trial_n":84,"n_dots":2.65,"target":"right","response":"left","rt":506.69999992847,"correct":false,"confidence":2},{"trial_n":85,"n_dots":2.75,"target":"left","response":"right","rt":1409.0999999046,"correct":false,"confidence":1},{"trial_n":86,"n_dots":2.85,"target":"left","response":"left","rt":594,"correct":true,"confidence":1},{"trial_n":87,"n_dots":2.85,"target":"right","response":"right","rt":604.80000007153,"correct":true,"confidence":2},{"trial_n":88,"n_dots":2.75,"target":"left","response":"left","rt":452,"correct":true,"confidence":3},{"trial_n":89,"n_dots":2.75,"target":"right","response":"right","rt":333.69999992847,"correct":true,"confidence":2},{"trial_n":90,"n_dots":2.65,"target":"left","response":"left","rt":570.60000002384,"correct":true,"confidence":2},{"trial_n":91,"n_dots":2.65,"target":"right","response":"right","rt":481.59999990463,"correct":true,"confidence":3},{"trial_n":92,"n_dots":2.55,"target":"left","response":"left","rt":381.60000002384,"correct":true,"confidence":4},{"trial_n":93,"n_dots":2.55,"target":"right","response":"right","rt":833.10000002384,"correct":true,"confidence":3},{"trial_n":94,"n_dots":2.45,"target":"right","response":"right","rt":771.79999995232,"correct":true,"confidence":1},{"trial_n":95,"n_dots":2.45,"target":"left","response":"right","rt":1419.5999999046,"correct":false,"confidence":1},{"trial_n":96,"n_dots":2.55,"target":"left","response":"right","rt":1299.9000000954,"correct":false,"confidence":1},{"trial_n":97,"n_dots":2.65,"target":"left","response":"left","rt":570.79999995232,"correct":true,"confidence":2},{"trial_n":98,"n_dots":2.65,"target":"left","response":"left","rt":464,"correct":true,"confidence":2},{"trial_n":99,"n_dots":2.55,"target":"right","response":"right","rt":751.89999997616,"correct":true,"confidence":1},{"trial_n":100,"n_dots":2.55,"target":"left","response":"right","rt":583,"correct":false,"confidence":2},{"trial_n":101,"n_dots":2.65,"target":"right","response":"right","rt":1054.5,"correct":true,"confidence":3},{"trial_n":102,"n_dots":2.65,"target":"right","response":"left","rt":412,"correct":false,"confidence":3},{"trial_n":103,"n_dots":2.75,"target":"left","response":"right","rt":1403,"correct":false,"confidence":2},{"trial_n":104,"n_dots":2.85,"target":"right","response":"right","rt":376.69999992847,"correct":true,"confidence":2},{"trial_n":105,"n_dots":2.85,"target":"left","response":"right","rt":668.59999990463,"correct":false,"confidence":2},{"trial_n":106,"n_dots":2.95,"target":"left","response":"left","rt":670.20000004768,"correct":true,"confidence":2},{"trial_n":107,"n_dots":2.95,"target":"right","response":"left","rt":632.89999997616,"correct":false,"confidence":3},{"trial_n":108,"n_dots":3.05,"target":"right","response":"right","rt":473.29999995232,"correct":true,"confidence":3},{"trial_n":109,"n_dots":3.05,"target":"left","response":"left","rt":427.69999992847,"correct":true,"confidence":3},{"trial_n":110,"n_dots":2.95,"target":"right","response":"right","rt":545.89999997616,"correct":true,"confidence":3},{"trial_n":111,"n_dots":2.95,"target":"left","response":"left","rt":371.5,"correct":true,"confidence":4},{"trial_n":112,"n_dots":2.85,"target":"right","response":"left","rt":932.29999995232,"correct":false,"confidence":2},{"trial_n":113,"n_dots":2.95,"target":"left","response":"left","rt":414.20000004768,"correct":true,"confidence":4},{"trial_n":114,"n_dots":2.95,"target":"right","response":"left","rt":409.5,"correct":false,"confidence":3},{"trial_n":115,"n_dots":3.05,"target":"right","response":"left","rt":330.19999992847,"correct":false,"confidence":3},{"trial_n":116,"n_dots":3.15,"target":"right","response":"right","rt":502.70000004768,"correct":true,"confidence":2},{"trial_n":117,"n_dots":3.15,"target":"right","response":"left","rt":404,"correct":false,"confidence":2},{"trial_n":118,"n_dots":3.25,"target":"right","response":"left","rt":1245.5,"correct":false,"confidence":1},{"trial_n":119,"n_dots":3.35,"target":"left","response":"left","rt":266.29999995232,"correct":true,"confidence":3},{"trial_n":120,"n_dots":3.35,"target":"right","response":"right","rt":490.60000002384,"correct":true,"confidence":3}]