[{"trial_n":1,"min":25,"max":230,"target":"present","response":"present","rt":9803.200000003,"correct":true,"confidence":-1},{"trial_n":2,"min":25,"max":230,"target":"present","response":"present","rt":575.79999999702,"correct":true,"confidence":-1},{"trial_n":3,"min":41,"max":214,"target":"absent","response":"absent","rt":777.10000000149,"correct":true,"confidence":-1},{"trial_n":4,"min":41,"max":214,"target":"absent","response":"absent","rt":332.10000000149,"correct":true,"confidence":-1},{"trial_n":5,"min":57,"max":198,"target":"present","response":"present","rt":396.5,"correct":true,"confidence":-1},{"trial_n":6,"min":57,"max":198,"target":"absent","response":"absent","rt":394.89999999851,"correct":true,"confidence":-1},{"trial_n":7,"min":73,"max":182,"target":"absent","response":"absent","rt":309,"correct":true,"confidence":-1},{"trial_n":8,"min":73,"max":182,"target":"absent","response":"absent","rt":124.10000000149,"correct":true,"confidence":-1},{"trial_n":9,"min":89,"max":166,"target":"present","response":"present","rt":536.60000000149,"correct":true,"confidence":-1},{"trial_n":10,"min":89,"max":166,"target":"present","response":"absent","rt":421.19999999553,"correct":false,"confidence":-1},{"trial_n":11,"min":81,"max":174,"target":"absent","response":"absent","rt":519.29999999702,"correct":true,"confidence":-1},{"trial_n":12,"min":81,"max":174,"target":"present","response":"absent","rt":384.60000000149,"correct":false,"confidence":-1},{"trial_n":13,"min":73,"max":182,"target":"present","response":"present","rt":323.60000000149,"correct":true,"confidence":-1},{"trial_n":14,"min":73,"max":182,"target":"absent","response":"absent","rt":500.29999999702,"correct":true,"confidence":-1},{"trial_n":15,"min":81,"max":174,"target":"absent","response":"absent","rt":474.89999999851,"correct":true,"confidence":-1},{"trial_n":16,"min":81,"max":174,"target":"absent","response":"absent","rt":407.89999999851,"correct":true,"confidence":-1},{"trial_n":17,"min":89,"max":166,"target":"present","response":"present","rt":324.5,"correct":true,"confidence":-1},{"trial_n":18,"min":89,"max":166,"target":"present","response":"absent","rt":643.39999999851,"correct":false,"confidence":-1},{"trial_n":19,"min":81,"max":174,"target":"present","response":"present","rt":392.39999999851,"correct":true,"confidence":-1},{"trial_n":20,"min":81,"max":174,"target":"present","response":"absent","rt":481.19999999553,"correct":false,"confidence":-1},{"trial_n":21,"min":77,"max":178,"target":"absent","response":"present","rt":895.89999999851,"correct":false,"confidence":4},{"trial_n":22,"min":73,"max":182,"target":"present","response":"present","rt":827.10000000149,"correct":true,"confidence":5},{"trial_n":23,"min":73,"max":182,"target":"absent","response":"present","rt":736.60000000149,"correct":false,"confidence":5},{"trial_n":24,"min":69,"max":186,"target":"absent","response":"present","rt":1644.1999999955,"correct":false,"confidence":3},{"trial_n":25,"min":65,"max":190,"target":"absent","response":"present","rt":849.70000000298,"correct":false,"confidence":3},{"trial_n":26,"min":61,"max":194,"target":"absent","response":"present","rt":667.29999999702,"correct":false,"confidence":4},{"trial_n":27,"min":57,"max":198,"target":"present","response":"present","rt":764.19999999553,"correct":true,"confidence":4},{"trial_n":28,"min":57,"max":198,"target":"present","response":"present","rt":723.29999999702,"correct":true,"confidence":5},{"trial_n":29,"min":61,"max":194,"target":"absent","response":"absent","rt":599.69999999553,"correct":true,"confidence":4},{"trial_n":30,"min":61,"max":194,"target":"absent","response":"absent","rt":1202.299999997,"correct":true,"confidence":2},{"trial_n":31,"min":63,"max":192,"target":"present","response":"present","rt":696.79999999702,"correct":true,"confidence":3},{"trial_n":32,"min":63,"max":192,"target":"present","response":"present","rt":2551.8999999985,"correct":true,"confidence":3},{"trial_n":33,"min":65,"max":190,"target":"absent","response":"absent","rt":767.89999999851,"correct":true,"confidence":4},{"trial_n":34,"min":65,"max":190,"target":"present","response":"present","rt":3644.8999999985,"correct":true,"confidence":4},{"trial_n":35,"min":67,"max":188,"target":"absent","response":"absent","rt":1327,"correct":true,"confidence":2},{"trial_n":36,"min":67,"max":188,"target":"present","response":"present","rt":1198.299999997,"correct":true,"confidence":4},{"trial_n":37,"min":69,"max":186,"target":"present","response":"present","rt":1548,"correct":true,"confidence":3},{"trial_n":38,"min":69,"max":186,"target":"absent","response":"present","rt":683.69999999553,"correct":false,"confidence":1},{"trial_n":39,"min":67,"max":188,"target":"present","response":"present","rt":1509.6000000015,"correct":true,"confidence":5},{"trial_n":40,"min":67,"max":188,"target":"present","response":"present","rt":1781.299999997,"correct":true,"confidence":5},{"trial_n":41,"min":68,"max":187,"target":"present","response":"present","rt":2012.700000003,"correct":true,"confidence":4},{"trial_n":42,"min":68,"max":187,"target":"absent","response":"absent","rt":652.80000000447,"correct":true,"confidence":5},{"trial_n":43,"min":69,"max":186,"target":"absent","response":"present","rt":789.5,"correct":false,"confidence":3},{"trial_n":44,"min":68,"max":187,"target":"absent","response":"absent","rt":4521.799999997,"correct":true,"confidence":4},{"trial_n":45,"min":68,"max":187,"target":"present","response":"present","rt":776.5,"correct":true,"confidence":4},{"trial_n":46,"min":69,"max":186,"target":"present","response":"absent","rt":1036.1000000015,"correct":false,"confidence":4},{"trial_n":47,"min":68,"max":187,"target":"present","response":"present","rt":1086,"correct":true,"confidence":5},{"trial_n":48,"min":68,"max":187,"target":"absent","response":"absent","rt":604.89999999851,"correct":true,"confidence":5},{"trial_n":49,"min":69,"max":186,"target":"present","response":"present","rt":647,"correct":true,"confidence":4},{"trial_n":50,"min":69,"max":186,"target":"present","response":"present","rt":878.79999999702,"correct":true,"confidence":4},{"trial_n":51,"min":70,"max":185,"target":"present","response":"present","rt":621.59999999404,"correct":true,"confidence":4},{"trial_n":52,"min":70,"max":185,"target":"present","response":"present","rt":631.5,"correct":true,"confidence":4},{"trial_n":53,"min":71,"max":184,"target":"absent","response":"absent","rt":539.60000000149,"correct":true,"confidence":3},{"trial_n":54,"min":71,"max":184,"target":"present","response":"absent","rt":1046.5,"correct":false,"confidence":3},{"trial_n":55,"min":70,"max":185,"target":"absent","response":"absent","rt":580.89999999851,"correct":true,"confidence":3},{"trial_n":56,"min":70,"max":185,"target":"absent","response":"absent","rt":1820.1999999955,"correct":true,"confidence":5},{"trial_n":57,"min":71,"max":184,"target":"absent","response":"absent","rt":1148.3999999985,"correct":true,"confidence":4},{"trial_n":58,"min":71,"max":184,"target":"absent","response":"absent","rt":1325.3999999985,"correct":true,"confidence":4},{"trial_n":59,"min":72,"max":183,"target":"absent","response":"absent","rt":1239.799999997,"correct":true,"confidence":4},{"trial_n":60,"min":72,"max":183,"target":"absent","response":"absent","rt":999.89999999851,"correct":true,"confidence":5},{"trial_n":61,"min":73,"max":182,"target":"present","response":"present","rt":679.60000000149,"correct":true,"confidence":4},{"trial_n":62,"min":73,"max":182,"target":"present","response":"present","rt":1461.1999999955,"correct":true,"confidence":4},{"trial_n":63,"min":74,"max":181,"target":"present","response":"present","rt":663.29999999702,"correct":true,"confidence":5},{"trial_n":64,"min":74,"max":181,"target":"absent","response":"absent","rt":671.09999999404,"correct":true,"confidence":4},{"trial_n":65,"min":75,"max":180,"target":"absent","response":"absent","rt":574.69999999553,"correct":true,"confidence":3},{"trial_n":66,"min":75,"max":180,"target":"present","response":"present","rt":1043.5,"correct":true,"confidence":3},{"trial_n":67,"min":76,"max":179,"target":"absent","response":"absent","rt":390,"correct":true,"confidence":3},{"trial_n":68,"min":76,"max":179,"target":"present","response":"present","rt":1735,"correct":true,"confidence":4},{"trial_n":69,"min":77,"max":178,"target":"absent","response":"absent","rt":2231.5,"correct":true,"confidence":4},{"trial_n":70,"min":77,"max":178,"target":"present","response":"present","rt":1356.799999997,"correct":true,"confidence":4},{"trial_n":71,"min":41,"max":214,"target":"present","response":"absent","rt":7671.6000000015,"correct":false,"confidence":-1},{"trial_n":72,"min":41,"max":214,"target":"present","response":"present","rt":989.29999999702,"correct":true,"confidence":-1},{"trial_n":73,"min":41,"max":214,"target":"absent","response":"absent","rt":215.10000000149,"correct":true,"confidence":-1},{"trial_n":74,"min":57,"max":198,"target":"absent","response":"absent","rt":536.60000000149,"correct":true,"confidence":-1},{"trial_n":75,"min":57,"max":198,"target":"present","response":"absent","rt":32.10000000149,"correct":false,"confidence":-1},{"trial_n":76,"min":41,"max":214,"target":"absent","response":"absent","rt":471.5,"correct":true,"confidence":-1},{"trial_n":77,"min":41,"max":214,"target":"present","response":"present","rt":819.10000000149,"correct":true,"confidence":-1},{"trial_n":78,"min":57,"max":198,"target":"absent","response":"absent","rt":484.89999999851,"correct":true,"confidence":-1},{"trial_n":79,"min":57,"max":198,"target":"present","response":"present","rt":163.69999999553,"correct":true,"confidence":-1},{"trial_n":80,"min":73,"max":182,"target":"present","response":"present","rt":252.19999999553,"correct":true,"confidence":-1},{"trial_n":81,"min":73,"max":182,"target":"present","response":"present","rt":1693.6999999955,"correct":true,"confidence":-1},{"trial_n":82,"min":81,"max":174,"target":"present","response":"present","rt":788.89999999851,"correct":true,"confidence":-1},{"trial_n":83,"min":81,"max":174,"target":"present","response":"absent","rt":920.69999999553,"correct":false,"confidence":-1},{"trial_n":84,"min":73,"max":182,"target":"present","response":"present","rt":9,"correct":true,"confidence":-1},{"trial_n":85,"min":73,"max":182,"target":"absent","response":"absent","rt":359,"correct":true,"confidence":-1},{"trial_n":86,"min":81,"max":174,"target":"absent","response":"present","rt":1055.299999997,"correct":false,"confidence":-1},{"trial_n":87,"min":73,"max":182,"target":"absent","response":"absent","rt":407.5,"correct":true,"confidence":-1},{"trial_n":88,"min":73,"max":182,"target":"present","response":"present","rt":215.19999999553,"correct":true,"confidence":-1},{"trial_n":89,"min":81,"max":174,"target":"absent","response":"present","rt":726,"correct":false,"confidence":-1},{"trial_n":90,"min":73,"max":182,"target":"absent","response":"absent","rt":453.89999999851,"correct":true,"confidence":-1},{"trial_n":91,"min":73,"max":182,"target":"absent","response":"absent","rt":1385.3999999985,"correct":true,"confidence":4},{"trial_n":92,"min":77,"max":178,"target":"absent","response":"absent","rt":359.70000000298,"correct":true,"confidence":4},{"trial_n":93,"min":77,"max":178,"target":"absent","response":"present","rt":497.09999999404,"correct":false,"confidence":1},{"trial_n":94,"min":73,"max":182,"target":"present","response":"present","rt":319.79999999702,"correct":true,"confidence":5},{"trial_n":95,"min":73,"max":182,"target":"present","response":"present","rt":1275.3000000045,"correct":true,"confidence":4},{"trial_n":96,"min":77,"max":178,"target":"absent","response":"present","rt":746.29999999702,"correct":false,"confidence":4},{"trial_n":97,"min":73,"max":182,"target":"present","response":"present","rt":290.70000000298,"correct":true,"confidence":5},{"trial_n":98,"min":73,"max":182,"target":"present","response":"present","rt":240.80000000447,"correct":true,"confidence":5},{"trial_n":99,"min":77,"max":178,"target":"present","response":"present","rt":673.89999999851,"correct":true,"confidence":5},{"trial_n":100,"min":77,"max":178,"target":"present","response":"present","rt":537.70000000298,"correct":true,"confidence":5},{"trial_n":101,"min":79,"max":176,"target":"absent","response":"absent","rt":618.60000000149,"correct":true,"confidence":3},{"trial_n":102,"min":79,"max":176,"target":"present","response":"present","rt":196.20000000298,"correct":true,"confidence":3},{"trial_n":103,"min":81,"max":174,"target":"absent","response":"absent","rt":434.80000000447,"correct":true,"confidence":4},{"trial_n":104,"min":81,"max":174,"target":"present","response":"absent","rt":301.90000000596,"correct":false,"confidence":4},{"trial_n":105,"min":79,"max":176,"target":"absent","response":"absent","rt":277.89999999851,"correct":true,"confidence":4},{"trial_n":106,"min":79,"max":176,"target":"present","response":"present","rt":482.70000000298,"correct":true,"confidence":4},{"trial_n":107,"min":81,"max":174,"target":"absent","response":"absent","rt":337.10000000149,"correct":true,"confidence":4},{"trial_n":108,"min":81,"max":174,"target":"present","response":"present","rt":1137.8999999985,"correct":true,"confidence":5},{"trial_n":109,"min":83,"max":172,"target":"absent","response":"present","rt":1523.1000000015,"correct":false,"confidence":1},{"trial_n":110,"min":81,"max":174,"target":"absent","response":"present","rt":1052.200000003,"correct":false,"confidence":1},{"trial_n":111,"min":80,"max":175,"target":"absent","response":"absent","rt":498.89999999851,"correct":true,"confidence":4},{"trial_n":112,"min":80,"max":175,"target":"absent","response":"absent","rt":473,"correct":true,"confidence":4},{"trial_n":113,"min":81,"max":174,"target":"present","response":"present","rt":370.70000000298,"correct":true,"confidence":5},{"trial_n":114,"min":81,"max":174,"target":"absent","response":"present","rt":620.80000000447,"correct":false,"confidence":5},{"trial_n":115,"min":80,"max":175,"target":"absent","response":"present","rt":938.40000000596,"correct":false,"confidence":5},{"trial_n":116,"min":79,"max":176,"target":"absent","response":"absent","rt":970.40000000596,"correct":true,"confidence":1},{"trial_n":117,"min":79,"max":176,"target":"absent","response":"absent","rt":1049.799999997,"correct":true,"confidence":3},{"trial_n":118,"min":80,"max":175,"target":"absent","response":"absent","rt":867.60000000149,"correct":true,"confidence":3},{"trial_n":119,"min":80,"max":175,"target":"absent","response":"absent","rt":667.70000000298,"correct":true,"confidence":3},{"trial_n":120,"min":81,"max":174,"target":"absent","response":"absent","rt":547.20000000298,"correct":true,"confidence":3},{"trial_n":121,"min":81,"max":174,"target":"absent","response":"absent","rt":603.80000000447,"correct":true,"confidence":3},{"trial_n":122,"min":82,"max":173,"target":"present","response":"present","rt":631.70000000298,"correct":true,"confidence":3},{"trial_n":123,"min":82,"max":173,"target":"absent","response":"present","rt":848.5,"correct":false,"confidence":1},{"trial_n":124,"min":81,"max":174,"target":"absent","response":"absent","rt":476,"correct":true,"confidence":4},{"trial_n":125,"min":81,"max":174,"target":"present","response":"present","rt":716,"correct":true,"confidence":3},{"trial_n":126,"min":82,"max":173,"target":"present","response":"present","rt":354.89999999851,"correct":true,"confidence":3},{"trial_n":127,"min":82,"max":173,"target":"present","response":"present","rt":1586.700000003,"correct":true,"confidence":3},{"trial_n":128,"min":83,"max":172,"target":"present","response":"present","rt":563,"correct":true,"confidence":4},{"trial_n":129,"min":83,"max":172,"target":"present","response":"present","rt":323.29999999702,"correct":true,"confidence":4},{"trial_n":130,"min":84,"max":171,"target":"present","response":"present","rt":978.79999999702,"correct":true,"confidence":4},{"trial_n":131,"min":84,"max":171,"target":"present","response":"present","rt":378.70000000298,"correct":true,"confidence":4},{"trial_n":132,"min":85,"max":170,"target":"present","response":"present","rt":408.70000000298,"correct":true,"confidence":4},{"trial_n":133,"min":85,"max":170,"target":"present","response":"present","rt":274.80000000447,"correct":true,"confidence":5},{"trial_n":134,"min":86,"max":169,"target":"present","response":"present","rt":225.39999999851,"correct":true,"confidence":5},{"trial_n":135,"min":86,"max":169,"target":"present","response":"present","rt":352.80000000447,"correct":true,"confidence":5},{"trial_n":136,"min":87,"max":168,"target":"absent","response":"present","rt":746.20000000298,"correct":false,"confidence":1},{"trial_n":137,"min":86,"max":169,"target":"absent","response":"absent","rt":1530.599999994,"correct":true,"confidence":2},{"trial_n":138,"min":86,"max":169,"target":"present","response":"present","rt":1560.900000006,"correct":true,"confidence":2},{"trial_n":139,"min":87,"max":168,"target":"absent","response":"present","rt":924.30000000447,"correct":false,"confidence":1},{"trial_n":140,"min":86,"max":169,"target":"present","response":"present","rt":361.09999999404,"correct":true,"confidence":4}]