[{"trial_n":1,"span":8,"encoder":"88122538","distractor":"88122568","target":"present","response":"present","rt":"4766.1000000015","correct":true,"confidence":-1},{"trial_n":2,"span":8,"encoder":"74510624","distractor":"74510224","target":"present","response":"present","rt":"2084.6999999993","correct":true,"confidence":-1},{"trial_n":3,"span":10,"encoder":"8446636748","distractor":"2446636748","target":"absent","response":"present","rt":"2332.8000000007","correct":false,"confidence":-1},{"trial_n":4,"span":8,"encoder":"82878474","distractor":"92878474","target":"absent","response":"absent","rt":"3647.1999999993","correct":true,"confidence":-1},{"trial_n":5,"span":8,"encoder":"31485365","distractor":"31485369","target":"present","response":"present","rt":"3252.8999999985","correct":true,"confidence":-1},{"trial_n":6,"span":10,"encoder":"2779510795","distractor":"2779510295","target":"absent","response":"absent","rt":"3818.6999999993","correct":true,"confidence":-1},{"trial_n":7,"span":10,"encoder":"0272711422","distractor":"0272718422","target":"absent","response":"absent","rt":"4417.4000000022","correct":true,"confidence":-1},{"trial_n":8,"span":12,"encoder":"845177554935","distractor":"845177554335","target":"present","response":"present","rt":"2275.5999999978","correct":true,"confidence":-1},{"trial_n":9,"span":12,"encoder":"898960207249","distractor":"898967207249","target":"present","response":"present","rt":"5379.9000000022","correct":true,"confidence":-1},{"trial_n":10,"span":14,"encoder":"83932716641881","distractor":"83932719641881","target":"absent","response":"present","rt":"5166.9000000022","correct":false,"confidence":-1},{"trial_n":11,"span":12,"encoder":"470609318107","distractor":"471609318107","target":"present","response":"present","rt":"1904.5999999978","correct":true,"confidence":-1},{"trial_n":12,"span":12,"encoder":"883991381430","distractor":"883991389430","target":"present","response":"present","rt":"5612.6999999993","correct":true,"confidence":-1},{"trial_n":13,"span":13,"encoder":"1606420730044","distractor":"1609420730044","target":"present","response":"present","rt":"5199.1999999993","correct":true,"confidence":-1},{"trial_n":14,"span":13,"encoder":"8263909771184","distractor":"8263909771194","target":"absent","response":"absent","rt":"5565.4000000022","correct":true,"confidence":-1},{"trial_n":15,"span":14,"encoder":"05396688896767","distractor":"05396688816767","target":"present","response":"absent","rt":"4881","correct":false,"confidence":-1},{"trial_n":16,"span":13,"encoder":"1728993400341","distractor":"7728993400341","target":"absent","response":"present","rt":"3710.0999999978","correct":false,"confidence":-1},{"trial_n":17,"span":12,"encoder":"031566660882","distractor":"031566660182","target":"present","response":"present","rt":"3337.5","correct":true,"confidence":-1},{"trial_n":18,"span":12,"encoder":"002023627569","distractor":"007023627569","target":"present","response":"absent","rt":"5186.700000003","correct":false,"confidence":-1},{"trial_n":19,"span":11,"encoder":"40836130038","distractor":"40835130038","target":"present","response":"present","rt":"5097.9000000022","correct":true,"confidence":-1},{"trial_n":20,"span":11,"encoder":"04083352074","distractor":"04083302074","target":"absent","response":"absent","rt":"4985.5","correct":true,"confidence":-1},{"trial_n":21,"span":12,"encoder":"730211919327","distractor":"730211959327","target":"absent","response":"absent","rt":"5078.8000000007","correct":true,"confidence":4},{"trial_n":22,"span":12,"encoder":"923656716563","distractor":"923656716523","target":"present","response":"present","rt":"5251.5999999978","correct":true,"confidence":2},{"trial_n":23,"span":13,"encoder":"9689225578606","distractor":"9689224578606","target":"absent","response":"present","rt":"3792.3000000007","correct":false,"confidence":4},{"trial_n":24,"span":12,"encoder":"538600076197","distractor":"538600076597","target":"present","response":"absent","rt":"6530.3000000007","correct":false,"confidence":3},{"trial_n":25,"span":11,"encoder":"12069301934","distractor":"12069301938","target":"present","response":"present","rt":"5930.8999999985","correct":true,"confidence":3},{"trial_n":26,"span":11,"encoder":"94264942361","distractor":"44264942361","target":"absent","response":"present","rt":"3471.5","correct":false,"confidence":4},{"trial_n":27,"span":10,"encoder":"7805356533","distractor":"7805356532","target":"present","response":"present","rt":"5653.3000000007","correct":true,"confidence":5},{"trial_n":28,"span":10,"encoder":"1241665346","distractor":"1241665846","target":"present","response":"present","rt":"5422.5","correct":true,"confidence":5},{"trial_n":29,"span":11,"encoder":"21634624186","distractor":"91634624186","target":"absent","response":"absent","rt":"3453.6999999993","correct":true,"confidence":3},{"trial_n":30,"span":11,"encoder":"19425916956","distractor":"19425911956","target":"absent","response":"present","rt":"4599.0999999978","correct":false,"confidence":3},{"trial_n":31,"span":10,"encoder":"5390236450","distractor":"5390234450","target":"present","response":"present","rt":"2396.3999999985","correct":true,"confidence":2},{"trial_n":32,"span":10,"encoder":"5332441822","distractor":"5332441832","target":"absent","response":"absent","rt":"2851.4000000022","correct":true,"confidence":5},{"trial_n":33,"span":11,"encoder":"24801051270","distractor":"24801050270","target":"absent","response":"absent","rt":"6538.200000003","correct":true,"confidence":3},{"trial_n":34,"span":11,"encoder":"08818153368","distractor":"08818553368","target":"absent","response":"present","rt":"4643.4000000022","correct":false,"confidence":3},{"trial_n":35,"span":10,"encoder":"7064538469","distractor":"7064138469","target":"absent","response":"absent","rt":"3936.8000000007","correct":true,"confidence":5},{"trial_n":36,"span":10,"encoder":"0214509484","distractor":"0214109484","target":"absent","response":"absent","rt":"5702.6000000015","correct":true,"confidence":4},{"trial_n":37,"span":11,"encoder":"69485085886","distractor":"69485081886","target":"present","response":"present","rt":"4608","correct":true,"confidence":1},{"trial_n":38,"span":11,"encoder":"18504541245","distractor":"18500541245","target":"present","response":"present","rt":"5193.3000000007","correct":true,"confidence":4},{"trial_n":39,"span":12,"encoder":"068941397172","distractor":"068931397172","target":"present","response":"present","rt":"4892.1999999993","correct":true,"confidence":5},{"trial_n":40,"span":12,"encoder":"906541385969","distractor":"906041385969","target":"absent","response":"present","rt":"4413.9000000022","correct":false,"confidence":5},{"trial_n":41,"span":11,"encoder":"39928741188","distractor":"39928741158","target":"present","response":"present","rt":"5027.1000000015","correct":true,"confidence":3},{"trial_n":42,"span":11,"encoder":"56472789878","distractor":"36472789878","target":"absent","response":"absent","rt":"3720","correct":true,"confidence":3},{"trial_n":43,"span":12,"encoder":"642870103154","distractor":"942870103154","target":"present","response":"absent","rt":"5234.8999999985","correct":false,"confidence":2},{"trial_n":44,"span":11,"encoder":"20906965900","distractor":"20906966900","target":"absent","response":"absent","rt":"5035.3000000007","correct":true,"confidence":5},{"trial_n":45,"span":11,"encoder":"51225348278","distractor":"51229348278","target":"present","response":"present","rt":"5415.1000000015","correct":true,"confidence":4},{"trial_n":46,"span":12,"encoder":"604621987774","distractor":"654621987774","target":"absent","response":"present","rt":"3382.6999999993","correct":false,"confidence":2},{"trial_n":47,"span":11,"encoder":"68767357509","distractor":"68767357009","target":"present","response":"present","rt":"4429.5","correct":true,"confidence":4},{"trial_n":48,"span":11,"encoder":"70769339827","distractor":"70769369827","target":"absent","response":"absent","rt":"4748.3999999985","correct":true,"confidence":2},{"trial_n":49,"span":12,"encoder":"283909559570","distractor":"283909559500","target":"absent","response":"absent","rt":"3300.1999999993","correct":true,"confidence":5},{"trial_n":50,"span":12,"encoder":"214247566068","distractor":"714247566068","target":"absent","response":"present","rt":"4383.1999999993","correct":false,"confidence":5},{"trial_n":51,"span":11,"encoder":"99315070581","distractor":"99315270581","target":"present","response":"present","rt":"3832.1999999993","correct":true,"confidence":4},{"trial_n":52,"span":11,"encoder":"14037390777","distractor":"14037390707","target":"present","response":"present","rt":"5788.1999999993","correct":true,"confidence":1},{"trial_n":53,"span":12,"encoder":"483397686388","distractor":"483397886388","target":"absent","response":"absent","rt":"4993.8000000007","correct":true,"confidence":2},{"trial_n":54,"span":12,"encoder":"065638978410","distractor":"065638979410","target":"present","response":"present","rt":"3695.8000000007","correct":true,"confidence":5},{"trial_n":55,"span":13,"encoder":"5980176709301","distractor":"5480176709301","target":"absent","response":"present","rt":"3087.1999999993","correct":false,"confidence":3},{"trial_n":56,"span":12,"encoder":"151008167667","distractor":"151008161667","target":"absent","response":"present","rt":"3720.8000000007","correct":false,"confidence":2},{"trial_n":57,"span":11,"encoder":"27470076876","distractor":"27440076876","target":"present","response":"present","rt":"5642.1999999993","correct":true,"confidence":3},{"trial_n":58,"span":11,"encoder":"99732869661","distractor":"99732869671","target":"absent","response":"absent","rt":"3595.8999999985","correct":true,"confidence":5},{"trial_n":59,"span":12,"encoder":"475837580623","distractor":"475637580623","target":"present","response":"present","rt":"4674.6999999993","correct":true,"confidence":1},{"trial_n":60,"span":12,"encoder":"810724861390","distractor":"810764861390","target":"absent","response":"present","rt":"3883.8999999985","correct":false,"confidence":2},{"trial_n":61,"span":11,"encoder":"58339525291","distractor":"58339585291","target":"present","response":"present","rt":"4704.1999999993","correct":true,"confidence":5},{"trial_n":62,"span":11,"encoder":"96341946126","distractor":"96341946026","target":"present","response":"present","rt":"3883.5","correct":true,"confidence":3},{"trial_n":63,"span":12,"encoder":"280247284287","distractor":"280247284288","target":"present","response":"present","rt":"3124.6999999993","correct":true,"confidence":4},{"trial_n":64,"span":12,"encoder":"787502248620","distractor":"787502248626","target":"present","response":"present","rt":"9150.6000000015","correct":true,"confidence":2},{"trial_n":65,"span":13,"encoder":"5207514058038","distractor":"5607514058038","target":"absent","response":"present","rt":"4782","correct":false,"confidence":3},{"trial_n":66,"span":12,"encoder":"748857412652","distractor":"748857412352","target":"absent","response":"present","rt":"3199.6999999993","correct":false,"confidence":3},{"trial_n":67,"span":11,"encoder":"56242838529","distractor":"56342838529","target":"absent","response":"present","rt":"4830.1999999993","correct":false,"confidence":5},{"trial_n":68,"span":10,"encoder":"4814334473","distractor":"4414334473","target":"absent","response":"present","rt":"4183","correct":false,"confidence":5},{"trial_n":69,"span":9,"encoder":"955050930","distractor":"957050930","target":"present","response":"present","rt":"3842.5","correct":true,"confidence":5},{"trial_n":70,"span":9,"encoder":"271261977","distractor":"271261973","target":"present","response":"present","rt":"4232.3999999985","correct":true,"confidence":5},{"trial_n":71,"span":8,"encoder":"45759752","distractor":"45759762","target":"present","response":"present","rt":"5792.1999999993","correct":true,"confidence":-1},{"trial_n":72,"span":8,"encoder":"84698412","distractor":"85698412","target":"present","response":"present","rt":"3963.5","correct":true,"confidence":-1},{"trial_n":73,"span":9,"encoder":"166047872","distractor":"146047872","target":"absent","response":"present","rt":"8387.8000000007","correct":false,"confidence":-1},{"trial_n":74,"span":8,"encoder":"59899662","distractor":"59894662","target":"absent","response":"absent","rt":"3983.1999999993","correct":true,"confidence":-1},{"trial_n":75,"span":8,"encoder":"10095074","distractor":"10095174","target":"present","response":"present","rt":"4474.799999997","correct":true,"confidence":-1},{"trial_n":76,"span":9,"encoder":"940528752","distractor":"840528752","target":"present","response":"present","rt":"3199.1000000015","correct":true,"confidence":-1},{"trial_n":77,"span":9,"encoder":"570857610","distractor":"570857616","target":"present","response":"present","rt":"5754","correct":true,"confidence":-1},{"trial_n":78,"span":10,"encoder":"4489000706","distractor":"4489060706","target":"absent","response":"absent","rt":"4465.0999999978","correct":true,"confidence":-1},{"trial_n":79,"span":10,"encoder":"5121718143","distractor":"5121718141","target":"absent","response":"absent","rt":"3805.1999999993","correct":true,"confidence":-1},{"trial_n":80,"span":11,"encoder":"88232399998","distractor":"88232799998","target":"absent","response":"present","rt":"10673.100000001","correct":false,"confidence":-1},{"trial_n":81,"span":10,"encoder":"4307536525","distractor":"4308536525","target":"present","response":"present","rt":"5527.5","correct":true,"confidence":-1},{"trial_n":82,"span":10,"encoder":"4257820419","distractor":"4257820719","target":"absent","response":"absent","rt":"2744.8000000007","correct":true,"confidence":-1},{"trial_n":83,"span":11,"encoder":"70507887856","distractor":"70607887856","target":"present","response":"present","rt":"6874.3000000007","correct":true,"confidence":-1},{"trial_n":84,"span":11,"encoder":"98368067389","distractor":"98318067389","target":"absent","response":"absent","rt":"2929.5999999978","correct":true,"confidence":-1},{"trial_n":85,"span":12,"encoder":"581422035610","distractor":"581422035630","target":"absent","response":"present","rt":"6586.8000000007","correct":false,"confidence":-1},{"trial_n":86,"span":11,"encoder":"24831853100","distractor":"24811853100","target":"absent","response":"absent","rt":"3749.8000000007","correct":true,"confidence":-1},{"trial_n":87,"span":11,"encoder":"10928337925","distractor":"10928327925","target":"absent","response":"present","rt":"4552.1000000015","correct":false,"confidence":-1},{"trial_n":88,"span":10,"encoder":"4488421494","distractor":"4388421494","target":"absent","response":"absent","rt":"2511.6999999993","correct":true,"confidence":-1},{"trial_n":89,"span":10,"encoder":"1803537530","distractor":"1808537530","target":"absent","response":"absent","rt":"4794.9000000022","correct":true,"confidence":-1},{"trial_n":90,"span":11,"encoder":"01596317864","distractor":"01591317864","target":"present","response":"present","rt":"4587.1999999993","correct":true,"confidence":-1},{"trial_n":91,"span":11,"encoder":"69468942765","distractor":"60468942765","target":"present","response":"absent","rt":"9607.5999999978","correct":false,"confidence":5},{"trial_n":92,"span":10,"encoder":"6678243399","distractor":"6688243399","target":"absent","response":"absent","rt":"3223.1999999993","correct":true,"confidence":5},{"trial_n":93,"span":10,"encoder":"5617056165","distractor":"5687056165","target":"absent","response":"absent","rt":"3213.6000000015","correct":true,"confidence":5},{"trial_n":94,"span":11,"encoder":"26503305217","distractor":"86503305217","target":"present","response":"present","rt":"3340.9000000022","correct":true,"confidence":5},{"trial_n":95,"span":11,"encoder":"76109908323","distractor":"76109908023","target":"absent","response":"present","rt":"12182.100000001","correct":false,"confidence":5},{"trial_n":96,"span":10,"encoder":"8718932519","distractor":"0718932519","target":"absent","response":"present","rt":"4780","correct":false,"confidence":4},{"trial_n":97,"span":9,"encoder":"536674331","distractor":"936674331","target":"present","response":"present","rt":"6374.0999999978","correct":true,"confidence":5},{"trial_n":98,"span":9,"encoder":"793951426","distractor":"793951446","target":"present","response":"absent","rt":"3424.3000000007","correct":false,"confidence":3},{"trial_n":99,"span":8,"encoder":"40731386","distractor":"40731376","target":"present","response":"present","rt":"4565.8000000007","correct":true,"confidence":5},{"trial_n":100,"span":8,"encoder":"45694312","distractor":"45694322","target":"present","response":"present","rt":"4402.1000000015","correct":true,"confidence":4},{"trial_n":101,"span":9,"encoder":"262668648","distractor":"262668644","target":"present","response":"present","rt":"2622.3000000007","correct":true,"confidence":5},{"trial_n":102,"span":9,"encoder":"030676739","distractor":"030676539","target":"present","response":"present","rt":"2317.700000003","correct":true,"confidence":4},{"trial_n":103,"span":10,"encoder":"4757566851","distractor":"4757561851","target":"present","response":"absent","rt":"1653.1999999993","correct":false,"confidence":4},{"trial_n":104,"span":9,"encoder":"447041902","distractor":"447041962","target":"absent","response":"absent","rt":"1992.1999999993","correct":true,"confidence":5},{"trial_n":105,"span":9,"encoder":"693294053","distractor":"693224053","target":"present","response":"present","rt":"1754.3999999985","correct":true,"confidence":5},{"trial_n":106,"span":10,"encoder":"9067560275","distractor":"9167560275","target":"absent","response":"present","rt":"1804.5","correct":false,"confidence":4},{"trial_n":107,"span":9,"encoder":"100380114","distractor":"100380174","target":"absent","response":"absent","rt":"2827.9000000022","correct":true,"confidence":4},{"trial_n":108,"span":9,"encoder":"405751679","distractor":"405051679","target":"absent","response":"absent","rt":"1807.6000000015","correct":true,"confidence":5},{"trial_n":109,"span":10,"encoder":"3813594796","distractor":"3823594796","target":"present","response":"absent","rt":"18109.300000001","correct":false,"confidence":5},{"trial_n":110,"span":9,"encoder":"095692778","distractor":"095699778","target":"absent","response":"present","rt":"2983.6999999993","correct":false,"confidence":5},{"trial_n":111,"span":8,"encoder":"90145941","distractor":"90145921","target":"absent","response":"present","rt":"6899","correct":false,"confidence":4},{"trial_n":112,"span":7,"encoder":"0063911","distractor":"0061911","target":"present","response":"absent","rt":"1832.0999999978","correct":false,"confidence":5},{"trial_n":113,"span":6,"encoder":"845771","distractor":"845711","target":"present","response":"absent","rt":"2724","correct":false,"confidence":5},{"trial_n":114,"span":5,"encoder":"80935","distractor":"81935","target":"absent","response":"present","rt":"1496.5","correct":false,"confidence":3},{"trial_n":115,"span":4,"encoder":"4167","distractor":"4367","target":"absent","response":"absent","rt":"2239.4000000022","correct":true,"confidence":5},{"trial_n":116,"span":4,"encoder":"7404","distractor":"4404","target":"present","response":"present","rt":"1798.6999999993","correct":true,"confidence":5},{"trial_n":117,"span":5,"encoder":"48660","distractor":"48663","target":"absent","response":"absent","rt":"1558.4000000022","correct":true,"confidence":5},{"trial_n":118,"span":5,"encoder":"41886","distractor":"41806","target":"present","response":"present","rt":"1815","correct":true,"confidence":5},{"trial_n":119,"span":6,"encoder":"267000","distractor":"567000","target":"present","response":"present","rt":"1639.5","correct":true,"confidence":5},{"trial_n":120,"span":6,"encoder":"355514","distractor":"355544","target":"present","response":"present","rt":"2384.5","correct":true,"confidence":5},{"trial_n":121,"span":7,"encoder":"5773869","distractor":"5773879","target":"present","response":"present","rt":"2349.3999999985","correct":true,"confidence":5},{"trial_n":122,"span":7,"encoder":"9790338","distractor":"9740338","target":"absent","response":"present","rt":"2484.3000000007","correct":false,"confidence":3},{"trial_n":123,"span":6,"encoder":"175073","distractor":"195073","target":"present","response":"present","rt":"2295.5","correct":true,"confidence":5},{"trial_n":124,"span":6,"encoder":"683078","distractor":"682078","target":"absent","response":"absent","rt":"2673.5999999978","correct":true,"confidence":1},{"trial_n":125,"span":7,"encoder":"7916430","distractor":"7916230","target":"absent","response":"absent","rt":"1860","correct":true,"confidence":5},{"trial_n":126,"span":7,"encoder":"3230257","distractor":"3630257","target":"present","response":"absent","rt":"3397.8999999985","correct":false,"confidence":3},{"trial_n":127,"span":6,"encoder":"886699","distractor":"286699","target":"present","response":"present","rt":"2468.3999999985","correct":true,"confidence":2},{"trial_n":128,"span":6,"encoder":"857976","distractor":"857977","target":"present","response":"present","rt":"1854.799999997","correct":true,"confidence":5},{"trial_n":129,"span":7,"encoder":"3940437","distractor":"3940237","target":"absent","response":"absent","rt":"1955.3000000007","correct":true,"confidence":5},{"trial_n":130,"span":7,"encoder":"2849959","distractor":"2349959","target":"absent","response":"absent","rt":"2624.1999999993","correct":true,"confidence":2},{"trial_n":131,"span":8,"encoder":"78677445","distractor":"78679445","target":"present","response":"present","rt":"2038.0999999978","correct":true,"confidence":3},{"trial_n":132,"span":8,"encoder":"76674851","distractor":"76674821","target":"present","response":"present","rt":"1726.0999999978","correct":true,"confidence":5},{"trial_n":133,"span":9,"encoder":"601571274","distractor":"601511274","target":"present","response":"present","rt":"2017","correct":true,"confidence":5},{"trial_n":134,"span":9,"encoder":"259479688","distractor":"259459688","target":"present","response":"present","rt":"3454.0999999978","correct":true,"confidence":3},{"trial_n":135,"span":10,"encoder":"7590308716","distractor":"7590308718","target":"absent","response":"absent","rt":"1536.5","correct":true,"confidence":1},{"trial_n":136,"span":10,"encoder":"5467687066","distractor":"4467687066","target":"absent","response":"present","rt":"45324.600000001","correct":false,"confidence":4},{"trial_n":137,"span":9,"encoder":"612013375","distractor":"912013375","target":"absent","response":"absent","rt":"3221.9000000022","correct":true,"confidence":4},{"trial_n":138,"span":9,"encoder":"235301655","distractor":"235301650","target":"present","response":"present","rt":"1758.9000000022","correct":true,"confidence":5},{"trial_n":139,"span":10,"encoder":"9890433662","distractor":"9800433662","target":"absent","response":"absent","rt":"8422.5999999978","correct":true,"confidence":3},{"trial_n":140,"span":10,"encoder":"2582675288","distractor":"8582675288","target":"present","response":"present","rt":"3776","correct":true,"confidence":5}]