[{"trial_n":1,"span":8,"encoder":"44970576","distractor":"44970776","target":"present","response":"present","rt":"3770.3000000119","correct":true,"confidence":-1},{"trial_n":2,"span":8,"encoder":"81543417","distractor":"81243417","target":"present","response":"present","rt":"2989.5","correct":true,"confidence":-1},{"trial_n":3,"span":10,"encoder":"8108375594","distractor":"8108375514","target":"absent","response":"present","rt":"5652.2000000477","correct":false,"confidence":-1},{"trial_n":4,"span":8,"encoder":"78379705","distractor":"78379795","target":"absent","response":"absent","rt":"3821.0999999642","correct":true,"confidence":-1},{"trial_n":5,"span":8,"encoder":"59025411","distractor":"59025401","target":"present","response":"present","rt":"3706.4000000358","correct":true,"confidence":-1},{"trial_n":6,"span":10,"encoder":"2187075099","distractor":"2187075097","target":"present","response":"present","rt":"3082.3999999762","correct":true,"confidence":-1},{"trial_n":7,"span":10,"encoder":"0286504956","distractor":"0286504951","target":"present","response":"present","rt":"4792.8000000119","correct":true,"confidence":-1},{"trial_n":8,"span":12,"encoder":"528298172114","distractor":"428298172114","target":"present","response":"present","rt":"4059.8000000119","correct":true,"confidence":-1},{"trial_n":9,"span":12,"encoder":"553397117297","distractor":"553397127297","target":"present","response":"present","rt":"4681.7999999523","correct":true,"confidence":-1},{"trial_n":10,"span":14,"encoder":"45674940584772","distractor":"45674940574772","target":"present","response":"absent","rt":"3797.1999999881","correct":false,"confidence":-1},{"trial_n":11,"span":12,"encoder":"836736628479","distractor":"836736628472","target":"present","response":"absent","rt":"2741.0999999642","correct":false,"confidence":-1},{"trial_n":12,"span":11,"encoder":"11219249030","distractor":"14219249030","target":"present","response":"present","rt":"4457.8999999762","correct":true,"confidence":-1},{"trial_n":13,"span":11,"encoder":"48101548393","distractor":"40101548393","target":"present","response":"absent","rt":"6293.9000000358","correct":false,"confidence":-1},{"trial_n":14,"span":10,"encoder":"5413837038","distractor":"5413837438","target":"absent","response":"absent","rt":"2349","correct":true,"confidence":-1},{"trial_n":15,"span":10,"encoder":"1545206917","distractor":"1525206917","target":"present","response":"present","rt":"3420.1999999881","correct":true,"confidence":-1},{"trial_n":16,"span":11,"encoder":"96178449461","distractor":"96178448461","target":"absent","response":"present","rt":"3149.3000000119","correct":false,"confidence":-1},{"trial_n":17,"span":10,"encoder":"4881929250","distractor":"4881829250","target":"absent","response":"present","rt":"3170","correct":false,"confidence":-1},{"trial_n":18,"span":9,"encoder":"918368263","distractor":"918368463","target":"absent","response":"absent","rt":"2238.6999999881","correct":true,"confidence":-1},{"trial_n":19,"span":9,"encoder":"644730833","distractor":"644732833","target":"absent","response":"absent","rt":"2136.5999999642","correct":true,"confidence":-1},{"trial_n":20,"span":10,"encoder":"6275000951","distractor":"6275000971","target":"present","response":"absent","rt":"1845.1999999881","correct":false,"confidence":-1},{"trial_n":21,"span":9,"encoder":"527447039","distractor":"522447039","target":"present","response":"present","rt":"4023.3000000119","correct":true,"confidence":3},{"trial_n":22,"span":9,"encoder":"897997800","distractor":"897977800","target":"present","response":"present","rt":"3910.6000000238","correct":true,"confidence":5},{"trial_n":23,"span":10,"encoder":"3172664430","distractor":"3177664430","target":"absent","response":"absent","rt":"4418.7999999523","correct":true,"confidence":4},{"trial_n":24,"span":10,"encoder":"0504244972","distractor":"0505244972","target":"present","response":"present","rt":"3679.1999999881","correct":true,"confidence":5},{"trial_n":25,"span":11,"encoder":"92871598729","distractor":"92471598729","target":"present","response":"present","rt":"5105.6999999881","correct":true,"confidence":2},{"trial_n":26,"span":11,"encoder":"89753654703","distractor":"89703654703","target":"present","response":"present","rt":"4288.4000000358","correct":true,"confidence":5},{"trial_n":27,"span":12,"encoder":"675224309801","distractor":"675224309401","target":"absent","response":"present","rt":"9547.1000000238","correct":false,"confidence":3},{"trial_n":28,"span":11,"encoder":"20373098753","distractor":"20373098750","target":"present","response":"absent","rt":"4739.3000000119","correct":false,"confidence":3},{"trial_n":29,"span":10,"encoder":"8279967890","distractor":"8273967890","target":"present","response":"present","rt":"3764.5","correct":true,"confidence":4},{"trial_n":30,"span":10,"encoder":"9392380789","distractor":"9392380489","target":"absent","response":"absent","rt":"3793.9000000358","correct":true,"confidence":2},{"trial_n":31,"span":11,"encoder":"50733398821","distractor":"50433398821","target":"absent","response":"present","rt":"6601.3999999762","correct":false,"confidence":1},{"trial_n":32,"span":10,"encoder":"8383817885","distractor":"8389817885","target":"absent","response":"absent","rt":"5871.3000000119","correct":true,"confidence":5},{"trial_n":33,"span":10,"encoder":"4869542001","distractor":"4869542051","target":"present","response":"absent","rt":"6612.3999999762","correct":false,"confidence":2},{"trial_n":34,"span":9,"encoder":"607512078","distractor":"607512075","target":"absent","response":"absent","rt":"5457.5","correct":true,"confidence":2},{"trial_n":35,"span":9,"encoder":"842570355","distractor":"842520355","target":"absent","response":"absent","rt":"5156.6999999881","correct":true,"confidence":4},{"trial_n":36,"span":10,"encoder":"5096835422","distractor":"5097835422","target":"absent","response":"present","rt":"4154.5","correct":false,"confidence":5},{"trial_n":37,"span":9,"encoder":"870939128","distractor":"800939128","target":"absent","response":"present","rt":"8241.3999999762","correct":false,"confidence":3},{"trial_n":38,"span":8,"encoder":"37780544","distractor":"37780744","target":"absent","response":"present","rt":"3493.3000000119","correct":false,"confidence":4},{"trial_n":39,"span":7,"encoder":"4187564","distractor":"4186564","target":"present","response":"present","rt":"2394","correct":true,"confidence":5},{"trial_n":40,"span":7,"encoder":"7203503","distractor":"7206503","target":"absent","response":"present","rt":"1524.3000000119","correct":false,"confidence":5},{"trial_n":41,"span":6,"encoder":"113821","distractor":"913821","target":"absent","response":"absent","rt":"2102.6999999881","correct":true,"confidence":5},{"trial_n":42,"span":6,"encoder":"559956","distractor":"559996","target":"present","response":"present","rt":"2421.1999999881","correct":true,"confidence":5},{"trial_n":43,"span":7,"encoder":"3688683","distractor":"9688683","target":"present","response":"present","rt":"2895.5","correct":true,"confidence":3},{"trial_n":44,"span":7,"encoder":"0020828","distractor":"0020818","target":"present","response":"present","rt":"2134.3999999762","correct":true,"confidence":5},{"trial_n":45,"span":8,"encoder":"44079516","distractor":"44072516","target":"absent","response":"absent","rt":"3293.7000000477","correct":true,"confidence":2},{"trial_n":46,"span":8,"encoder":"23681531","distractor":"23681539","target":"absent","response":"present","rt":"3573.6999999881","correct":false,"confidence":1},{"trial_n":47,"span":7,"encoder":"6761841","distractor":"6701841","target":"present","response":"present","rt":"1536.9000000358","correct":true,"confidence":3},{"trial_n":48,"span":7,"encoder":"4443206","distractor":"7443206","target":"present","response":"present","rt":"3570","correct":true,"confidence":5},{"trial_n":49,"span":8,"encoder":"52029286","distractor":"52029256","target":"absent","response":"absent","rt":"6465.1999999881","correct":true,"confidence":4},{"trial_n":50,"span":8,"encoder":"91175633","distractor":"99175633","target":"absent","response":"absent","rt":"3029.5","correct":true,"confidence":3},{"trial_n":51,"span":9,"encoder":"941360180","distractor":"141360180","target":"absent","response":"absent","rt":"2109","correct":true,"confidence":4},{"trial_n":52,"span":9,"encoder":"021114347","distractor":"021114387","target":"present","response":"absent","rt":"3103.6999999881","correct":false,"confidence":3},{"trial_n":53,"span":8,"encoder":"90187730","distractor":"90187790","target":"absent","response":"present","rt":"6768.3000000119","correct":false,"confidence":2},{"trial_n":54,"span":7,"encoder":"8493861","distractor":"8494861","target":"absent","response":"absent","rt":"4848.3999999762","correct":true,"confidence":4},{"trial_n":55,"span":7,"encoder":"6092664","distractor":"6092668","target":"absent","response":"absent","rt":"1437.8999999762","correct":true,"confidence":5},{"trial_n":56,"span":8,"encoder":"79271576","distractor":"29271576","target":"absent","response":"present","rt":"6973.6999999881","correct":false,"confidence":2},{"trial_n":57,"span":7,"encoder":"4091191","distractor":"4891191","target":"present","response":"present","rt":"2993.1000000238","correct":true,"confidence":5},{"trial_n":58,"span":7,"encoder":"8542396","distractor":"8548396","target":"absent","response":"present","rt":"4464.1000000238","correct":false,"confidence":5},{"trial_n":59,"span":6,"encoder":"408636","distractor":"402636","target":"present","response":"present","rt":"3206","correct":true,"confidence":4},{"trial_n":60,"span":6,"encoder":"236095","distractor":"236295","target":"present","response":"present","rt":"2079.8000000119","correct":true,"confidence":5},{"trial_n":61,"span":7,"encoder":"7489254","distractor":"7489214","target":"present","response":"present","rt":"2881.4000000358","correct":true,"confidence":5},{"trial_n":62,"span":7,"encoder":"3323045","distractor":"3320045","target":"absent","response":"absent","rt":"3423.6000000238","correct":true,"confidence":5},{"trial_n":63,"span":8,"encoder":"48024744","distractor":"48024244","target":"present","response":"present","rt":"2344.2000000477","correct":true,"confidence":5},{"trial_n":64,"span":8,"encoder":"16535674","distractor":"16535774","target":"absent","response":"present","rt":"5115","correct":false,"confidence":2},{"trial_n":65,"span":7,"encoder":"0102025","distractor":"5102025","target":"present","response":"present","rt":"2500.0999999642","correct":true,"confidence":5},{"trial_n":66,"span":7,"encoder":"4983319","distractor":"4983419","target":"present","response":"present","rt":"2656.9000000358","correct":true,"confidence":5},{"trial_n":67,"span":8,"encoder":"00202575","distractor":"07202575","target":"absent","response":"present","rt":"4482","correct":false,"confidence":3},{"trial_n":68,"span":7,"encoder":"3388012","distractor":"3188012","target":"absent","response":"absent","rt":"2170","correct":true,"confidence":5},{"trial_n":69,"span":7,"encoder":"8619652","distractor":"8619658","target":"absent","response":"absent","rt":"2026.8999999762","correct":true,"confidence":5},{"trial_n":70,"span":8,"encoder":"89719022","distractor":"86719022","target":"present","response":"present","rt":"2874.5","correct":true,"confidence":5},{"trial_n":71,"span":8,"encoder":"02195971","distractor":"02695971","target":"present","response":"present","rt":"6589","correct":true,"confidence":-1},{"trial_n":72,"span":8,"encoder":"96002312","distractor":"96072312","target":"present","response":"absent","rt":"2581.3000000119","correct":false,"confidence":-1},{"trial_n":73,"span":7,"encoder":"5916511","distractor":"5916911","target":"absent","response":"absent","rt":"3456.8000000119","correct":true,"confidence":-1},{"trial_n":74,"span":7,"encoder":"0761463","distractor":"9761463","target":"absent","response":"absent","rt":"3558.1999999881","correct":true,"confidence":-1},{"trial_n":75,"span":8,"encoder":"46991264","distractor":"46992264","target":"present","response":"present","rt":"1259.1999999881","correct":true,"confidence":-1},{"trial_n":76,"span":8,"encoder":"28872370","distractor":"28872350","target":"present","response":"absent","rt":"9206.4000000358","correct":false,"confidence":-1},{"trial_n":77,"span":7,"encoder":"6377882","distractor":"6367882","target":"absent","response":"absent","rt":"2907.8000000119","correct":true,"confidence":-1},{"trial_n":78,"span":7,"encoder":"3522218","distractor":"3512218","target":"absent","response":"absent","rt":"3056.1999999881","correct":true,"confidence":-1},{"trial_n":79,"span":8,"encoder":"77864965","distractor":"77834965","target":"present","response":"present","rt":"1797.6999999881","correct":true,"confidence":-1},{"trial_n":80,"span":8,"encoder":"29950435","distractor":"29954435","target":"present","response":"present","rt":"3439.1999999881","correct":true,"confidence":-1},{"trial_n":81,"span":9,"encoder":"039293223","distractor":"039293229","target":"present","response":"present","rt":"1959.1999999881","correct":true,"confidence":-1},{"trial_n":82,"span":9,"encoder":"481521289","distractor":"481521283","target":"absent","response":"absent","rt":"1549.8000000119","correct":true,"confidence":-1},{"trial_n":83,"span":10,"encoder":"2322014924","distractor":"2322014994","target":"absent","response":"present","rt":"2324.5","correct":false,"confidence":-1},{"trial_n":84,"span":9,"encoder":"574702590","distractor":"574102590","target":"present","response":"absent","rt":"1683.8000000119","correct":false,"confidence":-1},{"trial_n":85,"span":8,"encoder":"74816602","distractor":"74806602","target":"absent","response":"present","rt":"3139.5","correct":false,"confidence":-1},{"trial_n":86,"span":7,"encoder":"9389277","distractor":"9389270","target":"present","response":"present","rt":"1959.8000000119","correct":true,"confidence":-1},{"trial_n":87,"span":7,"encoder":"4997866","distractor":"4997869","target":"present","response":"present","rt":"905.90000003576","correct":true,"confidence":-1},{"trial_n":88,"span":8,"encoder":"94745183","distractor":"94747183","target":"present","response":"present","rt":"1684.2000000477","correct":true,"confidence":-1},{"trial_n":89,"span":8,"encoder":"96005582","distractor":"96009582","target":"absent","response":"present","rt":"6744.6000000238","correct":false,"confidence":-1},{"trial_n":90,"span":7,"encoder":"0425836","distractor":"0425835","target":"absent","response":"absent","rt":"2129.9000000358","correct":true,"confidence":-1},{"trial_n":91,"span":7,"encoder":"0903979","distractor":"0953979","target":"absent","response":"absent","rt":"2781.3999999762","correct":true,"confidence":5},{"trial_n":92,"span":8,"encoder":"19283123","distractor":"69283123","target":"absent","response":"absent","rt":"4092","correct":true,"confidence":5},{"trial_n":93,"span":8,"encoder":"03602253","distractor":"03602250","target":"present","response":"present","rt":"4461.6999999881","correct":true,"confidence":5},{"trial_n":94,"span":9,"encoder":"451739726","distractor":"451339726","target":"present","response":"present","rt":"6135.5","correct":true,"confidence":3},{"trial_n":95,"span":9,"encoder":"779801912","distractor":"779801612","target":"present","response":"present","rt":"6234.8000000119","correct":true,"confidence":4},{"trial_n":96,"span":10,"encoder":"3024154153","distractor":"3024154183","target":"present","response":"absent","rt":"6844.6000000238","correct":false,"confidence":2},{"trial_n":97,"span":9,"encoder":"419864473","distractor":"419764473","target":"present","response":"present","rt":"4804.1999999881","correct":true,"confidence":5},{"trial_n":98,"span":9,"encoder":"478304237","distractor":"478304297","target":"present","response":"present","rt":"3174.2999999523","correct":true,"confidence":5},{"trial_n":99,"span":10,"encoder":"9762558070","distractor":"4762558070","target":"absent","response":"present","rt":"5000.8000000119","correct":false,"confidence":3},{"trial_n":100,"span":9,"encoder":"861655281","distractor":"861755281","target":"present","response":"present","rt":"4956.4000000358","correct":true,"confidence":4},{"trial_n":101,"span":9,"encoder":"192237381","distractor":"192207381","target":"absent","response":"absent","rt":"3173.8000000119","correct":true,"confidence":5},{"trial_n":102,"span":10,"encoder":"2254261679","distractor":"2258261679","target":"present","response":"present","rt":"3316.3999999762","correct":true,"confidence":4},{"trial_n":103,"span":10,"encoder":"3815822370","distractor":"6815822370","target":"absent","response":"absent","rt":"3329.8999999762","correct":true,"confidence":2},{"trial_n":104,"span":11,"encoder":"01096392715","distractor":"01096392717","target":"present","response":"present","rt":"2493.5","correct":true,"confidence":2},{"trial_n":105,"span":11,"encoder":"61156211055","distractor":"61156291055","target":"absent","response":"present","rt":"11289.399999976","correct":false,"confidence":3},{"trial_n":106,"span":10,"encoder":"8751649540","distractor":"8771649540","target":"present","response":"present","rt":"5868.5","correct":true,"confidence":4},{"trial_n":107,"span":10,"encoder":"4007473789","distractor":"4007413789","target":"present","response":"absent","rt":"5892.5","correct":false,"confidence":2},{"trial_n":108,"span":9,"encoder":"509706315","distractor":"509703315","target":"absent","response":"present","rt":"3591.5","correct":false,"confidence":3},{"trial_n":109,"span":8,"encoder":"03237058","distractor":"03237758","target":"absent","response":"absent","rt":"2158.9000000358","correct":true,"confidence":5},{"trial_n":110,"span":8,"encoder":"06872132","distractor":"06873132","target":"present","response":"present","rt":"6898.6999999881","correct":true,"confidence":4},{"trial_n":111,"span":9,"encoder":"794531779","distractor":"798531779","target":"absent","response":"absent","rt":"5646.1999999881","correct":true,"confidence":4},{"trial_n":112,"span":9,"encoder":"475296692","distractor":"472296692","target":"absent","response":"absent","rt":"6244.5","correct":true,"confidence":3},{"trial_n":113,"span":10,"encoder":"4669704183","distractor":"4669504183","target":"absent","response":"present","rt":"8859.8999999762","correct":false,"confidence":2},{"trial_n":114,"span":9,"encoder":"245261625","distractor":"245281625","target":"present","response":"absent","rt":"5135.2000000477","correct":false,"confidence":1},{"trial_n":115,"span":8,"encoder":"25415401","distractor":"75415401","target":"absent","response":"absent","rt":"4698.0999999642","correct":true,"confidence":4},{"trial_n":116,"span":8,"encoder":"84666173","distractor":"34666173","target":"present","response":"present","rt":"3623.3999999762","correct":true,"confidence":5},{"trial_n":117,"span":9,"encoder":"921839782","distractor":"921839789","target":"present","response":"present","rt":"6152.0999999642","correct":true,"confidence":3},{"trial_n":118,"span":9,"encoder":"923979530","distractor":"723979530","target":"absent","response":"absent","rt":"6165.6000000238","correct":true,"confidence":4},{"trial_n":119,"span":10,"encoder":"9653398044","distractor":"9653398744","target":"absent","response":"present","rt":"2999.3999999762","correct":false,"confidence":4},{"trial_n":120,"span":9,"encoder":"495503710","distractor":"495563710","target":"absent","response":"absent","rt":"6824","correct":true,"confidence":3},{"trial_n":121,"span":9,"encoder":"028993855","distractor":"428993855","target":"absent","response":"absent","rt":"3954.4000000358","correct":true,"confidence":4},{"trial_n":122,"span":10,"encoder":"3513866803","distractor":"1513866803","target":"present","response":"present","rt":"3672.2999999523","correct":true,"confidence":4},{"trial_n":123,"span":10,"encoder":"4915475152","distractor":"4915875152","target":"absent","response":"absent","rt":"6290.3999999762","correct":true,"confidence":4},{"trial_n":124,"span":11,"encoder":"51590210013","distractor":"51890210013","target":"present","response":"present","rt":"4248.5","correct":true,"confidence":4},{"trial_n":125,"span":11,"encoder":"99404978304","distractor":"94404978304","target":"absent","response":"absent","rt":"4123.1000000238","correct":true,"confidence":3},{"trial_n":126,"span":12,"encoder":"716648760043","distractor":"716448760043","target":"present","response":"present","rt":"2449.3000000119","correct":true,"confidence":1},{"trial_n":127,"span":12,"encoder":"391872220420","distractor":"391872520420","target":"absent","response":"present","rt":"11542.899999976","correct":false,"confidence":3},{"trial_n":128,"span":11,"encoder":"99015382279","distractor":"99005382279","target":"absent","response":"absent","rt":"3878.3000000119","correct":true,"confidence":4},{"trial_n":129,"span":11,"encoder":"38766649946","distractor":"38736649946","target":"present","response":"absent","rt":"11003.400000036","correct":false,"confidence":3},{"trial_n":130,"span":10,"encoder":"3598826347","distractor":"3598826647","target":"absent","response":"present","rt":"5084.3000000119","correct":false,"confidence":3},{"trial_n":131,"span":9,"encoder":"966597683","distractor":"996597683","target":"present","response":"present","rt":"3013.5","correct":true,"confidence":4},{"trial_n":132,"span":9,"encoder":"008766244","distractor":"008766204","target":"present","response":"absent","rt":"5800.2000000477","correct":false,"confidence":4},{"trial_n":133,"span":8,"encoder":"27301014","distractor":"27301012","target":"absent","response":"absent","rt":"2340.6999999881","correct":true,"confidence":5},{"trial_n":134,"span":8,"encoder":"67028535","distractor":"67098535","target":"present","response":"present","rt":"5729.8999999762","correct":true,"confidence":4},{"trial_n":135,"span":9,"encoder":"916517218","distractor":"916567218","target":"present","response":"present","rt":"6367.8999999762","correct":true,"confidence":2},{"trial_n":136,"span":9,"encoder":"234481019","distractor":"234481039","target":"absent","response":"present","rt":"4400.6999999881","correct":false,"confidence":3},{"trial_n":137,"span":8,"encoder":"23460972","distractor":"23460973","target":"present","response":"present","rt":"6526.8999999762","correct":true,"confidence":3},{"trial_n":138,"span":8,"encoder":"37364158","distractor":"37964158","target":"absent","response":"absent","rt":"5159.6000000238","correct":true,"confidence":5},{"trial_n":139,"span":9,"encoder":"722607737","distractor":"922607737","target":"absent","response":"absent","rt":"2267.1000000238","correct":true,"confidence":5},{"trial_n":140,"span":9,"encoder":"852704911","distractor":"852700911","target":"present","response":"present","rt":"4020.0999999642","correct":true,"confidence":4}]