[{"trial_n":1,"n_dots":4.25,"target":"right","response":"left","rt":2810,"correct":false,"confidence":-1},{"trial_n":2,"n_dots":4.25,"target":"left","response":"right","rt":2149.5999999978,"correct":false,"confidence":-1},{"trial_n":3,"n_dots":4.65,"target":"right","response":"right","rt":727.69999999925,"correct":true,"confidence":-1},{"trial_n":4,"n_dots":4.65,"target":"left","response":"left","rt":911.89999999851,"correct":true,"confidence":-1},{"trial_n":5,"n_dots":4.25,"target":"right","response":"right","rt":1017.5,"correct":true,"confidence":-1},{"trial_n":6,"n_dots":4.25,"target":"left","response":"left","rt":852.80000000075,"correct":true,"confidence":-1},{"trial_n":7,"n_dots":3.85,"target":"right","response":"right","rt":893.80000000075,"correct":true,"confidence":-1},{"trial_n":8,"n_dots":3.85,"target":"left","response":"left","rt":781,"correct":true,"confidence":-1},{"trial_n":9,"n_dots":3.65,"target":"right","response":"left","rt":611.10000000149,"correct":false,"confidence":-1},{"trial_n":10,"n_dots":3.85,"target":"left","response":"left","rt":391,"correct":true,"confidence":-1},{"trial_n":11,"n_dots":3.85,"target":"right","response":"right","rt":554.39999999851,"correct":true,"confidence":-1},{"trial_n":12,"n_dots":3.65,"target":"right","response":"right","rt":612.40000000224,"correct":true,"confidence":-1},{"trial_n":13,"n_dots":3.65,"target":"left","response":"left","rt":692.30000000075,"correct":true,"confidence":-1},{"trial_n":14,"n_dots":3.55,"target":"left","response":"left","rt":379.89999999851,"correct":true,"confidence":-1},{"trial_n":15,"n_dots":3.55,"target":"right","response":"right","rt":1099.3000000007,"correct":true,"confidence":-1},{"trial_n":16,"n_dots":3.45,"target":"right","response":"left","rt":1182.1999999993,"correct":false,"confidence":-1},{"trial_n":17,"n_dots":3.55,"target":"right","response":"right","rt":4133.5,"correct":true,"confidence":-1},{"trial_n":18,"n_dots":3.55,"target":"right","response":"right","rt":374.90000000224,"correct":true,"confidence":-1},{"trial_n":19,"n_dots":3.45,"target":"left","response":"right","rt":957.10000000149,"correct":false,"confidence":-1},{"trial_n":20,"n_dots":3.55,"target":"left","response":"left","rt":2118.200000003,"correct":true,"confidence":-1},{"trial_n":21,"n_dots":3.55,"target":"right","response":"right","rt":1245.9000000022,"correct":true,"confidence":2},{"trial_n":22,"n_dots":3.45,"target":"left","response":"left","rt":816.69999999925,"correct":true,"confidence":3},{"trial_n":23,"n_dots":3.45,"target":"right","response":"right","rt":1630.3000000007,"correct":true,"confidence":3},{"trial_n":24,"n_dots":3.35,"target":"left","response":"left","rt":1938.4000000022,"correct":true,"confidence":3},{"trial_n":25,"n_dots":3.35,"target":"left","response":"right","rt":2144.3999999985,"correct":false,"confidence":4},{"trial_n":26,"n_dots":3.45,"target":"right","response":"left","rt":2500.1000000015,"correct":false,"confidence":1},{"trial_n":27,"n_dots":3.55,"target":"right","response":"right","rt":2566.1999999993,"correct":true,"confidence":3},{"trial_n":28,"n_dots":3.55,"target":"left","response":"right","rt":2539.1999999993,"correct":false,"confidence":1},{"trial_n":29,"n_dots":3.65,"target":"left","response":"right","rt":1799.4000000022,"correct":false,"confidence":2},{"trial_n":30,"n_dots":3.75,"target":"right","response":"right","rt":1456.700000003,"correct":true,"confidence":1},{"trial_n":31,"n_dots":3.75,"target":"right","response":"left","rt":1844.6999999993,"correct":false,"confidence":1},{"trial_n":32,"n_dots":3.85,"target":"left","response":"left","rt":1079,"correct":true,"confidence":4},{"trial_n":33,"n_dots":3.85,"target":"left","response":"right","rt":1574.700000003,"correct":false,"confidence":2},{"trial_n":34,"n_dots":3.95,"target":"left","response":"left","rt":1450.1000000015,"correct":true,"confidence":3},{"trial_n":35,"n_dots":3.95,"target":"right","response":"right","rt":1587.6000000015,"correct":true,"confidence":4},{"trial_n":36,"n_dots":3.85,"target":"right","response":"left","rt":1975.6000000015,"correct":false,"confidence":2},{"trial_n":37,"n_dots":3.95,"target":"right","response":"right","rt":1433.5999999978,"correct":true,"confidence":3},{"trial_n":38,"n_dots":3.95,"target":"right","response":"right","rt":1041.9000000022,"correct":true,"confidence":4},{"trial_n":39,"n_dots":3.85,"target":"right","response":"right","rt":1114,"correct":true,"confidence":5},{"trial_n":40,"n_dots":3.85,"target":"left","response":"left","rt":2004.1000000015,"correct":true,"confidence":2},{"trial_n":41,"n_dots":3.75,"target":"right","response":"left","rt":2213.6000000015,"correct":false,"confidence":1},{"trial_n":42,"n_dots":3.85,"target":"left","response":"left","rt":881.5,"correct":true,"confidence":3},{"trial_n":43,"n_dots":3.85,"target":"right","response":"right","rt":962.90000000224,"correct":true,"confidence":5},{"trial_n":44,"n_dots":3.75,"target":"right","response":"right","rt":782.09999999776,"correct":true,"confidence":3},{"trial_n":45,"n_dots":3.75,"target":"right","response":"right","rt":873.59999999776,"correct":true,"confidence":3},{"trial_n":46,"n_dots":3.65,"target":"left","response":"left","rt":987.90000000224,"correct":true,"confidence":2},{"trial_n":47,"n_dots":3.65,"target":"right","response":"right","rt":667.30000000075,"correct":true,"confidence":4},{"trial_n":48,"n_dots":3.55,"target":"left","response":"left","rt":1089,"correct":true,"confidence":3},{"trial_n":49,"n_dots":3.55,"target":"right","response":"right","rt":764.19999999925,"correct":true,"confidence":3},{"trial_n":50,"n_dots":3.45,"target":"right","response":"right","rt":672.90000000224,"correct":true,"confidence":4},{"trial_n":51,"n_dots":3.45,"target":"right","response":"right","rt":802.39999999851,"correct":true,"confidence":2},{"trial_n":52,"n_dots":3.35,"target":"right","response":"right","rt":567.80000000075,"correct":true,"confidence":1},{"trial_n":53,"n_dots":3.35,"target":"right","response":"right","rt":555.09999999776,"correct":true,"confidence":5},{"trial_n":54,"n_dots":3.25,"target":"left","response":"right","rt":1226.6000000015,"correct":false,"confidence":2},{"trial_n":55,"n_dots":3.35,"target":"right","response":"right","rt":644.30000000075,"correct":true,"confidence":4},{"trial_n":56,"n_dots":3.35,"target":"right","response":"right","rt":963.69999999925,"correct":true,"confidence":4},{"trial_n":57,"n_dots":3.25,"target":"left","response":"left","rt":877.80000000075,"correct":true,"confidence":2},{"trial_n":58,"n_dots":3.25,"target":"left","response":"left","rt":759.20000000298,"correct":true,"confidence":3},{"trial_n":59,"n_dots":3.15,"target":"left","response":"right","rt":784.19999999925,"correct":false,"confidence":4},{"trial_n":60,"n_dots":3.25,"target":"right","response":"right","rt":742,"correct":true,"confidence":3},{"trial_n":61,"n_dots":3.25,"target":"right","response":"right","rt":1219.3000000007,"correct":true,"confidence":3},{"trial_n":62,"n_dots":3.15,"target":"right","response":"right","rt":970,"correct":true,"confidence":3},{"trial_n":63,"n_dots":3.15,"target":"right","response":"left","rt":1528.8999999985,"correct":false,"confidence":2},{"trial_n":64,"n_dots":3.25,"target":"left","response":"right","rt":1564.8999999985,"correct":false,"confidence":4},{"trial_n":65,"n_dots":3.35,"target":"left","response":"left","rt":1135.1000000015,"correct":true,"confidence":3},{"trial_n":66,"n_dots":3.35,"target":"right","response":"right","rt":1545.3000000007,"correct":true,"confidence":3},{"trial_n":67,"n_dots":3.25,"target":"left","response":"left","rt":1465.4000000022,"correct":true,"confidence":2},{"trial_n":68,"n_dots":3.25,"target":"left","response":"left","rt":1343.799999997,"correct":true,"confidence":1},{"trial_n":69,"n_dots":3.15,"target":"right","response":"right","rt":1279.1999999993,"correct":true,"confidence":3},{"trial_n":70,"n_dots":3.15,"target":"left","response":"left","rt":1547.1999999993,"correct":true,"confidence":1},{"trial_n":71,"n_dots":3.05,"target":"left","response":"right","rt":1090.3000000007,"correct":false,"confidence":4},{"trial_n":72,"n_dots":3.15,"target":"left","response":"left","rt":757.40000000224,"correct":true,"confidence":2},{"trial_n":73,"n_dots":3.15,"target":"left","response":"right","rt":470.20000000298,"correct":false,"confidence":3},{"trial_n":74,"n_dots":3.25,"target":"left","response":"left","rt":583,"correct":true,"confidence":2},{"trial_n":75,"n_dots":3.25,"target":"right","response":"left","rt":2209.0999999978,"correct":false,"confidence":3},{"trial_n":76,"n_dots":3.35,"target":"left","response":"left","rt":1196.5999999978,"correct":true,"confidence":2},{"trial_n":77,"n_dots":3.35,"target":"left","response":"left","rt":1156.5,"correct":true,"confidence":2},{"trial_n":78,"n_dots":3.25,"target":"left","response":"right","rt":879.19999999925,"correct":false,"confidence":3},{"trial_n":79,"n_dots":3.35,"target":"right","response":"left","rt":39714.300000001,"correct":false,"confidence":2},{"trial_n":80,"n_dots":3.45,"target":"left","response":"left","rt":705.29999999702,"correct":true,"confidence":5},{"trial_n":81,"n_dots":3.45,"target":"right","response":"right","rt":471,"correct":true,"confidence":4},{"trial_n":82,"n_dots":3.35,"target":"right","response":"right","rt":709.60000000149,"correct":true,"confidence":3},{"trial_n":83,"n_dots":3.35,"target":"right","response":"right","rt":860.79999999702,"correct":true,"confidence":3},{"trial_n":84,"n_dots":3.25,"target":"left","response":"left","rt":815.60000000149,"correct":true,"confidence":4},{"trial_n":85,"n_dots":3.25,"target":"left","response":"right","rt":1253.700000003,"correct":false,"confidence":1},{"trial_n":86,"n_dots":3.35,"target":"left","response":"left","rt":5550.9000000022,"correct":true,"confidence":5},{"trial_n":87,"n_dots":3.35,"target":"right","response":"right","rt":36310.800000001,"correct":true,"confidence":3},{"trial_n":88,"n_dots":3.25,"target":"left","response":"left","rt":986.5,"correct":true,"confidence":3},{"trial_n":89,"n_dots":3.25,"target":"right","response":"right","rt":655.79999999702,"correct":true,"confidence":4},{"trial_n":90,"n_dots":3.15,"target":"left","response":"left","rt":917.39999999851,"correct":true,"confidence":1},{"trial_n":91,"n_dots":3.15,"target":"right","response":"right","rt":1197.1999999993,"correct":true,"confidence":2},{"trial_n":92,"n_dots":3.05,"target":"left","response":"left","rt":926.59999999776,"correct":true,"confidence":3},{"trial_n":93,"n_dots":3.05,"target":"left","response":"right","rt":957.09999999776,"correct":false,"confidence":3},{"trial_n":94,"n_dots":3.15,"target":"right","response":"right","rt":973.69999999925,"correct":true,"confidence":2},{"trial_n":95,"n_dots":3.15,"target":"right","response":"right","rt":743.70000000298,"correct":true,"confidence":3},{"trial_n":96,"n_dots":3.05,"target":"right","response":"right","rt":725.39999999851,"correct":true,"confidence":4},{"trial_n":97,"n_dots":3.05,"target":"right","response":"right","rt":1198.3000000007,"correct":true,"confidence":1},{"trial_n":98,"n_dots":2.95,"target":"left","response":"left","rt":1010.6999999993,"correct":true,"confidence":2},{"trial_n":99,"n_dots":2.95,"target":"right","response":"right","rt":1528.9000000022,"correct":true,"confidence":3},{"trial_n":100,"n_dots":2.85,"target":"left","response":"left","rt":1145.9000000022,"correct":true,"confidence":2},{"trial_n":101,"n_dots":2.85,"target":"left","response":"right","rt":772.59999999776,"correct":false,"confidence":3},{"trial_n":102,"n_dots":2.95,"target":"left","response":"right","rt":21041.599999998,"correct":false,"confidence":2},{"trial_n":103,"n_dots":3.05,"target":"left","response":"left","rt":481.60000000149,"correct":true,"confidence":2},{"trial_n":104,"n_dots":3.05,"target":"right","response":"right","rt":496.19999999925,"correct":true,"confidence":4},{"trial_n":105,"n_dots":2.95,"target":"left","response":"left","rt":744.19999999925,"correct":true,"confidence":2},{"trial_n":106,"n_dots":2.95,"target":"right","response":"right","rt":502.59999999776,"correct":true,"confidence":4},{"trial_n":107,"n_dots":2.85,"target":"left","response":"left","rt":1170.8000000007,"correct":true,"confidence":3},{"trial_n":108,"n_dots":2.85,"target":"right","response":"right","rt":678.39999999851,"correct":true,"confidence":3},{"trial_n":109,"n_dots":2.75,"target":"left","response":"right","rt":561.30000000075,"correct":false,"confidence":4},{"trial_n":110,"n_dots":2.85,"target":"right","response":"right","rt":567.89999999851,"correct":true,"confidence":2},{"trial_n":111,"n_dots":2.85,"target":"left","response":"left","rt":969.40000000224,"correct":true,"confidence":5},{"trial_n":112,"n_dots":2.75,"target":"left","response":"left","rt":658.80000000075,"correct":true,"confidence":5},{"trial_n":113,"n_dots":2.75,"target":"left","response":"right","rt":626.89999999851,"correct":false,"confidence":3},{"trial_n":114,"n_dots":2.85,"target":"left","response":"right","rt":624.19999999925,"correct":false,"confidence":4},{"trial_n":115,"n_dots":2.95,"target":"left","response":"left","rt":787,"correct":true,"confidence":2},{"trial_n":116,"n_dots":2.95,"target":"right","response":"right","rt":665.30000000075,"correct":true,"confidence":3},{"trial_n":117,"n_dots":2.85,"target":"left","response":"left","rt":567.60000000149,"correct":true,"confidence":4},{"trial_n":118,"n_dots":2.85,"target":"left","response":"right","rt":553.30000000075,"correct":false,"confidence":2},{"trial_n":119,"n_dots":2.95,"target":"right","response":"right","rt":355.10000000149,"correct":true,"confidence":3},{"trial_n":120,"n_dots":2.95,"target":"right","response":"left","rt":246.5,"correct":false,"confidence":2}]