[{"trial_n":1,"span":8,"encoder":"34107145","distractor":"34107045","target":"present","response":"present","rt":"7586.6999999955","correct":true,"confidence":-1},{"trial_n":2,"span":8,"encoder":"65241746","distractor":"75241746","target":"present","response":"present","rt":"1654.5","correct":true,"confidence":-1},{"trial_n":3,"span":10,"encoder":"5512333071","distractor":"5510333071","target":"absent","response":"present","rt":"1735.5","correct":false,"confidence":-1},{"trial_n":4,"span":8,"encoder":"24481178","distractor":"24491178","target":"absent","response":"present","rt":"1001.6000000015","correct":false,"confidence":-1},{"trial_n":5,"span":6,"encoder":"606875","distractor":"696875","target":"present","response":"present","rt":"1233.8999999985","correct":true,"confidence":-1},{"trial_n":6,"span":6,"encoder":"544038","distractor":"554038","target":"absent","response":"present","rt":"783","correct":false,"confidence":-1},{"trial_n":7,"span":4,"encoder":"2154","distractor":"2164","target":"absent","response":"absent","rt":"577.29999999702","correct":true,"confidence":-1},{"trial_n":8,"span":4,"encoder":"5596","distractor":"5595","target":"absent","response":"absent","rt":"483","correct":true,"confidence":-1},{"trial_n":9,"span":6,"encoder":"036680","distractor":"036690","target":"present","response":"present","rt":"708.5","correct":true,"confidence":-1},{"trial_n":10,"span":6,"encoder":"024244","distractor":"724244","target":"present","response":"absent","rt":"485.30000000447","correct":false,"confidence":-1},{"trial_n":11,"span":4,"encoder":"8170","distractor":"8179","target":"absent","response":"absent","rt":"1836.6000000015","correct":true,"confidence":-1},{"trial_n":12,"span":4,"encoder":"9130","distractor":"9120","target":"present","response":"present","rt":"1021.5","correct":true,"confidence":-1},{"trial_n":13,"span":5,"encoder":"86639","distractor":"83639","target":"absent","response":"present","rt":"1183.8999999985","correct":false,"confidence":-1},{"trial_n":14,"span":4,"encoder":"1315","distractor":"1365","target":"present","response":"absent","rt":"801.29999999702","correct":false,"confidence":-1},{"trial_n":15,"span":3,"encoder":"420","distractor":"440","target":"present","response":"absent","rt":"1076.6000000015","correct":false,"confidence":-1},{"trial_n":16,"span":2,"encoder":"12","distractor":"14","target":"absent","response":"absent","rt":"1643.6000000015","correct":true,"confidence":-1},{"trial_n":17,"span":2,"encoder":"50","distractor":"40","target":"absent","response":"absent","rt":"1403.8999999985","correct":true,"confidence":-1},{"trial_n":18,"span":3,"encoder":"227","distractor":"527","target":"present","response":"present","rt":"675.29999999702","correct":true,"confidence":-1},{"trial_n":19,"span":3,"encoder":"494","distractor":"424","target":"present","response":"present","rt":"2522.799999997","correct":true,"confidence":-1},{"trial_n":20,"span":4,"encoder":"3971","distractor":"3921","target":"present","response":"absent","rt":"882.59999999404","correct":false,"confidence":-1},{"trial_n":21,"span":3,"encoder":"061","distractor":"001","target":"absent","response":"absent","rt":"1619.1999999955","correct":true,"confidence":5},{"trial_n":22,"span":3,"encoder":"794","distractor":"784","target":"present","response":"present","rt":"2965.299999997","correct":true,"confidence":4},{"trial_n":23,"span":4,"encoder":"9322","distractor":"9332","target":"present","response":"absent","rt":"261","correct":false,"confidence":2},{"trial_n":24,"span":3,"encoder":"413","distractor":"483","target":"absent","response":"absent","rt":"1941.799999997","correct":true,"confidence":5},{"trial_n":25,"span":3,"encoder":"725","distractor":"715","target":"absent","response":"absent","rt":"1173.299999997","correct":true,"confidence":5},{"trial_n":26,"span":4,"encoder":"4698","distractor":"4628","target":"present","response":"present","rt":"1077.1000000015","correct":true,"confidence":5},{"trial_n":27,"span":4,"encoder":"2398","distractor":"2318","target":"present","response":"present","rt":"868.89999999851","correct":true,"confidence":5},{"trial_n":28,"span":5,"encoder":"33990","distractor":"33090","target":"present","response":"present","rt":"1266.900000006","correct":true,"confidence":5},{"trial_n":29,"span":5,"encoder":"91165","distractor":"61165","target":"absent","response":"present","rt":"1043.299999997","correct":false,"confidence":3},{"trial_n":30,"span":4,"encoder":"3760","distractor":"5760","target":"absent","response":"absent","rt":"1518.6999999955","correct":true,"confidence":5},{"trial_n":31,"span":4,"encoder":"1461","distractor":"1441","target":"absent","response":"absent","rt":"1774.8999999985","correct":true,"confidence":5},{"trial_n":32,"span":5,"encoder":"18542","distractor":"18545","target":"absent","response":"absent","rt":"1002.8999999985","correct":true,"confidence":5},{"trial_n":33,"span":5,"encoder":"59477","distractor":"59447","target":"present","response":"present","rt":"938.60000000149","correct":true,"confidence":3},{"trial_n":34,"span":6,"encoder":"864927","distractor":"863927","target":"absent","response":"absent","rt":"2589.900000006","correct":true,"confidence":4},{"trial_n":35,"span":6,"encoder":"842133","distractor":"882133","target":"present","response":"present","rt":"1347.3999999985","correct":true,"confidence":4},{"trial_n":36,"span":7,"encoder":"9000668","distractor":"8000668","target":"absent","response":"present","rt":"1242.200000003","correct":false,"confidence":5},{"trial_n":37,"span":6,"encoder":"091746","distractor":"051746","target":"absent","response":"absent","rt":"2475.3999999985","correct":true,"confidence":4},{"trial_n":38,"span":6,"encoder":"201089","distractor":"201029","target":"absent","response":"present","rt":"1365.1000000015","correct":false,"confidence":3},{"trial_n":39,"span":5,"encoder":"72192","distractor":"72199","target":"absent","response":"absent","rt":"1666.400000006","correct":true,"confidence":4},{"trial_n":40,"span":5,"encoder":"18199","distractor":"18499","target":"present","response":"present","rt":"1662.6999999955","correct":true,"confidence":4},{"trial_n":41,"span":6,"encoder":"843598","distractor":"643598","target":"present","response":"absent","rt":"1091.6000000015","correct":false,"confidence":4},{"trial_n":42,"span":5,"encoder":"20238","distractor":"20938","target":"absent","response":"present","rt":"3100","correct":false,"confidence":3},{"trial_n":43,"span":4,"encoder":"7372","distractor":"7382","target":"absent","response":"absent","rt":"1452.299999997","correct":true,"confidence":5},{"trial_n":44,"span":4,"encoder":"0270","distractor":"4270","target":"present","response":"present","rt":"1837.599999994","correct":true,"confidence":5},{"trial_n":45,"span":5,"encoder":"40271","distractor":"40279","target":"present","response":"present","rt":"938.90000000596","correct":true,"confidence":5},{"trial_n":46,"span":5,"encoder":"19065","distractor":"19066","target":"present","response":"present","rt":"2181","correct":true,"confidence":5},{"trial_n":47,"span":6,"encoder":"013684","distractor":"093684","target":"present","response":"present","rt":"2087.5","correct":true,"confidence":5},{"trial_n":48,"span":6,"encoder":"701994","distractor":"701974","target":"present","response":"present","rt":"909.79999999702","correct":true,"confidence":5},{"trial_n":49,"span":7,"encoder":"0441761","distractor":"0441861","target":"absent","response":"absent","rt":"3300.1000000015","correct":true,"confidence":4},{"trial_n":50,"span":7,"encoder":"8189275","distractor":"8789275","target":"absent","response":"present","rt":"896.29999999702","correct":false,"confidence":3},{"trial_n":51,"span":6,"encoder":"390417","distractor":"590417","target":"present","response":"absent","rt":"1297.3999999985","correct":false,"confidence":2},{"trial_n":52,"span":5,"encoder":"62102","distractor":"62112","target":"absent","response":"absent","rt":"1735.3999999985","correct":true,"confidence":5},{"trial_n":53,"span":5,"encoder":"48002","distractor":"49002","target":"present","response":"present","rt":"1286.8999999985","correct":true,"confidence":5},{"trial_n":54,"span":6,"encoder":"352485","distractor":"352385","target":"absent","response":"present","rt":"993.19999999553","correct":false,"confidence":3},{"trial_n":55,"span":5,"encoder":"00249","distractor":"03249","target":"absent","response":"absent","rt":"1556.8999999985","correct":true,"confidence":5},{"trial_n":56,"span":5,"encoder":"50612","distractor":"59612","target":"present","response":"present","rt":"1456.099999994","correct":true,"confidence":4},{"trial_n":57,"span":6,"encoder":"220058","distractor":"220055","target":"absent","response":"present","rt":"4047.1000000015","correct":false,"confidence":3},{"trial_n":58,"span":5,"encoder":"91823","distractor":"92823","target":"present","response":"present","rt":"1060.599999994","correct":true,"confidence":5},{"trial_n":59,"span":5,"encoder":"74604","distractor":"74654","target":"absent","response":"absent","rt":"1279.8999999985","correct":true,"confidence":5},{"trial_n":60,"span":6,"encoder":"660650","distractor":"660750","target":"present","response":"present","rt":"684.5","correct":true,"confidence":5},{"trial_n":61,"span":6,"encoder":"265447","distractor":"465447","target":"present","response":"present","rt":"1012.3999999985","correct":true,"confidence":4},{"trial_n":62,"span":7,"encoder":"6502949","distractor":"6502940","target":"absent","response":"absent","rt":"1393.299999997","correct":true,"confidence":3},{"trial_n":63,"span":7,"encoder":"6279261","distractor":"6279761","target":"absent","response":"present","rt":"905.09999999404","correct":false,"confidence":5},{"trial_n":64,"span":6,"encoder":"010324","distractor":"010724","target":"present","response":"present","rt":"820.69999999553","correct":true,"confidence":5},{"trial_n":65,"span":6,"encoder":"348950","distractor":"348050","target":"present","response":"present","rt":"925.59999999404","correct":true,"confidence":5},{"trial_n":66,"span":7,"encoder":"5421231","distractor":"5421031","target":"present","response":"present","rt":"2765.599999994","correct":true,"confidence":5},{"trial_n":67,"span":7,"encoder":"7196069","distractor":"7196068","target":"absent","response":"absent","rt":"1623.3999999985","correct":true,"confidence":3},{"trial_n":68,"span":8,"encoder":"51862700","distractor":"51062700","target":"present","response":"present","rt":"1190.1000000015","correct":true,"confidence":4},{"trial_n":69,"span":8,"encoder":"41304749","distractor":"41384749","target":"absent","response":"absent","rt":"1090.5","correct":true,"confidence":2},{"trial_n":70,"span":9,"encoder":"456714331","distractor":"456714332","target":"present","response":"absent","rt":"2200","correct":false,"confidence":4},{"trial_n":71,"span":8,"encoder":"14371755","distractor":"14371705","target":"present","response":"present","rt":"12548.399999999","correct":true,"confidence":-1},{"trial_n":72,"span":8,"encoder":"64738175","distractor":"64738975","target":"present","response":"absent","rt":"2393.5","correct":false,"confidence":-1},{"trial_n":73,"span":7,"encoder":"3899083","distractor":"2899083","target":"absent","response":"absent","rt":"2384.8000000045","correct":true,"confidence":-1},{"trial_n":74,"span":7,"encoder":"1853127","distractor":"8853127","target":"absent","response":"present","rt":"867.60000000149","correct":false,"confidence":-1},{"trial_n":75,"span":6,"encoder":"953725","distractor":"653725","target":"present","response":"absent","rt":"1189.8999999985","correct":false,"confidence":-1},{"trial_n":76,"span":5,"encoder":"54142","distractor":"94142","target":"absent","response":"absent","rt":"736.5","correct":true,"confidence":-1},{"trial_n":77,"span":5,"encoder":"62562","distractor":"69562","target":"present","response":"present","rt":"941.5","correct":true,"confidence":-1},{"trial_n":78,"span":6,"encoder":"449198","distractor":"449498","target":"present","response":"present","rt":"1430","correct":true,"confidence":-1},{"trial_n":79,"span":6,"encoder":"347687","distractor":"347689","target":"absent","response":"absent","rt":"1715","correct":true,"confidence":-1},{"trial_n":80,"span":7,"encoder":"0716079","distractor":"0716059","target":"present","response":"present","rt":"1373","correct":true,"confidence":-1},{"trial_n":81,"span":7,"encoder":"6821353","distractor":"8821353","target":"absent","response":"absent","rt":"1862.6000000015","correct":true,"confidence":-1},{"trial_n":82,"span":8,"encoder":"00096058","distractor":"00092058","target":"present","response":"present","rt":"1301.099999994","correct":true,"confidence":-1},{"trial_n":83,"span":8,"encoder":"32078940","distractor":"32078949","target":"absent","response":"absent","rt":"2347.5","correct":true,"confidence":-1},{"trial_n":84,"span":9,"encoder":"421513323","distractor":"428513323","target":"present","response":"present","rt":"641.10000000149","correct":true,"confidence":-1},{"trial_n":85,"span":9,"encoder":"338613856","distractor":"338663856","target":"present","response":"absent","rt":"687.90000000596","correct":false,"confidence":-1},{"trial_n":86,"span":8,"encoder":"20221498","distractor":"20221418","target":"present","response":"present","rt":"673.80000000447","correct":true,"confidence":-1},{"trial_n":87,"span":8,"encoder":"62512160","distractor":"62512100","target":"absent","response":"absent","rt":"626.30000000447","correct":true,"confidence":-1},{"trial_n":88,"span":9,"encoder":"315138281","distractor":"315138981","target":"present","response":"present","rt":"455.39999999851","correct":true,"confidence":-1},{"trial_n":89,"span":9,"encoder":"552514576","distractor":"550514576","target":"present","response":"absent","rt":"513.19999999553","correct":false,"confidence":-1},{"trial_n":90,"span":8,"encoder":"63136441","distractor":"53136441","target":"absent","response":"present","rt":"792.59999999404","correct":false,"confidence":-1},{"trial_n":91,"span":7,"encoder":"3160581","distractor":"3167581","target":"present","response":"present","rt":"2352.400000006","correct":true,"confidence":5},{"trial_n":92,"span":7,"encoder":"1466068","distractor":"1460068","target":"absent","response":"absent","rt":"1921.3000000045","correct":true,"confidence":4},{"trial_n":93,"span":8,"encoder":"85213825","distractor":"95213825","target":"present","response":"absent","rt":"1235.8000000045","correct":false,"confidence":3},{"trial_n":94,"span":7,"encoder":"0967942","distractor":"0967982","target":"present","response":"present","rt":"1420.8000000045","correct":true,"confidence":5},{"trial_n":95,"span":7,"encoder":"7547340","distractor":"1547340","target":"absent","response":"absent","rt":"1005","correct":true,"confidence":5},{"trial_n":96,"span":8,"encoder":"22054167","distractor":"25054167","target":"absent","response":"absent","rt":"1683.5","correct":true,"confidence":5},{"trial_n":97,"span":8,"encoder":"08027348","distractor":"08027341","target":"absent","response":"present","rt":"3180.200000003","correct":false,"confidence":2},{"trial_n":98,"span":7,"encoder":"7020775","distractor":"7060775","target":"present","response":"present","rt":"2795.3999999985","correct":true,"confidence":4},{"trial_n":99,"span":7,"encoder":"5989217","distractor":"5919217","target":"present","response":"present","rt":"2246.299999997","correct":true,"confidence":4},{"trial_n":100,"span":8,"encoder":"65236034","distractor":"65234034","target":"present","response":"absent","rt":"992.19999999553","correct":false,"confidence":4},{"trial_n":101,"span":7,"encoder":"7562192","distractor":"7162192","target":"absent","response":"present","rt":"2383","correct":false,"confidence":3},{"trial_n":102,"span":6,"encoder":"912947","distractor":"911947","target":"absent","response":"absent","rt":"3377.6000000015","correct":true,"confidence":2},{"trial_n":103,"span":6,"encoder":"026067","distractor":"056067","target":"present","response":"absent","rt":"3999.099999994","correct":false,"confidence":2},{"trial_n":104,"span":5,"encoder":"29927","distractor":"29920","target":"absent","response":"absent","rt":"1933.3999999985","correct":true,"confidence":4},{"trial_n":105,"span":5,"encoder":"38326","distractor":"38321","target":"absent","response":"absent","rt":"1968.3999999985","correct":true,"confidence":4},{"trial_n":106,"span":6,"encoder":"270902","distractor":"370902","target":"present","response":"absent","rt":"3855","correct":false,"confidence":4},{"trial_n":107,"span":5,"encoder":"10242","distractor":"10222","target":"present","response":"present","rt":"3311.3999999985","correct":true,"confidence":4},{"trial_n":108,"span":5,"encoder":"39884","distractor":"39834","target":"present","response":"present","rt":"2685.299999997","correct":true,"confidence":3},{"trial_n":109,"span":6,"encoder":"675513","distractor":"625513","target":"present","response":"present","rt":"1556.6999999955","correct":true,"confidence":4},{"trial_n":110,"span":6,"encoder":"568974","distractor":"568970","target":"absent","response":"absent","rt":"2018.8999999985","correct":true,"confidence":5},{"trial_n":111,"span":7,"encoder":"8021412","distractor":"8021402","target":"present","response":"present","rt":"1443.1999999955","correct":true,"confidence":4},{"trial_n":112,"span":7,"encoder":"1457805","distractor":"1450805","target":"present","response":"absent","rt":"2278.299999997","correct":false,"confidence":4},{"trial_n":113,"span":6,"encoder":"678396","distractor":"672396","target":"absent","response":"present","rt":"2856.8000000045","correct":false,"confidence":2},{"trial_n":114,"span":5,"encoder":"99367","distractor":"99377","target":"present","response":"present","rt":"2450.700000003","correct":true,"confidence":4},{"trial_n":115,"span":5,"encoder":"82394","distractor":"82694","target":"present","response":"present","rt":"1538.700000003","correct":true,"confidence":4},{"trial_n":116,"span":6,"encoder":"813465","distractor":"818465","target":"present","response":"absent","rt":"1563.700000003","correct":false,"confidence":4},{"trial_n":117,"span":5,"encoder":"29685","distractor":"59685","target":"present","response":"absent","rt":"2477.299999997","correct":false,"confidence":3},{"trial_n":118,"span":4,"encoder":"9145","distractor":"9140","target":"absent","response":"absent","rt":"1557.8999999985","correct":true,"confidence":5},{"trial_n":119,"span":4,"encoder":"5220","distractor":"0220","target":"absent","response":"absent","rt":"1993.6999999955","correct":true,"confidence":4},{"trial_n":120,"span":5,"encoder":"51931","distractor":"71931","target":"absent","response":"absent","rt":"3035.1000000015","correct":true,"confidence":3},{"trial_n":121,"span":5,"encoder":"28937","distractor":"29937","target":"absent","response":"absent","rt":"1457.299999997","correct":true,"confidence":4},{"trial_n":122,"span":6,"encoder":"758467","distractor":"758367","target":"absent","response":"absent","rt":"1640.6999999955","correct":true,"confidence":4},{"trial_n":123,"span":6,"encoder":"306905","distractor":"906905","target":"absent","response":"present","rt":"1338","correct":false,"confidence":4},{"trial_n":124,"span":5,"encoder":"28945","distractor":"28944","target":"absent","response":"absent","rt":"2822.8999999985","correct":true,"confidence":4},{"trial_n":125,"span":5,"encoder":"31944","distractor":"71944","target":"absent","response":"absent","rt":"1661.700000003","correct":true,"confidence":4},{"trial_n":126,"span":6,"encoder":"709822","distractor":"709802","target":"present","response":"present","rt":"1181.1000000015","correct":true,"confidence":3},{"trial_n":127,"span":6,"encoder":"419923","distractor":"439923","target":"absent","response":"absent","rt":"1371.6999999955","correct":true,"confidence":1},{"trial_n":128,"span":7,"encoder":"2918603","distractor":"2915603","target":"absent","response":"absent","rt":"810.5","correct":true,"confidence":1},{"trial_n":129,"span":7,"encoder":"0634830","distractor":"0634832","target":"present","response":"present","rt":"1923","correct":true,"confidence":4},{"trial_n":130,"span":8,"encoder":"44438894","distractor":"44438898","target":"absent","response":"absent","rt":"5383.1999999955","correct":true,"confidence":3},{"trial_n":131,"span":8,"encoder":"00998308","distractor":"02998308","target":"absent","response":"present","rt":"1481.799999997","correct":false,"confidence":2},{"trial_n":132,"span":7,"encoder":"4389350","distractor":"4689350","target":"absent","response":"absent","rt":"3309.299999997","correct":true,"confidence":3},{"trial_n":133,"span":7,"encoder":"6032672","distractor":"6062672","target":"present","response":"present","rt":"5472.6999999955","correct":true,"confidence":2},{"trial_n":134,"span":8,"encoder":"77332388","distractor":"77337388","target":"absent","response":"absent","rt":"4664.799999997","correct":true,"confidence":4},{"trial_n":135,"span":8,"encoder":"78694105","distractor":"78694107","target":"present","response":"present","rt":"2126.599999994","correct":true,"confidence":5},{"trial_n":136,"span":9,"encoder":"384717745","distractor":"384710745","target":"present","response":"absent","rt":"4119.3000000045","correct":false,"confidence":3},{"trial_n":137,"span":8,"encoder":"12127965","distractor":"12527965","target":"absent","response":"absent","rt":"3100.799999997","correct":true,"confidence":5},{"trial_n":138,"span":8,"encoder":"66577948","distractor":"66573948","target":"present","response":"absent","rt":"4523.1999999955","correct":false,"confidence":2},{"trial_n":139,"span":7,"encoder":"7316766","distractor":"8316766","target":"present","response":"present","rt":"1899.799999997","correct":true,"confidence":3},{"trial_n":140,"span":7,"encoder":"7039243","distractor":"7079243","target":"absent","response":"present","rt":"2260.6999999955","correct":false,"confidence":3}]