[{"trial_n":1,"n_dots":4.25,"target":"right","response":"left","rt":3841,"correct":false,"confidence":-1},{"trial_n":2,"n_dots":4.25,"target":"right","response":"left","rt":1097.1000000015,"correct":false,"confidence":-1},{"trial_n":3,"n_dots":4.65,"target":"left","response":"left","rt":232.29999999702,"correct":true,"confidence":-1},{"trial_n":4,"n_dots":4.65,"target":"right","response":"right","rt":129.10000000149,"correct":true,"confidence":-1},{"trial_n":5,"n_dots":4.25,"target":"right","response":"right","rt":89.39999999851,"correct":true,"confidence":-1},{"trial_n":6,"n_dots":4.25,"target":"right","response":"right","rt":210.30000000447,"correct":true,"confidence":-1},{"trial_n":7,"n_dots":3.85,"target":"right","response":"right","rt":346,"correct":true,"confidence":-1},{"trial_n":8,"n_dots":3.85,"target":"left","response":"left","rt":876.60000000149,"correct":true,"confidence":-1},{"trial_n":9,"n_dots":3.65,"target":"left","response":"right","rt":362.10000000149,"correct":false,"confidence":-1},{"trial_n":10,"n_dots":3.85,"target":"left","response":"left","rt":98.10000000149,"correct":true,"confidence":-1},{"trial_n":11,"n_dots":3.85,"target":"right","response":"right","rt":91.20000000298,"correct":true,"confidence":-1},{"trial_n":12,"n_dots":3.65,"target":"left","response":"left","rt":26.5,"correct":true,"confidence":-1},{"trial_n":13,"n_dots":3.65,"target":"left","response":"left","rt":9.7999999970198,"correct":true,"confidence":-1},{"trial_n":14,"n_dots":3.55,"target":"right","response":"left","rt":142.60000000149,"correct":false,"confidence":-1},{"trial_n":15,"n_dots":3.65,"target":"right","response":"left","rt":-0.30000000447035,"correct":false,"confidence":-1},{"trial_n":16,"n_dots":3.75,"target":"right","response":"right","rt":758.39999999851,"correct":true,"confidence":-1},{"trial_n":17,"n_dots":3.75,"target":"right","response":"right","rt":665.79999999702,"correct":true,"confidence":-1},{"trial_n":18,"n_dots":3.65,"target":"right","response":"left","rt":246.5,"correct":false,"confidence":-1},{"trial_n":19,"n_dots":3.75,"target":"right","response":"right","rt":374.79999999702,"correct":true,"confidence":-1},{"trial_n":20,"n_dots":3.75,"target":"left","response":"left","rt":14.79999999702,"correct":true,"confidence":-1},{"trial_n":21,"n_dots":3.65,"target":"left","response":"left","rt":794.89999999851,"correct":true,"confidence":3},{"trial_n":22,"n_dots":3.65,"target":"right","response":"right","rt":346.89999999851,"correct":true,"confidence":2},{"trial_n":23,"n_dots":3.55,"target":"left","response":"right","rt":730.89999999851,"correct":false,"confidence":3},{"trial_n":24,"n_dots":3.65,"target":"left","response":"left","rt":463.79999999702,"correct":true,"confidence":4},{"trial_n":25,"n_dots":3.65,"target":"left","response":"left","rt":126.29999999702,"correct":true,"confidence":5},{"trial_n":26,"n_dots":3.55,"target":"left","response":"right","rt":1982.3999999985,"correct":false,"confidence":3},{"trial_n":27,"n_dots":3.65,"target":"left","response":"left","rt":103.70000000298,"correct":true,"confidence":4},{"trial_n":28,"n_dots":3.65,"target":"left","response":"left","rt":807.69999999553,"correct":true,"confidence":4},{"trial_n":29,"n_dots":3.55,"target":"right","response":"right","rt":48.5,"correct":true,"confidence":4},{"trial_n":30,"n_dots":3.55,"target":"left","response":"left","rt":201.79999999702,"correct":true,"confidence":4},{"trial_n":31,"n_dots":3.45,"target":"right","response":"left","rt":934.19999999553,"correct":false,"confidence":1},{"trial_n":32,"n_dots":3.55,"target":"right","response":"left","rt":138.20000000298,"correct":false,"confidence":4},{"trial_n":33,"n_dots":3.65,"target":"left","response":"left","rt":1253.3999999985,"correct":true,"confidence":3},{"trial_n":34,"n_dots":3.65,"target":"right","response":"right","rt":1167.1000000015,"correct":true,"confidence":2},{"trial_n":35,"n_dots":3.55,"target":"left","response":"left","rt":42.39999999851,"correct":true,"confidence":3},{"trial_n":36,"n_dots":3.55,"target":"left","response":"left","rt":551.10000000149,"correct":true,"confidence":2},{"trial_n":37,"n_dots":3.45,"target":"right","response":"right","rt":774.39999999851,"correct":true,"confidence":4},{"trial_n":38,"n_dots":3.45,"target":"right","response":"left","rt":23.5,"correct":false,"confidence":3},{"trial_n":39,"n_dots":3.55,"target":"left","response":"left","rt":961.5,"correct":true,"confidence":4},{"trial_n":40,"n_dots":3.55,"target":"right","response":"left","rt":19.20000000298,"correct":false,"confidence":4},{"trial_n":41,"n_dots":3.65,"target":"right","response":"right","rt":943.29999999702,"correct":true,"confidence":4},{"trial_n":42,"n_dots":3.65,"target":"left","response":"left","rt":523.19999999553,"correct":true,"confidence":3},{"trial_n":43,"n_dots":3.55,"target":"right","response":"right","rt":55.19999999553,"correct":true,"confidence":4},{"trial_n":44,"n_dots":3.55,"target":"right","response":"left","rt":997.79999999702,"correct":false,"confidence":2},{"trial_n":45,"n_dots":3.65,"target":"left","response":"left","rt":110.10000000149,"correct":true,"confidence":2},{"trial_n":46,"n_dots":3.65,"target":"right","response":"right","rt":939.29999999702,"correct":true,"confidence":3},{"trial_n":47,"n_dots":3.55,"target":"left","response":"right","rt":20,"correct":false,"confidence":3},{"trial_n":48,"n_dots":3.65,"target":"right","response":"right","rt":836.19999999553,"correct":true,"confidence":1},{"trial_n":49,"n_dots":3.65,"target":"left","response":"right","rt":687.59999999404,"correct":false,"confidence":2},{"trial_n":50,"n_dots":3.75,"target":"left","response":"right","rt":245.70000000298,"correct":false,"confidence":2},{"trial_n":51,"n_dots":3.85,"target":"right","response":"right","rt":142.10000000149,"correct":true,"confidence":3},{"trial_n":52,"n_dots":3.85,"target":"right","response":"right","rt":692.29999999702,"correct":true,"confidence":2},{"trial_n":53,"n_dots":3.75,"target":"right","response":"left","rt":518.29999999702,"correct":false,"confidence":2},{"trial_n":54,"n_dots":3.85,"target":"right","response":"right","rt":279.70000000298,"correct":true,"confidence":3},{"trial_n":55,"n_dots":3.85,"target":"right","response":"right","rt":199.10000000149,"correct":true,"confidence":3},{"trial_n":56,"n_dots":3.75,"target":"right","response":"right","rt":87.5,"correct":true,"confidence":2},{"trial_n":57,"n_dots":3.75,"target":"left","response":"left","rt":108,"correct":true,"confidence":2},{"trial_n":58,"n_dots":3.65,"target":"right","response":"right","rt":460.79999999702,"correct":true,"confidence":3},{"trial_n":59,"n_dots":3.65,"target":"right","response":"right","rt":461.10000000149,"correct":true,"confidence":2},{"trial_n":60,"n_dots":3.55,"target":"right","response":"right","rt":539.60000000149,"correct":true,"confidence":2},{"trial_n":61,"n_dots":3.55,"target":"right","response":"left","rt":182.39999999851,"correct":false,"confidence":1},{"trial_n":62,"n_dots":3.65,"target":"left","response":"right","rt":663.69999999553,"correct":false,"confidence":3},{"trial_n":63,"n_dots":3.75,"target":"right","response":"right","rt":3259.1999999955,"correct":true,"confidence":3},{"trial_n":64,"n_dots":3.75,"target":"left","response":"right","rt":492.39999999851,"correct":false,"confidence":2},{"trial_n":65,"n_dots":3.85,"target":"left","response":"left","rt":661.79999999702,"correct":true,"confidence":3},{"trial_n":66,"n_dots":3.85,"target":"left","response":"left","rt":663.39999999851,"correct":true,"confidence":3},{"trial_n":67,"n_dots":3.75,"target":"left","response":"left","rt":876.39999999851,"correct":true,"confidence":4},{"trial_n":68,"n_dots":3.75,"target":"left","response":"left","rt":388.19999999553,"correct":true,"confidence":2},{"trial_n":69,"n_dots":3.65,"target":"left","response":"left","rt":1029.8999999985,"correct":true,"confidence":3},{"trial_n":70,"n_dots":3.65,"target":"right","response":"right","rt":748.39999999851,"correct":true,"confidence":3},{"trial_n":71,"n_dots":3.55,"target":"right","response":"right","rt":830.60000000149,"correct":true,"confidence":5},{"trial_n":72,"n_dots":3.55,"target":"left","response":"right","rt":285.69999999553,"correct":false,"confidence":4},{"trial_n":73,"n_dots":3.65,"target":"left","response":"right","rt":603.60000000149,"correct":false,"confidence":4},{"trial_n":74,"n_dots":3.75,"target":"left","response":"right","rt":797.29999999702,"correct":false,"confidence":3},{"trial_n":75,"n_dots":3.85,"target":"left","response":"right","rt":231.89999999851,"correct":false,"confidence":2},{"trial_n":76,"n_dots":3.95,"target":"left","response":"right","rt":224.10000000149,"correct":false,"confidence":2},{"trial_n":77,"n_dots":4.05,"target":"left","response":"right","rt":237.79999999702,"correct":false,"confidence":3},{"trial_n":78,"n_dots":4.15,"target":"right","response":"right","rt":407.60000000149,"correct":true,"confidence":3},{"trial_n":79,"n_dots":4.15,"target":"left","response":"left","rt":773.79999999702,"correct":true,"confidence":3},{"trial_n":80,"n_dots":4.05,"target":"right","response":"right","rt":166.60000000149,"correct":true,"confidence":4},{"trial_n":81,"n_dots":4.05,"target":"right","response":"right","rt":759.39999999851,"correct":true,"confidence":3},{"trial_n":82,"n_dots":3.95,"target":"left","response":"left","rt":791.59999999404,"correct":true,"confidence":3},{"trial_n":83,"n_dots":3.95,"target":"right","response":"right","rt":679.60000000149,"correct":true,"confidence":3},{"trial_n":84,"n_dots":3.85,"target":"right","response":"right","rt":635.5,"correct":true,"confidence":4},{"trial_n":85,"n_dots":3.85,"target":"left","response":"right","rt":591.5,"correct":false,"confidence":2},{"trial_n":86,"n_dots":3.95,"target":"left","response":"left","rt":563.60000000149,"correct":true,"confidence":3},{"trial_n":87,"n_dots":3.95,"target":"right","response":"right","rt":455.79999999702,"correct":true,"confidence":3},{"trial_n":88,"n_dots":3.85,"target":"right","response":"left","rt":407.10000000149,"correct":false,"confidence":3},{"trial_n":89,"n_dots":3.95,"target":"left","response":"right","rt":289.09999999404,"correct":false,"confidence":3},{"trial_n":90,"n_dots":4.05,"target":"right","response":"right","rt":238.60000000149,"correct":true,"confidence":4},{"trial_n":91,"n_dots":4.05,"target":"left","response":"right","rt":460.5,"correct":false,"confidence":3},{"trial_n":92,"n_dots":4.15,"target":"right","response":"right","rt":183.59999999404,"correct":true,"confidence":4},{"trial_n":93,"n_dots":4.15,"target":"left","response":"right","rt":887.70000000298,"correct":false,"confidence":3},{"trial_n":94,"n_dots":4.25,"target":"left","response":"left","rt":542.39999999851,"correct":true,"confidence":4},{"trial_n":95,"n_dots":4.25,"target":"right","response":"right","rt":683,"correct":true,"confidence":4},{"trial_n":96,"n_dots":4.15,"target":"right","response":"right","rt":703.79999999702,"correct":true,"confidence":4},{"trial_n":97,"n_dots":4.15,"target":"right","response":"right","rt":179.89999999851,"correct":true,"confidence":3},{"trial_n":98,"n_dots":4.05,"target":"left","response":"left","rt":707.89999999851,"correct":true,"confidence":2},{"trial_n":99,"n_dots":4.05,"target":"right","response":"right","rt":111.19999999553,"correct":true,"confidence":3},{"trial_n":100,"n_dots":3.95,"target":"right","response":"right","rt":342.89999999851,"correct":true,"confidence":4},{"trial_n":101,"n_dots":3.95,"target":"left","response":"left","rt":368,"correct":true,"confidence":3},{"trial_n":102,"n_dots":3.85,"target":"right","response":"right","rt":87.69999999553,"correct":true,"confidence":4},{"trial_n":103,"n_dots":3.85,"target":"left","response":"left","rt":155.5,"correct":true,"confidence":2},{"trial_n":104,"n_dots":3.75,"target":"left","response":"left","rt":238.29999999702,"correct":true,"confidence":4},{"trial_n":105,"n_dots":3.75,"target":"left","response":"right","rt":1118.5,"correct":false,"confidence":1},{"trial_n":106,"n_dots":3.85,"target":"right","response":"right","rt":1031.8999999985,"correct":true,"confidence":4},{"trial_n":107,"n_dots":3.85,"target":"left","response":"left","rt":59.19999999553,"correct":true,"confidence":4},{"trial_n":108,"n_dots":3.75,"target":"left","response":"left","rt":398.39999999851,"correct":true,"confidence":1},{"trial_n":109,"n_dots":3.75,"target":"right","response":"right","rt":942.19999999553,"correct":true,"confidence":3},{"trial_n":110,"n_dots":3.65,"target":"left","response":"left","rt":76.69999999553,"correct":true,"confidence":2},{"trial_n":111,"n_dots":3.65,"target":"right","response":"right","rt":228.09999999404,"correct":true,"confidence":3},{"trial_n":112,"n_dots":3.55,"target":"right","response":"right","rt":949.79999999702,"correct":true,"confidence":4},{"trial_n":113,"n_dots":3.55,"target":"left","response":"left","rt":75.39999999851,"correct":true,"confidence":3},{"trial_n":114,"n_dots":3.45,"target":"left","response":"left","rt":8.2000000029802,"correct":true,"confidence":4},{"trial_n":115,"n_dots":3.45,"target":"left","response":"left","rt":163.69999999553,"correct":true,"confidence":4},{"trial_n":116,"n_dots":3.35,"target":"left","response":"right","rt":1070,"correct":false,"confidence":4},{"trial_n":117,"n_dots":3.45,"target":"right","response":"right","rt":839.19999999553,"correct":true,"confidence":4},{"trial_n":118,"n_dots":3.45,"target":"right","response":"left","rt":175.10000000149,"correct":false,"confidence":1},{"trial_n":119,"n_dots":3.55,"target":"left","response":"right","rt":807.60000000149,"correct":false,"confidence":3},{"trial_n":120,"n_dots":3.65,"target":"left","response":"left","rt":253.39999999851,"correct":true,"confidence":4}]