[{"trial_n":1,"min":25,"max":230,"target":"present","response":"absent","rt":5691,"correct":false,"confidence":-1},{"trial_n":2,"min":25,"max":230,"target":"present","response":"present","rt":1950.8999999985,"correct":true,"confidence":-1},{"trial_n":3,"min":25,"max":230,"target":"absent","response":"absent","rt":1425,"correct":true,"confidence":-1},{"trial_n":4,"min":41,"max":214,"target":"absent","response":"absent","rt":2558.9000000022,"correct":true,"confidence":-1},{"trial_n":5,"min":41,"max":214,"target":"present","response":"present","rt":475.39999999851,"correct":true,"confidence":-1},{"trial_n":6,"min":57,"max":198,"target":"absent","response":"absent","rt":495.09999999776,"correct":true,"confidence":-1},{"trial_n":7,"min":57,"max":198,"target":"absent","response":"absent","rt":478.39999999851,"correct":true,"confidence":-1},{"trial_n":8,"min":73,"max":182,"target":"present","response":"present","rt":511.89999999851,"correct":true,"confidence":-1},{"trial_n":9,"min":73,"max":182,"target":"absent","response":"absent","rt":558,"correct":true,"confidence":-1},{"trial_n":10,"min":89,"max":166,"target":"absent","response":"absent","rt":273.10000000149,"correct":true,"confidence":-1},{"trial_n":11,"min":89,"max":166,"target":"absent","response":"absent","rt":280.79999999702,"correct":true,"confidence":-1},{"trial_n":12,"min":97,"max":158,"target":"present","response":"absent","rt":318,"correct":false,"confidence":-1},{"trial_n":13,"min":89,"max":166,"target":"present","response":"absent","rt":485.20000000298,"correct":false,"confidence":-1},{"trial_n":14,"min":81,"max":174,"target":"present","response":"absent","rt":480.39999999851,"correct":false,"confidence":-1},{"trial_n":15,"min":73,"max":182,"target":"present","response":"present","rt":246.09999999776,"correct":true,"confidence":-1},{"trial_n":16,"min":73,"max":182,"target":"absent","response":"absent","rt":302.39999999851,"correct":true,"confidence":-1},{"trial_n":17,"min":81,"max":174,"target":"absent","response":"absent","rt":456.09999999776,"correct":true,"confidence":-1},{"trial_n":18,"min":81,"max":174,"target":"present","response":"present","rt":185.60000000149,"correct":true,"confidence":-1},{"trial_n":19,"min":89,"max":166,"target":"present","response":"present","rt":266.40000000224,"correct":true,"confidence":-1},{"trial_n":20,"min":89,"max":166,"target":"absent","response":"absent","rt":414.69999999925,"correct":true,"confidence":-1},{"trial_n":21,"min":93,"max":162,"target":"present","response":"present","rt":513.89999999851,"correct":true,"confidence":3},{"trial_n":22,"min":93,"max":162,"target":"absent","response":"absent","rt":841.30000000075,"correct":true,"confidence":5},{"trial_n":23,"min":97,"max":158,"target":"absent","response":"present","rt":875.30000000075,"correct":false,"confidence":5},{"trial_n":24,"min":93,"max":162,"target":"absent","response":"present","rt":988.5,"correct":false,"confidence":5},{"trial_n":25,"min":89,"max":166,"target":"absent","response":"present","rt":693.89999999851,"correct":false,"confidence":5},{"trial_n":26,"min":85,"max":170,"target":"absent","response":"absent","rt":835.19999999925,"correct":true,"confidence":4},{"trial_n":27,"min":85,"max":170,"target":"present","response":"present","rt":1085.1999999993,"correct":true,"confidence":5},{"trial_n":28,"min":89,"max":166,"target":"present","response":"absent","rt":775.19999999925,"correct":false,"confidence":2},{"trial_n":29,"min":85,"max":170,"target":"present","response":"present","rt":1039.0999999978,"correct":true,"confidence":1},{"trial_n":30,"min":85,"max":170,"target":"absent","response":"absent","rt":861.70000000298,"correct":true,"confidence":3},{"trial_n":31,"min":87,"max":168,"target":"present","response":"present","rt":3041.6000000015,"correct":true,"confidence":4},{"trial_n":32,"min":87,"max":168,"target":"present","response":"present","rt":880,"correct":true,"confidence":5},{"trial_n":33,"min":89,"max":166,"target":"present","response":"present","rt":1520.4000000022,"correct":true,"confidence":3},{"trial_n":34,"min":89,"max":166,"target":"present","response":"absent","rt":1084,"correct":false,"confidence":3},{"trial_n":35,"min":87,"max":168,"target":"absent","response":"present","rt":1828.3000000007,"correct":false,"confidence":5},{"trial_n":36,"min":85,"max":170,"target":"present","response":"absent","rt":1636.1000000015,"correct":false,"confidence":3},{"trial_n":37,"min":83,"max":172,"target":"present","response":"present","rt":1799.3999999985,"correct":true,"confidence":5},{"trial_n":38,"min":83,"max":172,"target":"present","response":"present","rt":20228.599999998,"correct":true,"confidence":5},{"trial_n":39,"min":85,"max":170,"target":"present","response":"present","rt":3249.700000003,"correct":true,"confidence":5},{"trial_n":40,"min":85,"max":170,"target":"present","response":"present","rt":4507.5999999978,"correct":true,"confidence":5},{"trial_n":41,"min":86,"max":169,"target":"present","response":"present","rt":1176.8000000007,"correct":true,"confidence":4},{"trial_n":42,"min":86,"max":169,"target":"absent","response":"present","rt":4059.6000000015,"correct":false,"confidence":5},{"trial_n":43,"min":85,"max":170,"target":"present","response":"absent","rt":1969.9000000022,"correct":false,"confidence":5},{"trial_n":44,"min":84,"max":171,"target":"absent","response":"present","rt":2080.9000000022,"correct":false,"confidence":4},{"trial_n":45,"min":83,"max":172,"target":"absent","response":"present","rt":1352.8999999985,"correct":false,"confidence":3},{"trial_n":46,"min":82,"max":173,"target":"present","response":"present","rt":1412.9000000022,"correct":true,"confidence":5},{"trial_n":47,"min":82,"max":173,"target":"absent","response":"absent","rt":1097,"correct":true,"confidence":4},{"trial_n":48,"min":83,"max":172,"target":"present","response":"present","rt":989.5,"correct":true,"confidence":5},{"trial_n":49,"min":83,"max":172,"target":"present","response":"absent","rt":1182.6000000015,"correct":false,"confidence":3},{"trial_n":50,"min":82,"max":173,"target":"present","response":"present","rt":1771.4000000022,"correct":true,"confidence":2},{"trial_n":51,"min":82,"max":173,"target":"absent","response":"present","rt":1450.0999999978,"correct":false,"confidence":4},{"trial_n":52,"min":81,"max":174,"target":"absent","response":"absent","rt":1371.299999997,"correct":true,"confidence":5},{"trial_n":53,"min":81,"max":174,"target":"absent","response":"present","rt":1205.1999999993,"correct":false,"confidence":3},{"trial_n":54,"min":80,"max":175,"target":"present","response":"present","rt":2576,"correct":true,"confidence":4},{"trial_n":55,"min":80,"max":175,"target":"absent","response":"absent","rt":2163.3999999985,"correct":true,"confidence":5},{"trial_n":56,"min":81,"max":174,"target":"present","response":"present","rt":1354.3000000007,"correct":true,"confidence":3},{"trial_n":57,"min":81,"max":174,"target":"present","response":"present","rt":1254,"correct":true,"confidence":5},{"trial_n":58,"min":82,"max":173,"target":"absent","response":"absent","rt":1159.0999999978,"correct":true,"confidence":3},{"trial_n":59,"min":82,"max":173,"target":"present","response":"present","rt":1058.0999999978,"correct":true,"confidence":4},{"trial_n":60,"min":83,"max":172,"target":"absent","response":"absent","rt":888.40000000224,"correct":true,"confidence":5},{"trial_n":61,"min":83,"max":172,"target":"absent","response":"absent","rt":683.89999999851,"correct":true,"confidence":3},{"trial_n":62,"min":84,"max":171,"target":"absent","response":"absent","rt":874.10000000149,"correct":true,"confidence":1},{"trial_n":63,"min":84,"max":171,"target":"present","response":"present","rt":2821,"correct":true,"confidence":1},{"trial_n":64,"min":85,"max":170,"target":"present","response":"present","rt":319.19999999925,"correct":true,"confidence":1},{"trial_n":65,"min":85,"max":170,"target":"absent","response":"present","rt":254.30000000075,"correct":false,"confidence":1},{"trial_n":66,"min":84,"max":171,"target":"absent","response":"present","rt":308.70000000298,"correct":false,"confidence":1},{"trial_n":67,"min":83,"max":172,"target":"absent","response":"present","rt":192.19999999925,"correct":false,"confidence":1},{"trial_n":68,"min":82,"max":173,"target":"absent","response":"present","rt":140.20000000298,"correct":false,"confidence":1},{"trial_n":69,"min":81,"max":174,"target":"present","response":"present","rt":390.39999999851,"correct":true,"confidence":1},{"trial_n":70,"min":81,"max":174,"target":"absent","response":"present","rt":334,"correct":false,"confidence":1},{"trial_n":71,"min":41,"max":214,"target":"present","response":"present","rt":3437,"correct":true,"confidence":-1},{"trial_n":72,"min":41,"max":214,"target":"present","response":"present","rt":254,"correct":true,"confidence":-1},{"trial_n":73,"min":57,"max":198,"target":"absent","response":"absent","rt":55.39999999851,"correct":true,"confidence":-1},{"trial_n":74,"min":57,"max":198,"target":"absent","response":"absent","rt":689,"correct":true,"confidence":-1},{"trial_n":75,"min":73,"max":182,"target":"present","response":"present","rt":73.5,"correct":true,"confidence":-1},{"trial_n":76,"min":73,"max":182,"target":"present","response":"present","rt":18.699999999255,"correct":true,"confidence":-1},{"trial_n":77,"min":89,"max":166,"target":"present","response":"present","rt":232.80000000075,"correct":true,"confidence":-1},{"trial_n":78,"min":89,"max":166,"target":"absent","response":"absent","rt":425.30000000075,"correct":true,"confidence":-1},{"trial_n":79,"min":105,"max":150,"target":"absent","response":"absent","rt":825.30000000075,"correct":true,"confidence":-1},{"trial_n":80,"min":105,"max":150,"target":"present","response":"absent","rt":193.19999999925,"correct":false,"confidence":-1},{"trial_n":81,"min":97,"max":158,"target":"absent","response":"absent","rt":222,"correct":true,"confidence":-1},{"trial_n":82,"min":97,"max":158,"target":"present","response":"absent","rt":1732.8000000007,"correct":false,"confidence":-1},{"trial_n":83,"min":89,"max":166,"target":"present","response":"absent","rt":84.900000002235,"correct":false,"confidence":-1},{"trial_n":84,"min":81,"max":174,"target":"absent","response":"present","rt":464.80000000075,"correct":false,"confidence":-1},{"trial_n":85,"min":73,"max":182,"target":"absent","response":"absent","rt":679,"correct":true,"confidence":-1},{"trial_n":86,"min":73,"max":182,"target":"present","response":"present","rt":112.19999999925,"correct":true,"confidence":-1},{"trial_n":87,"min":81,"max":174,"target":"absent","response":"present","rt":414.40000000224,"correct":false,"confidence":-1},{"trial_n":88,"min":73,"max":182,"target":"present","response":"present","rt":8630.200000003,"correct":true,"confidence":-1},{"trial_n":89,"min":73,"max":182,"target":"absent","response":"present","rt":1048.6000000015,"correct":false,"confidence":-1},{"trial_n":90,"min":65,"max":190,"target":"present","response":"absent","rt":43.699999999255,"correct":false,"confidence":-1},{"trial_n":91,"min":61,"max":194,"target":"absent","response":"absent","rt":242.59999999776,"correct":true,"confidence":1},{"trial_n":92,"min":61,"max":194,"target":"present","response":"absent","rt":135.5,"correct":false,"confidence":2},{"trial_n":93,"min":57,"max":198,"target":"absent","response":"absent","rt":147.39999999851,"correct":true,"confidence":2},{"trial_n":94,"min":57,"max":198,"target":"absent","response":"absent","rt":258.39999999851,"correct":true,"confidence":2},{"trial_n":95,"min":61,"max":194,"target":"present","response":"absent","rt":83.60000000149,"correct":false,"confidence":1},{"trial_n":96,"min":57,"max":198,"target":"present","response":"absent","rt":27,"correct":false,"confidence":1},{"trial_n":97,"min":53,"max":202,"target":"present","response":"absent","rt":76,"correct":false,"confidence":1},{"trial_n":98,"min":49,"max":206,"target":"absent","response":"present","rt":184.69999999925,"correct":false,"confidence":1},{"trial_n":99,"min":45,"max":210,"target":"absent","response":"present","rt":147.19999999925,"correct":false,"confidence":1},{"trial_n":100,"min":41,"max":214,"target":"absent","response":"absent","rt":106.30000000075,"correct":true,"confidence":3},{"trial_n":101,"min":41,"max":214,"target":"present","response":"present","rt":17.10000000149,"correct":true,"confidence":1},{"trial_n":102,"min":43,"max":212,"target":"absent","response":"present","rt":494.89999999851,"correct":false,"confidence":3},{"trial_n":103,"min":41,"max":214,"target":"present","response":"present","rt":161.19999999925,"correct":true,"confidence":2},{"trial_n":104,"min":41,"max":214,"target":"absent","response":"absent","rt":233.89999999851,"correct":true,"confidence":4},{"trial_n":105,"min":43,"max":212,"target":"present","response":"absent","rt":113.69999999925,"correct":false,"confidence":2},{"trial_n":106,"min":41,"max":214,"target":"absent","response":"absent","rt":41.10000000149,"correct":true,"confidence":4},{"trial_n":107,"min":41,"max":214,"target":"absent","response":"absent","rt":1246.6999999993,"correct":true,"confidence":3},{"trial_n":108,"min":43,"max":212,"target":"absent","response":"present","rt":199.40000000224,"correct":false,"confidence":4},{"trial_n":109,"min":41,"max":214,"target":"absent","response":"present","rt":324.10000000149,"correct":false,"confidence":4},{"trial_n":110,"min":39,"max":216,"target":"absent","response":"present","rt":302.70000000298,"correct":false,"confidence":1},{"trial_n":111,"min":38,"max":217,"target":"absent","response":"present","rt":323.80000000075,"correct":false,"confidence":1},{"trial_n":112,"min":37,"max":218,"target":"absent","response":"present","rt":428.10000000149,"correct":false,"confidence":3},{"trial_n":113,"min":36,"max":219,"target":"absent","response":"present","rt":381.19999999925,"correct":false,"confidence":2},{"trial_n":114,"min":35,"max":220,"target":"present","response":"present","rt":167.19999999925,"correct":true,"confidence":1},{"trial_n":115,"min":35,"max":220,"target":"present","response":"present","rt":95.300000000745,"correct":true,"confidence":4},{"trial_n":116,"min":36,"max":219,"target":"absent","response":"present","rt":335.5,"correct":false,"confidence":3},{"trial_n":117,"min":35,"max":220,"target":"present","response":"absent","rt":263.59999999776,"correct":false,"confidence":1},{"trial_n":118,"min":34,"max":221,"target":"present","response":"present","rt":242.80000000075,"correct":true,"confidence":2},{"trial_n":119,"min":34,"max":221,"target":"absent","response":"absent","rt":527.5,"correct":true,"confidence":1},{"trial_n":120,"min":35,"max":220,"target":"present","response":"absent","rt":70.300000000745,"correct":false,"confidence":1},{"trial_n":121,"min":34,"max":221,"target":"present","response":"absent","rt":75.400000002235,"correct":false,"confidence":1},{"trial_n":122,"min":33,"max":222,"target":"absent","response":"present","rt":1219.3000000007,"correct":false,"confidence":2},{"trial_n":123,"min":32,"max":223,"target":"absent","response":"absent","rt":197.29999999702,"correct":true,"confidence":1},{"trial_n":124,"min":32,"max":223,"target":"present","response":"absent","rt":51.39999999851,"correct":false,"confidence":1},{"trial_n":125,"min":31,"max":224,"target":"present","response":"absent","rt":130.5,"correct":false,"confidence":1},{"trial_n":126,"min":30,"max":225,"target":"absent","response":"absent","rt":159.70000000298,"correct":true,"confidence":2},{"trial_n":127,"min":30,"max":225,"target":"present","response":"absent","rt":348.60000000149,"correct":false,"confidence":2},{"trial_n":128,"min":29,"max":226,"target":"present","response":"absent","rt":48.800000000745,"correct":false,"confidence":4},{"trial_n":129,"min":28,"max":227,"target":"absent","response":"present","rt":920.5,"correct":false,"confidence":2},{"trial_n":130,"min":27,"max":228,"target":"absent","response":"present","rt":121.5,"correct":false,"confidence":1},{"trial_n":131,"min":26,"max":229,"target":"absent","response":"absent","rt":67.79999999702,"correct":true,"confidence":1},{"trial_n":132,"min":26,"max":229,"target":"present","response":"absent","rt":310.80000000075,"correct":false,"confidence":1},{"trial_n":133,"min":25,"max":230,"target":"absent","response":"absent","rt":111.39999999851,"correct":true,"confidence":4},{"trial_n":134,"min":25,"max":230,"target":"present","response":"absent","rt":714.90000000224,"correct":false,"confidence":1},{"trial_n":135,"min":24,"max":231,"target":"present","response":"absent","rt":930.89999999851,"correct":false,"confidence":1},{"trial_n":136,"min":23,"max":232,"target":"present","response":"absent","rt":394.5,"correct":false,"confidence":3},{"trial_n":137,"min":22,"max":233,"target":"present","response":"absent","rt":131.79999999702,"correct":false,"confidence":2},{"trial_n":138,"min":21,"max":234,"target":"present","response":"absent","rt":81.60000000149,"correct":false,"confidence":2},{"trial_n":139,"min":20,"max":235,"target":"present","response":"absent","rt":848.10000000149,"correct":false,"confidence":3},{"trial_n":140,"min":19,"max":236,"target":"present","response":"absent","rt":48.199999999255,"correct":false,"confidence":2}]