[{"trial_n":1,"n_dots":4.25,"target":"right","response":"right","rt":4879.6999999881,"correct":true,"confidence":-1},{"trial_n":2,"n_dots":4.25,"target":"left","response":"left","rt":1222.6999999881,"correct":true,"confidence":-1},{"trial_n":3,"n_dots":3.85,"target":"right","response":"left","rt":2179.8999999762,"correct":false,"confidence":-1},{"trial_n":4,"n_dots":4.25,"target":"left","response":"left","rt":499.80000001192,"correct":true,"confidence":-1},{"trial_n":5,"n_dots":4.25,"target":"left","response":"left","rt":489,"correct":true,"confidence":-1},{"trial_n":6,"n_dots":3.85,"target":"right","response":"right","rt":711.39999997616,"correct":true,"confidence":-1},{"trial_n":7,"n_dots":3.85,"target":"left","response":"left","rt":451.80000001192,"correct":true,"confidence":-1},{"trial_n":8,"n_dots":3.65,"target":"left","response":"left","rt":514.40000003576,"correct":true,"confidence":-1},{"trial_n":9,"n_dots":3.65,"target":"left","response":"left","rt":1548.8999999762,"correct":true,"confidence":-1},{"trial_n":10,"n_dots":3.45,"target":"left","response":"left","rt":396.30000001192,"correct":true,"confidence":-1},{"trial_n":11,"n_dots":3.45,"target":"left","response":"left","rt":808.09999996424,"correct":true,"confidence":-1},{"trial_n":12,"n_dots":3.25,"target":"left","response":"left","rt":664.60000002384,"correct":true,"confidence":-1},{"trial_n":13,"n_dots":3.25,"target":"right","response":"right","rt":936.5,"correct":true,"confidence":-1},{"trial_n":14,"n_dots":3.15,"target":"left","response":"left","rt":515.60000002384,"correct":true,"confidence":-1},{"trial_n":15,"n_dots":3.15,"target":"right","response":"left","rt":622.10000002384,"correct":false,"confidence":-1},{"trial_n":16,"n_dots":3.25,"target":"left","response":"right","rt":547.69999998808,"correct":false,"confidence":-1},{"trial_n":17,"n_dots":3.35,"target":"left","response":"right","rt":538.89999997616,"correct":false,"confidence":-1},{"trial_n":18,"n_dots":3.45,"target":"left","response":"left","rt":493.39999997616,"correct":true,"confidence":-1},{"trial_n":19,"n_dots":3.45,"target":"right","response":"right","rt":552.90000003576,"correct":true,"confidence":-1},{"trial_n":20,"n_dots":3.35,"target":"right","response":"right","rt":748.10000002384,"correct":true,"confidence":-1},{"trial_n":21,"n_dots":3.35,"target":"right","response":"left","rt":392.09999996424,"correct":false,"confidence":3},{"trial_n":22,"n_dots":3.45,"target":"right","response":"right","rt":1433.7999999523,"correct":true,"confidence":4},{"trial_n":23,"n_dots":3.45,"target":"left","response":"left","rt":1093.5999999642,"correct":true,"confidence":4},{"trial_n":24,"n_dots":3.35,"target":"left","response":"right","rt":1503.2999999523,"correct":false,"confidence":3},{"trial_n":25,"n_dots":3.45,"target":"left","response":"left","rt":784.10000002384,"correct":true,"confidence":4},{"trial_n":26,"n_dots":3.45,"target":"right","response":"left","rt":817.39999997616,"correct":false,"confidence":5},{"trial_n":27,"n_dots":3.55,"target":"right","response":"right","rt":891.09999996424,"correct":true,"confidence":1},{"trial_n":28,"n_dots":3.55,"target":"left","response":"left","rt":743.30000001192,"correct":true,"confidence":4},{"trial_n":29,"n_dots":3.45,"target":"right","response":"right","rt":2235.6999999881,"correct":true,"confidence":1},{"trial_n":30,"n_dots":3.45,"target":"left","response":"left","rt":727.70000004768,"correct":true,"confidence":3},{"trial_n":31,"n_dots":3.35,"target":"left","response":"left","rt":951.30000001192,"correct":true,"confidence":5},{"trial_n":32,"n_dots":3.35,"target":"left","response":"left","rt":977,"correct":true,"confidence":3},{"trial_n":33,"n_dots":3.25,"target":"right","response":"left","rt":2077.8000000119,"correct":false,"confidence":3},{"trial_n":34,"n_dots":3.35,"target":"right","response":"left","rt":671.5,"correct":false,"confidence":3},{"trial_n":35,"n_dots":3.45,"target":"left","response":"left","rt":756.70000004768,"correct":true,"confidence":5},{"trial_n":36,"n_dots":3.45,"target":"right","response":"right","rt":715.60000002384,"correct":true,"confidence":4},{"trial_n":37,"n_dots":3.35,"target":"right","response":"right","rt":2371.1000000238,"correct":true,"confidence":2},{"trial_n":38,"n_dots":3.35,"target":"left","response":"left","rt":788.89999997616,"correct":true,"confidence":5},{"trial_n":39,"n_dots":3.25,"target":"left","response":"left","rt":988.40000003576,"correct":true,"confidence":3},{"trial_n":40,"n_dots":3.25,"target":"right","response":"right","rt":628.5,"correct":true,"confidence":3},{"trial_n":41,"n_dots":3.15,"target":"left","response":"left","rt":432.5,"correct":true,"confidence":4},{"trial_n":42,"n_dots":3.15,"target":"left","response":"left","rt":380,"correct":true,"confidence":2},{"trial_n":43,"n_dots":3.05,"target":"left","response":"left","rt":508.69999998808,"correct":true,"confidence":4},{"trial_n":44,"n_dots":3.05,"target":"right","response":"left","rt":761.39999997616,"correct":false,"confidence":3},{"trial_n":45,"n_dots":3.15,"target":"right","response":"right","rt":733.60000002384,"correct":true,"confidence":1},{"trial_n":46,"n_dots":3.15,"target":"left","response":"right","rt":460.69999998808,"correct":false,"confidence":3},{"trial_n":47,"n_dots":3.25,"target":"right","response":"left","rt":2254.4000000358,"correct":false,"confidence":3},{"trial_n":48,"n_dots":3.35,"target":"left","response":"left","rt":542.80000001192,"correct":true,"confidence":5},{"trial_n":49,"n_dots":3.35,"target":"left","response":"left","rt":503.5,"correct":true,"confidence":3},{"trial_n":50,"n_dots":3.25,"target":"right","response":"right","rt":618.80000001192,"correct":true,"confidence":4},{"trial_n":51,"n_dots":3.25,"target":"left","response":"right","rt":1239.9000000358,"correct":false,"confidence":3},{"trial_n":52,"n_dots":3.35,"target":"left","response":"left","rt":516.39999997616,"correct":true,"confidence":4},{"trial_n":53,"n_dots":3.35,"target":"left","response":"left","rt":457.19999998808,"correct":true,"confidence":5},{"trial_n":54,"n_dots":3.25,"target":"right","response":"right","rt":432.10000002384,"correct":true,"confidence":2},{"trial_n":55,"n_dots":3.25,"target":"right","response":"left","rt":1934.0999999642,"correct":false,"confidence":3},{"trial_n":56,"n_dots":3.35,"target":"left","response":"right","rt":1091.4000000358,"correct":false,"confidence":2},{"trial_n":57,"n_dots":3.45,"target":"right","response":"right","rt":975.5,"correct":true,"confidence":4},{"trial_n":58,"n_dots":3.45,"target":"right","response":"left","rt":409.79999995232,"correct":false,"confidence":1},{"trial_n":59,"n_dots":3.55,"target":"left","response":"left","rt":867.59999996424,"correct":true,"confidence":1},{"trial_n":60,"n_dots":3.55,"target":"left","response":"right","rt":499.70000004768,"correct":false,"confidence":1},{"trial_n":61,"n_dots":3.65,"target":"right","response":"right","rt":403.19999998808,"correct":true,"confidence":4},{"trial_n":62,"n_dots":3.65,"target":"right","response":"left","rt":436.70000004768,"correct":false,"confidence":3},{"trial_n":63,"n_dots":3.75,"target":"left","response":"left","rt":516.39999997616,"correct":true,"confidence":4},{"trial_n":64,"n_dots":3.75,"target":"right","response":"right","rt":442.30000001192,"correct":true,"confidence":5},{"trial_n":65,"n_dots":3.65,"target":"left","response":"left","rt":796.19999998808,"correct":true,"confidence":5},{"trial_n":66,"n_dots":3.65,"target":"right","response":"right","rt":616.20000004768,"correct":true,"confidence":2},{"trial_n":67,"n_dots":3.55,"target":"right","response":"right","rt":888.79999995232,"correct":true,"confidence":2},{"trial_n":68,"n_dots":3.55,"target":"right","response":"left","rt":575.5,"correct":false,"confidence":1},{"trial_n":69,"n_dots":3.65,"target":"right","response":"right","rt":444.40000003576,"correct":true,"confidence":3},{"trial_n":70,"n_dots":3.65,"target":"right","response":"right","rt":767.40000003576,"correct":true,"confidence":3},{"trial_n":71,"n_dots":3.55,"target":"right","response":"left","rt":593.40000003576,"correct":false,"confidence":2},{"trial_n":72,"n_dots":3.65,"target":"right","response":"right","rt":374.80000001192,"correct":true,"confidence":4},{"trial_n":73,"n_dots":3.65,"target":"right","response":"right","rt":1317.6999999881,"correct":true,"confidence":3},{"trial_n":74,"n_dots":3.55,"target":"left","response":"left","rt":291,"correct":true,"confidence":5},{"trial_n":75,"n_dots":3.55,"target":"right","response":"right","rt":308.69999998808,"correct":true,"confidence":3},{"trial_n":76,"n_dots":3.45,"target":"left","response":"left","rt":396.19999998808,"correct":true,"confidence":2},{"trial_n":77,"n_dots":3.45,"target":"right","response":"left","rt":1236.6999999881,"correct":false,"confidence":3},{"trial_n":78,"n_dots":3.55,"target":"left","response":"right","rt":1138.2000000477,"correct":false,"confidence":3},{"trial_n":79,"n_dots":3.65,"target":"right","response":"right","rt":322.5,"correct":true,"confidence":3},{"trial_n":80,"n_dots":3.65,"target":"left","response":"left","rt":1519.4000000358,"correct":true,"confidence":2},{"trial_n":81,"n_dots":3.55,"target":"right","response":"right","rt":633.5,"correct":true,"confidence":2},{"trial_n":82,"n_dots":3.55,"target":"left","response":"left","rt":193.39999997616,"correct":true,"confidence":3},{"trial_n":83,"n_dots":3.45,"target":"right","response":"left","rt":646.19999998808,"correct":false,"confidence":2},{"trial_n":84,"n_dots":3.55,"target":"right","response":"left","rt":1425.5,"correct":false,"confidence":4},{"trial_n":85,"n_dots":3.65,"target":"left","response":"left","rt":790.90000003576,"correct":true,"confidence":4},{"trial_n":86,"n_dots":3.65,"target":"left","response":"left","rt":410.39999997616,"correct":true,"confidence":5},{"trial_n":87,"n_dots":3.55,"target":"left","response":"left","rt":478.29999995232,"correct":true,"confidence":5},{"trial_n":88,"n_dots":3.55,"target":"right","response":"right","rt":504.39999997616,"correct":true,"confidence":3},{"trial_n":89,"n_dots":3.45,"target":"right","response":"right","rt":762.89999997616,"correct":true,"confidence":4},{"trial_n":90,"n_dots":3.45,"target":"right","response":"right","rt":606.40000003576,"correct":true,"confidence":4},{"trial_n":91,"n_dots":3.35,"target":"right","response":"right","rt":707.30000001192,"correct":true,"confidence":2},{"trial_n":92,"n_dots":3.35,"target":"left","response":"left","rt":390.69999998808,"correct":true,"confidence":4},{"trial_n":93,"n_dots":3.25,"target":"left","response":"left","rt":354.39999997616,"correct":true,"confidence":3},{"trial_n":94,"n_dots":3.25,"target":"left","response":"left","rt":499.80000001192,"correct":true,"confidence":3},{"trial_n":95,"n_dots":3.15,"target":"right","response":"right","rt":437.19999998808,"correct":true,"confidence":4},{"trial_n":96,"n_dots":3.15,"target":"left","response":"left","rt":390.89999997616,"correct":true,"confidence":4},{"trial_n":97,"n_dots":3.05,"target":"right","response":"left","rt":400.5,"correct":false,"confidence":5},{"trial_n":98,"n_dots":3.15,"target":"right","response":"left","rt":1015.5,"correct":false,"confidence":2},{"trial_n":99,"n_dots":3.25,"target":"left","response":"left","rt":421.90000003576,"correct":true,"confidence":3},{"trial_n":100,"n_dots":3.25,"target":"left","response":"right","rt":859.60000002384,"correct":false,"confidence":2},{"trial_n":101,"n_dots":3.35,"target":"left","response":"left","rt":387.69999998808,"correct":true,"confidence":3},{"trial_n":102,"n_dots":3.35,"target":"left","response":"left","rt":488.90000003576,"correct":true,"confidence":3},{"trial_n":103,"n_dots":3.25,"target":"left","response":"left","rt":605.09999996424,"correct":true,"confidence":2},{"trial_n":104,"n_dots":3.25,"target":"left","response":"right","rt":457.60000002384,"correct":false,"confidence":2},{"trial_n":105,"n_dots":3.35,"target":"right","response":"left","rt":1034.3000000119,"correct":false,"confidence":1},{"trial_n":106,"n_dots":3.45,"target":"right","response":"right","rt":804.89999997616,"correct":true,"confidence":1},{"trial_n":107,"n_dots":3.45,"target":"right","response":"left","rt":841,"correct":false,"confidence":2},{"trial_n":108,"n_dots":3.55,"target":"right","response":"left","rt":404.19999998808,"correct":false,"confidence":1},{"trial_n":109,"n_dots":3.65,"target":"left","response":"right","rt":347.60000002384,"correct":false,"confidence":1},{"trial_n":110,"n_dots":3.75,"target":"right","response":"right","rt":335.19999998808,"correct":true,"confidence":4},{"trial_n":111,"n_dots":3.75,"target":"right","response":"right","rt":396.39999997616,"correct":true,"confidence":3},{"trial_n":112,"n_dots":3.65,"target":"left","response":"left","rt":770.69999998808,"correct":true,"confidence":3},{"trial_n":113,"n_dots":3.65,"target":"right","response":"left","rt":346.89999997616,"correct":false,"confidence":3},{"trial_n":114,"n_dots":3.75,"target":"right","response":"right","rt":1446.7999999523,"correct":true,"confidence":2},{"trial_n":115,"n_dots":3.75,"target":"left","response":"left","rt":390.19999998808,"correct":true,"confidence":5},{"trial_n":116,"n_dots":3.65,"target":"left","response":"left","rt":518.40000003576,"correct":true,"confidence":5},{"trial_n":117,"n_dots":3.65,"target":"left","response":"left","rt":391.19999998808,"correct":true,"confidence":5},{"trial_n":118,"n_dots":3.55,"target":"right","response":"left","rt":1097.1999999881,"correct":false,"confidence":4},{"trial_n":119,"n_dots":3.65,"target":"right","response":"left","rt":636.89999997616,"correct":false,"confidence":1},{"trial_n":120,"n_dots":3.75,"target":"right","response":"right","rt":307.39999997616,"correct":true,"confidence":4}]