[{"trial_n":1,"min":25,"max":230,"target":"present","response":"absent","rt":6526.9000000358,"correct":false,"confidence":-1},{"trial_n":2,"min":25,"max":230,"target":"present","response":"present","rt":1711.8000000119,"correct":true,"confidence":-1},{"trial_n":3,"min":25,"max":230,"target":"absent","response":"absent","rt":2145.5999999642,"correct":true,"confidence":-1},{"trial_n":4,"min":41,"max":214,"target":"absent","response":"absent","rt":844.69999998808,"correct":true,"confidence":-1},{"trial_n":5,"min":41,"max":214,"target":"present","response":"present","rt":685.10000002384,"correct":true,"confidence":-1},{"trial_n":6,"min":57,"max":198,"target":"absent","response":"absent","rt":536.5,"correct":true,"confidence":-1},{"trial_n":7,"min":57,"max":198,"target":"absent","response":"absent","rt":547.09999996424,"correct":true,"confidence":-1},{"trial_n":8,"min":73,"max":182,"target":"absent","response":"absent","rt":538.59999996424,"correct":true,"confidence":-1},{"trial_n":9,"min":73,"max":182,"target":"absent","response":"absent","rt":540.80000001192,"correct":true,"confidence":-1},{"trial_n":10,"min":89,"max":166,"target":"absent","response":"absent","rt":521.40000003576,"correct":true,"confidence":-1},{"trial_n":11,"min":89,"max":166,"target":"present","response":"absent","rt":569,"correct":false,"confidence":-1},{"trial_n":12,"min":81,"max":174,"target":"present","response":"absent","rt":942.30000001192,"correct":false,"confidence":-1},{"trial_n":13,"min":73,"max":182,"target":"absent","response":"present","rt":2036.4000000358,"correct":false,"confidence":-1},{"trial_n":14,"min":65,"max":190,"target":"absent","response":"absent","rt":1806.6000000238,"correct":true,"confidence":-1},{"trial_n":15,"min":65,"max":190,"target":"present","response":"present","rt":559.79999995232,"correct":true,"confidence":-1},{"trial_n":16,"min":73,"max":182,"target":"absent","response":"absent","rt":793.19999998808,"correct":true,"confidence":-1},{"trial_n":17,"min":73,"max":182,"target":"present","response":"present","rt":533.39999997616,"correct":true,"confidence":-1},{"trial_n":18,"min":81,"max":174,"target":"present","response":"present","rt":721.5,"correct":true,"confidence":-1},{"trial_n":19,"min":81,"max":174,"target":"absent","response":"absent","rt":524.60000002384,"correct":true,"confidence":-1},{"trial_n":20,"min":89,"max":166,"target":"present","response":"absent","rt":570.80000001192,"correct":false,"confidence":-1},{"trial_n":21,"min":85,"max":170,"target":"present","response":"present","rt":1636.0999999642,"correct":true,"confidence":2},{"trial_n":22,"min":85,"max":170,"target":"present","response":"absent","rt":6705.6000000238,"correct":false,"confidence":2},{"trial_n":23,"min":81,"max":174,"target":"present","response":"present","rt":1565.5,"correct":true,"confidence":4},{"trial_n":24,"min":81,"max":174,"target":"absent","response":"present","rt":2283.6999999881,"correct":false,"confidence":3},{"trial_n":25,"min":77,"max":178,"target":"present","response":"present","rt":1180.9000000358,"correct":true,"confidence":5},{"trial_n":26,"min":77,"max":178,"target":"present","response":"present","rt":1029.3000000119,"correct":true,"confidence":5},{"trial_n":27,"min":81,"max":174,"target":"present","response":"present","rt":899.59999996424,"correct":true,"confidence":5},{"trial_n":28,"min":81,"max":174,"target":"absent","response":"absent","rt":1807.9000000358,"correct":true,"confidence":2},{"trial_n":29,"min":85,"max":170,"target":"present","response":"present","rt":929.20000004768,"correct":true,"confidence":5},{"trial_n":30,"min":85,"max":170,"target":"absent","response":"present","rt":2961.7000000477,"correct":false,"confidence":2},{"trial_n":31,"min":83,"max":172,"target":"present","response":"absent","rt":1095.2999999523,"correct":false,"confidence":4},{"trial_n":32,"min":81,"max":174,"target":"absent","response":"absent","rt":1854.6000000238,"correct":true,"confidence":3},{"trial_n":33,"min":81,"max":174,"target":"present","response":"present","rt":962.19999998808,"correct":true,"confidence":3},{"trial_n":34,"min":83,"max":172,"target":"absent","response":"absent","rt":1361.8000000119,"correct":true,"confidence":2},{"trial_n":35,"min":83,"max":172,"target":"present","response":"present","rt":1068,"correct":true,"confidence":4},{"trial_n":36,"min":85,"max":170,"target":"present","response":"present","rt":1700.5999999642,"correct":true,"confidence":4},{"trial_n":37,"min":85,"max":170,"target":"absent","response":"absent","rt":745,"correct":true,"confidence":4},{"trial_n":38,"min":87,"max":168,"target":"present","response":"absent","rt":1166.5999999642,"correct":false,"confidence":2},{"trial_n":39,"min":85,"max":170,"target":"present","response":"absent","rt":998.10000002384,"correct":false,"confidence":1},{"trial_n":40,"min":83,"max":172,"target":"present","response":"absent","rt":1860.1000000238,"correct":false,"confidence":2},{"trial_n":41,"min":82,"max":173,"target":"absent","response":"absent","rt":1510.3999999762,"correct":true,"confidence":5},{"trial_n":42,"min":82,"max":173,"target":"present","response":"absent","rt":933.30000001192,"correct":false,"confidence":4},{"trial_n":43,"min":81,"max":174,"target":"present","response":"absent","rt":1168.5,"correct":false,"confidence":3},{"trial_n":44,"min":80,"max":175,"target":"absent","response":"present","rt":1959.5,"correct":false,"confidence":3},{"trial_n":45,"min":79,"max":176,"target":"absent","response":"absent","rt":1133.5,"correct":true,"confidence":3},{"trial_n":46,"min":79,"max":176,"target":"present","response":"present","rt":962,"correct":true,"confidence":5},{"trial_n":47,"min":80,"max":175,"target":"present","response":"absent","rt":2256.7999999523,"correct":false,"confidence":3},{"trial_n":48,"min":79,"max":176,"target":"present","response":"present","rt":2619.8000000119,"correct":true,"confidence":1},{"trial_n":49,"min":79,"max":176,"target":"absent","response":"absent","rt":944.80000001192,"correct":true,"confidence":4},{"trial_n":50,"min":80,"max":175,"target":"present","response":"absent","rt":857.59999996424,"correct":false,"confidence":2},{"trial_n":51,"min":79,"max":176,"target":"absent","response":"absent","rt":1662.3999999762,"correct":true,"confidence":3},{"trial_n":52,"min":79,"max":176,"target":"absent","response":"absent","rt":1865.0999999642,"correct":true,"confidence":3},{"trial_n":53,"min":80,"max":175,"target":"present","response":"present","rt":847.39999997616,"correct":true,"confidence":2},{"trial_n":54,"min":80,"max":175,"target":"absent","response":"present","rt":2500.8000000119,"correct":false,"confidence":1},{"trial_n":55,"min":79,"max":176,"target":"present","response":"present","rt":898.80000001192,"correct":true,"confidence":4},{"trial_n":56,"min":79,"max":176,"target":"absent","response":"present","rt":1076.3000000119,"correct":false,"confidence":3},{"trial_n":57,"min":78,"max":177,"target":"absent","response":"absent","rt":852,"correct":true,"confidence":2},{"trial_n":58,"min":78,"max":177,"target":"absent","response":"absent","rt":794.10000002384,"correct":true,"confidence":1},{"trial_n":59,"min":79,"max":176,"target":"present","response":"present","rt":1433.6999999881,"correct":true,"confidence":3},{"trial_n":60,"min":79,"max":176,"target":"present","response":"present","rt":1579.6000000238,"correct":true,"confidence":1},{"trial_n":61,"min":80,"max":175,"target":"absent","response":"absent","rt":1063.3000000119,"correct":true,"confidence":1},{"trial_n":62,"min":80,"max":175,"target":"absent","response":"absent","rt":1391.5,"correct":true,"confidence":5},{"trial_n":63,"min":81,"max":174,"target":"absent","response":"absent","rt":730.60000002384,"correct":true,"confidence":4},{"trial_n":64,"min":81,"max":174,"target":"absent","response":"present","rt":1406,"correct":false,"confidence":2},{"trial_n":65,"min":80,"max":175,"target":"present","response":"present","rt":1084.1999999881,"correct":true,"confidence":3},{"trial_n":66,"min":80,"max":175,"target":"present","response":"present","rt":1316.8000000119,"correct":true,"confidence":4},{"trial_n":67,"min":81,"max":174,"target":"absent","response":"absent","rt":1422.7999999523,"correct":true,"confidence":1},{"trial_n":68,"min":81,"max":174,"target":"absent","response":"absent","rt":821.60000002384,"correct":true,"confidence":5},{"trial_n":69,"min":82,"max":173,"target":"present","response":"present","rt":711.69999998808,"correct":true,"confidence":5},{"trial_n":70,"min":82,"max":173,"target":"absent","response":"absent","rt":899,"correct":true,"confidence":2},{"trial_n":71,"min":41,"max":214,"target":"present","response":"present","rt":2127.6000000238,"correct":true,"confidence":-1},{"trial_n":72,"min":41,"max":214,"target":"present","response":"present","rt":494.5,"correct":true,"confidence":-1},{"trial_n":73,"min":57,"max":198,"target":"absent","response":"absent","rt":423.10000002384,"correct":true,"confidence":-1},{"trial_n":74,"min":57,"max":198,"target":"absent","response":"absent","rt":398.80000001192,"correct":true,"confidence":-1},{"trial_n":75,"min":73,"max":182,"target":"present","response":"present","rt":967.90000003576,"correct":true,"confidence":-1},{"trial_n":76,"min":73,"max":182,"target":"absent","response":"present","rt":627,"correct":false,"confidence":-1},{"trial_n":77,"min":57,"max":198,"target":"present","response":"present","rt":283.60000002384,"correct":true,"confidence":-1},{"trial_n":78,"min":57,"max":198,"target":"present","response":"present","rt":355.60000002384,"correct":true,"confidence":-1},{"trial_n":79,"min":73,"max":182,"target":"absent","response":"absent","rt":686.19999998808,"correct":true,"confidence":-1},{"trial_n":80,"min":73,"max":182,"target":"absent","response":"present","rt":624.89999997616,"correct":false,"confidence":-1},{"trial_n":81,"min":65,"max":190,"target":"present","response":"present","rt":756.69999998808,"correct":true,"confidence":-1},{"trial_n":82,"min":65,"max":190,"target":"present","response":"present","rt":400.69999998808,"correct":true,"confidence":-1},{"trial_n":83,"min":73,"max":182,"target":"absent","response":"absent","rt":1098.3999999762,"correct":true,"confidence":-1},{"trial_n":84,"min":73,"max":182,"target":"absent","response":"absent","rt":753.69999998808,"correct":true,"confidence":-1},{"trial_n":85,"min":81,"max":174,"target":"present","response":"present","rt":1000,"correct":true,"confidence":-1},{"trial_n":86,"min":81,"max":174,"target":"absent","response":"absent","rt":841.89999997616,"correct":true,"confidence":-1},{"trial_n":87,"min":89,"max":166,"target":"present","response":"present","rt":1637.3000000119,"correct":true,"confidence":-1},{"trial_n":88,"min":89,"max":166,"target":"present","response":"present","rt":1096.8000000119,"correct":true,"confidence":-1},{"trial_n":89,"min":97,"max":158,"target":"absent","response":"present","rt":987.60000002384,"correct":false,"confidence":-1},{"trial_n":90,"min":89,"max":166,"target":"present","response":"present","rt":526.5,"correct":true,"confidence":-1},{"trial_n":91,"min":89,"max":166,"target":"absent","response":"present","rt":744.79999995232,"correct":false,"confidence":3},{"trial_n":92,"min":85,"max":170,"target":"absent","response":"present","rt":947.30000001192,"correct":false,"confidence":4},{"trial_n":93,"min":81,"max":174,"target":"present","response":"present","rt":373.69999998808,"correct":true,"confidence":5},{"trial_n":94,"min":81,"max":174,"target":"absent","response":"absent","rt":986.69999998808,"correct":true,"confidence":4},{"trial_n":95,"min":85,"max":170,"target":"absent","response":"present","rt":703.19999998808,"correct":false,"confidence":3},{"trial_n":96,"min":81,"max":174,"target":"absent","response":"present","rt":1316.3000000119,"correct":false,"confidence":1},{"trial_n":97,"min":77,"max":178,"target":"present","response":"present","rt":627.80000001192,"correct":true,"confidence":4},{"trial_n":98,"min":77,"max":178,"target":"present","response":"present","rt":808.39999997616,"correct":true,"confidence":5},{"trial_n":99,"min":81,"max":174,"target":"absent","response":"present","rt":687.5,"correct":false,"confidence":5},{"trial_n":100,"min":77,"max":178,"target":"present","response":"present","rt":358.19999998808,"correct":true,"confidence":5},{"trial_n":101,"min":77,"max":178,"target":"absent","response":"present","rt":857.5,"correct":false,"confidence":2},{"trial_n":102,"min":75,"max":180,"target":"present","response":"present","rt":851.5,"correct":true,"confidence":5},{"trial_n":103,"min":75,"max":180,"target":"present","response":"present","rt":539.20000004768,"correct":true,"confidence":5},{"trial_n":104,"min":77,"max":178,"target":"present","response":"present","rt":1758.1000000238,"correct":true,"confidence":3},{"trial_n":105,"min":77,"max":178,"target":"present","response":"present","rt":959.80000001192,"correct":true,"confidence":4},{"trial_n":106,"min":79,"max":176,"target":"present","response":"present","rt":358.60000002384,"correct":true,"confidence":5},{"trial_n":107,"min":79,"max":176,"target":"absent","response":"absent","rt":1052.5999999642,"correct":true,"confidence":5},{"trial_n":108,"min":81,"max":174,"target":"absent","response":"absent","rt":1748.8000000119,"correct":true,"confidence":2},{"trial_n":109,"min":81,"max":174,"target":"present","response":"present","rt":362.90000003576,"correct":true,"confidence":5},{"trial_n":110,"min":83,"max":172,"target":"present","response":"present","rt":1077.5999999642,"correct":true,"confidence":5},{"trial_n":111,"min":83,"max":172,"target":"present","response":"present","rt":483,"correct":true,"confidence":5},{"trial_n":112,"min":84,"max":171,"target":"present","response":"present","rt":558.09999996424,"correct":true,"confidence":3},{"trial_n":113,"min":84,"max":171,"target":"present","response":"present","rt":1366.9000000358,"correct":true,"confidence":1},{"trial_n":114,"min":85,"max":170,"target":"present","response":"present","rt":506.89999997616,"correct":true,"confidence":5},{"trial_n":115,"min":85,"max":170,"target":"present","response":"present","rt":481,"correct":true,"confidence":5},{"trial_n":116,"min":86,"max":169,"target":"absent","response":"absent","rt":1920.1999999881,"correct":true,"confidence":2},{"trial_n":117,"min":86,"max":169,"target":"absent","response":"present","rt":1843.9000000358,"correct":false,"confidence":2},{"trial_n":118,"min":85,"max":170,"target":"present","response":"absent","rt":807.30000001192,"correct":false,"confidence":2},{"trial_n":119,"min":84,"max":171,"target":"absent","response":"absent","rt":1457.2999999523,"correct":true,"confidence":1},{"trial_n":120,"min":84,"max":171,"target":"absent","response":"absent","rt":1259.4000000358,"correct":true,"confidence":3},{"trial_n":121,"min":85,"max":170,"target":"absent","response":"present","rt":1851,"correct":false,"confidence":3},{"trial_n":122,"min":84,"max":171,"target":"present","response":"present","rt":469.60000002384,"correct":true,"confidence":5},{"trial_n":123,"min":84,"max":171,"target":"absent","response":"absent","rt":2502.1999999881,"correct":true,"confidence":2},{"trial_n":124,"min":85,"max":170,"target":"absent","response":"absent","rt":944.40000003576,"correct":true,"confidence":3},{"trial_n":125,"min":85,"max":170,"target":"present","response":"present","rt":701.10000002384,"correct":true,"confidence":5},{"trial_n":126,"min":86,"max":169,"target":"present","response":"present","rt":590.69999998808,"correct":true,"confidence":5},{"trial_n":127,"min":86,"max":169,"target":"absent","response":"absent","rt":1400.3999999762,"correct":true,"confidence":3},{"trial_n":128,"min":87,"max":168,"target":"absent","response":"absent","rt":1562,"correct":true,"confidence":1},{"trial_n":129,"min":87,"max":168,"target":"present","response":"present","rt":419.30000001192,"correct":true,"confidence":4},{"trial_n":130,"min":88,"max":167,"target":"absent","response":"absent","rt":1002.8000000119,"correct":true,"confidence":3},{"trial_n":131,"min":88,"max":167,"target":"absent","response":"present","rt":860.10000002384,"correct":false,"confidence":1},{"trial_n":132,"min":87,"max":168,"target":"absent","response":"present","rt":1518.5,"correct":false,"confidence":2},{"trial_n":133,"min":86,"max":169,"target":"present","response":"present","rt":580.69999998808,"correct":true,"confidence":4},{"trial_n":134,"min":86,"max":169,"target":"present","response":"present","rt":559.69999998808,"correct":true,"confidence":5},{"trial_n":135,"min":87,"max":168,"target":"absent","response":"absent","rt":1295.1999999881,"correct":true,"confidence":2},{"trial_n":136,"min":87,"max":168,"target":"absent","response":"absent","rt":1932.1000000238,"correct":true,"confidence":1},{"trial_n":137,"min":88,"max":167,"target":"absent","response":"absent","rt":2537.6999999881,"correct":true,"confidence":1},{"trial_n":138,"min":88,"max":167,"target":"absent","response":"present","rt":1121.8000000119,"correct":false,"confidence":1},{"trial_n":139,"min":87,"max":168,"target":"present","response":"present","rt":1080.1999999881,"correct":true,"confidence":4},{"trial_n":140,"min":87,"max":168,"target":"present","response":"present","rt":452.20000004768,"correct":true,"confidence":5}]