[{"trial_n":1,"n_dots":4.25,"target":"right","response":"left","rt":1873,"correct":false,"confidence":-1},{"trial_n":2,"n_dots":4.25,"target":"left","response":"left","rt":877,"correct":true,"confidence":-1},{"trial_n":3,"n_dots":4.25,"target":"left","response":"left","rt":763,"correct":true,"confidence":-1},{"trial_n":4,"n_dots":3.85,"target":"right","response":"right","rt":907,"correct":true,"confidence":-1},{"trial_n":5,"n_dots":3.85,"target":"left","response":"left","rt":748,"correct":true,"confidence":-1},{"trial_n":6,"n_dots":3.45,"target":"left","response":"left","rt":600,"correct":true,"confidence":-1},{"trial_n":7,"n_dots":3.45,"target":"right","response":"right","rt":522,"correct":true,"confidence":-1},{"trial_n":8,"n_dots":3.25,"target":"left","response":"left","rt":823.99999999999,"correct":true,"confidence":-1},{"trial_n":9,"n_dots":3.25,"target":"left","response":"left","rt":954,"correct":true,"confidence":-1},{"trial_n":10,"n_dots":3.05,"target":"right","response":"right","rt":1020,"correct":true,"confidence":-1},{"trial_n":11,"n_dots":3.05,"target":"left","response":"left","rt":701,"correct":true,"confidence":-1},{"trial_n":12,"n_dots":2.85,"target":"right","response":"right","rt":492.00000000001,"correct":true,"confidence":-1},{"trial_n":13,"n_dots":2.85,"target":"right","response":"left","rt":942.99999999999,"correct":false,"confidence":-1},{"trial_n":14,"n_dots":2.95,"target":"right","response":"right","rt":261,"correct":true,"confidence":-1},{"trial_n":15,"n_dots":2.95,"target":"right","response":"right","rt":389.00000000001,"correct":true,"confidence":-1},{"trial_n":16,"n_dots":2.85,"target":"left","response":"left","rt":1525,"correct":true,"confidence":-1},{"trial_n":17,"n_dots":2.85,"target":"right","response":"right","rt":12952,"correct":true,"confidence":-1},{"trial_n":18,"n_dots":2.75,"target":"left","response":"left","rt":1127,"correct":true,"confidence":-1},{"trial_n":19,"n_dots":2.75,"target":"left","response":"left","rt":815,"correct":true,"confidence":-1},{"trial_n":20,"n_dots":2.65,"target":"right","response":"right","rt":554,"correct":true,"confidence":-1},{"trial_n":21,"n_dots":2.65,"target":"left","response":"left","rt":1818,"correct":true,"confidence":4},{"trial_n":22,"n_dots":2.55,"target":"right","response":"right","rt":711,"correct":true,"confidence":4},{"trial_n":23,"n_dots":2.55,"target":"left","response":"right","rt":589,"correct":false,"confidence":4},{"trial_n":24,"n_dots":2.65,"target":"left","response":"right","rt":473,"correct":false,"confidence":3},{"trial_n":25,"n_dots":2.75,"target":"right","response":"left","rt":280,"correct":false,"confidence":3},{"trial_n":26,"n_dots":2.85,"target":"right","response":"left","rt":447,"correct":false,"confidence":3},{"trial_n":27,"n_dots":2.95,"target":"right","response":"left","rt":376,"correct":false,"confidence":2},{"trial_n":28,"n_dots":3.05,"target":"left","response":"left","rt":940,"correct":true,"confidence":2},{"trial_n":29,"n_dots":3.05,"target":"left","response":"left","rt":494,"correct":true,"confidence":2},{"trial_n":30,"n_dots":2.95,"target":"right","response":"right","rt":957,"correct":true,"confidence":4},{"trial_n":31,"n_dots":2.95,"target":"left","response":"left","rt":945,"correct":true,"confidence":4},{"trial_n":32,"n_dots":2.85,"target":"right","response":"right","rt":531.99999999997,"correct":true,"confidence":3},{"trial_n":33,"n_dots":2.85,"target":"right","response":"left","rt":662,"correct":false,"confidence":3},{"trial_n":34,"n_dots":2.95,"target":"right","response":"right","rt":743,"correct":true,"confidence":3},{"trial_n":35,"n_dots":2.95,"target":"left","response":"right","rt":547,"correct":false,"confidence":3},{"trial_n":36,"n_dots":3.05,"target":"left","response":"right","rt":1104,"correct":false,"confidence":3},{"trial_n":37,"n_dots":3.15,"target":"left","response":"left","rt":767.00000000003,"correct":true,"confidence":5},{"trial_n":38,"n_dots":3.15,"target":"right","response":"left","rt":1655,"correct":false,"confidence":4},{"trial_n":39,"n_dots":3.25,"target":"right","response":"right","rt":407,"correct":true,"confidence":4},{"trial_n":40,"n_dots":3.25,"target":"left","response":"left","rt":619,"correct":true,"confidence":3},{"trial_n":41,"n_dots":3.15,"target":"left","response":"left","rt":910,"correct":true,"confidence":5},{"trial_n":42,"n_dots":3.15,"target":"right","response":"right","rt":462,"correct":true,"confidence":5},{"trial_n":43,"n_dots":3.05,"target":"right","response":"left","rt":406.99999999997,"correct":false,"confidence":4},{"trial_n":44,"n_dots":3.15,"target":"left","response":"right","rt":826,"correct":false,"confidence":4},{"trial_n":45,"n_dots":3.25,"target":"left","response":"left","rt":582,"correct":true,"confidence":3},{"trial_n":46,"n_dots":3.25,"target":"right","response":"left","rt":836,"correct":false,"confidence":2},{"trial_n":47,"n_dots":3.35,"target":"left","response":"left","rt":1851,"correct":true,"confidence":4},{"trial_n":48,"n_dots":3.35,"target":"right","response":"right","rt":1412,"correct":true,"confidence":4},{"trial_n":49,"n_dots":3.25,"target":"right","response":"right","rt":793.00000000003,"correct":true,"confidence":4},{"trial_n":50,"n_dots":3.25,"target":"right","response":"right","rt":690.99999999997,"correct":true,"confidence":4},{"trial_n":51,"n_dots":3.15,"target":"left","response":"left","rt":558.99999999997,"correct":true,"confidence":4},{"trial_n":52,"n_dots":3.15,"target":"right","response":"left","rt":794,"correct":false,"confidence":4},{"trial_n":53,"n_dots":3.25,"target":"left","response":"right","rt":1381,"correct":false,"confidence":3},{"trial_n":54,"n_dots":3.35,"target":"right","response":"left","rt":669,"correct":false,"confidence":3},{"trial_n":55,"n_dots":3.45,"target":"right","response":"left","rt":998.00000000006,"correct":false,"confidence":2},{"trial_n":56,"n_dots":3.55,"target":"right","response":"left","rt":611,"correct":false,"confidence":4},{"trial_n":57,"n_dots":3.65,"target":"left","response":"right","rt":698,"correct":false,"confidence":3},{"trial_n":58,"n_dots":3.75,"target":"right","response":"right","rt":679,"correct":true,"confidence":3},{"trial_n":59,"n_dots":3.75,"target":"left","response":"right","rt":1787,"correct":false,"confidence":3},{"trial_n":60,"n_dots":3.85,"target":"left","response":"right","rt":593.99999999994,"correct":false,"confidence":3},{"trial_n":61,"n_dots":3.95,"target":"right","response":"right","rt":925,"correct":true,"confidence":4},{"trial_n":62,"n_dots":3.95,"target":"left","response":"right","rt":510,"correct":false,"confidence":3},{"trial_n":63,"n_dots":4.05,"target":"left","response":"right","rt":261,"correct":false,"confidence":3},{"trial_n":64,"n_dots":4.15,"target":"left","response":"left","rt":574.99999999994,"correct":true,"confidence":5},{"trial_n":65,"n_dots":4.15,"target":"right","response":"left","rt":1217,"correct":false,"confidence":4},{"trial_n":66,"n_dots":4.25,"target":"right","response":"right","rt":2447,"correct":true,"confidence":4},{"trial_n":67,"n_dots":4.25,"target":"left","response":"right","rt":621,"correct":false,"confidence":3},{"trial_n":68,"n_dots":4.35,"target":"right","response":"left","rt":857.00000000006,"correct":false,"confidence":4},{"trial_n":69,"n_dots":4.45,"target":"right","response":"right","rt":557,"correct":true,"confidence":4},{"trial_n":70,"n_dots":4.45,"target":"right","response":"right","rt":344.00000000006,"correct":true,"confidence":4},{"trial_n":71,"n_dots":4.35,"target":"left","response":"left","rt":548,"correct":true,"confidence":4},{"trial_n":72,"n_dots":4.35,"target":"left","response":"left","rt":1521.0000000001,"correct":true,"confidence":5},{"trial_n":73,"n_dots":4.25,"target":"left","response":"left","rt":714,"correct":true,"confidence":5},{"trial_n":74,"n_dots":4.25,"target":"right","response":"right","rt":732.00000000006,"correct":true,"confidence":5},{"trial_n":75,"n_dots":4.15,"target":"left","response":"left","rt":686,"correct":true,"confidence":4},{"trial_n":76,"n_dots":4.15,"target":"right","response":"right","rt":379,"correct":true,"confidence":4},{"trial_n":77,"n_dots":4.05,"target":"right","response":"right","rt":773,"correct":true,"confidence":5},{"trial_n":78,"n_dots":4.05,"target":"right","response":"left","rt":831,"correct":false,"confidence":4},{"trial_n":79,"n_dots":4.15,"target":"left","response":"left","rt":670,"correct":true,"confidence":4},{"trial_n":80,"n_dots":4.15,"target":"right","response":"left","rt":1052,"correct":false,"confidence":1},{"trial_n":81,"n_dots":4.25,"target":"left","response":"left","rt":926,"correct":true,"confidence":5},{"trial_n":82,"n_dots":4.25,"target":"left","response":"left","rt":637,"correct":true,"confidence":5},{"trial_n":83,"n_dots":4.15,"target":"left","response":"left","rt":696.99999999994,"correct":true,"confidence":4},{"trial_n":84,"n_dots":4.15,"target":"right","response":"right","rt":453,"correct":true,"confidence":4},{"trial_n":85,"n_dots":4.05,"target":"right","response":"right","rt":311.00000000006,"correct":true,"confidence":3},{"trial_n":86,"n_dots":4.05,"target":"left","response":"left","rt":489,"correct":true,"confidence":4},{"trial_n":87,"n_dots":3.95,"target":"right","response":"right","rt":1016,"correct":true,"confidence":4},{"trial_n":88,"n_dots":3.95,"target":"left","response":"left","rt":539,"correct":true,"confidence":4},{"trial_n":89,"n_dots":3.85,"target":"right","response":"right","rt":2545,"correct":true,"confidence":2},{"trial_n":90,"n_dots":3.85,"target":"left","response":"left","rt":735,"correct":true,"confidence":3},{"trial_n":91,"n_dots":3.75,"target":"right","response":"right","rt":2054,"correct":true,"confidence":4},{"trial_n":92,"n_dots":3.75,"target":"right","response":"right","rt":727,"correct":true,"confidence":4},{"trial_n":93,"n_dots":3.65,"target":"right","response":"right","rt":645,"correct":true,"confidence":4},{"trial_n":94,"n_dots":3.65,"target":"left","response":"left","rt":400,"correct":true,"confidence":4},{"trial_n":95,"n_dots":3.55,"target":"left","response":"left","rt":1528,"correct":true,"confidence":5},{"trial_n":96,"n_dots":3.55,"target":"left","response":"left","rt":654,"correct":true,"confidence":5},{"trial_n":97,"n_dots":3.45,"target":"right","response":"left","rt":777,"correct":false,"confidence":5},{"trial_n":98,"n_dots":3.55,"target":"left","response":"left","rt":607,"correct":true,"confidence":5},{"trial_n":99,"n_dots":3.55,"target":"right","response":"left","rt":902,"correct":false,"confidence":5},{"trial_n":100,"n_dots":3.65,"target":"left","response":"right","rt":247,"correct":false,"confidence":3},{"trial_n":101,"n_dots":3.75,"target":"left","response":"left","rt":1442,"correct":true,"confidence":4},{"trial_n":102,"n_dots":3.75,"target":"right","response":"right","rt":485.99999999994,"correct":true,"confidence":4},{"trial_n":103,"n_dots":3.65,"target":"left","response":"right","rt":682,"correct":false,"confidence":4},{"trial_n":104,"n_dots":3.75,"target":"right","response":"right","rt":484.00000000006,"correct":true,"confidence":4},{"trial_n":105,"n_dots":3.75,"target":"right","response":"right","rt":551,"correct":true,"confidence":4},{"trial_n":106,"n_dots":3.65,"target":"right","response":"left","rt":557,"correct":false,"confidence":3},{"trial_n":107,"n_dots":3.75,"target":"left","response":"left","rt":1253,"correct":true,"confidence":4},{"trial_n":108,"n_dots":3.75,"target":"left","response":"left","rt":4385,"correct":true,"confidence":1},{"trial_n":109,"n_dots":3.65,"target":"left","response":"left","rt":1591,"correct":true,"confidence":1},{"trial_n":110,"n_dots":3.65,"target":"left","response":"left","rt":844.99999999994,"correct":true,"confidence":4},{"trial_n":111,"n_dots":3.55,"target":"left","response":"left","rt":1010,"correct":true,"confidence":4},{"trial_n":112,"n_dots":3.55,"target":"right","response":"left","rt":858,"correct":false,"confidence":4},{"trial_n":113,"n_dots":3.65,"target":"left","response":"right","rt":492.99999999994,"correct":false,"confidence":3},{"trial_n":114,"n_dots":3.75,"target":"left","response":"right","rt":355,"correct":false,"confidence":3},{"trial_n":115,"n_dots":3.85,"target":"right","response":"right","rt":2217,"correct":true,"confidence":3},{"trial_n":116,"n_dots":3.85,"target":"right","response":"left","rt":293,"correct":false,"confidence":5},{"trial_n":117,"n_dots":3.95,"target":"left","response":"left","rt":1289,"correct":true,"confidence":4},{"trial_n":118,"n_dots":3.95,"target":"right","response":"right","rt":794,"correct":true,"confidence":3},{"trial_n":119,"n_dots":3.85,"target":"right","response":"left","rt":1359,"correct":false,"confidence":3},{"trial_n":120,"n_dots":3.95,"target":"left","response":"left","rt":449.00000000012,"correct":true,"confidence":5}]