[{"trial_n":1,"span":8,"encoder":"52445173","distractor":"52445163","target":"present","response":"present","rt":"2393","correct":true,"confidence":-1},{"trial_n":2,"span":8,"encoder":"14373855","distractor":"14363855","target":"present","response":"absent","rt":"1582","correct":false,"confidence":-1},{"trial_n":3,"span":6,"encoder":"492707","distractor":"392707","target":"absent","response":"absent","rt":"531","correct":true,"confidence":-1},{"trial_n":4,"span":6,"encoder":"257047","distractor":"251047","target":"absent","response":"present","rt":"1326.0000000001","correct":false,"confidence":-1},{"trial_n":5,"span":4,"encoder":"4433","distractor":"4483","target":"present","response":"absent","rt":"1563","correct":false,"confidence":-1},{"trial_n":6,"span":2,"encoder":"83","distractor":"81","target":"absent","response":"absent","rt":"1387","correct":true,"confidence":-1},{"trial_n":7,"span":2,"encoder":"56","distractor":"50","target":"present","response":"present","rt":"2229","correct":true,"confidence":-1},{"trial_n":8,"span":4,"encoder":"9374","distractor":"4374","target":"absent","response":"absent","rt":"1058","correct":true,"confidence":-1},{"trial_n":9,"span":4,"encoder":"7477","distractor":"7474","target":"present","response":"absent","rt":"853.99999999994","correct":false,"confidence":-1},{"trial_n":10,"span":2,"encoder":"14","distractor":"74","target":"present","response":"absent","rt":"1424.9999999999","correct":false,"confidence":-1},{"trial_n":11,"span":2,"encoder":"97","distractor":"87","target":"absent","response":"absent","rt":"1009","correct":true,"confidence":-1},{"trial_n":12,"span":2,"encoder":"98","distractor":"99","target":"present","response":"present","rt":"922","correct":true,"confidence":-1},{"trial_n":13,"span":3,"encoder":"720","distractor":"420","target":"absent","response":"absent","rt":"863","correct":true,"confidence":-1},{"trial_n":14,"span":3,"encoder":"753","distractor":"853","target":"present","response":"absent","rt":"1355","correct":false,"confidence":-1},{"trial_n":15,"span":2,"encoder":"97","distractor":"77","target":"present","response":"present","rt":"1148","correct":true,"confidence":-1},{"trial_n":16,"span":2,"encoder":"48","distractor":"46","target":"absent","response":"absent","rt":"1034","correct":true,"confidence":-1},{"trial_n":17,"span":3,"encoder":"155","distractor":"158","target":"absent","response":"absent","rt":"2920.0000000001","correct":true,"confidence":-1},{"trial_n":18,"span":3,"encoder":"091","distractor":"291","target":"present","response":"present","rt":"929","correct":true,"confidence":-1},{"trial_n":19,"span":4,"encoder":"9060","distractor":"9090","target":"absent","response":"absent","rt":"1047","correct":true,"confidence":-1},{"trial_n":20,"span":4,"encoder":"6590","distractor":"6597","target":"absent","response":"absent","rt":"1074","correct":true,"confidence":-1},{"trial_n":21,"span":5,"encoder":"79284","distractor":"79084","target":"present","response":"present","rt":"1796","correct":true,"confidence":5},{"trial_n":22,"span":5,"encoder":"11076","distractor":"18076","target":"present","response":"present","rt":"1455","correct":true,"confidence":5},{"trial_n":23,"span":6,"encoder":"994171","distractor":"994131","target":"present","response":"present","rt":"1250","correct":true,"confidence":5},{"trial_n":24,"span":6,"encoder":"410959","distractor":"010959","target":"absent","response":"absent","rt":"1246","correct":true,"confidence":1},{"trial_n":25,"span":7,"encoder":"4749043","distractor":"4349043","target":"present","response":"present","rt":"1575","correct":true,"confidence":4},{"trial_n":26,"span":7,"encoder":"2245083","distractor":"8245083","target":"absent","response":"absent","rt":"1157","correct":true,"confidence":1},{"trial_n":27,"span":8,"encoder":"82994710","distractor":"82994510","target":"present","response":"present","rt":"1974","correct":true,"confidence":5},{"trial_n":28,"span":8,"encoder":"96571741","distractor":"76571741","target":"absent","response":"present","rt":"1683","correct":false,"confidence":5},{"trial_n":29,"span":7,"encoder":"0289417","distractor":"3289417","target":"absent","response":"absent","rt":"1780","correct":true,"confidence":1},{"trial_n":30,"span":7,"encoder":"3508025","distractor":"4508025","target":"present","response":"absent","rt":"6360.9999999999","correct":false,"confidence":4},{"trial_n":31,"span":6,"encoder":"550023","distractor":"350023","target":"present","response":"present","rt":"1798","correct":true,"confidence":5},{"trial_n":32,"span":6,"encoder":"599261","distractor":"599061","target":"absent","response":"absent","rt":"788","correct":true,"confidence":4},{"trial_n":33,"span":7,"encoder":"7384517","distractor":"7384515","target":"absent","response":"present","rt":"433","correct":false,"confidence":3},{"trial_n":34,"span":6,"encoder":"574854","distractor":"574254","target":"present","response":"absent","rt":"553","correct":false,"confidence":2},{"trial_n":35,"span":5,"encoder":"43905","distractor":"33905","target":"absent","response":"present","rt":"1216","correct":false,"confidence":3},{"trial_n":36,"span":4,"encoder":"9979","distractor":"9939","target":"present","response":"present","rt":"933","correct":true,"confidence":3},{"trial_n":37,"span":4,"encoder":"8865","distractor":"8875","target":"present","response":"present","rt":"818.99999999988","correct":true,"confidence":3},{"trial_n":38,"span":5,"encoder":"68067","distractor":"63067","target":"absent","response":"absent","rt":"970","correct":true,"confidence":3},{"trial_n":39,"span":5,"encoder":"80181","distractor":"80188","target":"present","response":"present","rt":"1096","correct":true,"confidence":1},{"trial_n":40,"span":6,"encoder":"770462","distractor":"778462","target":"present","response":"present","rt":"1509","correct":true,"confidence":4},{"trial_n":41,"span":6,"encoder":"916189","distractor":"916149","target":"absent","response":"present","rt":"2490","correct":false,"confidence":4},{"trial_n":42,"span":5,"encoder":"75682","distractor":"75982","target":"present","response":"present","rt":"1147","correct":true,"confidence":4},{"trial_n":43,"span":5,"encoder":"50738","distractor":"50938","target":"absent","response":"absent","rt":"658","correct":true,"confidence":4},{"trial_n":44,"span":6,"encoder":"258228","distractor":"258298","target":"present","response":"absent","rt":"1282.0000000001","correct":false,"confidence":4},{"trial_n":45,"span":5,"encoder":"44211","distractor":"44215","target":"absent","response":"absent","rt":"3091.0000000001","correct":true,"confidence":4},{"trial_n":46,"span":5,"encoder":"63799","distractor":"63798","target":"absent","response":"absent","rt":"1183.0000000001","correct":true,"confidence":4},{"trial_n":47,"span":6,"encoder":"146645","distractor":"146615","target":"present","response":"absent","rt":"944","correct":false,"confidence":4},{"trial_n":48,"span":5,"encoder":"53289","distractor":"53283","target":"present","response":"absent","rt":"1487","correct":false,"confidence":4},{"trial_n":49,"span":4,"encoder":"4203","distractor":"4293","target":"present","response":"present","rt":"1331","correct":true,"confidence":4},{"trial_n":50,"span":4,"encoder":"2677","distractor":"2277","target":"present","response":"present","rt":"1306.0000000001","correct":true,"confidence":4},{"trial_n":51,"span":5,"encoder":"92444","distractor":"98444","target":"present","response":"present","rt":"1221","correct":true,"confidence":5},{"trial_n":52,"span":5,"encoder":"83943","distractor":"80943","target":"absent","response":"present","rt":"1089","correct":false,"confidence":5},{"trial_n":53,"span":4,"encoder":"8782","distractor":"8082","target":"present","response":"present","rt":"1344","correct":true,"confidence":4},{"trial_n":54,"span":4,"encoder":"5087","distractor":"3087","target":"present","response":"present","rt":"2034","correct":true,"confidence":4},{"trial_n":55,"span":5,"encoder":"14206","distractor":"15206","target":"absent","response":"absent","rt":"3452","correct":true,"confidence":4},{"trial_n":56,"span":5,"encoder":"15570","distractor":"15510","target":"present","response":"present","rt":"1339","correct":true,"confidence":5},{"trial_n":57,"span":6,"encoder":"206679","distractor":"226679","target":"absent","response":"absent","rt":"1770","correct":true,"confidence":5},{"trial_n":58,"span":6,"encoder":"415958","distractor":"415951","target":"present","response":"present","rt":"2138.0000000001","correct":true,"confidence":5},{"trial_n":59,"span":7,"encoder":"0513593","distractor":"0513993","target":"absent","response":"absent","rt":"2100","correct":true,"confidence":4},{"trial_n":60,"span":7,"encoder":"0157512","distractor":"0157572","target":"absent","response":"absent","rt":"1351","correct":true,"confidence":5},{"trial_n":61,"span":8,"encoder":"20887309","distractor":"20887329","target":"absent","response":"present","rt":"2144","correct":false,"confidence":5},{"trial_n":62,"span":7,"encoder":"8491265","distractor":"8451265","target":"absent","response":"absent","rt":"7324","correct":true,"confidence":1},{"trial_n":63,"span":7,"encoder":"6648633","distractor":"6648631","target":"absent","response":"absent","rt":"1735","correct":true,"confidence":5},{"trial_n":64,"span":8,"encoder":"66728175","distractor":"66758175","target":"present","response":"absent","rt":"2402.9999999999","correct":false,"confidence":5},{"trial_n":65,"span":7,"encoder":"0750409","distractor":"0750419","target":"absent","response":"present","rt":"999","correct":false,"confidence":1},{"trial_n":66,"span":6,"encoder":"524659","distractor":"224659","target":"absent","response":"absent","rt":"1038","correct":true,"confidence":4},{"trial_n":67,"span":6,"encoder":"579582","distractor":"579982","target":"absent","response":"present","rt":"4090.0000000001","correct":false,"confidence":4},{"trial_n":68,"span":5,"encoder":"76104","distractor":"78104","target":"present","response":"present","rt":"1137.0000000001","correct":true,"confidence":4},{"trial_n":69,"span":5,"encoder":"09233","distractor":"69233","target":"absent","response":"absent","rt":"1028","correct":true,"confidence":5},{"trial_n":70,"span":6,"encoder":"531156","distractor":"531157","target":"present","response":"present","rt":"1321.0000000001","correct":true,"confidence":5},{"trial_n":71,"span":8,"encoder":"13641713","distractor":"13641793","target":"present","response":"present","rt":"3354","correct":true,"confidence":-1},{"trial_n":72,"span":8,"encoder":"58845095","distractor":"58841095","target":"present","response":"present","rt":"2265","correct":true,"confidence":-1},{"trial_n":73,"span":9,"encoder":"964784955","distractor":"964784959","target":"absent","response":"present","rt":"3397","correct":false,"confidence":-1},{"trial_n":74,"span":8,"encoder":"36212259","distractor":"86212259","target":"absent","response":"absent","rt":"974","correct":true,"confidence":-1},{"trial_n":75,"span":8,"encoder":"40483276","distractor":"47483276","target":"present","response":"present","rt":"2391.9999999999","correct":true,"confidence":-1},{"trial_n":76,"span":9,"encoder":"665370569","distractor":"661370569","target":"present","response":"present","rt":"3345","correct":true,"confidence":-1},{"trial_n":77,"span":9,"encoder":"075221935","distractor":"075229935","target":"absent","response":"present","rt":"2864","correct":false,"confidence":-1},{"trial_n":78,"span":8,"encoder":"66681295","distractor":"66681215","target":"present","response":"absent","rt":"1339.9999999999","correct":false,"confidence":-1},{"trial_n":79,"span":7,"encoder":"3898016","distractor":"3798016","target":"present","response":"present","rt":"567.99999999988","correct":true,"confidence":-1},{"trial_n":80,"span":7,"encoder":"3654478","distractor":"3614478","target":"absent","response":"absent","rt":"1064.0000000001","correct":true,"confidence":-1},{"trial_n":81,"span":8,"encoder":"14180503","distractor":"14189503","target":"present","response":"absent","rt":"929","correct":false,"confidence":-1},{"trial_n":82,"span":7,"encoder":"2485792","distractor":"2485782","target":"absent","response":"present","rt":"927","correct":false,"confidence":-1},{"trial_n":83,"span":6,"encoder":"016689","distractor":"015689","target":"absent","response":"present","rt":"793","correct":false,"confidence":-1},{"trial_n":84,"span":5,"encoder":"97092","distractor":"97096","target":"absent","response":"present","rt":"720","correct":false,"confidence":-1},{"trial_n":85,"span":4,"encoder":"1766","distractor":"1726","target":"absent","response":"present","rt":"996","correct":false,"confidence":-1},{"trial_n":86,"span":3,"encoder":"701","distractor":"201","target":"absent","response":"absent","rt":"2170","correct":true,"confidence":-1},{"trial_n":87,"span":3,"encoder":"847","distractor":"947","target":"present","response":"present","rt":"2090","correct":true,"confidence":-1},{"trial_n":88,"span":4,"encoder":"5062","distractor":"5066","target":"absent","response":"absent","rt":"1269","correct":true,"confidence":-1},{"trial_n":89,"span":4,"encoder":"1929","distractor":"1999","target":"absent","response":"present","rt":"3061.9999999999","correct":false,"confidence":-1},{"trial_n":90,"span":3,"encoder":"608","distractor":"606","target":"present","response":"present","rt":"1266.9999999999","correct":true,"confidence":-1},{"trial_n":91,"span":3,"encoder":"637","distractor":"627","target":"absent","response":"absent","rt":"1597","correct":true,"confidence":5},{"trial_n":92,"span":4,"encoder":"5067","distractor":"9067","target":"absent","response":"absent","rt":"1716","correct":true,"confidence":4},{"trial_n":93,"span":4,"encoder":"2670","distractor":"2600","target":"present","response":"present","rt":"2393.0000000001","correct":true,"confidence":5},{"trial_n":94,"span":5,"encoder":"40731","distractor":"40732","target":"absent","response":"absent","rt":"2934","correct":true,"confidence":5},{"trial_n":95,"span":5,"encoder":"91470","distractor":"91270","target":"present","response":"present","rt":"1700","correct":true,"confidence":5},{"trial_n":96,"span":6,"encoder":"354052","distractor":"353052","target":"absent","response":"absent","rt":"2701","correct":true,"confidence":5},{"trial_n":97,"span":6,"encoder":"751185","distractor":"751885","target":"present","response":"absent","rt":"974","correct":false,"confidence":4},{"trial_n":98,"span":5,"encoder":"67608","distractor":"67628","target":"absent","response":"absent","rt":"1277","correct":true,"confidence":5},{"trial_n":99,"span":5,"encoder":"09695","distractor":"19695","target":"absent","response":"present","rt":"2271","correct":false,"confidence":5},{"trial_n":100,"span":4,"encoder":"6965","distractor":"6565","target":"absent","response":"absent","rt":"1366","correct":true,"confidence":1},{"trial_n":101,"span":4,"encoder":"5925","distractor":"5825","target":"present","response":"absent","rt":"3955","correct":false,"confidence":5},{"trial_n":102,"span":3,"encoder":"930","distractor":"330","target":"absent","response":"absent","rt":"1778","correct":true,"confidence":3},{"trial_n":103,"span":3,"encoder":"619","distractor":"419","target":"absent","response":"absent","rt":"1353","correct":true,"confidence":5},{"trial_n":104,"span":4,"encoder":"1326","distractor":"1376","target":"present","response":"present","rt":"1673","correct":true,"confidence":4},{"trial_n":105,"span":4,"encoder":"0036","distractor":"0046","target":"absent","response":"absent","rt":"2049.0000000001","correct":true,"confidence":5},{"trial_n":106,"span":5,"encoder":"49484","distractor":"09484","target":"absent","response":"absent","rt":"2555","correct":true,"confidence":5},{"trial_n":107,"span":5,"encoder":"42363","distractor":"12363","target":"present","response":"present","rt":"2060","correct":true,"confidence":4},{"trial_n":108,"span":6,"encoder":"177441","distractor":"177741","target":"absent","response":"absent","rt":"3446.0000000001","correct":true,"confidence":5},{"trial_n":109,"span":6,"encoder":"344523","distractor":"324523","target":"present","response":"present","rt":"4294","correct":true,"confidence":4},{"trial_n":110,"span":7,"encoder":"8247461","distractor":"8243461","target":"present","response":"present","rt":"5298.9999999999","correct":true,"confidence":4},{"trial_n":111,"span":7,"encoder":"0098281","distractor":"0098282","target":"absent","response":"absent","rt":"3564","correct":true,"confidence":5},{"trial_n":112,"span":8,"encoder":"14388659","distractor":"13388659","target":"present","response":"present","rt":"617.99999999988","correct":true,"confidence":3},{"trial_n":113,"span":8,"encoder":"19081847","distractor":"99081847","target":"present","response":"present","rt":"1057","correct":true,"confidence":2},{"trial_n":114,"span":9,"encoder":"079990457","distractor":"079490457","target":"absent","response":"absent","rt":"1474","correct":true,"confidence":4},{"trial_n":115,"span":9,"encoder":"685726798","distractor":"685726738","target":"present","response":"present","rt":"2385","correct":true,"confidence":4},{"trial_n":116,"span":10,"encoder":"7580009963","distractor":"7580009913","target":"absent","response":"absent","rt":"1410.0000000001","correct":true,"confidence":1},{"trial_n":117,"span":10,"encoder":"3762974909","distractor":"3562974909","target":"absent","response":"present","rt":"1751","correct":false,"confidence":1},{"trial_n":118,"span":9,"encoder":"900198686","distractor":"900198689","target":"absent","response":"absent","rt":"2309","correct":true,"confidence":4},{"trial_n":119,"span":9,"encoder":"312631887","distractor":"312631881","target":"present","response":"present","rt":"1688","correct":true,"confidence":1},{"trial_n":120,"span":10,"encoder":"9300550114","distractor":"9300850114","target":"absent","response":"absent","rt":"620","correct":true,"confidence":4},{"trial_n":121,"span":10,"encoder":"7708921509","distractor":"7708821509","target":"absent","response":"present","rt":"434","correct":false,"confidence":4},{"trial_n":122,"span":9,"encoder":"973461865","distractor":"973761865","target":"present","response":"absent","rt":"598","correct":false,"confidence":4},{"trial_n":123,"span":8,"encoder":"92148903","distractor":"92148303","target":"present","response":"present","rt":"363","correct":true,"confidence":1},{"trial_n":124,"span":8,"encoder":"82618612","distractor":"82688612","target":"present","response":"present","rt":"1905.0000000002","correct":true,"confidence":5},{"trial_n":125,"span":9,"encoder":"686392780","distractor":"386392780","target":"absent","response":"absent","rt":"2607.9999999998","correct":true,"confidence":1},{"trial_n":126,"span":9,"encoder":"720617629","distractor":"720667629","target":"present","response":"present","rt":"1774","correct":true,"confidence":3},{"trial_n":127,"span":10,"encoder":"6477711747","distractor":"6477811747","target":"present","response":"absent","rt":"446","correct":false,"confidence":4},{"trial_n":128,"span":9,"encoder":"595727072","distractor":"595717072","target":"present","response":"present","rt":"301","correct":true,"confidence":3},{"trial_n":129,"span":9,"encoder":"819535721","distractor":"809535721","target":"absent","response":"absent","rt":"776","correct":true,"confidence":3},{"trial_n":130,"span":10,"encoder":"2402619588","distractor":"2402611588","target":"present","response":"absent","rt":"3437","correct":false,"confidence":4},{"trial_n":131,"span":9,"encoder":"503386310","distractor":"503386315","target":"present","response":"present","rt":"1564","correct":true,"confidence":5},{"trial_n":132,"span":9,"encoder":"931052902","distractor":"931052982","target":"present","response":"present","rt":"3029","correct":true,"confidence":3},{"trial_n":133,"span":10,"encoder":"7190174913","distractor":"7193174913","target":"absent","response":"absent","rt":"3036","correct":true,"confidence":5},{"trial_n":134,"span":10,"encoder":"0728021730","distractor":"0228021730","target":"absent","response":"absent","rt":"4562","correct":true,"confidence":4},{"trial_n":135,"span":11,"encoder":"93260893874","distractor":"90260893874","target":"present","response":"present","rt":"2270","correct":true,"confidence":3},{"trial_n":136,"span":11,"encoder":"66200014323","distractor":"66200314323","target":"present","response":"present","rt":"2423","correct":true,"confidence":3},{"trial_n":137,"span":12,"encoder":"409551075045","distractor":"409251075045","target":"present","response":"present","rt":"2971","correct":true,"confidence":3},{"trial_n":138,"span":12,"encoder":"128949847010","distractor":"128949847910","target":"present","response":"absent","rt":"3048","correct":false,"confidence":2},{"trial_n":139,"span":11,"encoder":"23791333041","distractor":"23791333047","target":"present","response":"absent","rt":"3080","correct":false,"confidence":4},{"trial_n":140,"span":10,"encoder":"5148167080","distractor":"5148167580","target":"present","response":"absent","rt":"1862","correct":false,"confidence":3}]