[{"trial_n":1,"min":25,"max":230,"target":"present","response":"absent","rt":6707,"correct":false,"confidence":-1},{"trial_n":2,"min":25,"max":230,"target":"present","response":"present","rt":1074,"correct":true,"confidence":-1},{"trial_n":3,"min":25,"max":230,"target":"absent","response":"present","rt":732.00000000001,"correct":false,"confidence":-1},{"trial_n":4,"min":9,"max":246,"target":"absent","response":"present","rt":597,"correct":false,"confidence":-1},{"trial_n":5,"min":0,"max":255,"target":"present","response":"present","rt":748,"correct":true,"confidence":-1},{"trial_n":6,"min":0,"max":255,"target":"absent","response":"absent","rt":350,"correct":true,"confidence":-1},{"trial_n":7,"min":16,"max":239,"target":"present","response":"present","rt":524,"correct":true,"confidence":-1},{"trial_n":8,"min":16,"max":239,"target":"absent","response":"absent","rt":556,"correct":true,"confidence":-1},{"trial_n":9,"min":32,"max":223,"target":"present","response":"present","rt":528,"correct":true,"confidence":-1},{"trial_n":10,"min":32,"max":223,"target":"present","response":"present","rt":482,"correct":true,"confidence":-1},{"trial_n":11,"min":40,"max":215,"target":"present","response":"present","rt":495,"correct":true,"confidence":-1},{"trial_n":12,"min":40,"max":215,"target":"present","response":"present","rt":469,"correct":true,"confidence":-1},{"trial_n":13,"min":48,"max":207,"target":"absent","response":"absent","rt":445,"correct":true,"confidence":-1},{"trial_n":14,"min":48,"max":207,"target":"absent","response":"absent","rt":283.99999999999,"correct":true,"confidence":-1},{"trial_n":15,"min":56,"max":199,"target":"present","response":"present","rt":695,"correct":true,"confidence":-1},{"trial_n":16,"min":56,"max":199,"target":"present","response":"present","rt":447,"correct":true,"confidence":-1},{"trial_n":17,"min":64,"max":191,"target":"absent","response":"absent","rt":359,"correct":true,"confidence":-1},{"trial_n":18,"min":64,"max":191,"target":"absent","response":"absent","rt":315,"correct":true,"confidence":-1},{"trial_n":19,"min":72,"max":183,"target":"present","response":"absent","rt":181,"correct":false,"confidence":-1},{"trial_n":20,"min":64,"max":191,"target":"present","response":"present","rt":377,"correct":true,"confidence":-1},{"trial_n":21,"min":64,"max":191,"target":"absent","response":"absent","rt":708,"correct":true,"confidence":5},{"trial_n":22,"min":68,"max":187,"target":"absent","response":"absent","rt":649.99999999999,"correct":true,"confidence":5},{"trial_n":23,"min":68,"max":187,"target":"absent","response":"absent","rt":1879,"correct":true,"confidence":1},{"trial_n":24,"min":72,"max":183,"target":"absent","response":"present","rt":2221,"correct":false,"confidence":5},{"trial_n":25,"min":68,"max":187,"target":"present","response":"present","rt":989.00000000001,"correct":true,"confidence":5},{"trial_n":26,"min":68,"max":187,"target":"present","response":"present","rt":723,"correct":true,"confidence":5},{"trial_n":27,"min":72,"max":183,"target":"present","response":"present","rt":896,"correct":true,"confidence":5},{"trial_n":28,"min":72,"max":183,"target":"absent","response":"absent","rt":614,"correct":true,"confidence":5},{"trial_n":29,"min":76,"max":179,"target":"present","response":"present","rt":679.00000000001,"correct":true,"confidence":5},{"trial_n":30,"min":76,"max":179,"target":"present","response":"present","rt":1054,"correct":true,"confidence":5},{"trial_n":31,"min":78,"max":177,"target":"absent","response":"absent","rt":2156,"correct":true,"confidence":4},{"trial_n":32,"min":78,"max":177,"target":"absent","response":"present","rt":868,"correct":false,"confidence":5},{"trial_n":33,"min":76,"max":179,"target":"absent","response":"absent","rt":1281,"correct":true,"confidence":5},{"trial_n":34,"min":76,"max":179,"target":"present","response":"absent","rt":996,"correct":false,"confidence":4},{"trial_n":35,"min":74,"max":181,"target":"present","response":"present","rt":756,"correct":true,"confidence":5},{"trial_n":36,"min":74,"max":181,"target":"present","response":"present","rt":680.99999999999,"correct":true,"confidence":5},{"trial_n":37,"min":76,"max":179,"target":"present","response":"present","rt":686,"correct":true,"confidence":5},{"trial_n":38,"min":76,"max":179,"target":"present","response":"present","rt":579.99999999999,"correct":true,"confidence":5},{"trial_n":39,"min":78,"max":177,"target":"absent","response":"present","rt":592,"correct":false,"confidence":5},{"trial_n":40,"min":76,"max":179,"target":"absent","response":"absent","rt":532,"correct":true,"confidence":5},{"trial_n":41,"min":76,"max":179,"target":"present","response":"present","rt":700,"correct":true,"confidence":5},{"trial_n":42,"min":77,"max":178,"target":"absent","response":"absent","rt":540.99999999997,"correct":true,"confidence":1},{"trial_n":43,"min":77,"max":178,"target":"present","response":"present","rt":2600,"correct":true,"confidence":5},{"trial_n":44,"min":78,"max":177,"target":"absent","response":"absent","rt":528.00000000003,"correct":true,"confidence":5},{"trial_n":45,"min":78,"max":177,"target":"present","response":"present","rt":785,"correct":true,"confidence":5},{"trial_n":46,"min":79,"max":176,"target":"present","response":"present","rt":676,"correct":true,"confidence":1},{"trial_n":47,"min":79,"max":176,"target":"present","response":"present","rt":436,"correct":true,"confidence":5},{"trial_n":48,"min":80,"max":175,"target":"absent","response":"absent","rt":528,"correct":true,"confidence":5},{"trial_n":49,"min":80,"max":175,"target":"present","response":"present","rt":441,"correct":true,"confidence":5},{"trial_n":50,"min":81,"max":174,"target":"present","response":"present","rt":780,"correct":true,"confidence":5},{"trial_n":51,"min":81,"max":174,"target":"present","response":"present","rt":672,"correct":true,"confidence":5},{"trial_n":52,"min":82,"max":173,"target":"present","response":"absent","rt":788.99999999997,"correct":false,"confidence":5},{"trial_n":53,"min":81,"max":174,"target":"present","response":"present","rt":528,"correct":true,"confidence":5},{"trial_n":54,"min":81,"max":174,"target":"present","response":"present","rt":563,"correct":true,"confidence":5},{"trial_n":55,"min":82,"max":173,"target":"absent","response":"present","rt":697.00000000003,"correct":false,"confidence":5},{"trial_n":56,"min":81,"max":174,"target":"absent","response":"absent","rt":894,"correct":true,"confidence":5},{"trial_n":57,"min":81,"max":174,"target":"absent","response":"absent","rt":545,"correct":true,"confidence":5},{"trial_n":58,"min":82,"max":173,"target":"absent","response":"absent","rt":577,"correct":true,"confidence":5},{"trial_n":59,"min":82,"max":173,"target":"present","response":"present","rt":229,"correct":true,"confidence":5},{"trial_n":60,"min":83,"max":172,"target":"absent","response":"present","rt":535,"correct":false,"confidence":5},{"trial_n":61,"min":82,"max":173,"target":"present","response":"absent","rt":1720,"correct":false,"confidence":1},{"trial_n":62,"min":81,"max":174,"target":"absent","response":"absent","rt":1668,"correct":true,"confidence":4},{"trial_n":63,"min":81,"max":174,"target":"absent","response":"present","rt":921.00000000003,"correct":false,"confidence":5},{"trial_n":64,"min":80,"max":175,"target":"absent","response":"present","rt":831,"correct":false,"confidence":5},{"trial_n":65,"min":79,"max":176,"target":"absent","response":"absent","rt":475,"correct":true,"confidence":4},{"trial_n":66,"min":79,"max":176,"target":"absent","response":"absent","rt":469.99999999997,"correct":true,"confidence":1},{"trial_n":67,"min":80,"max":175,"target":"present","response":"absent","rt":1057,"correct":false,"confidence":1},{"trial_n":68,"min":79,"max":176,"target":"absent","response":"present","rt":2275,"correct":false,"confidence":1},{"trial_n":69,"min":78,"max":177,"target":"absent","response":"absent","rt":1073,"correct":true,"confidence":5},{"trial_n":70,"min":78,"max":177,"target":"absent","response":"absent","rt":639,"correct":true,"confidence":5},{"trial_n":71,"min":41,"max":214,"target":"present","response":"present","rt":1994,"correct":true,"confidence":-1},{"trial_n":72,"min":41,"max":214,"target":"present","response":"present","rt":1042,"correct":true,"confidence":-1},{"trial_n":73,"min":57,"max":198,"target":"absent","response":"present","rt":371,"correct":false,"confidence":-1},{"trial_n":74,"min":41,"max":214,"target":"absent","response":"absent","rt":208,"correct":true,"confidence":-1},{"trial_n":75,"min":41,"max":214,"target":"present","response":"present","rt":432,"correct":true,"confidence":-1},{"trial_n":76,"min":57,"max":198,"target":"absent","response":"absent","rt":250,"correct":true,"confidence":-1},{"trial_n":77,"min":57,"max":198,"target":"present","response":"present","rt":266,"correct":true,"confidence":-1},{"trial_n":78,"min":73,"max":182,"target":"absent","response":"absent","rt":347,"correct":true,"confidence":-1},{"trial_n":79,"min":73,"max":182,"target":"absent","response":"absent","rt":400.99999999997,"correct":true,"confidence":-1},{"trial_n":80,"min":89,"max":166,"target":"present","response":"present","rt":101,"correct":true,"confidence":-1},{"trial_n":81,"min":89,"max":166,"target":"absent","response":"present","rt":128,"correct":false,"confidence":-1},{"trial_n":82,"min":81,"max":174,"target":"present","response":"present","rt":630,"correct":true,"confidence":-1},{"trial_n":83,"min":81,"max":174,"target":"absent","response":"absent","rt":844,"correct":true,"confidence":-1},{"trial_n":84,"min":89,"max":166,"target":"absent","response":"absent","rt":559,"correct":true,"confidence":-1},{"trial_n":85,"min":89,"max":166,"target":"absent","response":"absent","rt":539,"correct":true,"confidence":-1},{"trial_n":86,"min":97,"max":158,"target":"present","response":"absent","rt":2124,"correct":false,"confidence":-1},{"trial_n":87,"min":89,"max":166,"target":"absent","response":"absent","rt":692,"correct":true,"confidence":-1},{"trial_n":88,"min":89,"max":166,"target":"present","response":"present","rt":235,"correct":true,"confidence":-1},{"trial_n":89,"min":97,"max":158,"target":"absent","response":"absent","rt":443,"correct":true,"confidence":-1},{"trial_n":90,"min":97,"max":158,"target":"absent","response":"absent","rt":1521,"correct":true,"confidence":-1},{"trial_n":91,"min":101,"max":154,"target":"present","response":"present","rt":721.99999999997,"correct":true,"confidence":4},{"trial_n":92,"min":101,"max":154,"target":"present","response":"present","rt":805,"correct":true,"confidence":5},{"trial_n":93,"min":105,"max":150,"target":"present","response":"absent","rt":769,"correct":false,"confidence":1},{"trial_n":94,"min":101,"max":154,"target":"present","response":"absent","rt":530,"correct":false,"confidence":1},{"trial_n":95,"min":97,"max":158,"target":"absent","response":"present","rt":615.99999999997,"correct":false,"confidence":1},{"trial_n":96,"min":93,"max":162,"target":"present","response":"absent","rt":358,"correct":false,"confidence":1},{"trial_n":97,"min":89,"max":166,"target":"absent","response":"absent","rt":327,"correct":true,"confidence":1},{"trial_n":98,"min":89,"max":166,"target":"absent","response":"present","rt":315.99999999997,"correct":false,"confidence":1},{"trial_n":99,"min":85,"max":170,"target":"absent","response":"present","rt":619.00000000003,"correct":false,"confidence":1},{"trial_n":100,"min":81,"max":174,"target":"absent","response":"present","rt":643,"correct":false,"confidence":1},{"trial_n":101,"min":79,"max":176,"target":"present","response":"present","rt":282,"correct":true,"confidence":1},{"trial_n":102,"min":79,"max":176,"target":"absent","response":"absent","rt":304,"correct":true,"confidence":1},{"trial_n":103,"min":81,"max":174,"target":"absent","response":"absent","rt":363,"correct":true,"confidence":1},{"trial_n":104,"min":81,"max":174,"target":"present","response":"present","rt":344,"correct":true,"confidence":1},{"trial_n":105,"min":83,"max":172,"target":"present","response":"present","rt":343,"correct":true,"confidence":1},{"trial_n":106,"min":83,"max":172,"target":"present","response":"absent","rt":179,"correct":false,"confidence":1},{"trial_n":107,"min":81,"max":174,"target":"present","response":"present","rt":328,"correct":true,"confidence":1},{"trial_n":108,"min":81,"max":174,"target":"present","response":"absent","rt":726,"correct":false,"confidence":1},{"trial_n":109,"min":79,"max":176,"target":"absent","response":"absent","rt":572.99999999994,"correct":true,"confidence":1},{"trial_n":110,"min":79,"max":176,"target":"absent","response":"absent","rt":259,"correct":true,"confidence":1},{"trial_n":111,"min":80,"max":175,"target":"present","response":"present","rt":247,"correct":true,"confidence":1},{"trial_n":112,"min":80,"max":175,"target":"present","response":"present","rt":77,"correct":true,"confidence":1},{"trial_n":113,"min":81,"max":174,"target":"present","response":"present","rt":184,"correct":true,"confidence":1},{"trial_n":114,"min":81,"max":174,"target":"absent","response":"absent","rt":279,"correct":true,"confidence":1},{"trial_n":115,"min":82,"max":173,"target":"absent","response":"absent","rt":343,"correct":true,"confidence":1},{"trial_n":116,"min":82,"max":173,"target":"present","response":"present","rt":1951,"correct":true,"confidence":3},{"trial_n":117,"min":83,"max":172,"target":"present","response":"present","rt":658.99999999994,"correct":true,"confidence":3},{"trial_n":118,"min":83,"max":172,"target":"present","response":"present","rt":162,"correct":true,"confidence":4},{"trial_n":119,"min":84,"max":171,"target":"present","response":"absent","rt":282.00000000006,"correct":false,"confidence":4},{"trial_n":120,"min":83,"max":172,"target":"absent","response":"present","rt":171,"correct":false,"confidence":4},{"trial_n":121,"min":82,"max":173,"target":"absent","response":"absent","rt":2511,"correct":true,"confidence":4},{"trial_n":122,"min":82,"max":173,"target":"present","response":"present","rt":365,"correct":true,"confidence":3},{"trial_n":123,"min":83,"max":172,"target":"absent","response":"present","rt":218.00000000006,"correct":false,"confidence":3},{"trial_n":124,"min":82,"max":173,"target":"present","response":"present","rt":356,"correct":true,"confidence":3},{"trial_n":125,"min":82,"max":173,"target":"absent","response":"present","rt":508,"correct":false,"confidence":4},{"trial_n":126,"min":81,"max":174,"target":"present","response":"present","rt":402,"correct":true,"confidence":3},{"trial_n":127,"min":81,"max":174,"target":"present","response":"present","rt":650,"correct":true,"confidence":3},{"trial_n":128,"min":82,"max":173,"target":"absent","response":"absent","rt":499,"correct":true,"confidence":4},{"trial_n":129,"min":82,"max":173,"target":"present","response":"present","rt":479,"correct":true,"confidence":1},{"trial_n":130,"min":83,"max":172,"target":"present","response":"present","rt":407,"correct":true,"confidence":2},{"trial_n":131,"min":83,"max":172,"target":"absent","response":"present","rt":369.00000000006,"correct":false,"confidence":1},{"trial_n":132,"min":82,"max":173,"target":"present","response":"absent","rt":650,"correct":false,"confidence":4},{"trial_n":133,"min":81,"max":174,"target":"present","response":"absent","rt":685,"correct":false,"confidence":3},{"trial_n":134,"min":80,"max":175,"target":"absent","response":"absent","rt":829,"correct":true,"confidence":3},{"trial_n":135,"min":80,"max":175,"target":"absent","response":"present","rt":730.00000000006,"correct":false,"confidence":3},{"trial_n":136,"min":79,"max":176,"target":"absent","response":"absent","rt":290,"correct":true,"confidence":5},{"trial_n":137,"min":79,"max":176,"target":"absent","response":"absent","rt":824,"correct":true,"confidence":4},{"trial_n":138,"min":80,"max":175,"target":"absent","response":"present","rt":494,"correct":false,"confidence":4},{"trial_n":139,"min":79,"max":176,"target":"present","response":"absent","rt":223,"correct":false,"confidence":4},{"trial_n":140,"min":78,"max":177,"target":"present","response":"present","rt":92,"correct":true,"confidence":3}]