[{"trial_n":1,"min":25,"max":230,"target":"present","response":"absent","rt":6839.700000003,"correct":false,"confidence":-1},{"trial_n":2,"min":25,"max":230,"target":"present","response":"present","rt":1295.799999997,"correct":true,"confidence":-1},{"trial_n":3,"min":25,"max":230,"target":"absent","response":"absent","rt":1230.799999997,"correct":true,"confidence":-1},{"trial_n":4,"min":41,"max":214,"target":"absent","response":"absent","rt":667.60000000149,"correct":true,"confidence":-1},{"trial_n":5,"min":41,"max":214,"target":"present","response":"present","rt":817.79999999702,"correct":true,"confidence":-1},{"trial_n":6,"min":57,"max":198,"target":"absent","response":"absent","rt":731.19999999553,"correct":true,"confidence":-1},{"trial_n":7,"min":57,"max":198,"target":"absent","response":"absent","rt":611.70000000298,"correct":true,"confidence":-1},{"trial_n":8,"min":73,"max":182,"target":"present","response":"present","rt":588.79999999702,"correct":true,"confidence":-1},{"trial_n":9,"min":73,"max":182,"target":"absent","response":"absent","rt":360,"correct":true,"confidence":-1},{"trial_n":10,"min":89,"max":166,"target":"absent","response":"absent","rt":311.20000000298,"correct":true,"confidence":-1},{"trial_n":11,"min":89,"max":166,"target":"absent","response":"absent","rt":284.29999999702,"correct":true,"confidence":-1},{"trial_n":12,"min":97,"max":158,"target":"present","response":"absent","rt":243.90000000596,"correct":false,"confidence":-1},{"trial_n":13,"min":89,"max":166,"target":"present","response":"absent","rt":497.29999999702,"correct":false,"confidence":-1},{"trial_n":14,"min":81,"max":174,"target":"present","response":"present","rt":361.20000000298,"correct":true,"confidence":-1},{"trial_n":15,"min":81,"max":174,"target":"absent","response":"present","rt":427.90000000596,"correct":false,"confidence":-1},{"trial_n":16,"min":73,"max":182,"target":"present","response":"absent","rt":379.5,"correct":false,"confidence":-1},{"trial_n":17,"min":65,"max":190,"target":"present","response":"present","rt":398.70000000298,"correct":true,"confidence":-1},{"trial_n":18,"min":65,"max":190,"target":"present","response":"absent","rt":193.40000000596,"correct":false,"confidence":-1},{"trial_n":19,"min":57,"max":198,"target":"present","response":"present","rt":371,"correct":true,"confidence":-1},{"trial_n":20,"min":57,"max":198,"target":"absent","response":"absent","rt":435.20000000298,"correct":true,"confidence":-1},{"trial_n":21,"min":61,"max":194,"target":"present","response":"present","rt":216.39999999851,"correct":true,"confidence":4},{"trial_n":22,"min":61,"max":194,"target":"absent","response":"absent","rt":469.20000000298,"correct":true,"confidence":3},{"trial_n":23,"min":65,"max":190,"target":"absent","response":"absent","rt":700.5,"correct":true,"confidence":3},{"trial_n":24,"min":65,"max":190,"target":"present","response":"present","rt":326,"correct":true,"confidence":5},{"trial_n":25,"min":69,"max":186,"target":"present","response":"present","rt":717,"correct":true,"confidence":5},{"trial_n":26,"min":69,"max":186,"target":"absent","response":"present","rt":1759.299999997,"correct":false,"confidence":3},{"trial_n":27,"min":65,"max":190,"target":"absent","response":"present","rt":626.10000000149,"correct":false,"confidence":3},{"trial_n":28,"min":61,"max":194,"target":"absent","response":"absent","rt":377.59999999404,"correct":true,"confidence":1},{"trial_n":29,"min":61,"max":194,"target":"present","response":"present","rt":438.60000000149,"correct":true,"confidence":5},{"trial_n":30,"min":65,"max":190,"target":"absent","response":"absent","rt":1753.3000000045,"correct":true,"confidence":2},{"trial_n":31,"min":65,"max":190,"target":"present","response":"present","rt":608.20000000298,"correct":true,"confidence":5},{"trial_n":32,"min":67,"max":188,"target":"absent","response":"absent","rt":535.79999999702,"correct":true,"confidence":3},{"trial_n":33,"min":67,"max":188,"target":"absent","response":"absent","rt":527.79999999702,"correct":true,"confidence":4},{"trial_n":34,"min":69,"max":186,"target":"present","response":"present","rt":359.70000000298,"correct":true,"confidence":4},{"trial_n":35,"min":69,"max":186,"target":"absent","response":"absent","rt":494.70000000298,"correct":true,"confidence":4},{"trial_n":36,"min":71,"max":184,"target":"present","response":"present","rt":619.5,"correct":true,"confidence":4},{"trial_n":37,"min":71,"max":184,"target":"absent","response":"absent","rt":703.39999999851,"correct":true,"confidence":3},{"trial_n":38,"min":73,"max":182,"target":"present","response":"present","rt":668.69999999553,"correct":true,"confidence":3},{"trial_n":39,"min":73,"max":182,"target":"present","response":"present","rt":444.5,"correct":true,"confidence":4},{"trial_n":40,"min":75,"max":180,"target":"present","response":"present","rt":507.20000000298,"correct":true,"confidence":5},{"trial_n":41,"min":75,"max":180,"target":"absent","response":"absent","rt":473,"correct":true,"confidence":3},{"trial_n":42,"min":76,"max":179,"target":"absent","response":"absent","rt":535.5,"correct":true,"confidence":3},{"trial_n":43,"min":76,"max":179,"target":"present","response":"present","rt":1164,"correct":true,"confidence":4},{"trial_n":44,"min":77,"max":178,"target":"present","response":"present","rt":687.5,"correct":true,"confidence":4},{"trial_n":45,"min":77,"max":178,"target":"present","response":"absent","rt":1146,"correct":false,"confidence":2},{"trial_n":46,"min":76,"max":179,"target":"present","response":"absent","rt":1823.3999999985,"correct":false,"confidence":3},{"trial_n":47,"min":75,"max":180,"target":"present","response":"present","rt":385.89999999851,"correct":true,"confidence":5},{"trial_n":48,"min":75,"max":180,"target":"absent","response":"absent","rt":695.20000000298,"correct":true,"confidence":4},{"trial_n":49,"min":76,"max":179,"target":"absent","response":"absent","rt":764.20000000298,"correct":true,"confidence":4},{"trial_n":50,"min":76,"max":179,"target":"present","response":"present","rt":386.10000000149,"correct":true,"confidence":4},{"trial_n":51,"min":77,"max":178,"target":"absent","response":"absent","rt":478.40000000596,"correct":true,"confidence":3},{"trial_n":52,"min":77,"max":178,"target":"absent","response":"absent","rt":448.30000000447,"correct":true,"confidence":4},{"trial_n":53,"min":78,"max":177,"target":"absent","response":"absent","rt":500.29999999702,"correct":true,"confidence":4},{"trial_n":54,"min":78,"max":177,"target":"present","response":"present","rt":508.5,"correct":true,"confidence":4},{"trial_n":55,"min":79,"max":176,"target":"absent","response":"absent","rt":1552.3999999985,"correct":true,"confidence":4},{"trial_n":56,"min":79,"max":176,"target":"present","response":"present","rt":1007.1000000015,"correct":true,"confidence":5},{"trial_n":57,"min":80,"max":175,"target":"absent","response":"absent","rt":659.10000000149,"correct":true,"confidence":3},{"trial_n":58,"min":80,"max":175,"target":"present","response":"absent","rt":751.20000000298,"correct":false,"confidence":3},{"trial_n":59,"min":79,"max":176,"target":"present","response":"present","rt":575.80000000447,"correct":true,"confidence":3},{"trial_n":60,"min":79,"max":176,"target":"absent","response":"absent","rt":768.19999999553,"correct":true,"confidence":3},{"trial_n":61,"min":80,"max":175,"target":"absent","response":"absent","rt":598.39999999851,"correct":true,"confidence":3},{"trial_n":62,"min":80,"max":175,"target":"present","response":"absent","rt":1618.200000003,"correct":false,"confidence":2},{"trial_n":63,"min":79,"max":176,"target":"present","response":"present","rt":581.60000000149,"correct":true,"confidence":5},{"trial_n":64,"min":79,"max":176,"target":"absent","response":"absent","rt":864.39999999851,"correct":true,"confidence":4},{"trial_n":65,"min":80,"max":175,"target":"absent","response":"absent","rt":619.89999999851,"correct":true,"confidence":4},{"trial_n":66,"min":80,"max":175,"target":"present","response":"present","rt":504.10000000149,"correct":true,"confidence":4},{"trial_n":67,"min":81,"max":174,"target":"present","response":"present","rt":536.40000000596,"correct":true,"confidence":4},{"trial_n":68,"min":81,"max":174,"target":"present","response":"absent","rt":935.10000000149,"correct":false,"confidence":3},{"trial_n":69,"min":80,"max":175,"target":"absent","response":"absent","rt":972.5,"correct":true,"confidence":4},{"trial_n":70,"min":80,"max":175,"target":"absent","response":"absent","rt":885.10000000149,"correct":true,"confidence":4},{"trial_n":71,"min":41,"max":214,"target":"present","response":"present","rt":2214.200000003,"correct":true,"confidence":-1},{"trial_n":72,"min":41,"max":214,"target":"present","response":"present","rt":675.10000000149,"correct":true,"confidence":-1},{"trial_n":73,"min":57,"max":198,"target":"absent","response":"absent","rt":343.89999999851,"correct":true,"confidence":-1},{"trial_n":74,"min":57,"max":198,"target":"absent","response":"present","rt":486.5,"correct":false,"confidence":-1},{"trial_n":75,"min":41,"max":214,"target":"present","response":"present","rt":313.59999999404,"correct":true,"confidence":-1},{"trial_n":76,"min":41,"max":214,"target":"absent","response":"absent","rt":405.79999999702,"correct":true,"confidence":-1},{"trial_n":77,"min":57,"max":198,"target":"absent","response":"absent","rt":362.89999999851,"correct":true,"confidence":-1},{"trial_n":78,"min":57,"max":198,"target":"present","response":"present","rt":334.29999999702,"correct":true,"confidence":-1},{"trial_n":79,"min":73,"max":182,"target":"present","response":"present","rt":462.60000000149,"correct":true,"confidence":-1},{"trial_n":80,"min":73,"max":182,"target":"absent","response":"absent","rt":384.5,"correct":true,"confidence":-1},{"trial_n":81,"min":81,"max":174,"target":"absent","response":"absent","rt":529,"correct":true,"confidence":-1},{"trial_n":82,"min":81,"max":174,"target":"absent","response":"present","rt":582.20000000298,"correct":false,"confidence":-1},{"trial_n":83,"min":73,"max":182,"target":"absent","response":"absent","rt":525.39999999851,"correct":true,"confidence":-1},{"trial_n":84,"min":73,"max":182,"target":"present","response":"present","rt":298,"correct":true,"confidence":-1},{"trial_n":85,"min":81,"max":174,"target":"present","response":"present","rt":872.10000000149,"correct":true,"confidence":-1},{"trial_n":86,"min":81,"max":174,"target":"present","response":"present","rt":303.10000000149,"correct":true,"confidence":-1},{"trial_n":87,"min":89,"max":166,"target":"absent","response":"absent","rt":3640.1999999955,"correct":true,"confidence":-1},{"trial_n":88,"min":89,"max":166,"target":"absent","response":"absent","rt":483.60000000149,"correct":true,"confidence":-1},{"trial_n":89,"min":97,"max":158,"target":"absent","response":"present","rt":339.89999999851,"correct":false,"confidence":-1},{"trial_n":90,"min":89,"max":166,"target":"present","response":"present","rt":439.79999999702,"correct":true,"confidence":-1},{"trial_n":91,"min":89,"max":166,"target":"absent","response":"absent","rt":347.80000000447,"correct":true,"confidence":3},{"trial_n":92,"min":93,"max":162,"target":"present","response":"absent","rt":548.10000000149,"correct":false,"confidence":3},{"trial_n":93,"min":89,"max":166,"target":"absent","response":"present","rt":4210.3000000045,"correct":false,"confidence":1},{"trial_n":94,"min":85,"max":170,"target":"present","response":"present","rt":414.20000000298,"correct":true,"confidence":3},{"trial_n":95,"min":85,"max":170,"target":"present","response":"present","rt":266.90000000596,"correct":true,"confidence":4},{"trial_n":96,"min":89,"max":166,"target":"absent","response":"absent","rt":1027.1999999955,"correct":true,"confidence":3},{"trial_n":97,"min":89,"max":166,"target":"present","response":"present","rt":1698.6000000015,"correct":true,"confidence":2},{"trial_n":98,"min":93,"max":162,"target":"present","response":"present","rt":760.79999999702,"correct":true,"confidence":2},{"trial_n":99,"min":93,"max":162,"target":"present","response":"present","rt":687.39999999851,"correct":true,"confidence":3},{"trial_n":100,"min":97,"max":158,"target":"absent","response":"absent","rt":790.70000000298,"correct":true,"confidence":2},{"trial_n":101,"min":97,"max":158,"target":"absent","response":"absent","rt":1675.299999997,"correct":true,"confidence":2},{"trial_n":102,"min":99,"max":156,"target":"absent","response":"absent","rt":714.10000000149,"correct":true,"confidence":3},{"trial_n":103,"min":99,"max":156,"target":"absent","response":"absent","rt":2349.6000000015,"correct":true,"confidence":2},{"trial_n":104,"min":101,"max":154,"target":"absent","response":"absent","rt":534.39999999851,"correct":true,"confidence":1},{"trial_n":105,"min":101,"max":154,"target":"absent","response":"present","rt":1050.8999999985,"correct":false,"confidence":2},{"trial_n":106,"min":99,"max":156,"target":"present","response":"absent","rt":850.19999999553,"correct":false,"confidence":2},{"trial_n":107,"min":97,"max":158,"target":"present","response":"present","rt":942.39999999851,"correct":true,"confidence":3},{"trial_n":108,"min":97,"max":158,"target":"present","response":"absent","rt":982.30000000447,"correct":false,"confidence":2},{"trial_n":109,"min":95,"max":160,"target":"absent","response":"present","rt":437.39999999851,"correct":false,"confidence":2},{"trial_n":110,"min":93,"max":162,"target":"absent","response":"absent","rt":1314.799999997,"correct":true,"confidence":2},{"trial_n":111,"min":93,"max":162,"target":"present","response":"present","rt":360.39999999851,"correct":true,"confidence":3},{"trial_n":112,"min":94,"max":161,"target":"present","response":"present","rt":1680,"correct":true,"confidence":2},{"trial_n":113,"min":94,"max":161,"target":"present","response":"absent","rt":2000.3000000045,"correct":false,"confidence":1},{"trial_n":114,"min":93,"max":162,"target":"absent","response":"present","rt":468.10000000149,"correct":false,"confidence":2},{"trial_n":115,"min":92,"max":163,"target":"absent","response":"absent","rt":517.29999999702,"correct":true,"confidence":3},{"trial_n":116,"min":92,"max":163,"target":"present","response":"present","rt":733.70000000298,"correct":true,"confidence":2},{"trial_n":117,"min":93,"max":162,"target":"present","response":"present","rt":442.69999999553,"correct":true,"confidence":2},{"trial_n":118,"min":93,"max":162,"target":"present","response":"absent","rt":915.5,"correct":false,"confidence":2},{"trial_n":119,"min":92,"max":163,"target":"present","response":"present","rt":662.5,"correct":true,"confidence":3},{"trial_n":120,"min":92,"max":163,"target":"absent","response":"absent","rt":949.30000000447,"correct":true,"confidence":2},{"trial_n":121,"min":93,"max":162,"target":"present","response":"absent","rt":666,"correct":false,"confidence":2},{"trial_n":122,"min":92,"max":163,"target":"absent","response":"absent","rt":1335.3999999985,"correct":true,"confidence":2},{"trial_n":123,"min":92,"max":163,"target":"present","response":"present","rt":595,"correct":true,"confidence":3},{"trial_n":124,"min":93,"max":162,"target":"absent","response":"absent","rt":457.39999999851,"correct":true,"confidence":2},{"trial_n":125,"min":93,"max":162,"target":"present","response":"absent","rt":555.10000000149,"correct":false,"confidence":1},{"trial_n":126,"min":92,"max":163,"target":"present","response":"absent","rt":1616.1000000015,"correct":false,"confidence":1},{"trial_n":127,"min":91,"max":164,"target":"absent","response":"present","rt":794.89999999851,"correct":false,"confidence":2},{"trial_n":128,"min":90,"max":165,"target":"present","response":"present","rt":469.39999999851,"correct":true,"confidence":3},{"trial_n":129,"min":90,"max":165,"target":"present","response":"present","rt":460.39999999851,"correct":true,"confidence":3},{"trial_n":130,"min":91,"max":164,"target":"present","response":"absent","rt":874.70000000298,"correct":false,"confidence":2},{"trial_n":131,"min":90,"max":165,"target":"present","response":"present","rt":376.19999999553,"correct":true,"confidence":4},{"trial_n":132,"min":90,"max":165,"target":"present","response":"present","rt":522.39999999851,"correct":true,"confidence":3},{"trial_n":133,"min":91,"max":164,"target":"absent","response":"absent","rt":968.5,"correct":true,"confidence":2},{"trial_n":134,"min":91,"max":164,"target":"absent","response":"present","rt":760.29999999702,"correct":false,"confidence":2},{"trial_n":135,"min":90,"max":165,"target":"present","response":"present","rt":490.30000000447,"correct":true,"confidence":3},{"trial_n":136,"min":90,"max":165,"target":"present","response":"present","rt":743.39999999851,"correct":true,"confidence":3},{"trial_n":137,"min":91,"max":164,"target":"absent","response":"absent","rt":913,"correct":true,"confidence":2},{"trial_n":138,"min":91,"max":164,"target":"absent","response":"absent","rt":866.39999999851,"correct":true,"confidence":2},{"trial_n":139,"min":92,"max":163,"target":"absent","response":"absent","rt":774.10000000149,"correct":true,"confidence":2},{"trial_n":140,"min":92,"max":163,"target":"absent","response":"absent","rt":865.5,"correct":true,"confidence":2}]