[{"trial_n":1,"span":8,"encoder":"10971047","distractor":"10971057","target":"present","response":"present","rt":"4262.6000000015","correct":true,"confidence":-1},{"trial_n":2,"span":8,"encoder":"48789841","distractor":"48782841","target":"present","response":"present","rt":"4051.6999999955","correct":true,"confidence":-1},{"trial_n":3,"span":10,"encoder":"8082969290","distractor":"8082369290","target":"absent","response":"absent","rt":"3229.6000000015","correct":true,"confidence":-1},{"trial_n":4,"span":10,"encoder":"3897634122","distractor":"3897634182","target":"absent","response":"absent","rt":"1471.6999999955","correct":true,"confidence":-1},{"trial_n":5,"span":12,"encoder":"609844154958","distractor":"309844154958","target":"present","response":"present","rt":"4311","correct":true,"confidence":-1},{"trial_n":6,"span":12,"encoder":"304425685317","distractor":"304425685311","target":"absent","response":"absent","rt":"3262.3999999985","correct":true,"confidence":-1},{"trial_n":7,"span":14,"encoder":"03080296864517","distractor":"03080296867517","target":"present","response":"present","rt":"4642","correct":true,"confidence":-1},{"trial_n":8,"span":14,"encoder":"23386613224984","distractor":"23386613274984","target":"present","response":"present","rt":"4702.1000000015","correct":true,"confidence":-1},{"trial_n":9,"span":16,"encoder":"9429580636469003","distractor":"9429580636469103","target":"present","response":"present","rt":"5764.3000000045","correct":true,"confidence":-1},{"trial_n":10,"span":16,"encoder":"2435161585557946","distractor":"2435161585557947","target":"present","response":"absent","rt":"4359.8999999985","correct":false,"confidence":-1},{"trial_n":11,"span":14,"encoder":"81892276995225","distractor":"81892276985225","target":"absent","response":"present","rt":"1922.8999999985","correct":false,"confidence":-1},{"trial_n":12,"span":13,"encoder":"8975614102569","distractor":"8975614102539","target":"present","response":"present","rt":"2368.1000000015","correct":true,"confidence":-1},{"trial_n":13,"span":13,"encoder":"1039804505350","distractor":"1039404505350","target":"absent","response":"absent","rt":"3013.6000000015","correct":true,"confidence":-1},{"trial_n":14,"span":14,"encoder":"21528296652055","distractor":"21528290652055","target":"present","response":"absent","rt":"4655.3999999985","correct":false,"confidence":-1},{"trial_n":15,"span":13,"encoder":"7264022974600","distractor":"7264002974600","target":"absent","response":"present","rt":"4825.8000000045","correct":false,"confidence":-1},{"trial_n":16,"span":12,"encoder":"553889058074","distractor":"553889058064","target":"present","response":"absent","rt":"3311.8999999985","correct":false,"confidence":-1},{"trial_n":17,"span":11,"encoder":"55253599353","distractor":"55253599553","target":"absent","response":"present","rt":"4228.1999999955","correct":false,"confidence":-1},{"trial_n":18,"span":10,"encoder":"1950376544","distractor":"1950376644","target":"present","response":"present","rt":"4490.400000006","correct":true,"confidence":-1},{"trial_n":19,"span":10,"encoder":"5792108794","distractor":"5792198794","target":"absent","response":"absent","rt":"3798.5","correct":true,"confidence":-1},{"trial_n":20,"span":11,"encoder":"43392645126","distractor":"43392615126","target":"absent","response":"present","rt":"3474.099999994","correct":false,"confidence":-1},{"trial_n":21,"span":10,"encoder":"8639898465","distractor":"8639898865","target":"absent","response":"absent","rt":"4209.799999997","correct":true,"confidence":3},{"trial_n":22,"span":10,"encoder":"2538488676","distractor":"2538488176","target":"absent","response":"present","rt":"3669.5","correct":false,"confidence":3},{"trial_n":23,"span":9,"encoder":"445439510","distractor":"445479510","target":"present","response":"present","rt":"5613.6000000015","correct":true,"confidence":3},{"trial_n":24,"span":9,"encoder":"231033120","distractor":"231033129","target":"present","response":"present","rt":"4847.6999999955","correct":true,"confidence":3},{"trial_n":25,"span":10,"encoder":"5474664020","distractor":"5474624020","target":"absent","response":"present","rt":"3713.1999999955","correct":false,"confidence":3},{"trial_n":26,"span":9,"encoder":"398469621","distractor":"398429621","target":"present","response":"present","rt":"3461.200000003","correct":true,"confidence":4},{"trial_n":27,"span":9,"encoder":"469925771","distractor":"462925771","target":"absent","response":"present","rt":"4424.6999999955","correct":false,"confidence":4},{"trial_n":28,"span":8,"encoder":"36005205","distractor":"36035205","target":"absent","response":"absent","rt":"3206.700000003","correct":true,"confidence":3},{"trial_n":29,"span":8,"encoder":"05591131","distractor":"05592131","target":"absent","response":"absent","rt":"3252.6000000015","correct":true,"confidence":3},{"trial_n":30,"span":9,"encoder":"161102217","distractor":"761102217","target":"absent","response":"present","rt":"4169.5","correct":false,"confidence":4},{"trial_n":31,"span":8,"encoder":"23037355","distractor":"22037355","target":"present","response":"present","rt":"2946.700000003","correct":true,"confidence":4},{"trial_n":32,"span":8,"encoder":"58382398","distractor":"58382498","target":"present","response":"present","rt":"3560.200000003","correct":true,"confidence":3},{"trial_n":33,"span":9,"encoder":"062964181","distractor":"062969181","target":"present","response":"present","rt":"7726.6000000015","correct":true,"confidence":3},{"trial_n":34,"span":9,"encoder":"519861861","distractor":"519861061","target":"absent","response":"absent","rt":"5722.8000000045","correct":true,"confidence":3},{"trial_n":35,"span":10,"encoder":"0521560394","distractor":"9521560394","target":"present","response":"present","rt":"3806.5","correct":true,"confidence":3},{"trial_n":36,"span":10,"encoder":"8838800763","distractor":"8838800793","target":"absent","response":"present","rt":"3021.200000003","correct":false,"confidence":4},{"trial_n":37,"span":9,"encoder":"849822032","distractor":"849822532","target":"present","response":"present","rt":"3647.3999999985","correct":true,"confidence":4},{"trial_n":38,"span":9,"encoder":"452301922","distractor":"432301922","target":"absent","response":"absent","rt":"2273.3000000045","correct":true,"confidence":2},{"trial_n":39,"span":10,"encoder":"2651399429","distractor":"1651399429","target":"present","response":"present","rt":"3014.6999999955","correct":true,"confidence":3},{"trial_n":40,"span":10,"encoder":"8273676632","distractor":"8273676032","target":"present","response":"present","rt":"4780.799999997","correct":true,"confidence":3},{"trial_n":41,"span":11,"encoder":"65823681043","distractor":"65423681043","target":"present","response":"absent","rt":"5321.1000000015","correct":false,"confidence":2},{"trial_n":42,"span":10,"encoder":"0945658075","distractor":"0942658075","target":"present","response":"absent","rt":"3691.6999999955","correct":false,"confidence":1},{"trial_n":43,"span":9,"encoder":"001209651","distractor":"001209751","target":"absent","response":"absent","rt":"3391.8999999985","correct":true,"confidence":4},{"trial_n":44,"span":9,"encoder":"692214624","distractor":"692215624","target":"absent","response":"present","rt":"4661.599999994","correct":false,"confidence":3},{"trial_n":45,"span":8,"encoder":"80985710","distractor":"40985710","target":"absent","response":"absent","rt":"2261.6000000015","correct":true,"confidence":4},{"trial_n":46,"span":8,"encoder":"53968308","distractor":"53968328","target":"absent","response":"absent","rt":"2793.299999997","correct":true,"confidence":4},{"trial_n":47,"span":9,"encoder":"484543428","distractor":"484543468","target":"absent","response":"absent","rt":"3110.3999999985","correct":true,"confidence":3},{"trial_n":48,"span":9,"encoder":"169802218","distractor":"109802218","target":"absent","response":"absent","rt":"2975.1000000015","correct":true,"confidence":3},{"trial_n":49,"span":10,"encoder":"2225014086","distractor":"2225014986","target":"absent","response":"absent","rt":"5573","correct":true,"confidence":3},{"trial_n":50,"span":10,"encoder":"6167169230","distractor":"4167169230","target":"present","response":"absent","rt":"3899.299999997","correct":false,"confidence":4},{"trial_n":51,"span":9,"encoder":"931311861","distractor":"931381861","target":"present","response":"present","rt":"3911","correct":true,"confidence":3},{"trial_n":52,"span":9,"encoder":"974740801","distractor":"974940801","target":"absent","response":"absent","rt":"4618.799999997","correct":true,"confidence":3},{"trial_n":53,"span":10,"encoder":"2768661488","distractor":"2768061488","target":"present","response":"present","rt":"3772.700000003","correct":true,"confidence":3},{"trial_n":54,"span":10,"encoder":"6773270785","distractor":"6743270785","target":"present","response":"absent","rt":"5609.1999999955","correct":false,"confidence":3},{"trial_n":55,"span":9,"encoder":"648217072","distractor":"648017072","target":"absent","response":"present","rt":"3558.700000003","correct":false,"confidence":4},{"trial_n":56,"span":8,"encoder":"01919540","distractor":"01916540","target":"present","response":"present","rt":"3559.8999999985","correct":true,"confidence":4},{"trial_n":57,"span":8,"encoder":"27249972","distractor":"27279972","target":"present","response":"present","rt":"3224.299999997","correct":true,"confidence":4},{"trial_n":58,"span":9,"encoder":"806478950","distractor":"806478955","target":"absent","response":"absent","rt":"4162.6999999955","correct":true,"confidence":5},{"trial_n":59,"span":9,"encoder":"652540924","distractor":"652540921","target":"present","response":"absent","rt":"8058.6999999955","correct":false,"confidence":3},{"trial_n":60,"span":8,"encoder":"31854243","distractor":"41854243","target":"present","response":"present","rt":"3678.3000000045","correct":true,"confidence":3},{"trial_n":61,"span":8,"encoder":"25396999","distractor":"35396999","target":"absent","response":"present","rt":"3115.200000003","correct":false,"confidence":4},{"trial_n":62,"span":7,"encoder":"8877167","distractor":"8887167","target":"present","response":"present","rt":"2239.799999997","correct":true,"confidence":5},{"trial_n":63,"span":7,"encoder":"3583849","distractor":"3583749","target":"present","response":"present","rt":"3653.5","correct":true,"confidence":4},{"trial_n":64,"span":8,"encoder":"93069991","distractor":"93039991","target":"absent","response":"absent","rt":"2185.6000000015","correct":true,"confidence":5},{"trial_n":65,"span":8,"encoder":"67089630","distractor":"67082630","target":"present","response":"present","rt":"3895.700000003","correct":true,"confidence":3},{"trial_n":66,"span":9,"encoder":"605375110","distractor":"605375610","target":"absent","response":"absent","rt":"4335.3999999985","correct":true,"confidence":2},{"trial_n":67,"span":9,"encoder":"606614569","distractor":"606614509","target":"absent","response":"absent","rt":"2539.6999999955","correct":true,"confidence":5},{"trial_n":68,"span":10,"encoder":"1304188557","distractor":"1404188557","target":"absent","response":"absent","rt":"6544.1000000015","correct":true,"confidence":3},{"trial_n":69,"span":10,"encoder":"2253168995","distractor":"2253568995","target":"present","response":"absent","rt":"2305.6999999955","correct":false,"confidence":5},{"trial_n":70,"span":9,"encoder":"973767166","distractor":"773767166","target":"present","response":"present","rt":"4413.900000006","correct":true,"confidence":3},{"trial_n":71,"span":8,"encoder":"36230119","distractor":"36230819","target":"present","response":"absent","rt":"18985","correct":false,"confidence":-1},{"trial_n":72,"span":7,"encoder":"8662465","distractor":"8662455","target":"present","response":"absent","rt":"4541.3000000045","correct":false,"confidence":-1},{"trial_n":73,"span":6,"encoder":"448347","distractor":"448357","target":"absent","response":"absent","rt":"5041.099999994","correct":true,"confidence":-1},{"trial_n":74,"span":6,"encoder":"001020","distractor":"001060","target":"absent","response":"absent","rt":"2624.8999999985","correct":true,"confidence":-1},{"trial_n":75,"span":7,"encoder":"6786868","distractor":"6786838","target":"present","response":"present","rt":"2344.8999999985","correct":true,"confidence":-1},{"trial_n":76,"span":7,"encoder":"8734423","distractor":"8739423","target":"present","response":"present","rt":"1499.1999999955","correct":true,"confidence":-1},{"trial_n":77,"span":8,"encoder":"54858035","distractor":"54838035","target":"present","response":"present","rt":"2684.8999999985","correct":true,"confidence":-1},{"trial_n":78,"span":8,"encoder":"99522841","distractor":"99522846","target":"absent","response":"absent","rt":"5587.3999999985","correct":true,"confidence":-1},{"trial_n":79,"span":9,"encoder":"662206081","distractor":"662256081","target":"present","response":"present","rt":"2217.599999994","correct":true,"confidence":-1},{"trial_n":80,"span":9,"encoder":"957509333","distractor":"959509333","target":"absent","response":"present","rt":"2749.599999994","correct":false,"confidence":-1},{"trial_n":81,"span":8,"encoder":"90459282","distractor":"90459382","target":"absent","response":"absent","rt":"3456.099999994","correct":true,"confidence":-1},{"trial_n":82,"span":8,"encoder":"47164069","distractor":"47164065","target":"absent","response":"absent","rt":"2551.700000003","correct":true,"confidence":-1},{"trial_n":83,"span":9,"encoder":"305593688","distractor":"305293688","target":"absent","response":"absent","rt":"5530","correct":true,"confidence":-1},{"trial_n":84,"span":9,"encoder":"750988517","distractor":"650988517","target":"present","response":"absent","rt":"3073.5","correct":false,"confidence":-1},{"trial_n":85,"span":8,"encoder":"95434451","distractor":"95234451","target":"present","response":"present","rt":"6810.299999997","correct":true,"confidence":-1},{"trial_n":86,"span":8,"encoder":"16547835","distractor":"12547835","target":"present","response":"present","rt":"5883.1999999955","correct":true,"confidence":-1},{"trial_n":87,"span":9,"encoder":"803145905","distractor":"803155905","target":"present","response":"present","rt":"8992.1000000015","correct":true,"confidence":-1},{"trial_n":88,"span":9,"encoder":"721066299","distractor":"721666299","target":"absent","response":"absent","rt":"2700.5","correct":true,"confidence":-1},{"trial_n":89,"span":10,"encoder":"6857567301","distractor":"6857567371","target":"absent","response":"absent","rt":"1400.1000000015","correct":true,"confidence":-1},{"trial_n":90,"span":10,"encoder":"7943753426","distractor":"7943783426","target":"present","response":"present","rt":"3258.3999999985","correct":true,"confidence":-1},{"trial_n":91,"span":11,"encoder":"46538816852","distractor":"46538817852","target":"absent","response":"absent","rt":"6977.3000000045","correct":true,"confidence":4},{"trial_n":92,"span":11,"encoder":"34106686366","distractor":"34106686066","target":"present","response":"present","rt":"1746.1999999955","correct":true,"confidence":4},{"trial_n":93,"span":12,"encoder":"545515401419","distractor":"545517401419","target":"absent","response":"present","rt":"7152.700000003","correct":false,"confidence":2},{"trial_n":94,"span":11,"encoder":"76059854824","distractor":"76059804824","target":"present","response":"present","rt":"9255.1000000015","correct":true,"confidence":3},{"trial_n":95,"span":11,"encoder":"07637485415","distractor":"07687485415","target":"absent","response":"absent","rt":"5804.700000003","correct":true,"confidence":3},{"trial_n":96,"span":12,"encoder":"612595925610","distractor":"692595925610","target":"present","response":"absent","rt":"15503.400000006","correct":false,"confidence":2},{"trial_n":97,"span":11,"encoder":"86997381468","distractor":"86897381468","target":"present","response":"absent","rt":"12271.699999996","correct":false,"confidence":2},{"trial_n":98,"span":10,"encoder":"1740228731","distractor":"1740228741","target":"absent","response":"absent","rt":"8649.799999997","correct":true,"confidence":3},{"trial_n":99,"span":10,"encoder":"9771618768","distractor":"9771618268","target":"absent","response":"absent","rt":"3569.799999997","correct":true,"confidence":5},{"trial_n":100,"span":11,"encoder":"55160694160","distractor":"55163694160","target":"present","response":"absent","rt":"16730.200000003","correct":false,"confidence":3},{"trial_n":101,"span":10,"encoder":"8124302832","distractor":"8124302834","target":"absent","response":"absent","rt":"4686","correct":true,"confidence":2},{"trial_n":102,"span":10,"encoder":"3686964414","distractor":"3686994414","target":"present","response":"present","rt":"15826.5","correct":true,"confidence":4},{"trial_n":103,"span":11,"encoder":"75280511319","distractor":"75280511349","target":"absent","response":"absent","rt":"5521.6999999955","correct":true,"confidence":4},{"trial_n":104,"span":11,"encoder":"19664659444","distractor":"39664659444","target":"present","response":"present","rt":"9386.1000000015","correct":true,"confidence":3},{"trial_n":105,"span":12,"encoder":"000863219056","distractor":"090863219056","target":"absent","response":"absent","rt":"6836.8999999985","correct":true,"confidence":3},{"trial_n":106,"span":12,"encoder":"931755658717","distractor":"931855658717","target":"absent","response":"absent","rt":"33331.100000001","correct":true,"confidence":2},{"trial_n":107,"span":13,"encoder":"6869626908699","distractor":"6469626908699","target":"absent","response":"absent","rt":"13552.299999997","correct":true,"confidence":3},{"trial_n":108,"span":13,"encoder":"2315023936417","distractor":"2315923936417","target":"absent","response":"present","rt":"12447.5","correct":false,"confidence":2},{"trial_n":109,"span":12,"encoder":"192605014694","distractor":"192605017694","target":"absent","response":"absent","rt":"9531.3000000045","correct":true,"confidence":4},{"trial_n":110,"span":12,"encoder":"988938715378","distractor":"978938715378","target":"present","response":"absent","rt":"10396.5","correct":false,"confidence":3},{"trial_n":111,"span":11,"encoder":"44140334395","distractor":"44140334396","target":"absent","response":"absent","rt":"7066.6999999955","correct":true,"confidence":5},{"trial_n":112,"span":11,"encoder":"11421993798","distractor":"11421913798","target":"absent","response":"absent","rt":"9922.6999999955","correct":true,"confidence":2},{"trial_n":113,"span":12,"encoder":"183645968754","distractor":"184645968754","target":"present","response":"absent","rt":"14837.299999997","correct":false,"confidence":3},{"trial_n":114,"span":11,"encoder":"53312956513","distractor":"53312956613","target":"absent","response":"present","rt":"5435.6000000015","correct":false,"confidence":3},{"trial_n":115,"span":10,"encoder":"8138984100","distractor":"8738984100","target":"present","response":"present","rt":"8501.1000000015","correct":true,"confidence":4},{"trial_n":116,"span":10,"encoder":"2147724237","distractor":"2147724297","target":"absent","response":"absent","rt":"3312","correct":true,"confidence":4},{"trial_n":117,"span":11,"encoder":"04345535236","distractor":"24345535236","target":"absent","response":"present","rt":"12357.299999997","correct":false,"confidence":3},{"trial_n":118,"span":10,"encoder":"3063940189","distractor":"3063940139","target":"absent","response":"absent","rt":"4474.700000003","correct":true,"confidence":5},{"trial_n":119,"span":10,"encoder":"7832838608","distractor":"7832848608","target":"present","response":"absent","rt":"16117.299999997","correct":false,"confidence":2},{"trial_n":120,"span":9,"encoder":"574358325","distractor":"577358325","target":"present","response":"present","rt":"8038.799999997","correct":true,"confidence":3},{"trial_n":121,"span":9,"encoder":"608373328","distractor":"608173328","target":"absent","response":"absent","rt":"11209.200000003","correct":true,"confidence":2},{"trial_n":122,"span":10,"encoder":"9469508868","distractor":"9469408868","target":"present","response":"absent","rt":"3948.8000000045","correct":false,"confidence":3},{"trial_n":123,"span":9,"encoder":"012816660","distractor":"512816660","target":"present","response":"present","rt":"7378.799999997","correct":true,"confidence":4},{"trial_n":124,"span":9,"encoder":"441190841","distractor":"441100841","target":"absent","response":"absent","rt":"5300.3999999985","correct":true,"confidence":3},{"trial_n":125,"span":10,"encoder":"3684340760","distractor":"3684380760","target":"absent","response":"present","rt":"7466.6000000015","correct":false,"confidence":3},{"trial_n":126,"span":9,"encoder":"268187782","distractor":"218187782","target":"present","response":"present","rt":"6361.3000000045","correct":true,"confidence":3},{"trial_n":127,"span":9,"encoder":"673832444","distractor":"673832474","target":"present","response":"present","rt":"2469.299999997","correct":true,"confidence":5},{"trial_n":128,"span":10,"encoder":"0055810640","distractor":"4055810640","target":"present","response":"present","rt":"4564.3000000045","correct":true,"confidence":5},{"trial_n":129,"span":10,"encoder":"6235719514","distractor":"6295719514","target":"present","response":"present","rt":"14893.899999999","correct":true,"confidence":3},{"trial_n":130,"span":11,"encoder":"91925597945","distractor":"91922597945","target":"present","response":"present","rt":"9716.1999999955","correct":true,"confidence":4},{"trial_n":131,"span":11,"encoder":"66019075198","distractor":"66019075598","target":"present","response":"present","rt":"6197","correct":true,"confidence":3},{"trial_n":132,"span":12,"encoder":"578386073789","distractor":"578386053789","target":"absent","response":"present","rt":"12565.5","correct":false,"confidence":2},{"trial_n":133,"span":11,"encoder":"94185805839","distractor":"96185805839","target":"present","response":"present","rt":"10368","correct":true,"confidence":3},{"trial_n":134,"span":11,"encoder":"02269364686","distractor":"02269664686","target":"present","response":"absent","rt":"22475.100000001","correct":false,"confidence":2},{"trial_n":135,"span":10,"encoder":"7248704919","distractor":"7248704918","target":"present","response":"present","rt":"8603.6999999955","correct":true,"confidence":4},{"trial_n":136,"span":10,"encoder":"6447002527","distractor":"6447005527","target":"absent","response":"absent","rt":"6374","correct":true,"confidence":4},{"trial_n":137,"span":11,"encoder":"79425330621","distractor":"29425330621","target":"present","response":"absent","rt":"10692.100000001","correct":false,"confidence":2},{"trial_n":138,"span":10,"encoder":"0658622623","distractor":"0618622623","target":"absent","response":"absent","rt":"5336.5","correct":true,"confidence":3},{"trial_n":139,"span":10,"encoder":"7122204431","distractor":"7122804431","target":"absent","response":"absent","rt":"9680.200000003","correct":true,"confidence":3},{"trial_n":140,"span":11,"encoder":"36054232435","distractor":"35054232435","target":"present","response":"absent","rt":"7374.6000000015","correct":false,"confidence":2}]