[{"trial_n":1,"n_dots":4.25,"target":"left","response":"right","rt":2436.299999997,"correct":false,"confidence":-1},{"trial_n":2,"n_dots":4.25,"target":"left","response":"left","rt":395.60000000149,"correct":true,"confidence":-1},{"trial_n":3,"n_dots":4.25,"target":"left","response":"left","rt":346.69999999553,"correct":true,"confidence":-1},{"trial_n":4,"n_dots":3.85,"target":"left","response":"left","rt":303.30000000447,"correct":true,"confidence":-1},{"trial_n":5,"n_dots":3.85,"target":"right","response":"right","rt":438.5,"correct":true,"confidence":-1},{"trial_n":6,"n_dots":3.45,"target":"left","response":"left","rt":298.70000000298,"correct":true,"confidence":-1},{"trial_n":7,"n_dots":3.45,"target":"right","response":"right","rt":493.39999999851,"correct":true,"confidence":-1},{"trial_n":8,"n_dots":3.25,"target":"left","response":"left","rt":873.79999999702,"correct":true,"confidence":-1},{"trial_n":9,"n_dots":3.25,"target":"right","response":"right","rt":321.30000000447,"correct":true,"confidence":-1},{"trial_n":10,"n_dots":3.05,"target":"left","response":"right","rt":311.70000000298,"correct":false,"confidence":-1},{"trial_n":11,"n_dots":3.25,"target":"left","response":"right","rt":467.59999999404,"correct":false,"confidence":-1},{"trial_n":12,"n_dots":3.45,"target":"right","response":"right","rt":278.20000000298,"correct":true,"confidence":-1},{"trial_n":13,"n_dots":3.45,"target":"right","response":"right","rt":534.10000000149,"correct":true,"confidence":-1},{"trial_n":14,"n_dots":3.35,"target":"right","response":"right","rt":735.30000000447,"correct":true,"confidence":-1},{"trial_n":15,"n_dots":3.35,"target":"right","response":"right","rt":275.60000000149,"correct":true,"confidence":-1},{"trial_n":16,"n_dots":3.25,"target":"right","response":"right","rt":521.89999999851,"correct":true,"confidence":-1},{"trial_n":17,"n_dots":3.25,"target":"right","response":"left","rt":534.69999999553,"correct":false,"confidence":-1},{"trial_n":18,"n_dots":3.35,"target":"left","response":"right","rt":275.70000000298,"correct":false,"confidence":-1},{"trial_n":19,"n_dots":3.45,"target":"right","response":"right","rt":328.60000000149,"correct":true,"confidence":-1},{"trial_n":20,"n_dots":3.45,"target":"right","response":"left","rt":633.60000000149,"correct":false,"confidence":-1},{"trial_n":21,"n_dots":3.55,"target":"right","response":"left","rt":249,"correct":false,"confidence":3},{"trial_n":22,"n_dots":3.65,"target":"right","response":"right","rt":2582.1000000015,"correct":true,"confidence":3},{"trial_n":23,"n_dots":3.65,"target":"left","response":"left","rt":2093.700000003,"correct":true,"confidence":2},{"trial_n":24,"n_dots":3.55,"target":"right","response":"left","rt":824.5,"correct":false,"confidence":2},{"trial_n":25,"n_dots":3.65,"target":"left","response":"left","rt":513,"correct":true,"confidence":3},{"trial_n":26,"n_dots":3.65,"target":"right","response":"right","rt":1148,"correct":true,"confidence":3},{"trial_n":27,"n_dots":3.55,"target":"left","response":"right","rt":843,"correct":false,"confidence":3},{"trial_n":28,"n_dots":3.65,"target":"left","response":"left","rt":1028,"correct":true,"confidence":3},{"trial_n":29,"n_dots":3.65,"target":"right","response":"right","rt":347.70000000298,"correct":true,"confidence":4},{"trial_n":30,"n_dots":3.55,"target":"left","response":"right","rt":556.80000000447,"correct":false,"confidence":4},{"trial_n":31,"n_dots":3.65,"target":"right","response":"right","rt":449.19999999553,"correct":true,"confidence":3},{"trial_n":32,"n_dots":3.65,"target":"right","response":"left","rt":1305,"correct":false,"confidence":2},{"trial_n":33,"n_dots":3.75,"target":"right","response":"right","rt":295,"correct":true,"confidence":2},{"trial_n":34,"n_dots":3.75,"target":"left","response":"left","rt":538.69999999553,"correct":true,"confidence":4},{"trial_n":35,"n_dots":3.65,"target":"right","response":"right","rt":1129.8999999985,"correct":true,"confidence":2},{"trial_n":36,"n_dots":3.65,"target":"left","response":"right","rt":626.60000000149,"correct":false,"confidence":3},{"trial_n":37,"n_dots":3.75,"target":"right","response":"right","rt":828.10000000149,"correct":true,"confidence":4},{"trial_n":38,"n_dots":3.75,"target":"right","response":"right","rt":318,"correct":true,"confidence":4},{"trial_n":39,"n_dots":3.65,"target":"left","response":"left","rt":733.89999999851,"correct":true,"confidence":5},{"trial_n":40,"n_dots":3.65,"target":"right","response":"right","rt":982.79999999702,"correct":true,"confidence":4},{"trial_n":41,"n_dots":3.55,"target":"right","response":"right","rt":1427.8999999985,"correct":true,"confidence":4},{"trial_n":42,"n_dots":3.55,"target":"right","response":"right","rt":1087.1000000015,"correct":true,"confidence":3},{"trial_n":43,"n_dots":3.45,"target":"right","response":"right","rt":1237.200000003,"correct":true,"confidence":2},{"trial_n":44,"n_dots":3.45,"target":"left","response":"left","rt":1134.299999997,"correct":true,"confidence":5},{"trial_n":45,"n_dots":3.35,"target":"left","response":"left","rt":1466.3999999985,"correct":true,"confidence":4},{"trial_n":46,"n_dots":3.35,"target":"left","response":"left","rt":954.40000000596,"correct":true,"confidence":4},{"trial_n":47,"n_dots":3.25,"target":"right","response":"left","rt":653,"correct":false,"confidence":4},{"trial_n":48,"n_dots":3.35,"target":"left","response":"left","rt":1285.8999999985,"correct":true,"confidence":5},{"trial_n":49,"n_dots":3.35,"target":"left","response":"left","rt":1022.099999994,"correct":true,"confidence":3},{"trial_n":50,"n_dots":3.25,"target":"right","response":"right","rt":2160.200000003,"correct":true,"confidence":3},{"trial_n":51,"n_dots":3.25,"target":"right","response":"right","rt":1308.3000000045,"correct":true,"confidence":4},{"trial_n":52,"n_dots":3.15,"target":"right","response":"left","rt":925.20000000298,"correct":false,"confidence":3},{"trial_n":53,"n_dots":3.25,"target":"right","response":"right","rt":925.40000000596,"correct":true,"confidence":3},{"trial_n":54,"n_dots":3.25,"target":"left","response":"left","rt":1121.900000006,"correct":true,"confidence":4},{"trial_n":55,"n_dots":3.15,"target":"right","response":"right","rt":2047.6999999955,"correct":true,"confidence":1},{"trial_n":56,"n_dots":3.15,"target":"right","response":"right","rt":1040.3999999985,"correct":true,"confidence":3},{"trial_n":57,"n_dots":3.05,"target":"left","response":"left","rt":686.60000000149,"correct":true,"confidence":4},{"trial_n":58,"n_dots":3.05,"target":"left","response":"left","rt":1580,"correct":true,"confidence":3},{"trial_n":59,"n_dots":2.95,"target":"right","response":"right","rt":535.5,"correct":true,"confidence":4},{"trial_n":60,"n_dots":2.95,"target":"right","response":"right","rt":748.20000000298,"correct":true,"confidence":2},{"trial_n":61,"n_dots":2.85,"target":"left","response":"left","rt":1141.6000000015,"correct":true,"confidence":3},{"trial_n":62,"n_dots":2.85,"target":"left","response":"left","rt":1327,"correct":true,"confidence":3},{"trial_n":63,"n_dots":2.75,"target":"left","response":"right","rt":1768.3999999985,"correct":false,"confidence":3},{"trial_n":64,"n_dots":2.85,"target":"right","response":"left","rt":934.39999999851,"correct":false,"confidence":3},{"trial_n":65,"n_dots":2.95,"target":"left","response":"left","rt":872.09999999404,"correct":true,"confidence":4},{"trial_n":66,"n_dots":2.95,"target":"right","response":"right","rt":1587.6000000015,"correct":true,"confidence":3},{"trial_n":67,"n_dots":2.85,"target":"right","response":"left","rt":1011.200000003,"correct":false,"confidence":2},{"trial_n":68,"n_dots":2.95,"target":"left","response":"left","rt":642.20000000298,"correct":true,"confidence":4},{"trial_n":69,"n_dots":2.95,"target":"left","response":"left","rt":1103,"correct":true,"confidence":2},{"trial_n":70,"n_dots":2.85,"target":"right","response":"left","rt":1397.1000000015,"correct":false,"confidence":1},{"trial_n":71,"n_dots":2.95,"target":"left","response":"right","rt":652.20000000298,"correct":false,"confidence":3},{"trial_n":72,"n_dots":3.05,"target":"left","response":"left","rt":1093.8000000045,"correct":true,"confidence":3},{"trial_n":73,"n_dots":3.05,"target":"right","response":"right","rt":481.60000000149,"correct":true,"confidence":3},{"trial_n":74,"n_dots":2.95,"target":"left","response":"left","rt":1625.1000000015,"correct":true,"confidence":2},{"trial_n":75,"n_dots":2.95,"target":"left","response":"right","rt":1144.8999999985,"correct":false,"confidence":2},{"trial_n":76,"n_dots":3.05,"target":"right","response":"left","rt":1038.200000003,"correct":false,"confidence":3},{"trial_n":77,"n_dots":3.15,"target":"right","response":"right","rt":824,"correct":true,"confidence":4},{"trial_n":78,"n_dots":3.15,"target":"left","response":"left","rt":1082.799999997,"correct":true,"confidence":4},{"trial_n":79,"n_dots":3.05,"target":"right","response":"right","rt":1197.5,"correct":true,"confidence":1},{"trial_n":80,"n_dots":3.05,"target":"left","response":"left","rt":940.89999999851,"correct":true,"confidence":3},{"trial_n":81,"n_dots":2.95,"target":"left","response":"right","rt":455.09999999404,"correct":false,"confidence":2},{"trial_n":82,"n_dots":3.05,"target":"right","response":"right","rt":250.40000000596,"correct":true,"confidence":3},{"trial_n":83,"n_dots":3.05,"target":"left","response":"left","rt":782.30000000447,"correct":true,"confidence":3},{"trial_n":84,"n_dots":2.95,"target":"right","response":"right","rt":898.20000000298,"correct":true,"confidence":3},{"trial_n":85,"n_dots":2.95,"target":"left","response":"left","rt":931,"correct":true,"confidence":3},{"trial_n":86,"n_dots":2.85,"target":"left","response":"left","rt":956.80000000447,"correct":true,"confidence":5},{"trial_n":87,"n_dots":2.85,"target":"right","response":"left","rt":646.29999999702,"correct":false,"confidence":3},{"trial_n":88,"n_dots":2.95,"target":"left","response":"left","rt":838.19999999553,"correct":true,"confidence":3},{"trial_n":89,"n_dots":2.95,"target":"left","response":"left","rt":1154.1000000015,"correct":true,"confidence":4},{"trial_n":90,"n_dots":2.85,"target":"left","response":"right","rt":1267.3000000045,"correct":false,"confidence":3},{"trial_n":91,"n_dots":2.95,"target":"right","response":"right","rt":858.30000000447,"correct":true,"confidence":2},{"trial_n":92,"n_dots":2.95,"target":"left","response":"left","rt":1114.200000003,"correct":true,"confidence":3},{"trial_n":93,"n_dots":2.85,"target":"left","response":"left","rt":735.5,"correct":true,"confidence":3},{"trial_n":94,"n_dots":2.85,"target":"right","response":"left","rt":405.20000000298,"correct":false,"confidence":1},{"trial_n":95,"n_dots":2.95,"target":"left","response":"right","rt":636.5,"correct":false,"confidence":2},{"trial_n":96,"n_dots":3.05,"target":"right","response":"right","rt":374.29999999702,"correct":true,"confidence":2},{"trial_n":97,"n_dots":3.05,"target":"right","response":"right","rt":554.39999999851,"correct":true,"confidence":1},{"trial_n":98,"n_dots":2.95,"target":"right","response":"left","rt":822.20000000298,"correct":false,"confidence":3},{"trial_n":99,"n_dots":3.05,"target":"left","response":"left","rt":845.09999999404,"correct":true,"confidence":4},{"trial_n":100,"n_dots":3.05,"target":"right","response":"right","rt":872.39999999851,"correct":true,"confidence":3},{"trial_n":101,"n_dots":2.95,"target":"right","response":"right","rt":312.29999999702,"correct":true,"confidence":2},{"trial_n":102,"n_dots":2.95,"target":"left","response":"left","rt":560.70000000298,"correct":true,"confidence":4},{"trial_n":103,"n_dots":2.85,"target":"right","response":"right","rt":771.69999999553,"correct":true,"confidence":4},{"trial_n":104,"n_dots":2.85,"target":"left","response":"left","rt":631.70000000298,"correct":true,"confidence":4},{"trial_n":105,"n_dots":2.75,"target":"left","response":"left","rt":613.30000000447,"correct":true,"confidence":3},{"trial_n":106,"n_dots":2.75,"target":"left","response":"left","rt":777.5,"correct":true,"confidence":2},{"trial_n":107,"n_dots":2.65,"target":"left","response":"right","rt":337.19999999553,"correct":false,"confidence":3},{"trial_n":108,"n_dots":2.75,"target":"right","response":"right","rt":321.5,"correct":true,"confidence":4},{"trial_n":109,"n_dots":2.75,"target":"left","response":"right","rt":688,"correct":false,"confidence":1},{"trial_n":110,"n_dots":2.85,"target":"left","response":"left","rt":181.5,"correct":true,"confidence":4},{"trial_n":111,"n_dots":2.85,"target":"left","response":"left","rt":5920.1000000015,"correct":true,"confidence":3},{"trial_n":112,"n_dots":2.75,"target":"right","response":"right","rt":287.29999999702,"correct":true,"confidence":3},{"trial_n":113,"n_dots":2.75,"target":"right","response":"left","rt":1001.099999994,"correct":false,"confidence":3},{"trial_n":114,"n_dots":2.85,"target":"right","response":"right","rt":2119.200000003,"correct":true,"confidence":2},{"trial_n":115,"n_dots":2.85,"target":"left","response":"left","rt":1003.700000003,"correct":true,"confidence":3},{"trial_n":116,"n_dots":2.75,"target":"left","response":"left","rt":997.29999999702,"correct":true,"confidence":2},{"trial_n":117,"n_dots":2.75,"target":"left","response":"left","rt":540.29999999702,"correct":true,"confidence":2},{"trial_n":118,"n_dots":2.65,"target":"right","response":"right","rt":310.39999999851,"correct":true,"confidence":3},{"trial_n":119,"n_dots":2.65,"target":"left","response":"left","rt":295.89999999851,"correct":true,"confidence":3},{"trial_n":120,"n_dots":2.55,"target":"right","response":"right","rt":205.39999999851,"correct":true,"confidence":3}]