[{"trial_n":1,"n_dots":4.25,"target":"left","response":"right","rt":2380.1999999881,"correct":false,"confidence":-1},{"trial_n":2,"n_dots":4.25,"target":"left","response":"right","rt":973.69999998808,"correct":false,"confidence":-1},{"trial_n":3,"n_dots":4.65,"target":"right","response":"left","rt":2507.3999999762,"correct":false,"confidence":-1},{"trial_n":4,"n_dots":5.05,"target":"right","response":"right","rt":931,"correct":true,"confidence":-1},{"trial_n":5,"n_dots":5.05,"target":"right","response":"right","rt":575.69999998808,"correct":true,"confidence":-1},{"trial_n":6,"n_dots":4.65,"target":"left","response":"left","rt":910.19999998808,"correct":true,"confidence":-1},{"trial_n":7,"n_dots":4.65,"target":"right","response":"right","rt":677.5,"correct":true,"confidence":-1},{"trial_n":8,"n_dots":4.45,"target":"left","response":"left","rt":880.5,"correct":true,"confidence":-1},{"trial_n":9,"n_dots":4.45,"target":"right","response":"right","rt":899.5,"correct":true,"confidence":-1},{"trial_n":10,"n_dots":4.25,"target":"left","response":"right","rt":773,"correct":false,"confidence":-1},{"trial_n":11,"n_dots":4.45,"target":"left","response":"left","rt":609,"correct":true,"confidence":-1},{"trial_n":12,"n_dots":4.45,"target":"right","response":"right","rt":515.10000002384,"correct":true,"confidence":-1},{"trial_n":13,"n_dots":4.35,"target":"left","response":"left","rt":842.60000002384,"correct":true,"confidence":-1},{"trial_n":14,"n_dots":4.35,"target":"right","response":"right","rt":878,"correct":true,"confidence":-1},{"trial_n":15,"n_dots":4.25,"target":"left","response":"left","rt":800.5,"correct":true,"confidence":-1},{"trial_n":16,"n_dots":4.25,"target":"right","response":"right","rt":857.79999995232,"correct":true,"confidence":-1},{"trial_n":17,"n_dots":4.15,"target":"right","response":"right","rt":811.19999998808,"correct":true,"confidence":-1},{"trial_n":18,"n_dots":4.15,"target":"right","response":"right","rt":289.5,"correct":true,"confidence":-1},{"trial_n":19,"n_dots":4.05,"target":"right","response":"right","rt":569.5,"correct":true,"confidence":-1},{"trial_n":20,"n_dots":4.05,"target":"right","response":"right","rt":425.59999996424,"correct":true,"confidence":-1},{"trial_n":21,"n_dots":3.95,"target":"left","response":"left","rt":1027.1000000238,"correct":true,"confidence":3},{"trial_n":22,"n_dots":3.95,"target":"left","response":"left","rt":858.59999996424,"correct":true,"confidence":3},{"trial_n":23,"n_dots":3.85,"target":"right","response":"right","rt":1126.3000000119,"correct":true,"confidence":3},{"trial_n":24,"n_dots":3.85,"target":"left","response":"left","rt":668.19999998808,"correct":true,"confidence":3},{"trial_n":25,"n_dots":3.75,"target":"right","response":"right","rt":438.70000004768,"correct":true,"confidence":3},{"trial_n":26,"n_dots":3.75,"target":"right","response":"right","rt":613.19999998808,"correct":true,"confidence":3},{"trial_n":27,"n_dots":3.65,"target":"left","response":"left","rt":1070.6999999881,"correct":true,"confidence":2},{"trial_n":28,"n_dots":3.65,"target":"left","response":"left","rt":642.30000001192,"correct":true,"confidence":3},{"trial_n":29,"n_dots":3.55,"target":"right","response":"right","rt":694.90000003576,"correct":true,"confidence":3},{"trial_n":30,"n_dots":3.55,"target":"right","response":"right","rt":588.29999995232,"correct":true,"confidence":3},{"trial_n":31,"n_dots":3.45,"target":"left","response":"left","rt":1067.4000000358,"correct":true,"confidence":1},{"trial_n":32,"n_dots":3.45,"target":"left","response":"left","rt":609.89999997616,"correct":true,"confidence":3},{"trial_n":33,"n_dots":3.35,"target":"left","response":"left","rt":819.10000002384,"correct":true,"confidence":1},{"trial_n":34,"n_dots":3.35,"target":"right","response":"left","rt":683,"correct":false,"confidence":1},{"trial_n":35,"n_dots":3.45,"target":"left","response":"left","rt":1266.8000000119,"correct":true,"confidence":3},{"trial_n":36,"n_dots":3.45,"target":"right","response":"right","rt":935,"correct":true,"confidence":3},{"trial_n":37,"n_dots":3.35,"target":"right","response":"right","rt":731.29999995232,"correct":true,"confidence":4},{"trial_n":38,"n_dots":3.35,"target":"right","response":"right","rt":895.89999997616,"correct":true,"confidence":1},{"trial_n":39,"n_dots":3.25,"target":"right","response":"left","rt":1184.5,"correct":false,"confidence":1},{"trial_n":40,"n_dots":3.35,"target":"left","response":"left","rt":744.70000004768,"correct":true,"confidence":3},{"trial_n":41,"n_dots":3.35,"target":"right","response":"left","rt":1226.5,"correct":false,"confidence":1},{"trial_n":42,"n_dots":3.45,"target":"right","response":"right","rt":556.69999998808,"correct":true,"confidence":3},{"trial_n":43,"n_dots":3.45,"target":"right","response":"right","rt":547.69999998808,"correct":true,"confidence":3},{"trial_n":44,"n_dots":3.35,"target":"right","response":"right","rt":722.30000001192,"correct":true,"confidence":3},{"trial_n":45,"n_dots":3.35,"target":"right","response":"right","rt":718.5,"correct":true,"confidence":3},{"trial_n":46,"n_dots":3.25,"target":"left","response":"right","rt":1048.7000000477,"correct":false,"confidence":3},{"trial_n":47,"n_dots":3.35,"target":"left","response":"left","rt":901.10000002384,"correct":true,"confidence":3},{"trial_n":48,"n_dots":3.35,"target":"right","response":"left","rt":1030.1000000238,"correct":false,"confidence":1},{"trial_n":49,"n_dots":3.45,"target":"right","response":"right","rt":1190.8000000119,"correct":true,"confidence":3},{"trial_n":50,"n_dots":3.45,"target":"right","response":"left","rt":1502.1999999881,"correct":false,"confidence":1},{"trial_n":51,"n_dots":3.55,"target":"right","response":"left","rt":1123.5,"correct":false,"confidence":1},{"trial_n":52,"n_dots":3.65,"target":"left","response":"left","rt":1235.5,"correct":true,"confidence":1},{"trial_n":53,"n_dots":3.65,"target":"left","response":"left","rt":1230.1000000238,"correct":true,"confidence":3},{"trial_n":54,"n_dots":3.55,"target":"left","response":"left","rt":1012.5,"correct":true,"confidence":1},{"trial_n":55,"n_dots":3.55,"target":"left","response":"left","rt":1148.5999999642,"correct":true,"confidence":3},{"trial_n":56,"n_dots":3.45,"target":"left","response":"left","rt":794.69999998808,"correct":true,"confidence":1},{"trial_n":57,"n_dots":3.45,"target":"left","response":"left","rt":987.90000003576,"correct":true,"confidence":1},{"trial_n":58,"n_dots":3.35,"target":"right","response":"left","rt":1257.5999999642,"correct":false,"confidence":1},{"trial_n":59,"n_dots":3.45,"target":"right","response":"left","rt":835.30000001192,"correct":false,"confidence":3},{"trial_n":60,"n_dots":3.55,"target":"left","response":"left","rt":1428.1999999881,"correct":true,"confidence":1},{"trial_n":61,"n_dots":3.55,"target":"left","response":"left","rt":728.10000002384,"correct":true,"confidence":3},{"trial_n":62,"n_dots":3.45,"target":"left","response":"left","rt":730.60000002384,"correct":true,"confidence":1},{"trial_n":63,"n_dots":3.45,"target":"right","response":"right","rt":566.40000003576,"correct":true,"confidence":3},{"trial_n":64,"n_dots":3.35,"target":"left","response":"left","rt":700,"correct":true,"confidence":1},{"trial_n":65,"n_dots":3.35,"target":"left","response":"left","rt":1560.3999999762,"correct":true,"confidence":1},{"trial_n":66,"n_dots":3.25,"target":"right","response":"left","rt":687.39999997616,"correct":false,"confidence":1},{"trial_n":67,"n_dots":3.35,"target":"right","response":"left","rt":565,"correct":false,"confidence":1},{"trial_n":68,"n_dots":3.45,"target":"left","response":"left","rt":608.30000001192,"correct":true,"confidence":3},{"trial_n":69,"n_dots":3.45,"target":"left","response":"left","rt":549.5,"correct":true,"confidence":1},{"trial_n":70,"n_dots":3.35,"target":"right","response":"right","rt":600.5,"correct":true,"confidence":4},{"trial_n":71,"n_dots":3.35,"target":"right","response":"left","rt":2337.6999999881,"correct":false,"confidence":1},{"trial_n":72,"n_dots":3.45,"target":"right","response":"left","rt":673.09999996424,"correct":false,"confidence":3},{"trial_n":73,"n_dots":3.55,"target":"left","response":"left","rt":915.39999997616,"correct":true,"confidence":1},{"trial_n":74,"n_dots":3.55,"target":"right","response":"right","rt":1660,"correct":true,"confidence":3},{"trial_n":75,"n_dots":3.45,"target":"right","response":"left","rt":1799.6999999881,"correct":false,"confidence":1},{"trial_n":76,"n_dots":3.55,"target":"right","response":"right","rt":699.19999998808,"correct":true,"confidence":3},{"trial_n":77,"n_dots":3.55,"target":"left","response":"left","rt":457.80000001192,"correct":true,"confidence":3},{"trial_n":78,"n_dots":3.45,"target":"left","response":"left","rt":699,"correct":true,"confidence":1},{"trial_n":79,"n_dots":3.45,"target":"left","response":"left","rt":661.70000004768,"correct":true,"confidence":1},{"trial_n":80,"n_dots":3.35,"target":"right","response":"right","rt":488.69999998808,"correct":true,"confidence":4},{"trial_n":81,"n_dots":3.35,"target":"left","response":"left","rt":743.80000001192,"correct":true,"confidence":3},{"trial_n":82,"n_dots":3.25,"target":"right","response":"right","rt":1646.3999999762,"correct":true,"confidence":1},{"trial_n":83,"n_dots":3.25,"target":"left","response":"right","rt":3774.3999999762,"correct":false,"confidence":3},{"trial_n":84,"n_dots":3.35,"target":"left","response":"left","rt":654.30000001192,"correct":true,"confidence":1},{"trial_n":85,"n_dots":3.35,"target":"left","response":"left","rt":732.30000001192,"correct":true,"confidence":1},{"trial_n":86,"n_dots":3.25,"target":"right","response":"right","rt":934.19999998808,"correct":true,"confidence":1},{"trial_n":87,"n_dots":3.25,"target":"right","response":"right","rt":798.90000003576,"correct":true,"confidence":1},{"trial_n":88,"n_dots":3.15,"target":"right","response":"right","rt":1031.8000000119,"correct":true,"confidence":1},{"trial_n":89,"n_dots":3.15,"target":"right","response":"right","rt":607.60000002384,"correct":true,"confidence":1},{"trial_n":90,"n_dots":3.05,"target":"right","response":"left","rt":639.19999998808,"correct":false,"confidence":1},{"trial_n":91,"n_dots":3.15,"target":"left","response":"left","rt":759.5,"correct":true,"confidence":1},{"trial_n":92,"n_dots":3.15,"target":"left","response":"right","rt":521,"correct":false,"confidence":1},{"trial_n":93,"n_dots":3.25,"target":"right","response":"left","rt":357.89999997616,"correct":false,"confidence":1},{"trial_n":94,"n_dots":3.35,"target":"left","response":"left","rt":551.10000002384,"correct":true,"confidence":1},{"trial_n":95,"n_dots":3.35,"target":"right","response":"left","rt":691.80000001192,"correct":false,"confidence":1},{"trial_n":96,"n_dots":3.45,"target":"right","response":"left","rt":200,"correct":false,"confidence":1},{"trial_n":97,"n_dots":3.55,"target":"right","response":"right","rt":1230.8000000119,"correct":true,"confidence":1},{"trial_n":98,"n_dots":3.55,"target":"left","response":"left","rt":634.89999997616,"correct":true,"confidence":1},{"trial_n":99,"n_dots":3.45,"target":"left","response":"left","rt":596.70000004768,"correct":true,"confidence":1},{"trial_n":100,"n_dots":3.45,"target":"left","response":"left","rt":496.5,"correct":true,"confidence":1},{"trial_n":101,"n_dots":3.35,"target":"left","response":"right","rt":948.10000002384,"correct":false,"confidence":1},{"trial_n":102,"n_dots":3.45,"target":"left","response":"left","rt":632.40000003576,"correct":true,"confidence":1},{"trial_n":103,"n_dots":3.45,"target":"left","response":"left","rt":1003.1000000238,"correct":true,"confidence":1},{"trial_n":104,"n_dots":3.35,"target":"left","response":"left","rt":564.80000001192,"correct":true,"confidence":3},{"trial_n":105,"n_dots":3.35,"target":"right","response":"left","rt":518.19999998808,"correct":false,"confidence":3},{"trial_n":106,"n_dots":3.45,"target":"right","response":"right","rt":515.30000001192,"correct":true,"confidence":5},{"trial_n":107,"n_dots":3.45,"target":"right","response":"right","rt":873.39999997616,"correct":true,"confidence":3},{"trial_n":108,"n_dots":3.35,"target":"left","response":"right","rt":648.5,"correct":false,"confidence":3},{"trial_n":109,"n_dots":3.45,"target":"right","response":"right","rt":503.5,"correct":true,"confidence":3},{"trial_n":110,"n_dots":3.45,"target":"right","response":"left","rt":569.80000001192,"correct":false,"confidence":1},{"trial_n":111,"n_dots":3.55,"target":"left","response":"right","rt":2279.5,"correct":false,"confidence":1},{"trial_n":112,"n_dots":3.65,"target":"left","response":"left","rt":856.19999998808,"correct":true,"confidence":4},{"trial_n":113,"n_dots":3.65,"target":"left","response":"left","rt":698.19999998808,"correct":true,"confidence":3},{"trial_n":114,"n_dots":3.55,"target":"right","response":"left","rt":886.19999998808,"correct":false,"confidence":3},{"trial_n":115,"n_dots":3.65,"target":"left","response":"right","rt":726.59999996424,"correct":false,"confidence":3},{"trial_n":116,"n_dots":3.75,"target":"left","response":"right","rt":648.60000002384,"correct":false,"confidence":3},{"trial_n":117,"n_dots":3.85,"target":"left","response":"left","rt":807.39999997616,"correct":true,"confidence":3},{"trial_n":118,"n_dots":3.85,"target":"right","response":"right","rt":737.30000001192,"correct":true,"confidence":3},{"trial_n":119,"n_dots":3.75,"target":"left","response":"left","rt":744.69999998808,"correct":true,"confidence":3},{"trial_n":120,"n_dots":3.75,"target":"left","response":"left","rt":629.29999995232,"correct":true,"confidence":3}]