[{"trial_n":1,"n_dots":4.25,"target":"right","response":"right","rt":973.60000002384,"correct":true,"confidence":-1},{"trial_n":2,"n_dots":4.25,"target":"right","response":"right","rt":152.80000001192,"correct":true,"confidence":-1},{"trial_n":3,"n_dots":3.85,"target":"left","response":"left","rt":411.90000003576,"correct":true,"confidence":-1},{"trial_n":4,"n_dots":3.85,"target":"right","response":"right","rt":755.19999998808,"correct":true,"confidence":-1},{"trial_n":5,"n_dots":3.45,"target":"right","response":"right","rt":918.39999997616,"correct":true,"confidence":-1},{"trial_n":6,"n_dots":3.45,"target":"left","response":"left","rt":431.10000002384,"correct":true,"confidence":-1},{"trial_n":7,"n_dots":3.05,"target":"right","response":"left","rt":586.40000003576,"correct":false,"confidence":-1},{"trial_n":8,"n_dots":3.25,"target":"right","response":"left","rt":577,"correct":false,"confidence":-1},{"trial_n":9,"n_dots":3.45,"target":"left","response":"left","rt":672.90000003576,"correct":true,"confidence":-1},{"trial_n":10,"n_dots":3.45,"target":"left","response":"left","rt":560.30000001192,"correct":true,"confidence":-1},{"trial_n":11,"n_dots":3.25,"target":"left","response":"left","rt":496.39999997616,"correct":true,"confidence":-1},{"trial_n":12,"n_dots":3.25,"target":"left","response":"right","rt":740.5,"correct":false,"confidence":-1},{"trial_n":13,"n_dots":3.35,"target":"right","response":"left","rt":413.30000001192,"correct":false,"confidence":-1},{"trial_n":14,"n_dots":3.45,"target":"right","response":"right","rt":576.19999998808,"correct":true,"confidence":-1},{"trial_n":15,"n_dots":3.45,"target":"left","response":"left","rt":479.69999998808,"correct":true,"confidence":-1},{"trial_n":16,"n_dots":3.35,"target":"right","response":"left","rt":497,"correct":false,"confidence":-1},{"trial_n":17,"n_dots":3.45,"target":"right","response":"right","rt":589.10000002384,"correct":true,"confidence":-1},{"trial_n":18,"n_dots":3.45,"target":"right","response":"left","rt":538.60000002384,"correct":false,"confidence":-1},{"trial_n":19,"n_dots":3.55,"target":"right","response":"right","rt":268.39999997616,"correct":true,"confidence":-1},{"trial_n":20,"n_dots":3.55,"target":"right","response":"right","rt":375.40000003576,"correct":true,"confidence":-1},{"trial_n":21,"n_dots":3.45,"target":"left","response":"left","rt":497.5,"correct":true,"confidence":3},{"trial_n":22,"n_dots":3.45,"target":"left","response":"left","rt":119,"correct":true,"confidence":4},{"trial_n":23,"n_dots":3.35,"target":"left","response":"left","rt":392,"correct":true,"confidence":4},{"trial_n":24,"n_dots":3.35,"target":"left","response":"right","rt":493.80000001192,"correct":false,"confidence":3},{"trial_n":25,"n_dots":3.45,"target":"right","response":"left","rt":623,"correct":false,"confidence":4},{"trial_n":26,"n_dots":3.55,"target":"left","response":"left","rt":351.10000002384,"correct":true,"confidence":3},{"trial_n":27,"n_dots":3.55,"target":"left","response":"left","rt":389.60000002384,"correct":true,"confidence":4},{"trial_n":28,"n_dots":3.45,"target":"left","response":"left","rt":175.59999996424,"correct":true,"confidence":5},{"trial_n":29,"n_dots":3.45,"target":"left","response":"left","rt":389.80000001192,"correct":true,"confidence":3},{"trial_n":30,"n_dots":3.35,"target":"left","response":"left","rt":857.10000002384,"correct":true,"confidence":5},{"trial_n":31,"n_dots":3.35,"target":"right","response":"left","rt":381.69999998808,"correct":false,"confidence":5},{"trial_n":32,"n_dots":3.45,"target":"left","response":"left","rt":258.19999998808,"correct":true,"confidence":4},{"trial_n":33,"n_dots":3.45,"target":"left","response":"left","rt":398.30000001192,"correct":true,"confidence":4},{"trial_n":34,"n_dots":3.35,"target":"left","response":"right","rt":781.40000003576,"correct":false,"confidence":5},{"trial_n":35,"n_dots":3.45,"target":"right","response":"left","rt":378.40000003576,"correct":false,"confidence":3},{"trial_n":36,"n_dots":3.55,"target":"right","response":"left","rt":72.199999988079,"correct":false,"confidence":4},{"trial_n":37,"n_dots":3.65,"target":"left","response":"left","rt":180.5,"correct":true,"confidence":4},{"trial_n":38,"n_dots":3.65,"target":"right","response":"right","rt":663.40000003576,"correct":true,"confidence":5},{"trial_n":39,"n_dots":3.55,"target":"left","response":"left","rt":186.30000001192,"correct":true,"confidence":3},{"trial_n":40,"n_dots":3.55,"target":"right","response":"right","rt":500.5,"correct":true,"confidence":5},{"trial_n":41,"n_dots":3.45,"target":"right","response":"left","rt":188.5,"correct":false,"confidence":3},{"trial_n":42,"n_dots":3.55,"target":"right","response":"right","rt":554.60000002384,"correct":true,"confidence":5},{"trial_n":43,"n_dots":3.55,"target":"right","response":"right","rt":87.300000011921,"correct":true,"confidence":4},{"trial_n":44,"n_dots":3.45,"target":"left","response":"left","rt":683.5,"correct":true,"confidence":4},{"trial_n":45,"n_dots":3.45,"target":"left","response":"left","rt":67.800000011921,"correct":true,"confidence":4},{"trial_n":46,"n_dots":3.35,"target":"right","response":"right","rt":235.5,"correct":true,"confidence":5},{"trial_n":47,"n_dots":3.35,"target":"left","response":"left","rt":482.40000003576,"correct":true,"confidence":4},{"trial_n":48,"n_dots":3.25,"target":"left","response":"left","rt":502.80000001192,"correct":true,"confidence":5},{"trial_n":49,"n_dots":3.25,"target":"left","response":"left","rt":214.19999998808,"correct":true,"confidence":4},{"trial_n":50,"n_dots":3.15,"target":"right","response":"right","rt":270.59999996424,"correct":true,"confidence":5},{"trial_n":51,"n_dots":3.15,"target":"left","response":"left","rt":50.399999976158,"correct":true,"confidence":4},{"trial_n":52,"n_dots":3.05,"target":"right","response":"left","rt":483.09999996424,"correct":false,"confidence":4},{"trial_n":53,"n_dots":3.15,"target":"right","response":"right","rt":447.5,"correct":true,"confidence":4},{"trial_n":54,"n_dots":3.15,"target":"right","response":"right","rt":580,"correct":true,"confidence":5},{"trial_n":55,"n_dots":3.05,"target":"left","response":"left","rt":357.69999998808,"correct":true,"confidence":4},{"trial_n":56,"n_dots":3.05,"target":"right","response":"right","rt":68,"correct":true,"confidence":5},{"trial_n":57,"n_dots":2.95,"target":"right","response":"right","rt":452.70000004768,"correct":true,"confidence":4},{"trial_n":58,"n_dots":2.95,"target":"right","response":"right","rt":311.40000003576,"correct":true,"confidence":4},{"trial_n":59,"n_dots":2.85,"target":"left","response":"left","rt":886.59999996424,"correct":true,"confidence":4},{"trial_n":60,"n_dots":2.85,"target":"left","response":"left","rt":268.5,"correct":true,"confidence":4},{"trial_n":61,"n_dots":2.75,"target":"left","response":"left","rt":256,"correct":true,"confidence":4},{"trial_n":62,"n_dots":2.75,"target":"right","response":"right","rt":472.59999996424,"correct":true,"confidence":5},{"trial_n":63,"n_dots":2.65,"target":"left","response":"left","rt":459.30000001192,"correct":true,"confidence":4},{"trial_n":64,"n_dots":2.65,"target":"left","response":"right","rt":521.30000001192,"correct":false,"confidence":4},{"trial_n":65,"n_dots":2.75,"target":"right","response":"left","rt":503.40000003576,"correct":false,"confidence":4},{"trial_n":66,"n_dots":2.85,"target":"left","response":"left","rt":677.5,"correct":true,"confidence":5},{"trial_n":67,"n_dots":2.85,"target":"right","response":"right","rt":357.10000002384,"correct":true,"confidence":4},{"trial_n":68,"n_dots":2.75,"target":"right","response":"left","rt":869.19999998808,"correct":false,"confidence":4},{"trial_n":69,"n_dots":2.85,"target":"right","response":"right","rt":473.5,"correct":true,"confidence":4},{"trial_n":70,"n_dots":2.85,"target":"right","response":"left","rt":469.19999998808,"correct":false,"confidence":3},{"trial_n":71,"n_dots":2.95,"target":"right","response":"left","rt":902.10000002384,"correct":false,"confidence":4},{"trial_n":72,"n_dots":3.05,"target":"left","response":"left","rt":302.10000002384,"correct":true,"confidence":4},{"trial_n":73,"n_dots":3.05,"target":"left","response":"left","rt":234.69999998808,"correct":true,"confidence":4},{"trial_n":74,"n_dots":2.95,"target":"left","response":"left","rt":488.80000001192,"correct":true,"confidence":4},{"trial_n":75,"n_dots":2.95,"target":"left","response":"right","rt":570,"correct":false,"confidence":5},{"trial_n":76,"n_dots":3.05,"target":"right","response":"left","rt":617.90000003576,"correct":false,"confidence":3},{"trial_n":77,"n_dots":3.15,"target":"right","response":"left","rt":37.5,"correct":false,"confidence":4},{"trial_n":78,"n_dots":3.25,"target":"left","response":"left","rt":28.300000011921,"correct":true,"confidence":5},{"trial_n":79,"n_dots":3.25,"target":"left","response":"left","rt":507,"correct":true,"confidence":4},{"trial_n":80,"n_dots":3.15,"target":"left","response":"left","rt":154.69999998808,"correct":true,"confidence":4},{"trial_n":81,"n_dots":3.15,"target":"left","response":"left","rt":510.29999995232,"correct":true,"confidence":4},{"trial_n":82,"n_dots":3.05,"target":"left","response":"left","rt":8.9000000357628,"correct":true,"confidence":4},{"trial_n":83,"n_dots":3.05,"target":"left","response":"left","rt":735,"correct":true,"confidence":3},{"trial_n":84,"n_dots":2.95,"target":"right","response":"right","rt":302,"correct":true,"confidence":5},{"trial_n":85,"n_dots":2.95,"target":"right","response":"left","rt":699.60000002384,"correct":false,"confidence":4},{"trial_n":86,"n_dots":3.05,"target":"right","response":"right","rt":81.800000011921,"correct":true,"confidence":5},{"trial_n":87,"n_dots":3.05,"target":"right","response":"right","rt":249.5,"correct":true,"confidence":4},{"trial_n":88,"n_dots":2.95,"target":"right","response":"right","rt":540.30000001192,"correct":true,"confidence":4},{"trial_n":89,"n_dots":2.95,"target":"right","response":"right","rt":212.80000001192,"correct":true,"confidence":5},{"trial_n":90,"n_dots":2.85,"target":"left","response":"right","rt":60.899999976158,"correct":false,"confidence":4},{"trial_n":91,"n_dots":2.95,"target":"left","response":"right","rt":123.30000001192,"correct":false,"confidence":4},{"trial_n":92,"n_dots":3.05,"target":"right","response":"right","rt":96.100000023842,"correct":true,"confidence":5},{"trial_n":93,"n_dots":3.05,"target":"left","response":"left","rt":85,"correct":true,"confidence":4},{"trial_n":94,"n_dots":2.95,"target":"left","response":"left","rt":661.79999995232,"correct":true,"confidence":4},{"trial_n":95,"n_dots":2.95,"target":"right","response":"right","rt":578.80000001192,"correct":true,"confidence":5},{"trial_n":96,"n_dots":2.85,"target":"right","response":"left","rt":371.90000003576,"correct":false,"confidence":2},{"trial_n":97,"n_dots":2.95,"target":"left","response":"left","rt":248.30000001192,"correct":true,"confidence":2},{"trial_n":98,"n_dots":2.95,"target":"left","response":"left","rt":531.60000002384,"correct":true,"confidence":4},{"trial_n":99,"n_dots":2.85,"target":"left","response":"left","rt":504.09999996424,"correct":true,"confidence":4},{"trial_n":100,"n_dots":2.85,"target":"right","response":"left","rt":517.89999997616,"correct":false,"confidence":4},{"trial_n":101,"n_dots":2.95,"target":"right","response":"right","rt":598.5,"correct":true,"confidence":5},{"trial_n":102,"n_dots":2.95,"target":"left","response":"left","rt":534.19999998808,"correct":true,"confidence":4},{"trial_n":103,"n_dots":2.85,"target":"right","response":"right","rt":531.5,"correct":true,"confidence":4},{"trial_n":104,"n_dots":2.85,"target":"left","response":"left","rt":629.80000001192,"correct":true,"confidence":4},{"trial_n":105,"n_dots":2.75,"target":"right","response":"left","rt":322.09999996424,"correct":false,"confidence":3},{"trial_n":106,"n_dots":2.85,"target":"right","response":"right","rt":192.59999996424,"correct":true,"confidence":4},{"trial_n":107,"n_dots":2.85,"target":"right","response":"right","rt":319.29999995232,"correct":true,"confidence":4},{"trial_n":108,"n_dots":2.75,"target":"right","response":"left","rt":233.10000002384,"correct":false,"confidence":4},{"trial_n":109,"n_dots":2.85,"target":"right","response":"left","rt":135,"correct":false,"confidence":4},{"trial_n":110,"n_dots":2.95,"target":"right","response":"left","rt":75.800000011921,"correct":false,"confidence":4},{"trial_n":111,"n_dots":3.05,"target":"left","response":"left","rt":191.80000001192,"correct":true,"confidence":4},{"trial_n":112,"n_dots":3.05,"target":"right","response":"left","rt":276.09999996424,"correct":false,"confidence":4},{"trial_n":113,"n_dots":3.15,"target":"left","response":"left","rt":79.800000011921,"correct":true,"confidence":4},{"trial_n":114,"n_dots":3.15,"target":"left","response":"left","rt":95.799999952316,"correct":true,"confidence":4},{"trial_n":115,"n_dots":3.05,"target":"left","response":"left","rt":94.099999964237,"correct":true,"confidence":4},{"trial_n":116,"n_dots":3.05,"target":"left","response":"left","rt":77,"correct":true,"confidence":4},{"trial_n":117,"n_dots":2.95,"target":"right","response":"right","rt":545.60000002384,"correct":true,"confidence":4},{"trial_n":118,"n_dots":2.95,"target":"right","response":"left","rt":88.700000047684,"correct":false,"confidence":4},{"trial_n":119,"n_dots":3.05,"target":"left","response":"left","rt":52.5,"correct":true,"confidence":4},{"trial_n":120,"n_dots":3.05,"target":"left","response":"left","rt":515.19999998808,"correct":true,"confidence":4}]