[{"trial_n":1,"min":25,"max":230,"target":"present","response":"present","rt":5619.6999999881,"correct":true,"confidence":-1},{"trial_n":2,"min":25,"max":230,"target":"present","response":"present","rt":2716.5,"correct":true,"confidence":-1},{"trial_n":3,"min":41,"max":214,"target":"absent","response":"present","rt":1292.6999999881,"correct":false,"confidence":-1},{"trial_n":4,"min":25,"max":230,"target":"absent","response":"absent","rt":986.19999998808,"correct":true,"confidence":-1},{"trial_n":5,"min":25,"max":230,"target":"present","response":"present","rt":1883.1999999881,"correct":true,"confidence":-1},{"trial_n":6,"min":41,"max":214,"target":"absent","response":"absent","rt":780.70000004768,"correct":true,"confidence":-1},{"trial_n":7,"min":41,"max":214,"target":"absent","response":"absent","rt":623.19999998808,"correct":true,"confidence":-1},{"trial_n":8,"min":57,"max":198,"target":"present","response":"present","rt":989.39999997616,"correct":true,"confidence":-1},{"trial_n":9,"min":57,"max":198,"target":"absent","response":"absent","rt":647.40000003576,"correct":true,"confidence":-1},{"trial_n":10,"min":73,"max":182,"target":"present","response":"present","rt":925.69999998808,"correct":true,"confidence":-1},{"trial_n":11,"min":73,"max":182,"target":"present","response":"absent","rt":793.59999996424,"correct":false,"confidence":-1},{"trial_n":12,"min":65,"max":190,"target":"present","response":"present","rt":1127.5,"correct":true,"confidence":-1},{"trial_n":13,"min":65,"max":190,"target":"absent","response":"absent","rt":828.19999998808,"correct":true,"confidence":-1},{"trial_n":14,"min":73,"max":182,"target":"present","response":"present","rt":552.69999998808,"correct":true,"confidence":-1},{"trial_n":15,"min":73,"max":182,"target":"present","response":"present","rt":956.80000001192,"correct":true,"confidence":-1},{"trial_n":16,"min":81,"max":174,"target":"present","response":"present","rt":772.80000001192,"correct":true,"confidence":-1},{"trial_n":17,"min":81,"max":174,"target":"absent","response":"absent","rt":811.69999998808,"correct":true,"confidence":-1},{"trial_n":18,"min":89,"max":166,"target":"present","response":"present","rt":822.5,"correct":true,"confidence":-1},{"trial_n":19,"min":89,"max":166,"target":"present","response":"present","rt":985.20000004768,"correct":true,"confidence":-1},{"trial_n":20,"min":97,"max":158,"target":"present","response":"present","rt":540.5,"correct":true,"confidence":-1},{"trial_n":21,"min":97,"max":158,"target":"present","response":"present","rt":733,"correct":true,"confidence":3},{"trial_n":22,"min":101,"max":154,"target":"present","response":"absent","rt":1138.6999999881,"correct":false,"confidence":4},{"trial_n":23,"min":97,"max":158,"target":"absent","response":"absent","rt":713.90000003576,"correct":true,"confidence":4},{"trial_n":24,"min":97,"max":158,"target":"absent","response":"absent","rt":810.30000001192,"correct":true,"confidence":4},{"trial_n":25,"min":101,"max":154,"target":"absent","response":"absent","rt":606.69999998808,"correct":true,"confidence":4},{"trial_n":26,"min":101,"max":154,"target":"present","response":"present","rt":1816.5,"correct":true,"confidence":2},{"trial_n":27,"min":105,"max":150,"target":"present","response":"absent","rt":670.10000002384,"correct":false,"confidence":4},{"trial_n":28,"min":101,"max":154,"target":"present","response":"absent","rt":1257.1000000238,"correct":false,"confidence":4},{"trial_n":29,"min":97,"max":158,"target":"present","response":"absent","rt":662.80000001192,"correct":false,"confidence":4},{"trial_n":30,"min":93,"max":162,"target":"present","response":"present","rt":670.10000002384,"correct":true,"confidence":3},{"trial_n":31,"min":93,"max":162,"target":"absent","response":"absent","rt":1190.6999999881,"correct":true,"confidence":4},{"trial_n":32,"min":95,"max":160,"target":"present","response":"present","rt":510,"correct":true,"confidence":2},{"trial_n":33,"min":95,"max":160,"target":"absent","response":"absent","rt":958.30000001192,"correct":true,"confidence":4},{"trial_n":34,"min":97,"max":158,"target":"absent","response":"present","rt":1219.8000000119,"correct":false,"confidence":3},{"trial_n":35,"min":95,"max":160,"target":"absent","response":"absent","rt":859.39999997616,"correct":true,"confidence":4},{"trial_n":36,"min":95,"max":160,"target":"present","response":"absent","rt":1300.6999999881,"correct":false,"confidence":4},{"trial_n":37,"min":93,"max":162,"target":"absent","response":"absent","rt":993.19999998808,"correct":true,"confidence":4},{"trial_n":38,"min":93,"max":162,"target":"absent","response":"absent","rt":946.19999998808,"correct":true,"confidence":4},{"trial_n":39,"min":95,"max":160,"target":"present","response":"present","rt":4109.5,"correct":true,"confidence":2},{"trial_n":40,"min":95,"max":160,"target":"absent","response":"absent","rt":1244.3999999762,"correct":true,"confidence":1},{"trial_n":41,"min":96,"max":159,"target":"absent","response":"present","rt":1731.5,"correct":false,"confidence":3},{"trial_n":42,"min":95,"max":160,"target":"present","response":"present","rt":2460.3999999762,"correct":true,"confidence":3},{"trial_n":43,"min":95,"max":160,"target":"absent","response":"absent","rt":900.80000001192,"correct":true,"confidence":4},{"trial_n":44,"min":96,"max":159,"target":"absent","response":"absent","rt":656.90000003576,"correct":true,"confidence":5},{"trial_n":45,"min":96,"max":159,"target":"present","response":"absent","rt":692.10000002384,"correct":false,"confidence":2},{"trial_n":46,"min":95,"max":160,"target":"absent","response":"absent","rt":881.20000004768,"correct":true,"confidence":4},{"trial_n":47,"min":95,"max":160,"target":"absent","response":"present","rt":1162.6000000238,"correct":false,"confidence":3},{"trial_n":48,"min":94,"max":161,"target":"present","response":"present","rt":1160.8000000119,"correct":true,"confidence":3},{"trial_n":49,"min":94,"max":161,"target":"absent","response":"present","rt":1114.8000000119,"correct":false,"confidence":3},{"trial_n":50,"min":93,"max":162,"target":"present","response":"present","rt":1212.2999999523,"correct":true,"confidence":1},{"trial_n":51,"min":93,"max":162,"target":"absent","response":"present","rt":1458.6999999881,"correct":false,"confidence":4},{"trial_n":52,"min":92,"max":163,"target":"absent","response":"absent","rt":771.39999997616,"correct":true,"confidence":3},{"trial_n":53,"min":92,"max":163,"target":"absent","response":"absent","rt":604.5,"correct":true,"confidence":3},{"trial_n":54,"min":93,"max":162,"target":"absent","response":"absent","rt":604.19999998808,"correct":true,"confidence":4},{"trial_n":55,"min":93,"max":162,"target":"absent","response":"absent","rt":778.10000002384,"correct":true,"confidence":4},{"trial_n":56,"min":94,"max":161,"target":"present","response":"absent","rt":869.80000001192,"correct":false,"confidence":4},{"trial_n":57,"min":93,"max":162,"target":"present","response":"present","rt":777.30000001192,"correct":true,"confidence":4},{"trial_n":58,"min":93,"max":162,"target":"present","response":"present","rt":1137.0999999642,"correct":true,"confidence":3},{"trial_n":59,"min":94,"max":161,"target":"present","response":"absent","rt":564.69999998808,"correct":false,"confidence":4},{"trial_n":60,"min":93,"max":162,"target":"absent","response":"present","rt":783.69999998808,"correct":false,"confidence":2},{"trial_n":61,"min":92,"max":163,"target":"absent","response":"absent","rt":1717.5,"correct":true,"confidence":5},{"trial_n":62,"min":92,"max":163,"target":"absent","response":"absent","rt":2425.1000000238,"correct":true,"confidence":3},{"trial_n":63,"min":93,"max":162,"target":"absent","response":"present","rt":1401.7000000477,"correct":false,"confidence":3},{"trial_n":64,"min":92,"max":163,"target":"present","response":"present","rt":1002.3999999762,"correct":true,"confidence":4},{"trial_n":65,"min":92,"max":163,"target":"present","response":"present","rt":951.30000001192,"correct":true,"confidence":2},{"trial_n":66,"min":93,"max":162,"target":"present","response":"absent","rt":680.90000003576,"correct":false,"confidence":4},{"trial_n":67,"min":92,"max":163,"target":"present","response":"present","rt":3750.7999999523,"correct":true,"confidence":4},{"trial_n":68,"min":92,"max":163,"target":"present","response":"present","rt":1378.1000000238,"correct":true,"confidence":5},{"trial_n":69,"min":93,"max":162,"target":"absent","response":"present","rt":2283.5999999642,"correct":false,"confidence":4},{"trial_n":70,"min":92,"max":163,"target":"absent","response":"present","rt":958.19999998808,"correct":false,"confidence":4},{"trial_n":71,"min":41,"max":214,"target":"present","response":"present","rt":1560.1999999881,"correct":true,"confidence":-1},{"trial_n":72,"min":41,"max":214,"target":"present","response":"absent","rt":1132.8999999762,"correct":false,"confidence":-1},{"trial_n":73,"min":25,"max":230,"target":"absent","response":"absent","rt":1746.3000000119,"correct":true,"confidence":-1},{"trial_n":74,"min":25,"max":230,"target":"absent","response":"absent","rt":557.60000002384,"correct":true,"confidence":-1},{"trial_n":75,"min":41,"max":214,"target":"present","response":"present","rt":626.80000001192,"correct":true,"confidence":-1},{"trial_n":76,"min":41,"max":214,"target":"present","response":"present","rt":1144.1000000238,"correct":true,"confidence":-1},{"trial_n":77,"min":57,"max":198,"target":"present","response":"present","rt":536.20000004768,"correct":true,"confidence":-1},{"trial_n":78,"min":57,"max":198,"target":"absent","response":"absent","rt":604.5,"correct":true,"confidence":-1},{"trial_n":79,"min":73,"max":182,"target":"absent","response":"present","rt":656.30000001192,"correct":false,"confidence":-1},{"trial_n":80,"min":57,"max":198,"target":"present","response":"present","rt":506.80000001192,"correct":true,"confidence":-1},{"trial_n":81,"min":57,"max":198,"target":"present","response":"present","rt":446.59999996424,"correct":true,"confidence":-1},{"trial_n":82,"min":65,"max":190,"target":"present","response":"present","rt":839.29999995232,"correct":true,"confidence":-1},{"trial_n":83,"min":65,"max":190,"target":"present","response":"present","rt":626.10000002384,"correct":true,"confidence":-1},{"trial_n":84,"min":73,"max":182,"target":"present","response":"present","rt":1528.5,"correct":true,"confidence":-1},{"trial_n":85,"min":73,"max":182,"target":"present","response":"present","rt":720.5,"correct":true,"confidence":-1},{"trial_n":86,"min":81,"max":174,"target":"absent","response":"absent","rt":1561.6999999881,"correct":true,"confidence":-1},{"trial_n":87,"min":81,"max":174,"target":"absent","response":"absent","rt":534.19999998808,"correct":true,"confidence":-1},{"trial_n":88,"min":89,"max":166,"target":"absent","response":"present","rt":842.10000002384,"correct":false,"confidence":-1},{"trial_n":89,"min":81,"max":174,"target":"present","response":"present","rt":1226.4000000358,"correct":true,"confidence":-1},{"trial_n":90,"min":81,"max":174,"target":"present","response":"absent","rt":3981.9000000358,"correct":false,"confidence":-1},{"trial_n":91,"min":77,"max":178,"target":"present","response":"present","rt":1225.1000000238,"correct":true,"confidence":3},{"trial_n":92,"min":77,"max":178,"target":"present","response":"present","rt":960.80000001192,"correct":true,"confidence":4},{"trial_n":93,"min":81,"max":174,"target":"absent","response":"absent","rt":909.09999996424,"correct":true,"confidence":3},{"trial_n":94,"min":81,"max":174,"target":"absent","response":"absent","rt":1620.1999999881,"correct":true,"confidence":4},{"trial_n":95,"min":85,"max":170,"target":"present","response":"absent","rt":1063.1000000238,"correct":false,"confidence":4},{"trial_n":96,"min":81,"max":174,"target":"present","response":"present","rt":822.69999998808,"correct":true,"confidence":3},{"trial_n":97,"min":81,"max":174,"target":"present","response":"present","rt":1486.8999999762,"correct":true,"confidence":4},{"trial_n":98,"min":85,"max":170,"target":"present","response":"present","rt":1318.1000000238,"correct":true,"confidence":4},{"trial_n":99,"min":85,"max":170,"target":"absent","response":"absent","rt":1196,"correct":true,"confidence":5},{"trial_n":100,"min":89,"max":166,"target":"present","response":"present","rt":1414.5999999642,"correct":true,"confidence":3},{"trial_n":101,"min":89,"max":166,"target":"absent","response":"present","rt":947.39999997616,"correct":false,"confidence":4},{"trial_n":102,"min":87,"max":168,"target":"absent","response":"absent","rt":1097.5,"correct":true,"confidence":4},{"trial_n":103,"min":87,"max":168,"target":"absent","response":"absent","rt":1536.1999999881,"correct":true,"confidence":5},{"trial_n":104,"min":89,"max":166,"target":"absent","response":"present","rt":814.40000003576,"correct":false,"confidence":3},{"trial_n":105,"min":87,"max":168,"target":"absent","response":"absent","rt":868,"correct":true,"confidence":4},{"trial_n":106,"min":87,"max":168,"target":"absent","response":"absent","rt":1173.5,"correct":true,"confidence":4},{"trial_n":107,"min":89,"max":166,"target":"present","response":"present","rt":675.39999997616,"correct":true,"confidence":3},{"trial_n":108,"min":89,"max":166,"target":"present","response":"present","rt":1268.3000000119,"correct":true,"confidence":4},{"trial_n":109,"min":91,"max":164,"target":"absent","response":"present","rt":932.5,"correct":false,"confidence":1},{"trial_n":110,"min":89,"max":166,"target":"absent","response":"absent","rt":464.69999998808,"correct":true,"confidence":3},{"trial_n":111,"min":89,"max":166,"target":"absent","response":"absent","rt":2423.3999999762,"correct":true,"confidence":2},{"trial_n":112,"min":90,"max":165,"target":"absent","response":"absent","rt":1998,"correct":true,"confidence":4},{"trial_n":113,"min":90,"max":165,"target":"absent","response":"absent","rt":655.69999998808,"correct":true,"confidence":4},{"trial_n":114,"min":91,"max":164,"target":"absent","response":"present","rt":830,"correct":false,"confidence":3},{"trial_n":115,"min":90,"max":165,"target":"absent","response":"absent","rt":674.10000002384,"correct":true,"confidence":4},{"trial_n":116,"min":90,"max":165,"target":"present","response":"absent","rt":1566.8999999762,"correct":false,"confidence":3},{"trial_n":117,"min":89,"max":166,"target":"present","response":"present","rt":957.39999997616,"correct":true,"confidence":4},{"trial_n":118,"min":89,"max":166,"target":"present","response":"absent","rt":905.69999998808,"correct":false,"confidence":5},{"trial_n":119,"min":88,"max":167,"target":"absent","response":"present","rt":1008.6000000238,"correct":false,"confidence":2},{"trial_n":120,"min":87,"max":168,"target":"absent","response":"absent","rt":864.60000002384,"correct":true,"confidence":4},{"trial_n":121,"min":87,"max":168,"target":"present","response":"present","rt":976.29999995232,"correct":true,"confidence":4},{"trial_n":122,"min":88,"max":167,"target":"absent","response":"absent","rt":1015.3999999762,"correct":true,"confidence":4},{"trial_n":123,"min":88,"max":167,"target":"present","response":"present","rt":985.30000001192,"correct":true,"confidence":2},{"trial_n":124,"min":89,"max":166,"target":"absent","response":"present","rt":1028.8999999762,"correct":false,"confidence":4},{"trial_n":125,"min":88,"max":167,"target":"absent","response":"absent","rt":1037.8000000119,"correct":true,"confidence":4},{"trial_n":126,"min":88,"max":167,"target":"present","response":"absent","rt":1481,"correct":false,"confidence":5},{"trial_n":127,"min":87,"max":168,"target":"present","response":"present","rt":1091.4000000358,"correct":true,"confidence":5},{"trial_n":128,"min":87,"max":168,"target":"present","response":"present","rt":1029.1000000238,"correct":true,"confidence":5},{"trial_n":129,"min":88,"max":167,"target":"absent","response":"absent","rt":1663.9000000358,"correct":true,"confidence":4},{"trial_n":130,"min":88,"max":167,"target":"present","response":"present","rt":720.69999998808,"correct":true,"confidence":1},{"trial_n":131,"min":89,"max":166,"target":"absent","response":"present","rt":766.39999997616,"correct":false,"confidence":4},{"trial_n":132,"min":88,"max":167,"target":"absent","response":"present","rt":965.69999998808,"correct":false,"confidence":5},{"trial_n":133,"min":87,"max":168,"target":"present","response":"absent","rt":900,"correct":false,"confidence":4},{"trial_n":134,"min":86,"max":169,"target":"absent","response":"absent","rt":1925.3000000119,"correct":true,"confidence":5},{"trial_n":135,"min":86,"max":169,"target":"present","response":"absent","rt":1189.8999999762,"correct":false,"confidence":2},{"trial_n":136,"min":85,"max":170,"target":"present","response":"present","rt":656.5,"correct":true,"confidence":4},{"trial_n":137,"min":85,"max":170,"target":"absent","response":"present","rt":576.89999997616,"correct":false,"confidence":5},{"trial_n":138,"min":84,"max":171,"target":"present","response":"absent","rt":854.39999997616,"correct":false,"confidence":4},{"trial_n":139,"min":83,"max":172,"target":"present","response":"present","rt":734.30000001192,"correct":true,"confidence":5},{"trial_n":140,"min":83,"max":172,"target":"absent","response":"present","rt":1164.2000000477,"correct":false,"confidence":5}]