[{"trial_n":1,"min":25,"max":230,"target":"present","response":"absent","rt":3811.1000000238,"correct":false,"confidence":-1},{"trial_n":2,"min":25,"max":230,"target":"present","response":"present","rt":817.30000001192,"correct":true,"confidence":-1},{"trial_n":3,"min":25,"max":230,"target":"absent","response":"absent","rt":389.89999997616,"correct":true,"confidence":-1},{"trial_n":4,"min":41,"max":214,"target":"absent","response":"absent","rt":298.10000002384,"correct":true,"confidence":-1},{"trial_n":5,"min":41,"max":214,"target":"present","response":"present","rt":249.09999996424,"correct":true,"confidence":-1},{"trial_n":6,"min":57,"max":198,"target":"absent","response":"absent","rt":549.40000003576,"correct":true,"confidence":-1},{"trial_n":7,"min":57,"max":198,"target":"present","response":"present","rt":2999,"correct":true,"confidence":-1},{"trial_n":8,"min":73,"max":182,"target":"absent","response":"absent","rt":514.80000001192,"correct":true,"confidence":-1},{"trial_n":9,"min":73,"max":182,"target":"present","response":"absent","rt":387.19999998808,"correct":false,"confidence":-1},{"trial_n":10,"min":57,"max":198,"target":"present","response":"present","rt":204.79999995232,"correct":true,"confidence":-1},{"trial_n":11,"min":57,"max":198,"target":"present","response":"present","rt":379.19999998808,"correct":true,"confidence":-1},{"trial_n":12,"min":65,"max":190,"target":"absent","response":"absent","rt":291.09999996424,"correct":true,"confidence":-1},{"trial_n":13,"min":65,"max":190,"target":"absent","response":"absent","rt":334.39999997616,"correct":true,"confidence":-1},{"trial_n":14,"min":73,"max":182,"target":"absent","response":"absent","rt":384.10000002384,"correct":true,"confidence":-1},{"trial_n":15,"min":73,"max":182,"target":"absent","response":"absent","rt":379.19999998808,"correct":true,"confidence":-1},{"trial_n":16,"min":81,"max":174,"target":"present","response":"present","rt":289.40000003576,"correct":true,"confidence":-1},{"trial_n":17,"min":81,"max":174,"target":"absent","response":"absent","rt":527.19999998808,"correct":true,"confidence":-1},{"trial_n":18,"min":89,"max":166,"target":"absent","response":"absent","rt":1098.4000000358,"correct":true,"confidence":-1},{"trial_n":19,"min":89,"max":166,"target":"absent","response":"absent","rt":221.30000001192,"correct":true,"confidence":-1},{"trial_n":20,"min":97,"max":158,"target":"absent","response":"absent","rt":171.19999998808,"correct":true,"confidence":-1},{"trial_n":21,"min":97,"max":158,"target":"absent","response":"absent","rt":680.80000001192,"correct":true,"confidence":4},{"trial_n":22,"min":101,"max":154,"target":"absent","response":"absent","rt":467.59999996424,"correct":true,"confidence":4},{"trial_n":23,"min":101,"max":154,"target":"absent","response":"absent","rt":234,"correct":true,"confidence":4},{"trial_n":24,"min":105,"max":150,"target":"absent","response":"absent","rt":358,"correct":true,"confidence":4},{"trial_n":25,"min":105,"max":150,"target":"present","response":"absent","rt":1372,"correct":false,"confidence":4},{"trial_n":26,"min":101,"max":154,"target":"absent","response":"absent","rt":1850.0999999642,"correct":true,"confidence":4},{"trial_n":27,"min":101,"max":154,"target":"present","response":"absent","rt":1048,"correct":false,"confidence":4},{"trial_n":28,"min":97,"max":158,"target":"present","response":"absent","rt":999.19999998808,"correct":false,"confidence":1},{"trial_n":29,"min":93,"max":162,"target":"absent","response":"absent","rt":542,"correct":true,"confidence":1},{"trial_n":30,"min":93,"max":162,"target":"present","response":"absent","rt":1818.3999999762,"correct":false,"confidence":4},{"trial_n":31,"min":91,"max":164,"target":"absent","response":"absent","rt":1184.6999999881,"correct":true,"confidence":4},{"trial_n":32,"min":91,"max":164,"target":"present","response":"absent","rt":500.19999998808,"correct":false,"confidence":3},{"trial_n":33,"min":89,"max":166,"target":"present","response":"absent","rt":356.5,"correct":false,"confidence":3},{"trial_n":34,"min":87,"max":168,"target":"present","response":"present","rt":1380.5,"correct":true,"confidence":3},{"trial_n":35,"min":87,"max":168,"target":"present","response":"absent","rt":633.90000003576,"correct":false,"confidence":1},{"trial_n":36,"min":85,"max":170,"target":"absent","response":"absent","rt":317.60000002384,"correct":true,"confidence":1},{"trial_n":37,"min":85,"max":170,"target":"absent","response":"absent","rt":11262.900000036,"correct":true,"confidence":3},{"trial_n":38,"min":87,"max":168,"target":"absent","response":"absent","rt":710.5,"correct":true,"confidence":1},{"trial_n":39,"min":87,"max":168,"target":"present","response":"present","rt":698.09999996424,"correct":true,"confidence":1},{"trial_n":40,"min":89,"max":166,"target":"absent","response":"absent","rt":548.5,"correct":true,"confidence":1},{"trial_n":41,"min":89,"max":166,"target":"absent","response":"absent","rt":609.19999998808,"correct":true,"confidence":1},{"trial_n":42,"min":90,"max":165,"target":"present","response":"absent","rt":2537.8999999762,"correct":false,"confidence":1},{"trial_n":43,"min":89,"max":166,"target":"present","response":"present","rt":452.79999995232,"correct":true,"confidence":1},{"trial_n":44,"min":89,"max":166,"target":"present","response":"present","rt":817.90000003576,"correct":true,"confidence":1},{"trial_n":45,"min":90,"max":165,"target":"present","response":"absent","rt":953.89999997616,"correct":false,"confidence":1},{"trial_n":46,"min":89,"max":166,"target":"present","response":"present","rt":357.59999996424,"correct":true,"confidence":1},{"trial_n":47,"min":89,"max":166,"target":"absent","response":"present","rt":610,"correct":false,"confidence":1},{"trial_n":48,"min":88,"max":167,"target":"absent","response":"absent","rt":137.69999998808,"correct":true,"confidence":1},{"trial_n":49,"min":88,"max":167,"target":"present","response":"present","rt":56.600000023842,"correct":true,"confidence":1},{"trial_n":50,"min":89,"max":166,"target":"present","response":"present","rt":699.29999995232,"correct":true,"confidence":1},{"trial_n":51,"min":89,"max":166,"target":"present","response":"present","rt":849.5,"correct":true,"confidence":1},{"trial_n":52,"min":90,"max":165,"target":"present","response":"absent","rt":430.20000004768,"correct":false,"confidence":1},{"trial_n":53,"min":89,"max":166,"target":"absent","response":"present","rt":77.800000011921,"correct":false,"confidence":1},{"trial_n":54,"min":88,"max":167,"target":"absent","response":"absent","rt":1787.1999999881,"correct":true,"confidence":1},{"trial_n":55,"min":88,"max":167,"target":"absent","response":"absent","rt":472.80000001192,"correct":true,"confidence":1},{"trial_n":56,"min":89,"max":166,"target":"present","response":"absent","rt":253.5,"correct":false,"confidence":1},{"trial_n":57,"min":88,"max":167,"target":"present","response":"absent","rt":597.90000003576,"correct":false,"confidence":1},{"trial_n":58,"min":87,"max":168,"target":"absent","response":"absent","rt":271.69999998808,"correct":true,"confidence":1},{"trial_n":59,"min":87,"max":168,"target":"present","response":"present","rt":473.90000003576,"correct":true,"confidence":1},{"trial_n":60,"min":88,"max":167,"target":"present","response":"present","rt":576.70000004768,"correct":true,"confidence":1},{"trial_n":61,"min":88,"max":167,"target":"absent","response":"absent","rt":666.19999998808,"correct":true,"confidence":1},{"trial_n":62,"min":89,"max":166,"target":"absent","response":"absent","rt":47.300000011921,"correct":true,"confidence":1},{"trial_n":63,"min":89,"max":166,"target":"present","response":"absent","rt":127.39999997616,"correct":false,"confidence":1},{"trial_n":64,"min":88,"max":167,"target":"present","response":"present","rt":145.39999997616,"correct":true,"confidence":1},{"trial_n":65,"min":88,"max":167,"target":"present","response":"present","rt":176.5,"correct":true,"confidence":1},{"trial_n":66,"min":89,"max":166,"target":"present","response":"present","rt":304.09999996424,"correct":true,"confidence":1},{"trial_n":67,"min":89,"max":166,"target":"present","response":"present","rt":151.09999996424,"correct":true,"confidence":1},{"trial_n":68,"min":90,"max":165,"target":"absent","response":"absent","rt":403.19999998808,"correct":true,"confidence":1},{"trial_n":69,"min":90,"max":165,"target":"present","response":"absent","rt":1058.7999999523,"correct":false,"confidence":1},{"trial_n":70,"min":89,"max":166,"target":"absent","response":"absent","rt":313.80000001192,"correct":true,"confidence":1},{"trial_n":71,"min":41,"max":214,"target":"present","response":"absent","rt":4086.9000000358,"correct":false,"confidence":-1},{"trial_n":72,"min":41,"max":214,"target":"present","response":"present","rt":1620.1999999881,"correct":true,"confidence":-1},{"trial_n":73,"min":41,"max":214,"target":"absent","response":"present","rt":719,"correct":false,"confidence":-1},{"trial_n":74,"min":25,"max":230,"target":"absent","response":"absent","rt":594.60000002384,"correct":true,"confidence":-1},{"trial_n":75,"min":25,"max":230,"target":"present","response":"present","rt":726.80000001192,"correct":true,"confidence":-1},{"trial_n":76,"min":41,"max":214,"target":"absent","response":"absent","rt":478.39999997616,"correct":true,"confidence":-1},{"trial_n":77,"min":41,"max":214,"target":"present","response":"present","rt":646.70000004768,"correct":true,"confidence":-1},{"trial_n":78,"min":57,"max":198,"target":"present","response":"present","rt":421.10000002384,"correct":true,"confidence":-1},{"trial_n":79,"min":57,"max":198,"target":"absent","response":"absent","rt":828.5,"correct":true,"confidence":-1},{"trial_n":80,"min":73,"max":182,"target":"present","response":"present","rt":1061.1999999881,"correct":true,"confidence":-1},{"trial_n":81,"min":73,"max":182,"target":"absent","response":"present","rt":528.59999996424,"correct":false,"confidence":-1},{"trial_n":82,"min":65,"max":190,"target":"absent","response":"absent","rt":893.19999998808,"correct":true,"confidence":-1},{"trial_n":83,"min":65,"max":190,"target":"absent","response":"absent","rt":889.69999998808,"correct":true,"confidence":-1},{"trial_n":84,"min":73,"max":182,"target":"present","response":"present","rt":399.5,"correct":true,"confidence":-1},{"trial_n":85,"min":73,"max":182,"target":"present","response":"absent","rt":621,"correct":false,"confidence":-1},{"trial_n":86,"min":65,"max":190,"target":"absent","response":"absent","rt":710.30000001192,"correct":true,"confidence":-1},{"trial_n":87,"min":65,"max":190,"target":"present","response":"present","rt":530.30000001192,"correct":true,"confidence":-1},{"trial_n":88,"min":73,"max":182,"target":"present","response":"absent","rt":434,"correct":false,"confidence":-1},{"trial_n":89,"min":65,"max":190,"target":"absent","response":"present","rt":365.10000002384,"correct":false,"confidence":-1},{"trial_n":90,"min":57,"max":198,"target":"absent","response":"absent","rt":132.69999998808,"correct":true,"confidence":-1},{"trial_n":91,"min":57,"max":198,"target":"present","response":"present","rt":634.69999998808,"correct":true,"confidence":3},{"trial_n":92,"min":61,"max":194,"target":"absent","response":"present","rt":635,"correct":false,"confidence":1},{"trial_n":93,"min":57,"max":198,"target":"present","response":"absent","rt":340.19999998808,"correct":false,"confidence":1},{"trial_n":94,"min":53,"max":202,"target":"absent","response":"present","rt":303.19999998808,"correct":false,"confidence":1},{"trial_n":95,"min":49,"max":206,"target":"present","response":"absent","rt":295.90000003576,"correct":false,"confidence":1},{"trial_n":96,"min":45,"max":210,"target":"present","response":"present","rt":335.60000002384,"correct":true,"confidence":1},{"trial_n":97,"min":45,"max":210,"target":"absent","response":"absent","rt":304.20000004768,"correct":true,"confidence":1},{"trial_n":98,"min":49,"max":206,"target":"absent","response":"present","rt":282.20000004768,"correct":false,"confidence":1},{"trial_n":99,"min":45,"max":210,"target":"present","response":"absent","rt":279.39999997616,"correct":false,"confidence":1},{"trial_n":100,"min":41,"max":214,"target":"present","response":"present","rt":263.60000002384,"correct":true,"confidence":1},{"trial_n":101,"min":41,"max":214,"target":"present","response":"present","rt":854.79999995232,"correct":true,"confidence":3},{"trial_n":102,"min":43,"max":212,"target":"present","response":"present","rt":391.80000001192,"correct":true,"confidence":3},{"trial_n":103,"min":43,"max":212,"target":"present","response":"present","rt":478.80000001192,"correct":true,"confidence":3},{"trial_n":104,"min":45,"max":210,"target":"absent","response":"absent","rt":527.40000003576,"correct":true,"confidence":4},{"trial_n":105,"min":45,"max":210,"target":"present","response":"present","rt":379.79999995232,"correct":true,"confidence":5},{"trial_n":106,"min":47,"max":208,"target":"present","response":"present","rt":382.19999998808,"correct":true,"confidence":5},{"trial_n":107,"min":47,"max":208,"target":"present","response":"present","rt":266.79999995232,"correct":true,"confidence":5},{"trial_n":108,"min":49,"max":206,"target":"absent","response":"absent","rt":662.89999997616,"correct":true,"confidence":5},{"trial_n":109,"min":49,"max":206,"target":"present","response":"present","rt":605.30000001192,"correct":true,"confidence":5},{"trial_n":110,"min":51,"max":204,"target":"absent","response":"absent","rt":482.69999998808,"correct":true,"confidence":5},{"trial_n":111,"min":51,"max":204,"target":"present","response":"present","rt":357.80000001192,"correct":true,"confidence":5},{"trial_n":112,"min":52,"max":203,"target":"present","response":"present","rt":447.89999997616,"correct":true,"confidence":5},{"trial_n":113,"min":52,"max":203,"target":"absent","response":"absent","rt":629.19999998808,"correct":true,"confidence":5},{"trial_n":114,"min":53,"max":202,"target":"present","response":"present","rt":889.79999995232,"correct":true,"confidence":5},{"trial_n":115,"min":53,"max":202,"target":"absent","response":"absent","rt":1295.8000000119,"correct":true,"confidence":5},{"trial_n":116,"min":54,"max":201,"target":"absent","response":"absent","rt":649.89999997616,"correct":true,"confidence":5},{"trial_n":117,"min":54,"max":201,"target":"absent","response":"absent","rt":516.60000002384,"correct":true,"confidence":5},{"trial_n":118,"min":55,"max":200,"target":"present","response":"absent","rt":1010.8999999762,"correct":false,"confidence":5},{"trial_n":119,"min":54,"max":201,"target":"absent","response":"absent","rt":560.80000001192,"correct":true,"confidence":5},{"trial_n":120,"min":54,"max":201,"target":"present","response":"present","rt":306.30000001192,"correct":true,"confidence":5},{"trial_n":121,"min":55,"max":200,"target":"absent","response":"absent","rt":793.80000001192,"correct":true,"confidence":5},{"trial_n":122,"min":55,"max":200,"target":"present","response":"present","rt":10121.199999988,"correct":true,"confidence":1},{"trial_n":123,"min":56,"max":199,"target":"absent","response":"absent","rt":609.09999996424,"correct":true,"confidence":5},{"trial_n":124,"min":56,"max":199,"target":"present","response":"present","rt":392.5,"correct":true,"confidence":5},{"trial_n":125,"min":57,"max":198,"target":"absent","response":"absent","rt":866.20000004768,"correct":true,"confidence":5},{"trial_n":126,"min":57,"max":198,"target":"absent","response":"absent","rt":594.39999997616,"correct":true,"confidence":5},{"trial_n":127,"min":58,"max":197,"target":"present","response":"present","rt":934.89999997616,"correct":true,"confidence":5},{"trial_n":128,"min":58,"max":197,"target":"absent","response":"present","rt":644.80000001192,"correct":false,"confidence":5},{"trial_n":129,"min":57,"max":198,"target":"absent","response":"absent","rt":1000.3000000119,"correct":true,"confidence":1},{"trial_n":130,"min":57,"max":198,"target":"absent","response":"absent","rt":947.5,"correct":true,"confidence":5},{"trial_n":131,"min":58,"max":197,"target":"present","response":"present","rt":504.30000001192,"correct":true,"confidence":5},{"trial_n":132,"min":58,"max":197,"target":"absent","response":"absent","rt":586.80000001192,"correct":true,"confidence":5},{"trial_n":133,"min":59,"max":196,"target":"absent","response":"absent","rt":668.10000002384,"correct":true,"confidence":5},{"trial_n":134,"min":59,"max":196,"target":"absent","response":"absent","rt":876.5,"correct":true,"confidence":3},{"trial_n":135,"min":60,"max":195,"target":"present","response":"present","rt":629,"correct":true,"confidence":5},{"trial_n":136,"min":60,"max":195,"target":"absent","response":"absent","rt":703.60000002384,"correct":true,"confidence":5},{"trial_n":137,"min":61,"max":194,"target":"present","response":"present","rt":340.5,"correct":true,"confidence":5},{"trial_n":138,"min":61,"max":194,"target":"absent","response":"absent","rt":902.09999996424,"correct":true,"confidence":5},{"trial_n":139,"min":62,"max":193,"target":"present","response":"absent","rt":898.89999997616,"correct":false,"confidence":1},{"trial_n":140,"min":61,"max":194,"target":"present","response":"present","rt":378.39999997616,"correct":true,"confidence":5}]