[{"trial_n":1,"span":8,"encoder":"97004600","distractor":"97094600","target":"present","response":"absent","rt":"5474","correct":false,"confidence":-1},{"trial_n":2,"span":6,"encoder":"217209","distractor":"317209","target":"present","response":"present","rt":"2564.6999999881","correct":true,"confidence":-1},{"trial_n":3,"span":6,"encoder":"456780","distractor":"456080","target":"absent","response":"absent","rt":"2123.6999999881","correct":true,"confidence":-1},{"trial_n":4,"span":8,"encoder":"98141718","distractor":"98121718","target":"absent","response":"present","rt":"1410.6000000238","correct":false,"confidence":-1},{"trial_n":5,"span":6,"encoder":"432278","distractor":"932278","target":"present","response":"present","rt":"1197.8999999762","correct":true,"confidence":-1},{"trial_n":6,"span":6,"encoder":"610905","distractor":"614905","target":"absent","response":"present","rt":"1572.6000000238","correct":false,"confidence":-1},{"trial_n":7,"span":4,"encoder":"3967","distractor":"3977","target":"present","response":"present","rt":"1280.1000000238","correct":true,"confidence":-1},{"trial_n":8,"span":4,"encoder":"4375","distractor":"2375","target":"present","response":"present","rt":"1739.4000000358","correct":true,"confidence":-1},{"trial_n":9,"span":6,"encoder":"323544","distractor":"373544","target":"present","response":"present","rt":"1118.1000000238","correct":true,"confidence":-1},{"trial_n":10,"span":6,"encoder":"162066","distractor":"161066","target":"present","response":"present","rt":"1635","correct":true,"confidence":-1},{"trial_n":11,"span":8,"encoder":"34539777","distractor":"34539775","target":"absent","response":"absent","rt":"1939.2000000477","correct":true,"confidence":-1},{"trial_n":12,"span":8,"encoder":"70736977","distractor":"40736977","target":"present","response":"absent","rt":"1201.5","correct":false,"confidence":-1},{"trial_n":13,"span":7,"encoder":"1674486","distractor":"1374486","target":"absent","response":"present","rt":"1861","correct":false,"confidence":-1},{"trial_n":14,"span":6,"encoder":"886921","distractor":"886021","target":"absent","response":"present","rt":"1042.3999999762","correct":false,"confidence":-1},{"trial_n":15,"span":5,"encoder":"66899","distractor":"76899","target":"present","response":"present","rt":"1167.8000000119","correct":true,"confidence":-1},{"trial_n":16,"span":5,"encoder":"85816","distractor":"82816","target":"absent","response":"absent","rt":"2199.8000000119","correct":true,"confidence":-1},{"trial_n":17,"span":6,"encoder":"582773","distractor":"522773","target":"present","response":"present","rt":"1938.6000000238","correct":true,"confidence":-1},{"trial_n":18,"span":6,"encoder":"117751","distractor":"177751","target":"present","response":"present","rt":"1594.8000000119","correct":true,"confidence":-1},{"trial_n":19,"span":7,"encoder":"9408407","distractor":"9468407","target":"absent","response":"absent","rt":"2437.7999999523","correct":true,"confidence":-1},{"trial_n":20,"span":7,"encoder":"7435965","distractor":"7475965","target":"present","response":"present","rt":"884.09999996424","correct":true,"confidence":-1},{"trial_n":21,"span":8,"encoder":"82537712","distractor":"82537713","target":"absent","response":"absent","rt":"1966","correct":true,"confidence":3},{"trial_n":22,"span":8,"encoder":"91527524","distractor":"91527528","target":"present","response":"present","rt":"3493.1000000238","correct":true,"confidence":1},{"trial_n":23,"span":9,"encoder":"863603214","distractor":"853603214","target":"present","response":"present","rt":"2048.3999999762","correct":true,"confidence":2},{"trial_n":24,"span":9,"encoder":"463878339","distractor":"463878309","target":"absent","response":"absent","rt":"1897.3999999762","correct":true,"confidence":3},{"trial_n":25,"span":10,"encoder":"7681805887","distractor":"7681805888","target":"present","response":"present","rt":"1809.6000000238","correct":true,"confidence":1},{"trial_n":26,"span":10,"encoder":"2770030307","distractor":"2770030397","target":"present","response":"present","rt":"2888","correct":true,"confidence":2},{"trial_n":27,"span":11,"encoder":"85937737868","distractor":"85937734868","target":"absent","response":"absent","rt":"3597.5","correct":true,"confidence":1},{"trial_n":28,"span":11,"encoder":"24769178945","distractor":"24869178945","target":"absent","response":"absent","rt":"2700.3999999762","correct":true,"confidence":1},{"trial_n":29,"span":12,"encoder":"884304224647","distractor":"864304224647","target":"present","response":"present","rt":"3096.3000000119","correct":true,"confidence":3},{"trial_n":30,"span":12,"encoder":"518810814272","distractor":"618810814272","target":"absent","response":"absent","rt":"2596.3999999762","correct":true,"confidence":1},{"trial_n":31,"span":13,"encoder":"0793017113486","distractor":"0793517113486","target":"present","response":"absent","rt":"2863.5999999642","correct":false,"confidence":1},{"trial_n":32,"span":12,"encoder":"798425979369","distractor":"798425971369","target":"present","response":"present","rt":"2222.3000000119","correct":true,"confidence":1},{"trial_n":33,"span":12,"encoder":"100273566036","distractor":"100373566036","target":"present","response":"present","rt":"2342.7000000477","correct":true,"confidence":1},{"trial_n":34,"span":13,"encoder":"2250595683125","distractor":"2250545683125","target":"absent","response":"absent","rt":"1884.2000000477","correct":true,"confidence":1},{"trial_n":35,"span":13,"encoder":"7571410415813","distractor":"7571410515813","target":"absent","response":"present","rt":"1715.5","correct":false,"confidence":1},{"trial_n":36,"span":12,"encoder":"097703682749","distractor":"097703682746","target":"present","response":"present","rt":"1914.8999999762","correct":true,"confidence":1},{"trial_n":37,"span":12,"encoder":"211966831287","distractor":"215966831287","target":"absent","response":"absent","rt":"1731.8999999762","correct":true,"confidence":1},{"trial_n":38,"span":13,"encoder":"5838735862842","distractor":"5848735862842","target":"absent","response":"present","rt":"541.19999998808","correct":false,"confidence":1},{"trial_n":39,"span":12,"encoder":"206420902843","distractor":"206720902843","target":"present","response":"absent","rt":"736.39999997616","correct":false,"confidence":1},{"trial_n":40,"span":11,"encoder":"45196138113","distractor":"45196838113","target":"present","response":"present","rt":"3969.8000000119","correct":true,"confidence":1},{"trial_n":41,"span":11,"encoder":"22824619928","distractor":"24824619928","target":"present","response":"present","rt":"549.10000002384","correct":true,"confidence":1},{"trial_n":42,"span":12,"encoder":"707275696378","distractor":"707275646378","target":"absent","response":"absent","rt":"3131.3999999762","correct":true,"confidence":1},{"trial_n":43,"span":12,"encoder":"546696921230","distractor":"546698921230","target":"absent","response":"absent","rt":"3488.8999999762","correct":true,"confidence":1},{"trial_n":44,"span":13,"encoder":"6606154644678","distractor":"6606154644658","target":"present","response":"present","rt":"2590.9000000358","correct":true,"confidence":1},{"trial_n":45,"span":13,"encoder":"3276445903817","distractor":"2276445903817","target":"present","response":"absent","rt":"1855.6000000238","correct":false,"confidence":1},{"trial_n":46,"span":12,"encoder":"778680164031","distractor":"778680164081","target":"absent","response":"present","rt":"366.29999995232","correct":false,"confidence":1},{"trial_n":47,"span":11,"encoder":"93688867228","distractor":"93688867328","target":"present","response":"present","rt":"1446.3000000119","correct":true,"confidence":1},{"trial_n":48,"span":11,"encoder":"18820074016","distractor":"18824074016","target":"absent","response":"present","rt":"1929.8000000119","correct":false,"confidence":1},{"trial_n":49,"span":10,"encoder":"2725929923","distractor":"2723929923","target":"absent","response":"present","rt":"2283","correct":false,"confidence":1},{"trial_n":50,"span":9,"encoder":"561081203","distractor":"561081201","target":"present","response":"present","rt":"9017.3000000119","correct":true,"confidence":1},{"trial_n":51,"span":9,"encoder":"763415880","distractor":"663415880","target":"absent","response":"present","rt":"1133.4000000358","correct":false,"confidence":1},{"trial_n":52,"span":8,"encoder":"52095002","distractor":"52095042","target":"absent","response":"present","rt":"2666.7000000477","correct":false,"confidence":1},{"trial_n":53,"span":7,"encoder":"4153629","distractor":"4155629","target":"absent","response":"present","rt":"975.89999997616","correct":false,"confidence":1},{"trial_n":54,"span":6,"encoder":"885807","distractor":"885877","target":"absent","response":"absent","rt":"2100","correct":true,"confidence":1},{"trial_n":55,"span":6,"encoder":"732666","distractor":"732668","target":"absent","response":"absent","rt":"2341.5","correct":true,"confidence":3},{"trial_n":56,"span":7,"encoder":"8650164","distractor":"8660164","target":"present","response":"present","rt":"2732.3000000119","correct":true,"confidence":3},{"trial_n":57,"span":7,"encoder":"8670092","distractor":"8670052","target":"absent","response":"absent","rt":"1487.1999999881","correct":true,"confidence":3},{"trial_n":58,"span":8,"encoder":"51421968","distractor":"71421968","target":"present","response":"absent","rt":"2120.8000000119","correct":false,"confidence":3},{"trial_n":59,"span":7,"encoder":"6135560","distractor":"6135564","target":"absent","response":"absent","rt":"2880.5","correct":true,"confidence":3},{"trial_n":60,"span":7,"encoder":"1732019","distractor":"1732069","target":"present","response":"absent","rt":"4310.1999999881","correct":false,"confidence":3},{"trial_n":61,"span":6,"encoder":"565427","distractor":"565428","target":"present","response":"present","rt":"2384.7000000477","correct":true,"confidence":3},{"trial_n":62,"span":6,"encoder":"948045","distractor":"978045","target":"present","response":"present","rt":"2649","correct":true,"confidence":3},{"trial_n":63,"span":7,"encoder":"7814330","distractor":"7514330","target":"absent","response":"absent","rt":"2509.6999999881","correct":true,"confidence":3},{"trial_n":64,"span":7,"encoder":"7462400","distractor":"7862400","target":"present","response":"absent","rt":"2743.8000000119","correct":false,"confidence":3},{"trial_n":65,"span":6,"encoder":"625631","distractor":"525631","target":"absent","response":"absent","rt":"1295.6000000238","correct":true,"confidence":3},{"trial_n":66,"span":6,"encoder":"799939","distractor":"749939","target":"absent","response":"absent","rt":"1915.2000000477","correct":true,"confidence":3},{"trial_n":67,"span":7,"encoder":"3126512","distractor":"3126412","target":"present","response":"present","rt":"1481.8000000119","correct":true,"confidence":3},{"trial_n":68,"span":7,"encoder":"1312077","distractor":"1362077","target":"absent","response":"absent","rt":"2645.8999999762","correct":true,"confidence":3},{"trial_n":69,"span":8,"encoder":"43300622","distractor":"48300622","target":"absent","response":"absent","rt":"2222.8000000119","correct":true,"confidence":3},{"trial_n":70,"span":8,"encoder":"84833615","distractor":"84833685","target":"present","response":"absent","rt":"1884","correct":false,"confidence":3},{"trial_n":71,"span":8,"encoder":"72156770","distractor":"12156770","target":"present","response":"present","rt":"4588.8999999762","correct":true,"confidence":-1},{"trial_n":72,"span":8,"encoder":"46286239","distractor":"46286539","target":"present","response":"present","rt":"2281.8999999762","correct":true,"confidence":-1},{"trial_n":73,"span":9,"encoder":"992342411","distractor":"192342411","target":"absent","response":"present","rt":"5423.4000000358","correct":false,"confidence":-1},{"trial_n":74,"span":8,"encoder":"54116030","distractor":"59116030","target":"absent","response":"present","rt":"1669.8999999762","correct":false,"confidence":-1},{"trial_n":75,"span":7,"encoder":"2379942","distractor":"2379944","target":"present","response":"absent","rt":"499.89999997616","correct":false,"confidence":-1},{"trial_n":76,"span":6,"encoder":"396031","distractor":"395031","target":"present","response":"present","rt":"279.69999998808","correct":true,"confidence":-1},{"trial_n":77,"span":6,"encoder":"592941","distractor":"592241","target":"present","response":"absent","rt":"925.10000002384","correct":false,"confidence":-1},{"trial_n":78,"span":5,"encoder":"13148","distractor":"13158","target":"absent","response":"present","rt":"985.5","correct":false,"confidence":-1},{"trial_n":79,"span":4,"encoder":"8586","distractor":"3586","target":"absent","response":"present","rt":"20105.199999988","correct":false,"confidence":-1},{"trial_n":80,"span":3,"encoder":"280","distractor":"289","target":"present","response":"absent","rt":"724.30000001192","correct":false,"confidence":-1},{"trial_n":81,"span":2,"encoder":"80","distractor":"30","target":"absent","response":"present","rt":"377.59999996424","correct":false,"confidence":-1},{"trial_n":82,"span":2,"encoder":"07","distractor":"00","target":"absent","response":"absent","rt":"1132.6999999881","correct":true,"confidence":-1},{"trial_n":83,"span":2,"encoder":"87","distractor":"83","target":"present","response":"present","rt":"2114.3000000119","correct":true,"confidence":-1},{"trial_n":84,"span":3,"encoder":"147","distractor":"137","target":"present","response":"present","rt":"1109","correct":true,"confidence":-1},{"trial_n":85,"span":3,"encoder":"955","distractor":"255","target":"present","response":"present","rt":"900.5","correct":true,"confidence":-1},{"trial_n":86,"span":4,"encoder":"3048","distractor":"3043","target":"absent","response":"absent","rt":"1789.5999999642","correct":true,"confidence":-1},{"trial_n":87,"span":4,"encoder":"5739","distractor":"3739","target":"present","response":"present","rt":"1511","correct":true,"confidence":-1},{"trial_n":88,"span":5,"encoder":"42405","distractor":"32405","target":"present","response":"present","rt":"1066.1000000238","correct":true,"confidence":-1},{"trial_n":89,"span":5,"encoder":"70217","distractor":"70317","target":"present","response":"present","rt":"959.79999995232","correct":true,"confidence":-1},{"trial_n":90,"span":6,"encoder":"344135","distractor":"344235","target":"absent","response":"absent","rt":"940.69999998808","correct":true,"confidence":-1},{"trial_n":91,"span":6,"encoder":"844502","distractor":"844902","target":"present","response":"present","rt":"1292.8000000119","correct":true,"confidence":3},{"trial_n":92,"span":7,"encoder":"6761029","distractor":"6711029","target":"absent","response":"absent","rt":"2480.6999999881","correct":true,"confidence":1},{"trial_n":93,"span":7,"encoder":"7319420","distractor":"7419420","target":"absent","response":"present","rt":"3452.7999999523","correct":false,"confidence":2},{"trial_n":94,"span":6,"encoder":"184861","distractor":"184864","target":"present","response":"present","rt":"1567.4000000358","correct":true,"confidence":3},{"trial_n":95,"span":6,"encoder":"673311","distractor":"673331","target":"present","response":"present","rt":"2997.5","correct":true,"confidence":1},{"trial_n":96,"span":7,"encoder":"2826882","distractor":"2426882","target":"present","response":"present","rt":"3069.8000000119","correct":true,"confidence":3},{"trial_n":97,"span":7,"encoder":"4737124","distractor":"4737924","target":"present","response":"present","rt":"2115.6999999881","correct":true,"confidence":1},{"trial_n":98,"span":8,"encoder":"63494107","distractor":"63424107","target":"present","response":"absent","rt":"777.09999996424","correct":false,"confidence":1},{"trial_n":99,"span":7,"encoder":"8342794","distractor":"5342794","target":"absent","response":"present","rt":"671.19999998808","correct":false,"confidence":1},{"trial_n":100,"span":6,"encoder":"481160","distractor":"482160","target":"present","response":"absent","rt":"441.5","correct":false,"confidence":1},{"trial_n":101,"span":5,"encoder":"61617","distractor":"61017","target":"absent","response":"absent","rt":"1527","correct":true,"confidence":3},{"trial_n":102,"span":5,"encoder":"68405","distractor":"68400","target":"present","response":"present","rt":"2109.5","correct":true,"confidence":3},{"trial_n":103,"span":6,"encoder":"050999","distractor":"950999","target":"absent","response":"absent","rt":"2312.3000000119","correct":true,"confidence":3},{"trial_n":104,"span":6,"encoder":"639825","distractor":"639895","target":"absent","response":"absent","rt":"3659.8999999762","correct":true,"confidence":3},{"trial_n":105,"span":7,"encoder":"5132660","distractor":"5232660","target":"present","response":"present","rt":"3231.1000000238","correct":true,"confidence":3},{"trial_n":106,"span":7,"encoder":"4726051","distractor":"4726451","target":"present","response":"absent","rt":"1163.6999999881","correct":false,"confidence":1},{"trial_n":107,"span":6,"encoder":"124868","distractor":"124898","target":"present","response":"present","rt":"6296.1999999881","correct":true,"confidence":3},{"trial_n":108,"span":6,"encoder":"289837","distractor":"259837","target":"absent","response":"absent","rt":"2030.8000000119","correct":true,"confidence":3},{"trial_n":109,"span":7,"encoder":"9876219","distractor":"9876119","target":"present","response":"present","rt":"732.29999995232","correct":true,"confidence":1},{"trial_n":110,"span":7,"encoder":"3739548","distractor":"3739748","target":"absent","response":"absent","rt":"2691.3999999762","correct":true,"confidence":3},{"trial_n":111,"span":8,"encoder":"79818339","distractor":"79818399","target":"absent","response":"absent","rt":"1292.1000000238","correct":true,"confidence":1},{"trial_n":112,"span":8,"encoder":"02290524","distractor":"01290524","target":"present","response":"present","rt":"1299","correct":true,"confidence":3},{"trial_n":113,"span":9,"encoder":"312424327","distractor":"712424327","target":"present","response":"present","rt":"1239.4000000358","correct":true,"confidence":3},{"trial_n":114,"span":9,"encoder":"345694180","distractor":"348694180","target":"present","response":"absent","rt":"7634","correct":false,"confidence":1},{"trial_n":115,"span":8,"encoder":"44506305","distractor":"44536305","target":"present","response":"absent","rt":"4485.8999999762","correct":false,"confidence":1},{"trial_n":116,"span":7,"encoder":"1804064","distractor":"1204064","target":"present","response":"present","rt":"1391.5","correct":true,"confidence":3},{"trial_n":117,"span":7,"encoder":"1496480","distractor":"1496410","target":"present","response":"present","rt":"3168.1999999881","correct":true,"confidence":3},{"trial_n":118,"span":8,"encoder":"92325984","distractor":"92325884","target":"present","response":"present","rt":"1258.3000000119","correct":true,"confidence":1},{"trial_n":119,"span":8,"encoder":"41362399","distractor":"41365399","target":"absent","response":"absent","rt":"2352.1000000238","correct":true,"confidence":3},{"trial_n":120,"span":9,"encoder":"770200829","distractor":"470200829","target":"absent","response":"absent","rt":"3501.6000000238","correct":true,"confidence":3},{"trial_n":121,"span":9,"encoder":"879534720","distractor":"879504720","target":"absent","response":"present","rt":"2323","correct":false,"confidence":3},{"trial_n":122,"span":8,"encoder":"47831690","distractor":"47831090","target":"present","response":"present","rt":"3537.5999999642","correct":true,"confidence":3},{"trial_n":123,"span":8,"encoder":"87769714","distractor":"87769764","target":"absent","response":"present","rt":"1025.9000000358","correct":false,"confidence":1},{"trial_n":124,"span":7,"encoder":"8236302","distractor":"5236302","target":"present","response":"absent","rt":"1185.3000000119","correct":false,"confidence":3},{"trial_n":125,"span":6,"encoder":"365708","distractor":"364708","target":"absent","response":"present","rt":"1362.7999999523","correct":false,"confidence":1},{"trial_n":126,"span":5,"encoder":"01134","distractor":"61134","target":"absent","response":"present","rt":"1721.3999999762","correct":false,"confidence":1},{"trial_n":127,"span":4,"encoder":"3718","distractor":"8718","target":"absent","response":"absent","rt":"1293.8000000119","correct":true,"confidence":3},{"trial_n":128,"span":4,"encoder":"9728","distractor":"9727","target":"present","response":"present","rt":"1714.1999999881","correct":true,"confidence":4},{"trial_n":129,"span":5,"encoder":"34369","distractor":"34359","target":"absent","response":"absent","rt":"3208.1000000238","correct":true,"confidence":4},{"trial_n":130,"span":5,"encoder":"36788","distractor":"36798","target":"absent","response":"absent","rt":"1311.8000000119","correct":true,"confidence":4},{"trial_n":131,"span":6,"encoder":"797947","distractor":"897947","target":"present","response":"present","rt":"1268.0999999642","correct":true,"confidence":3},{"trial_n":132,"span":6,"encoder":"413525","distractor":"453525","target":"absent","response":"absent","rt":"1328.5","correct":true,"confidence":3},{"trial_n":133,"span":7,"encoder":"8571877","distractor":"3571877","target":"present","response":"present","rt":"1143.5","correct":true,"confidence":3},{"trial_n":134,"span":7,"encoder":"5242323","distractor":"5342323","target":"absent","response":"absent","rt":"1570.2000000477","correct":true,"confidence":3},{"trial_n":135,"span":8,"encoder":"00903399","distractor":"00943399","target":"absent","response":"absent","rt":"2680.3999999762","correct":true,"confidence":3},{"trial_n":136,"span":8,"encoder":"20301475","distractor":"50301475","target":"absent","response":"absent","rt":"1172.3000000119","correct":true,"confidence":3},{"trial_n":137,"span":9,"encoder":"891636761","distractor":"899636761","target":"absent","response":"absent","rt":"1601.6999999881","correct":true,"confidence":1},{"trial_n":138,"span":9,"encoder":"281208469","distractor":"281308469","target":"absent","response":"present","rt":"4684.5","correct":false,"confidence":1},{"trial_n":139,"span":8,"encoder":"14722190","distractor":"14724190","target":"absent","response":"absent","rt":"1634","correct":true,"confidence":3},{"trial_n":140,"span":8,"encoder":"23712001","distractor":"23792001","target":"absent","response":"absent","rt":"1985","correct":true,"confidence":3}]