[{"trial_n":1,"span":8,"encoder":"56186038","distractor":"56183038","target":"present","response":"present","rt":"4513","correct":true,"confidence":-1},{"trial_n":2,"span":8,"encoder":"77625226","distractor":"77625026","target":"present","response":"present","rt":"2581.3999999762","correct":true,"confidence":-1},{"trial_n":3,"span":10,"encoder":"3425694886","distractor":"3415694886","target":"absent","response":"present","rt":"2692.1999999881","correct":false,"confidence":-1},{"trial_n":4,"span":8,"encoder":"09406917","distractor":"09406919","target":"absent","response":"absent","rt":"1750.5","correct":true,"confidence":-1},{"trial_n":5,"span":8,"encoder":"49820350","distractor":"49820351","target":"present","response":"absent","rt":"2870.8000000119","correct":false,"confidence":-1},{"trial_n":6,"span":6,"encoder":"208953","distractor":"108953","target":"present","response":"present","rt":"2257.2000000477","correct":true,"confidence":-1},{"trial_n":7,"span":6,"encoder":"717504","distractor":"710504","target":"absent","response":"absent","rt":"2027","correct":true,"confidence":-1},{"trial_n":8,"span":8,"encoder":"62962534","distractor":"62962533","target":"present","response":"present","rt":"2961.5","correct":true,"confidence":-1},{"trial_n":9,"span":8,"encoder":"79650808","distractor":"79650908","target":"absent","response":"present","rt":"3708.8000000119","correct":false,"confidence":-1},{"trial_n":10,"span":6,"encoder":"614773","distractor":"614473","target":"present","response":"present","rt":"1326","correct":true,"confidence":-1},{"trial_n":11,"span":6,"encoder":"263790","distractor":"263793","target":"absent","response":"absent","rt":"1409.8999999762","correct":true,"confidence":-1},{"trial_n":12,"span":7,"encoder":"0756415","distractor":"0716415","target":"absent","response":"absent","rt":"1934.6999999881","correct":true,"confidence":-1},{"trial_n":13,"span":7,"encoder":"2526971","distractor":"2529971","target":"absent","response":"absent","rt":"3075.4000000358","correct":true,"confidence":-1},{"trial_n":14,"span":8,"encoder":"90744856","distractor":"90749856","target":"present","response":"present","rt":"1386.1000000238","correct":true,"confidence":-1},{"trial_n":15,"span":8,"encoder":"38338020","distractor":"35338020","target":"absent","response":"present","rt":"2092","correct":false,"confidence":-1},{"trial_n":16,"span":7,"encoder":"8429971","distractor":"8428971","target":"present","response":"present","rt":"1319","correct":true,"confidence":-1},{"trial_n":17,"span":7,"encoder":"4486391","distractor":"4486397","target":"absent","response":"absent","rt":"1584.6999999881","correct":true,"confidence":-1},{"trial_n":18,"span":8,"encoder":"89094224","distractor":"89694224","target":"absent","response":"absent","rt":"2368.6000000238","correct":true,"confidence":-1},{"trial_n":19,"span":8,"encoder":"28261498","distractor":"28261898","target":"present","response":"present","rt":"1932.5","correct":true,"confidence":-1},{"trial_n":20,"span":9,"encoder":"992657404","distractor":"992457404","target":"present","response":"present","rt":"6272.4000000358","correct":true,"confidence":-1},{"trial_n":21,"span":9,"encoder":"735525439","distractor":"735515439","target":"present","response":"present","rt":"6286.8000000119","correct":true,"confidence":3},{"trial_n":22,"span":10,"encoder":"3225909459","distractor":"3225909456","target":"present","response":"absent","rt":"2845.8000000119","correct":false,"confidence":4},{"trial_n":23,"span":9,"encoder":"244856091","distractor":"244866091","target":"absent","response":"present","rt":"3290.4000000358","correct":false,"confidence":2},{"trial_n":24,"span":8,"encoder":"03369468","distractor":"03329468","target":"present","response":"present","rt":"2074.6000000238","correct":true,"confidence":5},{"trial_n":25,"span":8,"encoder":"52090884","distractor":"52090824","target":"present","response":"present","rt":"1044.6000000238","correct":true,"confidence":5},{"trial_n":26,"span":9,"encoder":"196256388","distractor":"196252388","target":"present","response":"present","rt":"7502.3000000119","correct":true,"confidence":5},{"trial_n":27,"span":9,"encoder":"534286983","distractor":"534296983","target":"present","response":"present","rt":"3224.1000000238","correct":true,"confidence":5},{"trial_n":28,"span":10,"encoder":"2770611994","distractor":"2770641994","target":"present","response":"present","rt":"2702.6000000238","correct":true,"confidence":5},{"trial_n":29,"span":10,"encoder":"8918468618","distractor":"8918468619","target":"present","response":"absent","rt":"4064.3000000119","correct":false,"confidence":4},{"trial_n":30,"span":9,"encoder":"328556847","distractor":"328556877","target":"absent","response":"present","rt":"2672.1999999881","correct":false,"confidence":5},{"trial_n":31,"span":8,"encoder":"59223138","distractor":"59223128","target":"absent","response":"present","rt":"7703.5","correct":false,"confidence":5},{"trial_n":32,"span":7,"encoder":"1626955","distractor":"1625955","target":"absent","response":"present","rt":"1068.5","correct":false,"confidence":4},{"trial_n":33,"span":6,"encoder":"090980","distractor":"690980","target":"present","response":"present","rt":"3113.6999999881","correct":true,"confidence":5},{"trial_n":34,"span":6,"encoder":"271431","distractor":"277431","target":"present","response":"absent","rt":"4050.4000000358","correct":false,"confidence":3},{"trial_n":35,"span":5,"encoder":"29463","distractor":"29461","target":"present","response":"present","rt":"3472.1000000238","correct":true,"confidence":5},{"trial_n":36,"span":5,"encoder":"19922","distractor":"29922","target":"absent","response":"absent","rt":"1865.8999999762","correct":true,"confidence":3},{"trial_n":37,"span":6,"encoder":"313242","distractor":"313232","target":"present","response":"present","rt":"1888.8999999762","correct":true,"confidence":4},{"trial_n":38,"span":6,"encoder":"180119","distractor":"580119","target":"absent","response":"absent","rt":"3880.3999999762","correct":true,"confidence":5},{"trial_n":39,"span":7,"encoder":"5023298","distractor":"5023292","target":"absent","response":"absent","rt":"2783","correct":true,"confidence":5},{"trial_n":40,"span":7,"encoder":"0951247","distractor":"0951347","target":"absent","response":"absent","rt":"2604.5999999642","correct":true,"confidence":5},{"trial_n":41,"span":8,"encoder":"98168016","distractor":"98668016","target":"present","response":"absent","rt":"2967.5","correct":false,"confidence":5},{"trial_n":42,"span":7,"encoder":"9824626","distractor":"9824624","target":"present","response":"present","rt":"3414.5","correct":true,"confidence":3},{"trial_n":43,"span":7,"encoder":"2901952","distractor":"2901956","target":"present","response":"absent","rt":"1605.7000000477","correct":false,"confidence":4},{"trial_n":44,"span":6,"encoder":"209941","distractor":"209911","target":"present","response":"present","rt":"4262.5","correct":true,"confidence":4},{"trial_n":45,"span":6,"encoder":"720799","distractor":"726799","target":"absent","response":"absent","rt":"1456","correct":true,"confidence":5},{"trial_n":46,"span":7,"encoder":"4186455","distractor":"4188455","target":"absent","response":"absent","rt":"3514","correct":true,"confidence":5},{"trial_n":47,"span":7,"encoder":"7356966","distractor":"1356966","target":"absent","response":"absent","rt":"1695.3000000119","correct":true,"confidence":5},{"trial_n":48,"span":8,"encoder":"90281523","distractor":"90081523","target":"present","response":"present","rt":"3230.1999999881","correct":true,"confidence":5},{"trial_n":49,"span":8,"encoder":"60185802","distractor":"60185002","target":"present","response":"absent","rt":"5392","correct":false,"confidence":3},{"trial_n":50,"span":7,"encoder":"1814711","distractor":"1814719","target":"present","response":"present","rt":"2656.0999999642","correct":true,"confidence":5},{"trial_n":51,"span":7,"encoder":"9664701","distractor":"9664771","target":"present","response":"present","rt":"1614.8000000119","correct":true,"confidence":5},{"trial_n":52,"span":8,"encoder":"43530304","distractor":"46530304","target":"absent","response":"absent","rt":"4421.8999999762","correct":true,"confidence":5},{"trial_n":53,"span":8,"encoder":"07036140","distractor":"08036140","target":"absent","response":"absent","rt":"1494.6999999881","correct":true,"confidence":5},{"trial_n":54,"span":9,"encoder":"768026430","distractor":"768022430","target":"absent","response":"absent","rt":"2015.8999999762","correct":true,"confidence":3},{"trial_n":55,"span":9,"encoder":"076658469","distractor":"070658469","target":"absent","response":"present","rt":"1617.3000000119","correct":false,"confidence":4},{"trial_n":56,"span":8,"encoder":"95509565","distractor":"95509505","target":"absent","response":"absent","rt":"1717.6999999881","correct":true,"confidence":5},{"trial_n":57,"span":8,"encoder":"16994270","distractor":"36994270","target":"absent","response":"absent","rt":"2951.0999999642","correct":true,"confidence":5},{"trial_n":58,"span":9,"encoder":"343399542","distractor":"341399542","target":"present","response":"present","rt":"1768.8999999762","correct":true,"confidence":5},{"trial_n":59,"span":9,"encoder":"023552520","distractor":"023553520","target":"present","response":"present","rt":"2430.3999999762","correct":true,"confidence":4},{"trial_n":60,"span":10,"encoder":"7773466048","distractor":"7773486048","target":"absent","response":"absent","rt":"1994.3999999762","correct":true,"confidence":5},{"trial_n":61,"span":10,"encoder":"4455351890","distractor":"6455351890","target":"present","response":"present","rt":"4167.4000000358","correct":true,"confidence":4},{"trial_n":62,"span":11,"encoder":"35602595068","distractor":"35402595068","target":"present","response":"present","rt":"3951.1999999881","correct":true,"confidence":3},{"trial_n":63,"span":11,"encoder":"51296737029","distractor":"51226737029","target":"absent","response":"absent","rt":"2094.8000000119","correct":true,"confidence":4},{"trial_n":64,"span":12,"encoder":"791079334190","distractor":"791079134190","target":"present","response":"absent","rt":"1667.5","correct":false,"confidence":4},{"trial_n":65,"span":11,"encoder":"72252823484","distractor":"72254823484","target":"present","response":"absent","rt":"4533.5","correct":false,"confidence":3},{"trial_n":66,"span":10,"encoder":"4926600685","distractor":"4926660685","target":"absent","response":"absent","rt":"1952.1999999881","correct":true,"confidence":5},{"trial_n":67,"span":10,"encoder":"7592078535","distractor":"7592068535","target":"absent","response":"absent","rt":"4245","correct":true,"confidence":4},{"trial_n":68,"span":11,"encoder":"86351393340","distractor":"86351393348","target":"absent","response":"absent","rt":"2758.6999999881","correct":true,"confidence":4},{"trial_n":69,"span":11,"encoder":"21006551641","distractor":"21046551641","target":"absent","response":"absent","rt":"1647.5","correct":true,"confidence":5},{"trial_n":70,"span":12,"encoder":"010907646902","distractor":"010907646972","target":"absent","response":"absent","rt":"2831.3000000119","correct":true,"confidence":4},{"trial_n":71,"span":8,"encoder":"72354664","distractor":"77354664","target":"present","response":"present","rt":"5539.0999999642","correct":true,"confidence":-1},{"trial_n":72,"span":8,"encoder":"62424746","distractor":"62424646","target":"present","response":"present","rt":"3655.6999999881","correct":true,"confidence":-1},{"trial_n":73,"span":9,"encoder":"169950411","distractor":"161950411","target":"absent","response":"absent","rt":"2724.6000000238","correct":true,"confidence":-1},{"trial_n":74,"span":9,"encoder":"227292940","distractor":"227292945","target":"absent","response":"absent","rt":"3654.7000000477","correct":true,"confidence":-1},{"trial_n":75,"span":10,"encoder":"6180821723","distractor":"6190821723","target":"present","response":"present","rt":"3405.4000000358","correct":true,"confidence":-1},{"trial_n":76,"span":10,"encoder":"6920748140","distractor":"6920248140","target":"present","response":"absent","rt":"31936.900000036","correct":false,"confidence":-1},{"trial_n":77,"span":9,"encoder":"603489618","distractor":"603482618","target":"absent","response":"absent","rt":"2650.1999999881","correct":true,"confidence":-1},{"trial_n":78,"span":9,"encoder":"818508020","distractor":"018508020","target":"absent","response":"absent","rt":"2146.3000000119","correct":true,"confidence":-1},{"trial_n":79,"span":10,"encoder":"3866971205","distractor":"3866941205","target":"absent","response":"absent","rt":"4051.5999999642","correct":true,"confidence":-1},{"trial_n":80,"span":10,"encoder":"1650611478","distractor":"1650611778","target":"present","response":"absent","rt":"1893.8000000119","correct":false,"confidence":-1},{"trial_n":81,"span":9,"encoder":"959719821","distractor":"959019821","target":"present","response":"present","rt":"5019.5","correct":true,"confidence":-1},{"trial_n":82,"span":9,"encoder":"474171741","distractor":"474191741","target":"present","response":"present","rt":"3643.6999999881","correct":true,"confidence":-1},{"trial_n":83,"span":10,"encoder":"1757957335","distractor":"1737957335","target":"present","response":"present","rt":"6744.3999999762","correct":true,"confidence":-1},{"trial_n":84,"span":10,"encoder":"0466364976","distractor":"2466364976","target":"absent","response":"present","rt":"744.19999998808","correct":false,"confidence":-1},{"trial_n":85,"span":9,"encoder":"405245931","distractor":"404245931","target":"absent","response":"absent","rt":"3710.8000000119","correct":true,"confidence":-1},{"trial_n":86,"span":9,"encoder":"664246089","distractor":"664245089","target":"present","response":"present","rt":"4215.5","correct":true,"confidence":-1},{"trial_n":87,"span":10,"encoder":"4347795307","distractor":"8347795307","target":"present","response":"absent","rt":"2182.3000000119","correct":false,"confidence":-1},{"trial_n":88,"span":9,"encoder":"705728128","distractor":"705728198","target":"absent","response":"absent","rt":"1460.4000000358","correct":true,"confidence":-1},{"trial_n":89,"span":9,"encoder":"525784394","distractor":"525784314","target":"absent","response":"absent","rt":"1677.8999999762","correct":true,"confidence":-1},{"trial_n":90,"span":10,"encoder":"2106631859","distractor":"2206631859","target":"absent","response":"absent","rt":"1243.5","correct":true,"confidence":-1},{"trial_n":91,"span":10,"encoder":"6425648526","distractor":"6425646526","target":"present","response":"present","rt":"3779.8999999762","correct":true,"confidence":4},{"trial_n":92,"span":11,"encoder":"15963117782","distractor":"15663117782","target":"absent","response":"absent","rt":"3080.5","correct":true,"confidence":4},{"trial_n":93,"span":11,"encoder":"90184257014","distractor":"90184057014","target":"absent","response":"present","rt":"14137.800000012","correct":false,"confidence":2},{"trial_n":94,"span":10,"encoder":"2325967596","distractor":"2325967536","target":"absent","response":"absent","rt":"4662","correct":true,"confidence":4},{"trial_n":95,"span":10,"encoder":"1504716306","distractor":"1504714306","target":"present","response":"absent","rt":"7056","correct":false,"confidence":3},{"trial_n":96,"span":9,"encoder":"790407597","distractor":"790407593","target":"present","response":"present","rt":"1595.3000000119","correct":true,"confidence":5},{"trial_n":97,"span":9,"encoder":"382876175","distractor":"382676175","target":"absent","response":"present","rt":"6223","correct":false,"confidence":3},{"trial_n":98,"span":8,"encoder":"00486063","distractor":"00416063","target":"absent","response":"absent","rt":"2735.5","correct":true,"confidence":5},{"trial_n":99,"span":8,"encoder":"65583306","distractor":"55583306","target":"present","response":"present","rt":"1850","correct":true,"confidence":5},{"trial_n":100,"span":9,"encoder":"069820387","distractor":"069850387","target":"absent","response":"absent","rt":"3097.3000000119","correct":true,"confidence":5},{"trial_n":101,"span":9,"encoder":"050015806","distractor":"050095806","target":"absent","response":"present","rt":"3094.7999999523","correct":false,"confidence":4},{"trial_n":102,"span":8,"encoder":"00190538","distractor":"00290538","target":"present","response":"present","rt":"1794","correct":true,"confidence":5},{"trial_n":103,"span":8,"encoder":"30206690","distractor":"30006690","target":"present","response":"present","rt":"2704.7000000477","correct":true,"confidence":5},{"trial_n":104,"span":9,"encoder":"161686268","distractor":"161686260","target":"present","response":"absent","rt":"6954.1000000238","correct":false,"confidence":5},{"trial_n":105,"span":8,"encoder":"14867111","distractor":"44867111","target":"present","response":"present","rt":"2709.8999999762","correct":true,"confidence":4},{"trial_n":106,"span":8,"encoder":"42927638","distractor":"42922638","target":"absent","response":"absent","rt":"3390.3000000119","correct":true,"confidence":4},{"trial_n":107,"span":9,"encoder":"048202044","distractor":"048202046","target":"present","response":"present","rt":"1717.7000000477","correct":true,"confidence":5},{"trial_n":108,"span":9,"encoder":"701524059","distractor":"701124059","target":"present","response":"present","rt":"1490.4000000358","correct":true,"confidence":5},{"trial_n":109,"span":10,"encoder":"4106188850","distractor":"4106188450","target":"absent","response":"absent","rt":"3511.1000000238","correct":true,"confidence":5},{"trial_n":110,"span":10,"encoder":"1866719778","distractor":"3866719778","target":"present","response":"absent","rt":"5135","correct":false,"confidence":4},{"trial_n":111,"span":9,"encoder":"269787169","distractor":"209787169","target":"absent","response":"absent","rt":"3182.6000000238","correct":true,"confidence":4},{"trial_n":112,"span":9,"encoder":"748589890","distractor":"748589790","target":"present","response":"absent","rt":"6374.6000000238","correct":false,"confidence":4},{"trial_n":113,"span":8,"encoder":"75831287","distractor":"75331287","target":"absent","response":"present","rt":"1454.1999999881","correct":false,"confidence":4},{"trial_n":114,"span":7,"encoder":"7612917","distractor":"2612917","target":"absent","response":"present","rt":"5240.7000000477","correct":false,"confidence":3},{"trial_n":115,"span":6,"encoder":"485269","distractor":"485260","target":"absent","response":"present","rt":"3399.6000000238","correct":false,"confidence":4},{"trial_n":116,"span":5,"encoder":"63706","distractor":"68706","target":"absent","response":"absent","rt":"3902.7999999523","correct":true,"confidence":4},{"trial_n":117,"span":5,"encoder":"11397","distractor":"11387","target":"present","response":"present","rt":"2144.6999999881","correct":true,"confidence":5},{"trial_n":118,"span":6,"encoder":"673398","distractor":"773398","target":"present","response":"present","rt":"2254.3999999762","correct":true,"confidence":5},{"trial_n":119,"span":6,"encoder":"698342","distractor":"698362","target":"absent","response":"absent","rt":"2075.4000000358","correct":true,"confidence":5},{"trial_n":120,"span":7,"encoder":"6758580","distractor":"6788580","target":"present","response":"present","rt":"1760.3999999762","correct":true,"confidence":5},{"trial_n":121,"span":7,"encoder":"8563261","distractor":"8563260","target":"present","response":"present","rt":"1240.5999999642","correct":true,"confidence":5},{"trial_n":122,"span":8,"encoder":"82234894","distractor":"02234894","target":"present","response":"present","rt":"1170.8000000119","correct":true,"confidence":5},{"trial_n":123,"span":8,"encoder":"41837718","distractor":"47837718","target":"present","response":"absent","rt":"3934.6000000238","correct":false,"confidence":5},{"trial_n":124,"span":7,"encoder":"1184571","distractor":"1194571","target":"absent","response":"absent","rt":"1548.3999999762","correct":true,"confidence":5},{"trial_n":125,"span":7,"encoder":"2339132","distractor":"2339134","target":"absent","response":"absent","rt":"3204.6999999881","correct":true,"confidence":5},{"trial_n":126,"span":8,"encoder":"35232964","distractor":"35212964","target":"present","response":"absent","rt":"6322.5","correct":false,"confidence":2},{"trial_n":127,"span":7,"encoder":"4269748","distractor":"4269743","target":"present","response":"present","rt":"1646.1999999881","correct":true,"confidence":5},{"trial_n":128,"span":7,"encoder":"3853034","distractor":"7853034","target":"absent","response":"absent","rt":"2182.6999999881","correct":true,"confidence":5},{"trial_n":129,"span":8,"encoder":"77320539","distractor":"77320339","target":"absent","response":"absent","rt":"1403.8000000119","correct":true,"confidence":4},{"trial_n":130,"span":8,"encoder":"90846234","distractor":"90846204","target":"present","response":"absent","rt":"3981","correct":false,"confidence":4},{"trial_n":131,"span":7,"encoder":"7138225","distractor":"7137225","target":"absent","response":"absent","rt":"2402.8000000119","correct":true,"confidence":5},{"trial_n":132,"span":7,"encoder":"8135335","distractor":"8135375","target":"present","response":"present","rt":"1645.3000000119","correct":true,"confidence":5},{"trial_n":133,"span":8,"encoder":"12347305","distractor":"12947305","target":"present","response":"present","rt":"2940.5999999642","correct":true,"confidence":4},{"trial_n":134,"span":8,"encoder":"92924057","distractor":"62924057","target":"present","response":"present","rt":"2042.4000000358","correct":true,"confidence":5},{"trial_n":135,"span":9,"encoder":"625920461","distractor":"622920461","target":"absent","response":"absent","rt":"1875.8999999762","correct":true,"confidence":5},{"trial_n":136,"span":9,"encoder":"055806764","distractor":"055806767","target":"absent","response":"absent","rt":"3336.1000000238","correct":true,"confidence":5},{"trial_n":137,"span":10,"encoder":"8904512036","distractor":"8704512036","target":"present","response":"absent","rt":"4142.3000000119","correct":false,"confidence":4},{"trial_n":138,"span":9,"encoder":"686825191","distractor":"684825191","target":"absent","response":"absent","rt":"3763.1999999881","correct":true,"confidence":5},{"trial_n":139,"span":9,"encoder":"415168834","distractor":"415158834","target":"present","response":"absent","rt":"2657.8999999762","correct":false,"confidence":4},{"trial_n":140,"span":8,"encoder":"44161514","distractor":"41161514","target":"absent","response":"present","rt":"3501.8000000119","correct":false,"confidence":3}]