[{"trial_n":1,"span":8,"encoder":"18071629","distractor":"18771629","target":"present","response":"present","rt":"5925","correct":true,"confidence":-1},{"trial_n":2,"span":8,"encoder":"09519466","distractor":"09519966","target":"present","response":"present","rt":"2988","correct":true,"confidence":-1},{"trial_n":3,"span":10,"encoder":"5329848354","distractor":"5429848354","target":"absent","response":"absent","rt":"2553","correct":true,"confidence":-1},{"trial_n":4,"span":10,"encoder":"4472090958","distractor":"4472020958","target":"absent","response":"absent","rt":"3125","correct":true,"confidence":-1},{"trial_n":5,"span":12,"encoder":"774399169943","distractor":"774399169940","target":"present","response":"absent","rt":"2319","correct":false,"confidence":-1},{"trial_n":6,"span":10,"encoder":"1715013464","distractor":"1711013464","target":"present","response":"present","rt":"1443","correct":true,"confidence":-1},{"trial_n":7,"span":10,"encoder":"5992292491","distractor":"5997292491","target":"present","response":"present","rt":"2486","correct":true,"confidence":-1},{"trial_n":8,"span":12,"encoder":"219225392838","distractor":"219225332838","target":"present","response":"absent","rt":"1781","correct":false,"confidence":-1},{"trial_n":9,"span":10,"encoder":"0612501188","distractor":"0612501198","target":"present","response":"present","rt":"1445","correct":true,"confidence":-1},{"trial_n":10,"span":10,"encoder":"6308461707","distractor":"6408461707","target":"present","response":"present","rt":"2413","correct":true,"confidence":-1},{"trial_n":11,"span":12,"encoder":"982424356491","distractor":"982494356491","target":"absent","response":"present","rt":"2071","correct":false,"confidence":-1},{"trial_n":12,"span":11,"encoder":"31958331026","distractor":"01958331026","target":"absent","response":"present","rt":"1945","correct":false,"confidence":-1},{"trial_n":13,"span":10,"encoder":"2707592318","distractor":"2707592818","target":"absent","response":"present","rt":"2947","correct":false,"confidence":-1},{"trial_n":14,"span":9,"encoder":"110578092","distractor":"110574092","target":"present","response":"present","rt":"2349","correct":true,"confidence":-1},{"trial_n":15,"span":9,"encoder":"022724169","distractor":"022721169","target":"absent","response":"absent","rt":"4703","correct":true,"confidence":-1},{"trial_n":16,"span":10,"encoder":"5896166097","distractor":"5895166097","target":"absent","response":"absent","rt":"2795","correct":true,"confidence":-1},{"trial_n":17,"span":10,"encoder":"7252634068","distractor":"7252624068","target":"absent","response":"present","rt":"1917","correct":false,"confidence":-1},{"trial_n":18,"span":9,"encoder":"894820767","distractor":"874820767","target":"absent","response":"present","rt":"1472","correct":false,"confidence":-1},{"trial_n":19,"span":8,"encoder":"98350353","distractor":"98150353","target":"present","response":"present","rt":"3616","correct":true,"confidence":-1},{"trial_n":20,"span":8,"encoder":"57307346","distractor":"57307348","target":"present","response":"present","rt":"6929","correct":true,"confidence":-1},{"trial_n":21,"span":9,"encoder":"051157672","distractor":"051157673","target":"absent","response":"present","rt":"2726","correct":false,"confidence":4},{"trial_n":22,"span":8,"encoder":"40212663","distractor":"40212664","target":"present","response":"present","rt":"2217","correct":true,"confidence":5},{"trial_n":23,"span":8,"encoder":"26578096","distractor":"27578096","target":"present","response":"absent","rt":"3326","correct":false,"confidence":4},{"trial_n":24,"span":7,"encoder":"7986304","distractor":"7986384","target":"absent","response":"present","rt":"2141","correct":false,"confidence":5},{"trial_n":25,"span":6,"encoder":"156311","distractor":"158311","target":"absent","response":"absent","rt":"3697","correct":true,"confidence":3},{"trial_n":26,"span":6,"encoder":"365705","distractor":"360705","target":"present","response":"present","rt":"1688","correct":true,"confidence":5},{"trial_n":27,"span":7,"encoder":"1243222","distractor":"1943222","target":"present","response":"present","rt":"2523","correct":true,"confidence":4},{"trial_n":28,"span":7,"encoder":"6821471","distractor":"6821421","target":"present","response":"present","rt":"1703","correct":true,"confidence":4},{"trial_n":29,"span":8,"encoder":"09748950","distractor":"09748350","target":"absent","response":"present","rt":"1953","correct":false,"confidence":5},{"trial_n":30,"span":7,"encoder":"1918588","distractor":"0918588","target":"present","response":"present","rt":"1562","correct":true,"confidence":4},{"trial_n":31,"span":7,"encoder":"6079975","distractor":"6079977","target":"present","response":"present","rt":"1362","correct":true,"confidence":3},{"trial_n":32,"span":8,"encoder":"59056441","distractor":"59056451","target":"present","response":"present","rt":"1431","correct":true,"confidence":4},{"trial_n":33,"span":8,"encoder":"27208080","distractor":"27202080","target":"present","response":"present","rt":"1612","correct":true,"confidence":4},{"trial_n":34,"span":9,"encoder":"347859371","distractor":"347858371","target":"present","response":"present","rt":"2634","correct":true,"confidence":4},{"trial_n":35,"span":9,"encoder":"385482303","distractor":"385482703","target":"absent","response":"present","rt":"1666","correct":false,"confidence":3},{"trial_n":36,"span":8,"encoder":"83186219","distractor":"63186219","target":"present","response":"present","rt":"1057","correct":true,"confidence":4},{"trial_n":37,"span":8,"encoder":"99850746","distractor":"92850746","target":"present","response":"present","rt":"1685","correct":true,"confidence":5},{"trial_n":38,"span":9,"encoder":"962161037","distractor":"962161837","target":"present","response":"present","rt":"1825.9999999999","correct":true,"confidence":4},{"trial_n":39,"span":9,"encoder":"555809747","distractor":"555889747","target":"present","response":"present","rt":"1657","correct":true,"confidence":4},{"trial_n":40,"span":10,"encoder":"0884812216","distractor":"0894812216","target":"present","response":"present","rt":"1332.9999999999","correct":true,"confidence":5},{"trial_n":41,"span":10,"encoder":"5568683440","distractor":"2568683440","target":"absent","response":"present","rt":"3216","correct":false,"confidence":2},{"trial_n":42,"span":9,"encoder":"191774479","distractor":"191777479","target":"absent","response":"present","rt":"3963","correct":false,"confidence":4},{"trial_n":43,"span":8,"encoder":"25913171","distractor":"25916171","target":"present","response":"present","rt":"1950","correct":true,"confidence":5},{"trial_n":44,"span":8,"encoder":"15224931","distractor":"15214931","target":"absent","response":"absent","rt":"3191","correct":true,"confidence":3},{"trial_n":45,"span":9,"encoder":"086431016","distractor":"086431014","target":"present","response":"present","rt":"1547.0000000001","correct":true,"confidence":3},{"trial_n":46,"span":9,"encoder":"087742385","distractor":"087782385","target":"absent","response":"absent","rt":"3816","correct":true,"confidence":4},{"trial_n":47,"span":10,"encoder":"6809399894","distractor":"6800399894","target":"absent","response":"present","rt":"3045.9999999999","correct":false,"confidence":3},{"trial_n":48,"span":9,"encoder":"837165635","distractor":"437165635","target":"present","response":"present","rt":"2395.0000000001","correct":true,"confidence":5},{"trial_n":49,"span":9,"encoder":"035659919","distractor":"035659119","target":"absent","response":"present","rt":"1953","correct":false,"confidence":4},{"trial_n":50,"span":8,"encoder":"69980101","distractor":"69180101","target":"present","response":"present","rt":"2478.0000000001","correct":true,"confidence":4},{"trial_n":51,"span":8,"encoder":"96592706","distractor":"96552706","target":"absent","response":"absent","rt":"2258.0000000001","correct":true,"confidence":5},{"trial_n":52,"span":9,"encoder":"645737428","distractor":"648737428","target":"present","response":"present","rt":"2095","correct":true,"confidence":5},{"trial_n":53,"span":9,"encoder":"828355372","distractor":"828350372","target":"present","response":"present","rt":"1828","correct":true,"confidence":5},{"trial_n":54,"span":10,"encoder":"8207096409","distractor":"8207096499","target":"absent","response":"present","rt":"2281","correct":false,"confidence":5},{"trial_n":55,"span":9,"encoder":"602012014","distractor":"682012014","target":"absent","response":"present","rt":"2986","correct":false,"confidence":4},{"trial_n":56,"span":8,"encoder":"06285533","distractor":"06685533","target":"absent","response":"absent","rt":"3010.9999999999","correct":true,"confidence":5},{"trial_n":57,"span":8,"encoder":"83731832","distractor":"83731839","target":"absent","response":"present","rt":"2816","correct":false,"confidence":5},{"trial_n":58,"span":7,"encoder":"3235390","distractor":"3235392","target":"present","response":"present","rt":"2320","correct":true,"confidence":5},{"trial_n":59,"span":7,"encoder":"7330285","distractor":"7330284","target":"absent","response":"present","rt":"1933","correct":false,"confidence":4},{"trial_n":60,"span":6,"encoder":"429340","distractor":"429380","target":"absent","response":"absent","rt":"2210.9999999999","correct":true,"confidence":5},{"trial_n":61,"span":6,"encoder":"027064","distractor":"027014","target":"absent","response":"present","rt":"1472","correct":false,"confidence":4},{"trial_n":62,"span":5,"encoder":"90825","distractor":"90525","target":"absent","response":"absent","rt":"4660","correct":true,"confidence":4},{"trial_n":63,"span":5,"encoder":"93938","distractor":"43938","target":"absent","response":"absent","rt":"2322","correct":true,"confidence":4},{"trial_n":64,"span":6,"encoder":"374283","distractor":"374284","target":"absent","response":"present","rt":"2108","correct":false,"confidence":5},{"trial_n":65,"span":5,"encoder":"03829","distractor":"03822","target":"absent","response":"absent","rt":"2065","correct":true,"confidence":4},{"trial_n":66,"span":5,"encoder":"76466","distractor":"36466","target":"present","response":"present","rt":"2347.0000000001","correct":true,"confidence":5},{"trial_n":67,"span":6,"encoder":"851628","distractor":"856628","target":"present","response":"present","rt":"1704","correct":true,"confidence":5},{"trial_n":68,"span":6,"encoder":"251587","distractor":"251589","target":"absent","response":"absent","rt":"1463.9999999999","correct":true,"confidence":4},{"trial_n":69,"span":7,"encoder":"3886384","distractor":"3286384","target":"present","response":"present","rt":"1834","correct":true,"confidence":5},{"trial_n":70,"span":7,"encoder":"3986549","distractor":"3986049","target":"absent","response":"absent","rt":"2585","correct":true,"confidence":4},{"trial_n":71,"span":8,"encoder":"53929901","distractor":"53922901","target":"present","response":"present","rt":"1421","correct":true,"confidence":-1},{"trial_n":72,"span":8,"encoder":"26025290","distractor":"26725290","target":"present","response":"absent","rt":"741","correct":false,"confidence":-1},{"trial_n":73,"span":7,"encoder":"6110510","distractor":"6112510","target":"absent","response":"present","rt":"858.99999999988","correct":false,"confidence":-1},{"trial_n":74,"span":6,"encoder":"153804","distractor":"853804","target":"absent","response":"present","rt":"1901","correct":false,"confidence":-1},{"trial_n":75,"span":5,"encoder":"53349","distractor":"53341","target":"present","response":"present","rt":"2666.9999999999","correct":true,"confidence":-1},{"trial_n":76,"span":5,"encoder":"78975","distractor":"78475","target":"present","response":"present","rt":"2309","correct":true,"confidence":-1},{"trial_n":77,"span":6,"encoder":"599381","distractor":"599382","target":"absent","response":"absent","rt":"2286.9999999999","correct":true,"confidence":-1},{"trial_n":78,"span":6,"encoder":"478912","distractor":"488912","target":"present","response":"present","rt":"3915","correct":true,"confidence":-1},{"trial_n":79,"span":7,"encoder":"4461750","distractor":"4461450","target":"absent","response":"present","rt":"3008","correct":false,"confidence":-1},{"trial_n":80,"span":6,"encoder":"839607","distractor":"939607","target":"present","response":"present","rt":"3122","correct":true,"confidence":-1},{"trial_n":81,"span":6,"encoder":"564353","distractor":"564553","target":"present","response":"present","rt":"4786.9999999999","correct":true,"confidence":-1},{"trial_n":82,"span":7,"encoder":"7786286","distractor":"7586286","target":"absent","response":"absent","rt":"3330","correct":true,"confidence":-1},{"trial_n":83,"span":7,"encoder":"3001358","distractor":"3101358","target":"absent","response":"present","rt":"689.99999999988","correct":false,"confidence":-1},{"trial_n":84,"span":6,"encoder":"740821","distractor":"743821","target":"present","response":"absent","rt":"1251","correct":false,"confidence":-1},{"trial_n":85,"span":5,"encoder":"59223","distractor":"59623","target":"present","response":"present","rt":"855","correct":true,"confidence":-1},{"trial_n":86,"span":5,"encoder":"54371","distractor":"54321","target":"present","response":"present","rt":"1925","correct":true,"confidence":-1},{"trial_n":87,"span":6,"encoder":"871750","distractor":"871950","target":"present","response":"present","rt":"3416","correct":true,"confidence":-1},{"trial_n":88,"span":6,"encoder":"840126","distractor":"890126","target":"present","response":"present","rt":"2720","correct":true,"confidence":-1},{"trial_n":89,"span":7,"encoder":"3368268","distractor":"3668268","target":"absent","response":"present","rt":"2536.0000000001","correct":false,"confidence":-1},{"trial_n":90,"span":6,"encoder":"564496","distractor":"564494","target":"present","response":"present","rt":"1041","correct":true,"confidence":-1},{"trial_n":91,"span":6,"encoder":"175204","distractor":"176204","target":"present","response":"present","rt":"2343","correct":true,"confidence":4},{"trial_n":92,"span":7,"encoder":"6422385","distractor":"6422365","target":"present","response":"present","rt":"2935","correct":true,"confidence":3},{"trial_n":93,"span":7,"encoder":"8449760","distractor":"8449860","target":"present","response":"present","rt":"3509","correct":true,"confidence":4},{"trial_n":94,"span":8,"encoder":"58176425","distractor":"55176425","target":"present","response":"present","rt":"2272","correct":true,"confidence":5},{"trial_n":95,"span":8,"encoder":"85646553","distractor":"85676553","target":"present","response":"present","rt":"3378","correct":true,"confidence":4},{"trial_n":96,"span":9,"encoder":"629415436","distractor":"627415436","target":"present","response":"present","rt":"2780","correct":true,"confidence":3},{"trial_n":97,"span":9,"encoder":"060972299","distractor":"160972299","target":"absent","response":"absent","rt":"4145","correct":true,"confidence":4},{"trial_n":98,"span":10,"encoder":"4884809616","distractor":"3884809616","target":"absent","response":"absent","rt":"2933","correct":true,"confidence":5},{"trial_n":99,"span":10,"encoder":"6722959625","distractor":"6722059625","target":"present","response":"present","rt":"822","correct":true,"confidence":3},{"trial_n":100,"span":11,"encoder":"84641899002","distractor":"74641899002","target":"present","response":"absent","rt":"709","correct":false,"confidence":4},{"trial_n":101,"span":10,"encoder":"2590006952","distractor":"2597006952","target":"absent","response":"absent","rt":"4803","correct":true,"confidence":3},{"trial_n":102,"span":10,"encoder":"2799164177","distractor":"2799164877","target":"present","response":"absent","rt":"720","correct":false,"confidence":3},{"trial_n":103,"span":9,"encoder":"178416190","distractor":"171416190","target":"present","response":"present","rt":"1852","correct":true,"confidence":4},{"trial_n":104,"span":9,"encoder":"595330758","distractor":"585330758","target":"absent","response":"absent","rt":"602.99999999977","correct":true,"confidence":3},{"trial_n":105,"span":10,"encoder":"8879427196","distractor":"8879428196","target":"absent","response":"absent","rt":"1007","correct":true,"confidence":4},{"trial_n":106,"span":10,"encoder":"1381748729","distractor":"1301748729","target":"present","response":"present","rt":"724.99999999977","correct":true,"confidence":3},{"trial_n":107,"span":11,"encoder":"58285178235","distractor":"58285178265","target":"present","response":"absent","rt":"5161.0000000002","correct":false,"confidence":3},{"trial_n":108,"span":10,"encoder":"6084740869","distractor":"6184740869","target":"present","response":"absent","rt":"970","correct":false,"confidence":3},{"trial_n":109,"span":9,"encoder":"746007765","distractor":"746007265","target":"present","response":"absent","rt":"1570","correct":false,"confidence":4},{"trial_n":110,"span":8,"encoder":"16434699","distractor":"16434698","target":"absent","response":"absent","rt":"980","correct":true,"confidence":4},{"trial_n":111,"span":8,"encoder":"10315113","distractor":"10315116","target":"absent","response":"present","rt":"3743","correct":false,"confidence":3},{"trial_n":112,"span":7,"encoder":"4473133","distractor":"4473113","target":"absent","response":"present","rt":"814","correct":false,"confidence":3},{"trial_n":113,"span":6,"encoder":"064126","distractor":"264126","target":"absent","response":"present","rt":"4977","correct":false,"confidence":3},{"trial_n":114,"span":5,"encoder":"31711","distractor":"31717","target":"absent","response":"absent","rt":"1064","correct":true,"confidence":3},{"trial_n":115,"span":5,"encoder":"45744","distractor":"45244","target":"absent","response":"absent","rt":"3395","correct":true,"confidence":5},{"trial_n":116,"span":6,"encoder":"017914","distractor":"017514","target":"present","response":"present","rt":"3920","correct":true,"confidence":4},{"trial_n":117,"span":6,"encoder":"866723","distractor":"866721","target":"present","response":"present","rt":"1965","correct":true,"confidence":4},{"trial_n":118,"span":7,"encoder":"3327782","distractor":"3327742","target":"present","response":"present","rt":"3110","correct":true,"confidence":4},{"trial_n":119,"span":7,"encoder":"5202254","distractor":"5202204","target":"present","response":"present","rt":"2582.0000000002","correct":true,"confidence":4},{"trial_n":120,"span":8,"encoder":"03857183","distractor":"73857183","target":"absent","response":"present","rt":"462","correct":false,"confidence":3},{"trial_n":121,"span":7,"encoder":"9545157","distractor":"9545153","target":"present","response":"present","rt":"1507","correct":true,"confidence":5},{"trial_n":122,"span":7,"encoder":"5957566","distractor":"5857566","target":"absent","response":"present","rt":"3996.9999999998","correct":false,"confidence":4},{"trial_n":123,"span":6,"encoder":"109059","distractor":"109089","target":"absent","response":"absent","rt":"2231","correct":true,"confidence":4},{"trial_n":124,"span":6,"encoder":"995364","distractor":"695364","target":"absent","response":"absent","rt":"2289","correct":true,"confidence":4},{"trial_n":125,"span":7,"encoder":"7558851","distractor":"7553851","target":"absent","response":"absent","rt":"3048","correct":true,"confidence":4},{"trial_n":126,"span":7,"encoder":"2971619","distractor":"6971619","target":"absent","response":"absent","rt":"2569","correct":true,"confidence":4},{"trial_n":127,"span":8,"encoder":"36140254","distractor":"39140254","target":"absent","response":"present","rt":"4501.9999999998","correct":false,"confidence":3},{"trial_n":128,"span":7,"encoder":"3842935","distractor":"6842935","target":"absent","response":"absent","rt":"2790.0000000002","correct":true,"confidence":3},{"trial_n":129,"span":7,"encoder":"8666080","distractor":"8666081","target":"present","response":"present","rt":"2969","correct":true,"confidence":4},{"trial_n":130,"span":8,"encoder":"78864556","distractor":"78874556","target":"absent","response":"absent","rt":"1113.9999999998","correct":true,"confidence":3},{"trial_n":131,"span":8,"encoder":"72339411","distractor":"72739411","target":"absent","response":"absent","rt":"2892.9999999998","correct":true,"confidence":4},{"trial_n":132,"span":9,"encoder":"698284476","distractor":"698204476","target":"absent","response":"absent","rt":"5441","correct":true,"confidence":4},{"trial_n":133,"span":9,"encoder":"203200715","distractor":"203280715","target":"absent","response":"present","rt":"3028","correct":false,"confidence":3},{"trial_n":134,"span":8,"encoder":"52717918","distractor":"52714918","target":"present","response":"present","rt":"726","correct":true,"confidence":4},{"trial_n":135,"span":8,"encoder":"59414840","distractor":"59214840","target":"absent","response":"absent","rt":"3366","correct":true,"confidence":4},{"trial_n":136,"span":9,"encoder":"840965293","distractor":"640965293","target":"present","response":"present","rt":"2344","correct":true,"confidence":4},{"trial_n":137,"span":9,"encoder":"944252019","distractor":"924252019","target":"absent","response":"absent","rt":"1808","correct":true,"confidence":4},{"trial_n":138,"span":10,"encoder":"3726468286","distractor":"3726463286","target":"absent","response":"absent","rt":"1600","correct":true,"confidence":3},{"trial_n":139,"span":10,"encoder":"3292291892","distractor":"3292291896","target":"present","response":"absent","rt":"1036","correct":false,"confidence":3},{"trial_n":140,"span":9,"encoder":"671308066","distractor":"621308066","target":"absent","response":"present","rt":"1620","correct":false,"confidence":4}]