[{"trial_n":1,"min":25,"max":230,"target":"present","response":"present","rt":8626.299999997,"correct":true,"confidence":-1},{"trial_n":2,"min":25,"max":230,"target":"present","response":"present","rt":2197.200000003,"correct":true,"confidence":-1},{"trial_n":3,"min":41,"max":214,"target":"absent","response":"absent","rt":1604.299999997,"correct":true,"confidence":-1},{"trial_n":4,"min":41,"max":214,"target":"absent","response":"absent","rt":686.20000000298,"correct":true,"confidence":-1},{"trial_n":5,"min":57,"max":198,"target":"present","response":"present","rt":1655.599999994,"correct":true,"confidence":-1},{"trial_n":6,"min":57,"max":198,"target":"absent","response":"absent","rt":1062.200000003,"correct":true,"confidence":-1},{"trial_n":7,"min":73,"max":182,"target":"absent","response":"absent","rt":1347.1999999881,"correct":true,"confidence":-1},{"trial_n":8,"min":73,"max":182,"target":"absent","response":"absent","rt":1243.3999999911,"correct":true,"confidence":-1},{"trial_n":9,"min":89,"max":166,"target":"present","response":"present","rt":1241.299999997,"correct":true,"confidence":-1},{"trial_n":10,"min":89,"max":166,"target":"absent","response":"absent","rt":1149.5,"correct":true,"confidence":-1},{"trial_n":11,"min":97,"max":158,"target":"present","response":"absent","rt":949.59999999404,"correct":false,"confidence":-1},{"trial_n":12,"min":89,"max":166,"target":"absent","response":"absent","rt":1405.099999994,"correct":true,"confidence":-1},{"trial_n":13,"min":89,"max":166,"target":"absent","response":"absent","rt":1117.8999999911,"correct":true,"confidence":-1},{"trial_n":14,"min":97,"max":158,"target":"present","response":"absent","rt":817.5,"correct":false,"confidence":-1},{"trial_n":15,"min":89,"max":166,"target":"present","response":"absent","rt":1229.8000000119,"correct":false,"confidence":-1},{"trial_n":16,"min":81,"max":174,"target":"present","response":"present","rt":1754.900000006,"correct":true,"confidence":-1},{"trial_n":17,"min":81,"max":174,"target":"present","response":"present","rt":944,"correct":true,"confidence":-1},{"trial_n":18,"min":89,"max":166,"target":"present","response":"present","rt":729.19999998808,"correct":true,"confidence":-1},{"trial_n":19,"min":89,"max":166,"target":"absent","response":"absent","rt":1545.5,"correct":true,"confidence":-1},{"trial_n":20,"min":97,"max":158,"target":"absent","response":"absent","rt":1270.299999997,"correct":true,"confidence":-1},{"trial_n":21,"min":97,"max":158,"target":"present","response":"present","rt":1143.6000000089,"correct":true,"confidence":5},{"trial_n":22,"min":101,"max":154,"target":"present","response":"present","rt":1374,"correct":true,"confidence":5},{"trial_n":23,"min":101,"max":154,"target":"present","response":"absent","rt":2773.900000006,"correct":false,"confidence":2},{"trial_n":24,"min":97,"max":158,"target":"present","response":"present","rt":1107.8999999911,"correct":true,"confidence":5},{"trial_n":25,"min":97,"max":158,"target":"absent","response":"present","rt":1530.8999999911,"correct":false,"confidence":5},{"trial_n":26,"min":93,"max":162,"target":"absent","response":"present","rt":913.79999999702,"correct":false,"confidence":5},{"trial_n":27,"min":89,"max":166,"target":"present","response":"present","rt":924.79999999702,"correct":true,"confidence":5},{"trial_n":28,"min":89,"max":166,"target":"present","response":"present","rt":1011.700000003,"correct":true,"confidence":5},{"trial_n":29,"min":93,"max":162,"target":"absent","response":"absent","rt":1278.8000000119,"correct":true,"confidence":3},{"trial_n":30,"min":93,"max":162,"target":"absent","response":"present","rt":859.79999999702,"correct":false,"confidence":4},{"trial_n":31,"min":91,"max":164,"target":"absent","response":"present","rt":1231.099999994,"correct":false,"confidence":4},{"trial_n":32,"min":89,"max":166,"target":"absent","response":"present","rt":2766.299999997,"correct":false,"confidence":2},{"trial_n":33,"min":87,"max":168,"target":"absent","response":"present","rt":1920.6000000089,"correct":false,"confidence":2},{"trial_n":34,"min":85,"max":170,"target":"present","response":"present","rt":786.09999999404,"correct":true,"confidence":5},{"trial_n":35,"min":85,"max":170,"target":"absent","response":"present","rt":994.29999999702,"correct":false,"confidence":4},{"trial_n":36,"min":83,"max":172,"target":"absent","response":"present","rt":1020.1000000089,"correct":false,"confidence":3},{"trial_n":37,"min":81,"max":174,"target":"absent","response":"present","rt":813.39999999106,"correct":false,"confidence":3},{"trial_n":38,"min":79,"max":176,"target":"present","response":"present","rt":1345.5,"correct":true,"confidence":5},{"trial_n":39,"min":79,"max":176,"target":"present","response":"present","rt":1012.1999999881,"correct":true,"confidence":4},{"trial_n":40,"min":81,"max":174,"target":"present","response":"present","rt":1364.099999994,"correct":true,"confidence":3},{"trial_n":41,"min":81,"max":174,"target":"present","response":"present","rt":804.79999999702,"correct":true,"confidence":3},{"trial_n":42,"min":82,"max":173,"target":"present","response":"absent","rt":2614.599999994,"correct":false,"confidence":3},{"trial_n":43,"min":81,"max":174,"target":"present","response":"absent","rt":1295.700000003,"correct":false,"confidence":4},{"trial_n":44,"min":80,"max":175,"target":"absent","response":"present","rt":2651.6000000089,"correct":false,"confidence":2},{"trial_n":45,"min":79,"max":176,"target":"absent","response":"present","rt":1011.5,"correct":false,"confidence":3},{"trial_n":46,"min":78,"max":177,"target":"present","response":"absent","rt":1674.599999994,"correct":false,"confidence":2},{"trial_n":47,"min":77,"max":178,"target":"absent","response":"present","rt":1431.700000003,"correct":false,"confidence":2},{"trial_n":48,"min":76,"max":179,"target":"absent","response":"present","rt":1328,"correct":false,"confidence":2},{"trial_n":49,"min":75,"max":180,"target":"absent","response":"present","rt":1890.3999999911,"correct":false,"confidence":2},{"trial_n":50,"min":74,"max":181,"target":"absent","response":"present","rt":1450.8999999911,"correct":false,"confidence":2},{"trial_n":51,"min":73,"max":182,"target":"present","response":"present","rt":1000.200000003,"correct":true,"confidence":5},{"trial_n":52,"min":73,"max":182,"target":"present","response":"present","rt":790.5,"correct":true,"confidence":5},{"trial_n":53,"min":74,"max":181,"target":"absent","response":"absent","rt":935.20000000298,"correct":true,"confidence":4},{"trial_n":54,"min":74,"max":181,"target":"present","response":"present","rt":778.5,"correct":true,"confidence":5},{"trial_n":55,"min":75,"max":180,"target":"present","response":"present","rt":881,"correct":true,"confidence":5},{"trial_n":56,"min":75,"max":180,"target":"absent","response":"absent","rt":1019.299999997,"correct":true,"confidence":4},{"trial_n":57,"min":76,"max":179,"target":"present","response":"present","rt":775.10000000894,"correct":true,"confidence":5},{"trial_n":58,"min":76,"max":179,"target":"absent","response":"absent","rt":1018.200000003,"correct":true,"confidence":4},{"trial_n":59,"min":77,"max":178,"target":"present","response":"absent","rt":1112,"correct":false,"confidence":4},{"trial_n":60,"min":76,"max":179,"target":"present","response":"absent","rt":1011.099999994,"correct":false,"confidence":4},{"trial_n":61,"min":75,"max":180,"target":"present","response":"present","rt":1474.700000003,"correct":true,"confidence":2},{"trial_n":62,"min":75,"max":180,"target":"absent","response":"absent","rt":1100.8000000119,"correct":true,"confidence":4},{"trial_n":63,"min":76,"max":179,"target":"present","response":"absent","rt":1553.5,"correct":false,"confidence":4},{"trial_n":64,"min":75,"max":180,"target":"absent","response":"present","rt":1233.799999997,"correct":false,"confidence":2},{"trial_n":65,"min":74,"max":181,"target":"absent","response":"present","rt":2101.900000006,"correct":false,"confidence":2},{"trial_n":66,"min":73,"max":182,"target":"present","response":"present","rt":909.59999999404,"correct":true,"confidence":3},{"trial_n":67,"min":73,"max":182,"target":"absent","response":"absent","rt":1162.099999994,"correct":true,"confidence":3},{"trial_n":68,"min":74,"max":181,"target":"absent","response":"present","rt":971.39999999106,"correct":false,"confidence":3},{"trial_n":69,"min":73,"max":182,"target":"present","response":"present","rt":908.20000000298,"correct":true,"confidence":4},{"trial_n":70,"min":73,"max":182,"target":"present","response":"present","rt":811.10000000894,"correct":true,"confidence":5},{"trial_n":71,"min":41,"max":214,"target":"present","response":"absent","rt":9129.200000003,"correct":false,"confidence":-1},{"trial_n":72,"min":41,"max":214,"target":"present","response":"present","rt":4482.900000006,"correct":true,"confidence":-1},{"trial_n":73,"min":41,"max":214,"target":"absent","response":"absent","rt":1816.200000003,"correct":true,"confidence":-1},{"trial_n":74,"min":57,"max":198,"target":"absent","response":"absent","rt":827,"correct":true,"confidence":-1},{"trial_n":75,"min":57,"max":198,"target":"present","response":"present","rt":1019.6000000089,"correct":true,"confidence":-1},{"trial_n":76,"min":73,"max":182,"target":"absent","response":"present","rt":869.59999999404,"correct":false,"confidence":-1},{"trial_n":77,"min":57,"max":198,"target":"present","response":"present","rt":2546.700000003,"correct":true,"confidence":-1},{"trial_n":78,"min":57,"max":198,"target":"present","response":"present","rt":936.69999998808,"correct":true,"confidence":-1},{"trial_n":79,"min":73,"max":182,"target":"absent","response":"absent","rt":1231.299999997,"correct":true,"confidence":-1},{"trial_n":80,"min":73,"max":182,"target":"absent","response":"absent","rt":1431.200000003,"correct":true,"confidence":-1},{"trial_n":81,"min":81,"max":174,"target":"present","response":"present","rt":961.70000000298,"correct":true,"confidence":-1},{"trial_n":82,"min":81,"max":174,"target":"present","response":"present","rt":1001.400000006,"correct":true,"confidence":-1},{"trial_n":83,"min":89,"max":166,"target":"absent","response":"present","rt":1202.700000003,"correct":false,"confidence":-1},{"trial_n":84,"min":81,"max":174,"target":"present","response":"present","rt":833.69999998808,"correct":true,"confidence":-1},{"trial_n":85,"min":81,"max":174,"target":"absent","response":"absent","rt":1236.1000000089,"correct":true,"confidence":-1},{"trial_n":86,"min":89,"max":166,"target":"absent","response":"present","rt":1740.8999999911,"correct":false,"confidence":-1},{"trial_n":87,"min":81,"max":174,"target":"absent","response":"absent","rt":1432.799999997,"correct":true,"confidence":-1},{"trial_n":88,"min":81,"max":174,"target":"absent","response":"absent","rt":985.80000001192,"correct":true,"confidence":-1},{"trial_n":89,"min":89,"max":166,"target":"absent","response":"absent","rt":2158.400000006,"correct":true,"confidence":-1},{"trial_n":90,"min":89,"max":166,"target":"present","response":"present","rt":902.40000000596,"correct":true,"confidence":-1},{"trial_n":91,"min":93,"max":162,"target":"present","response":"present","rt":908.10000000894,"correct":true,"confidence":5},{"trial_n":92,"min":93,"max":162,"target":"present","response":"absent","rt":1620.8999999911,"correct":false,"confidence":3},{"trial_n":93,"min":89,"max":166,"target":"present","response":"present","rt":963.70000000298,"correct":true,"confidence":5},{"trial_n":94,"min":89,"max":166,"target":"present","response":"absent","rt":1210.8999999911,"correct":false,"confidence":2},{"trial_n":95,"min":85,"max":170,"target":"present","response":"present","rt":810.20000000298,"correct":true,"confidence":5},{"trial_n":96,"min":85,"max":170,"target":"absent","response":"present","rt":887.79999999702,"correct":false,"confidence":5},{"trial_n":97,"min":81,"max":174,"target":"present","response":"present","rt":1280.700000003,"correct":true,"confidence":2},{"trial_n":98,"min":81,"max":174,"target":"present","response":"present","rt":1306.5,"correct":true,"confidence":4},{"trial_n":99,"min":85,"max":170,"target":"absent","response":"absent","rt":1125.599999994,"correct":true,"confidence":5},{"trial_n":100,"min":85,"max":170,"target":"present","response":"present","rt":1244.700000003,"correct":true,"confidence":4},{"trial_n":101,"min":87,"max":168,"target":"absent","response":"present","rt":1281.200000003,"correct":false,"confidence":3},{"trial_n":102,"min":85,"max":170,"target":"present","response":"present","rt":1127.6000000089,"correct":true,"confidence":3},{"trial_n":103,"min":85,"max":170,"target":"absent","response":"present","rt":1586.599999994,"correct":false,"confidence":2},{"trial_n":104,"min":83,"max":172,"target":"absent","response":"present","rt":979.20000000298,"correct":false,"confidence":2},{"trial_n":105,"min":81,"max":174,"target":"present","response":"present","rt":907.89999999106,"correct":true,"confidence":4},{"trial_n":106,"min":81,"max":174,"target":"present","response":"present","rt":1079.5,"correct":true,"confidence":5},{"trial_n":107,"min":83,"max":172,"target":"present","response":"present","rt":848.10000000894,"correct":true,"confidence":5},{"trial_n":108,"min":83,"max":172,"target":"absent","response":"present","rt":1103.099999994,"correct":false,"confidence":4},{"trial_n":109,"min":81,"max":174,"target":"absent","response":"absent","rt":1334.1999999881,"correct":true,"confidence":5},{"trial_n":110,"min":81,"max":174,"target":"present","response":"present","rt":1315.700000003,"correct":true,"confidence":2},{"trial_n":111,"min":82,"max":173,"target":"present","response":"present","rt":1004.400000006,"correct":true,"confidence":5},{"trial_n":112,"min":82,"max":173,"target":"present","response":"absent","rt":1826.3999999911,"correct":false,"confidence":3},{"trial_n":113,"min":81,"max":174,"target":"present","response":"present","rt":589,"correct":true,"confidence":5},{"trial_n":114,"min":81,"max":174,"target":"present","response":"present","rt":734.5,"correct":true,"confidence":5},{"trial_n":115,"min":82,"max":173,"target":"absent","response":"present","rt":1384.099999994,"correct":false,"confidence":1},{"trial_n":116,"min":81,"max":174,"target":"absent","response":"present","rt":978.59999999404,"correct":false,"confidence":2},{"trial_n":117,"min":80,"max":175,"target":"absent","response":"absent","rt":1271.799999997,"correct":true,"confidence":2},{"trial_n":118,"min":80,"max":175,"target":"absent","response":"absent","rt":1657.200000003,"correct":true,"confidence":5},{"trial_n":119,"min":81,"max":174,"target":"absent","response":"absent","rt":1303.8999999911,"correct":true,"confidence":3},{"trial_n":120,"min":81,"max":174,"target":"absent","response":"absent","rt":1292.400000006,"correct":true,"confidence":2},{"trial_n":121,"min":82,"max":173,"target":"present","response":"present","rt":1062,"correct":true,"confidence":5},{"trial_n":122,"min":82,"max":173,"target":"present","response":"present","rt":1232.6000000089,"correct":true,"confidence":5},{"trial_n":123,"min":83,"max":172,"target":"present","response":"present","rt":1298.200000003,"correct":true,"confidence":2},{"trial_n":124,"min":83,"max":172,"target":"present","response":"present","rt":975.29999999702,"correct":true,"confidence":4},{"trial_n":125,"min":84,"max":171,"target":"absent","response":"present","rt":1135.3999999911,"correct":false,"confidence":4},{"trial_n":126,"min":83,"max":172,"target":"absent","response":"present","rt":1332.1000000089,"correct":false,"confidence":2},{"trial_n":127,"min":82,"max":173,"target":"present","response":"present","rt":951.29999999702,"correct":true,"confidence":3},{"trial_n":128,"min":82,"max":173,"target":"absent","response":"absent","rt":883.79999999702,"correct":true,"confidence":5},{"trial_n":129,"min":83,"max":172,"target":"present","response":"present","rt":790.79999999702,"correct":true,"confidence":5},{"trial_n":130,"min":83,"max":172,"target":"absent","response":"absent","rt":1495.8999999911,"correct":true,"confidence":5},{"trial_n":131,"min":84,"max":171,"target":"present","response":"present","rt":993.10000000894,"correct":true,"confidence":3},{"trial_n":132,"min":84,"max":171,"target":"absent","response":"absent","rt":1933,"correct":true,"confidence":4},{"trial_n":133,"min":85,"max":170,"target":"present","response":"present","rt":1115,"correct":true,"confidence":5},{"trial_n":134,"min":85,"max":170,"target":"absent","response":"absent","rt":2926.5,"correct":true,"confidence":2},{"trial_n":135,"min":86,"max":169,"target":"present","response":"present","rt":1270.700000003,"correct":true,"confidence":5},{"trial_n":136,"min":86,"max":169,"target":"present","response":"present","rt":1321.700000003,"correct":true,"confidence":2},{"trial_n":137,"min":87,"max":168,"target":"absent","response":"absent","rt":970.79999999702,"correct":true,"confidence":5},{"trial_n":138,"min":87,"max":168,"target":"absent","response":"absent","rt":1760.299999997,"correct":true,"confidence":4},{"trial_n":139,"min":88,"max":167,"target":"absent","response":"present","rt":1330.900000006,"correct":false,"confidence":4},{"trial_n":140,"min":87,"max":168,"target":"absent","response":"absent","rt":1060.1000000089,"correct":true,"confidence":5}]