[{"trial_n":1,"span":8,"encoder":"86741930","distractor":"76741930","target":"present","response":"present","rt":"4771","correct":true,"confidence":-1},{"trial_n":2,"span":8,"encoder":"89656118","distractor":"89656198","target":"present","response":"present","rt":"3166","correct":true,"confidence":-1},{"trial_n":3,"span":10,"encoder":"6237347131","distractor":"9237347131","target":"absent","response":"absent","rt":"2097","correct":true,"confidence":-1},{"trial_n":4,"span":10,"encoder":"4470613258","distractor":"4970613258","target":"absent","response":"absent","rt":"3014","correct":true,"confidence":-1},{"trial_n":5,"span":12,"encoder":"838930811660","distractor":"838930811680","target":"present","response":"present","rt":"2142","correct":true,"confidence":-1},{"trial_n":6,"span":12,"encoder":"527245676928","distractor":"527241676928","target":"absent","response":"absent","rt":"2923","correct":true,"confidence":-1},{"trial_n":7,"span":14,"encoder":"33712754439114","distractor":"33012754439114","target":"present","response":"present","rt":"2215","correct":true,"confidence":-1},{"trial_n":8,"span":14,"encoder":"11024687389805","distractor":"17024687389805","target":"present","response":"present","rt":"1402","correct":true,"confidence":-1},{"trial_n":9,"span":16,"encoder":"2498126684350927","distractor":"0498126684350927","target":"present","response":"present","rt":"1808","correct":true,"confidence":-1},{"trial_n":10,"span":16,"encoder":"1054830748881035","distractor":"1094830748881035","target":"absent","response":"present","rt":"1758","correct":false,"confidence":-1},{"trial_n":11,"span":14,"encoder":"66128519731802","distractor":"66128519731809","target":"present","response":"absent","rt":"1702","correct":false,"confidence":-1},{"trial_n":12,"span":13,"encoder":"6668312785349","distractor":"6668512785349","target":"present","response":"present","rt":"1961","correct":true,"confidence":-1},{"trial_n":13,"span":13,"encoder":"2311115675458","distractor":"2311115685458","target":"absent","response":"present","rt":"2882","correct":false,"confidence":-1},{"trial_n":14,"span":12,"encoder":"710971604674","distractor":"710976604674","target":"absent","response":"present","rt":"2544","correct":false,"confidence":-1},{"trial_n":15,"span":11,"encoder":"84230822110","distractor":"94230822110","target":"absent","response":"present","rt":"2303","correct":false,"confidence":-1},{"trial_n":16,"span":10,"encoder":"1443019049","distractor":"0443019049","target":"absent","response":"present","rt":"1767","correct":false,"confidence":-1},{"trial_n":17,"span":9,"encoder":"346637215","distractor":"346637216","target":"absent","response":"absent","rt":"1830","correct":true,"confidence":-1},{"trial_n":18,"span":9,"encoder":"791411314","distractor":"791451314","target":"present","response":"present","rt":"2697","correct":true,"confidence":-1},{"trial_n":19,"span":10,"encoder":"7411903440","distractor":"7411903442","target":"absent","response":"absent","rt":"2052","correct":true,"confidence":-1},{"trial_n":20,"span":10,"encoder":"9857255562","distractor":"9857255569","target":"absent","response":"absent","rt":"1666","correct":true,"confidence":-1},{"trial_n":21,"span":11,"encoder":"97879816778","distractor":"99879816778","target":"absent","response":"present","rt":"2178","correct":false,"confidence":4},{"trial_n":22,"span":10,"encoder":"4769345845","distractor":"4769345865","target":"absent","response":"absent","rt":"1989","correct":true,"confidence":3},{"trial_n":23,"span":10,"encoder":"0683865800","distractor":"0683465800","target":"present","response":"present","rt":"1988","correct":true,"confidence":4},{"trial_n":24,"span":11,"encoder":"59625967923","distractor":"59623967923","target":"absent","response":"present","rt":"4792","correct":false,"confidence":4},{"trial_n":25,"span":10,"encoder":"4525446799","distractor":"4025446799","target":"absent","response":"absent","rt":"1606","correct":true,"confidence":1},{"trial_n":26,"span":10,"encoder":"6911147853","distractor":"6911547853","target":"absent","response":"present","rt":"1884","correct":false,"confidence":4},{"trial_n":27,"span":9,"encoder":"263474351","distractor":"266474351","target":"present","response":"present","rt":"1968","correct":true,"confidence":1},{"trial_n":28,"span":9,"encoder":"967051634","distractor":"967055634","target":"absent","response":"absent","rt":"1952","correct":true,"confidence":4},{"trial_n":29,"span":10,"encoder":"3949070851","distractor":"3949070871","target":"absent","response":"absent","rt":"1522","correct":true,"confidence":3},{"trial_n":30,"span":10,"encoder":"6208338046","distractor":"6208368046","target":"absent","response":"present","rt":"1707","correct":false,"confidence":4},{"trial_n":31,"span":9,"encoder":"024463572","distractor":"094463572","target":"absent","response":"absent","rt":"2681","correct":true,"confidence":3},{"trial_n":32,"span":9,"encoder":"607946484","distractor":"601946484","target":"absent","response":"present","rt":"3459","correct":false,"confidence":3},{"trial_n":33,"span":8,"encoder":"26069598","distractor":"26069398","target":"absent","response":"absent","rt":"2977.0000000001","correct":true,"confidence":5},{"trial_n":34,"span":8,"encoder":"58121942","distractor":"58121142","target":"present","response":"present","rt":"6782","correct":true,"confidence":3},{"trial_n":35,"span":9,"encoder":"232945219","distractor":"232945218","target":"present","response":"absent","rt":"299526","correct":false,"confidence":3},{"trial_n":36,"span":8,"encoder":"22474398","distractor":"22674398","target":"absent","response":"absent","rt":"48038","correct":true,"confidence":1},{"trial_n":37,"span":8,"encoder":"11732987","distractor":"11632987","target":"present","response":"present","rt":"1607.0000000001","correct":true,"confidence":4},{"trial_n":38,"span":9,"encoder":"721572145","distractor":"721572195","target":"absent","response":"absent","rt":"3156","correct":true,"confidence":1},{"trial_n":39,"span":9,"encoder":"367950449","distractor":"367950444","target":"absent","response":"absent","rt":"5372","correct":true,"confidence":1},{"trial_n":40,"span":10,"encoder":"4893490100","distractor":"4893450100","target":"present","response":"absent","rt":"2079","correct":false,"confidence":1},{"trial_n":41,"span":9,"encoder":"106652202","distractor":"606652202","target":"present","response":"present","rt":"2484","correct":true,"confidence":4},{"trial_n":42,"span":9,"encoder":"030805898","distractor":"030865898","target":"present","response":"present","rt":"2171","correct":true,"confidence":3},{"trial_n":43,"span":10,"encoder":"3916243391","distractor":"3916244391","target":"present","response":"present","rt":"3272","correct":true,"confidence":4},{"trial_n":44,"span":10,"encoder":"6894391135","distractor":"6894391155","target":"present","response":"present","rt":"1582","correct":true,"confidence":4},{"trial_n":45,"span":11,"encoder":"98969435986","distractor":"98962435986","target":"present","response":"absent","rt":"332826","correct":false,"confidence":1},{"trial_n":46,"span":10,"encoder":"5003983669","distractor":"5003993669","target":"present","response":"present","rt":"1737.0000000002","correct":true,"confidence":4},{"trial_n":47,"span":10,"encoder":"6241957422","distractor":"6541957422","target":"present","response":"present","rt":"2239.0000000002","correct":true,"confidence":4},{"trial_n":48,"span":11,"encoder":"44594890940","distractor":"44594890948","target":"absent","response":"absent","rt":"1772","correct":true,"confidence":3},{"trial_n":49,"span":11,"encoder":"96707399646","distractor":"98707399646","target":"present","response":"present","rt":"2359","correct":true,"confidence":4},{"trial_n":50,"span":12,"encoder":"507875372098","distractor":"507875372096","target":"present","response":"present","rt":"7231","correct":true,"confidence":3},{"trial_n":51,"span":12,"encoder":"919122024663","distractor":"919112024663","target":"absent","response":"present","rt":"1719","correct":false,"confidence":5},{"trial_n":52,"span":11,"encoder":"16797227576","distractor":"16197227576","target":"present","response":"present","rt":"1522","correct":true,"confidence":3},{"trial_n":53,"span":11,"encoder":"46065661439","distractor":"76065661439","target":"present","response":"present","rt":"1436","correct":true,"confidence":3},{"trial_n":54,"span":12,"encoder":"997387871985","distractor":"997386871985","target":"present","response":"present","rt":"1367","correct":true,"confidence":4},{"trial_n":55,"span":12,"encoder":"012959978087","distractor":"012953978087","target":"absent","response":"present","rt":"12815","correct":false,"confidence":3},{"trial_n":56,"span":11,"encoder":"96697653885","distractor":"46697653885","target":"present","response":"present","rt":"1392.9999999998","correct":true,"confidence":5},{"trial_n":57,"span":11,"encoder":"11340322099","distractor":"11340322049","target":"present","response":"present","rt":"1296","correct":true,"confidence":4},{"trial_n":58,"span":12,"encoder":"599913645800","distractor":"599913145800","target":"present","response":"present","rt":"4380","correct":true,"confidence":1},{"trial_n":59,"span":12,"encoder":"036658412761","distractor":"036658812761","target":"absent","response":"present","rt":"1775","correct":false,"confidence":3},{"trial_n":60,"span":11,"encoder":"04582365903","distractor":"44582365903","target":"present","response":"present","rt":"1948","correct":true,"confidence":3},{"trial_n":61,"span":11,"encoder":"25256233443","distractor":"25256233445","target":"absent","response":"absent","rt":"1536","correct":true,"confidence":4},{"trial_n":62,"span":12,"encoder":"432280560711","distractor":"432250560711","target":"present","response":"present","rt":"17538","correct":true,"confidence":3},{"trial_n":63,"span":12,"encoder":"856116492433","distractor":"856616492433","target":"absent","response":"absent","rt":"3704","correct":true,"confidence":3},{"trial_n":64,"span":13,"encoder":"9731589735880","distractor":"9731789735880","target":"present","response":"present","rt":"4807","correct":true,"confidence":4},{"trial_n":65,"span":13,"encoder":"9409896380613","distractor":"9409896880613","target":"absent","response":"present","rt":"1969.9999999995","correct":false,"confidence":4},{"trial_n":66,"span":12,"encoder":"086702321087","distractor":"006702321087","target":"absent","response":"present","rt":"2022.9999999995","correct":false,"confidence":5},{"trial_n":67,"span":11,"encoder":"69651764176","distractor":"69661764176","target":"present","response":"present","rt":"2272","correct":true,"confidence":3},{"trial_n":68,"span":11,"encoder":"27432147283","distractor":"20432147283","target":"present","response":"present","rt":"1631","correct":true,"confidence":3},{"trial_n":69,"span":12,"encoder":"043400126255","distractor":"043400626255","target":"absent","response":"present","rt":"1565.0000000005","correct":false,"confidence":4},{"trial_n":70,"span":11,"encoder":"00727659532","distractor":"01727659532","target":"present","response":"present","rt":"1659","correct":true,"confidence":4},{"trial_n":71,"span":8,"encoder":"93450852","distractor":"93450452","target":"present","response":"absent","rt":"3584","correct":false,"confidence":-1},{"trial_n":72,"span":7,"encoder":"6156523","distractor":"6136523","target":"present","response":"absent","rt":"5773.9999999995","correct":false,"confidence":-1},{"trial_n":73,"span":6,"encoder":"874454","distractor":"174454","target":"absent","response":"absent","rt":"1499","correct":true,"confidence":-1},{"trial_n":74,"span":6,"encoder":"281427","distractor":"251427","target":"absent","response":"absent","rt":"945","correct":true,"confidence":-1},{"trial_n":75,"span":7,"encoder":"3050491","distractor":"3053491","target":"present","response":"absent","rt":"81146","correct":false,"confidence":-1},{"trial_n":76,"span":6,"encoder":"795571","distractor":"797571","target":"absent","response":"present","rt":"72530","correct":false,"confidence":-1},{"trial_n":77,"span":5,"encoder":"74567","distractor":"70567","target":"absent","response":"absent","rt":"11962","correct":true,"confidence":-1},{"trial_n":78,"span":5,"encoder":"16040","distractor":"16020","target":"present","response":"present","rt":"1463","correct":true,"confidence":-1},{"trial_n":79,"span":6,"encoder":"471570","distractor":"471170","target":"present","response":"absent","rt":"1405","correct":false,"confidence":-1},{"trial_n":80,"span":5,"encoder":"74351","distractor":"72351","target":"present","response":"present","rt":"2700","correct":true,"confidence":-1},{"trial_n":81,"span":5,"encoder":"40511","distractor":"40111","target":"absent","response":"present","rt":"621","correct":false,"confidence":-1},{"trial_n":82,"span":4,"encoder":"9228","distractor":"9222","target":"present","response":"absent","rt":"783","correct":false,"confidence":-1},{"trial_n":83,"span":3,"encoder":"551","distractor":"581","target":"present","response":"present","rt":"1719","correct":true,"confidence":-1},{"trial_n":84,"span":3,"encoder":"737","distractor":"837","target":"present","response":"present","rt":"846","correct":true,"confidence":-1},{"trial_n":85,"span":4,"encoder":"8629","distractor":"8627","target":"absent","response":"absent","rt":"1318","correct":true,"confidence":-1},{"trial_n":86,"span":4,"encoder":"2759","distractor":"2756","target":"present","response":"present","rt":"1058","correct":true,"confidence":-1},{"trial_n":87,"span":5,"encoder":"28456","distractor":"48456","target":"absent","response":"absent","rt":"1378","correct":true,"confidence":-1},{"trial_n":88,"span":5,"encoder":"17678","distractor":"17628","target":"absent","response":"absent","rt":"41953","correct":true,"confidence":-1},{"trial_n":89,"span":6,"encoder":"720599","distractor":"720529","target":"absent","response":"absent","rt":"898.00000000047","correct":true,"confidence":-1},{"trial_n":90,"span":6,"encoder":"567740","distractor":"587740","target":"absent","response":"absent","rt":"2126.9999999995","correct":true,"confidence":-1},{"trial_n":91,"span":7,"encoder":"5034803","distractor":"8034803","target":"absent","response":"absent","rt":"1254","correct":true,"confidence":5},{"trial_n":92,"span":7,"encoder":"1908079","distractor":"1938079","target":"present","response":"absent","rt":"1171","correct":false,"confidence":3},{"trial_n":93,"span":6,"encoder":"668413","distractor":"663413","target":"absent","response":"present","rt":"2516","correct":false,"confidence":2},{"trial_n":94,"span":5,"encoder":"39791","distractor":"39591","target":"absent","response":"absent","rt":"1482","correct":true,"confidence":3},{"trial_n":95,"span":5,"encoder":"84528","distractor":"84588","target":"absent","response":"absent","rt":"1289.0000000005","correct":true,"confidence":4},{"trial_n":96,"span":6,"encoder":"108093","distractor":"106093","target":"present","response":"present","rt":"1766.0000000005","correct":true,"confidence":5},{"trial_n":97,"span":6,"encoder":"365602","distractor":"365609","target":"present","response":"present","rt":"1441","correct":true,"confidence":5},{"trial_n":98,"span":7,"encoder":"5716391","distractor":"5711391","target":"present","response":"absent","rt":"1247","correct":false,"confidence":3},{"trial_n":99,"span":6,"encoder":"091741","distractor":"091731","target":"absent","response":"absent","rt":"1752","correct":true,"confidence":5},{"trial_n":100,"span":6,"encoder":"899447","distractor":"899440","target":"present","response":"present","rt":"2035","correct":true,"confidence":4},{"trial_n":101,"span":7,"encoder":"3922005","distractor":"3922105","target":"present","response":"present","rt":"1776","correct":true,"confidence":5},{"trial_n":102,"span":7,"encoder":"7052779","distractor":"7052579","target":"present","response":"present","rt":"1723","correct":true,"confidence":5},{"trial_n":103,"span":8,"encoder":"07902383","distractor":"07102383","target":"present","response":"absent","rt":"1461","correct":false,"confidence":2},{"trial_n":104,"span":7,"encoder":"0028231","distractor":"0028931","target":"present","response":"absent","rt":"1270","correct":false,"confidence":1},{"trial_n":105,"span":6,"encoder":"150224","distractor":"850224","target":"present","response":"present","rt":"1572.0000000005","correct":true,"confidence":4},{"trial_n":106,"span":6,"encoder":"896434","distractor":"896433","target":"absent","response":"absent","rt":"1731","correct":true,"confidence":5},{"trial_n":107,"span":7,"encoder":"0099294","distractor":"0094294","target":"present","response":"absent","rt":"3731","correct":false,"confidence":1},{"trial_n":108,"span":6,"encoder":"346927","distractor":"344927","target":"absent","response":"absent","rt":"2557","correct":true,"confidence":1},{"trial_n":109,"span":6,"encoder":"537767","distractor":"527767","target":"absent","response":"absent","rt":"2579","correct":true,"confidence":2},{"trial_n":110,"span":7,"encoder":"5762841","distractor":"4762841","target":"absent","response":"present","rt":"1935.9999999995","correct":false,"confidence":2},{"trial_n":111,"span":6,"encoder":"062107","distractor":"062104","target":"present","response":"present","rt":"1544","correct":true,"confidence":1},{"trial_n":112,"span":6,"encoder":"754670","distractor":"724670","target":"present","response":"absent","rt":"1743","correct":false,"confidence":1},{"trial_n":113,"span":5,"encoder":"83802","distractor":"83806","target":"present","response":"present","rt":"1669.9999999995","correct":true,"confidence":5},{"trial_n":114,"span":5,"encoder":"38987","distractor":"36987","target":"absent","response":"absent","rt":"3791.0000000005","correct":true,"confidence":1},{"trial_n":115,"span":6,"encoder":"630594","distractor":"630597","target":"absent","response":"absent","rt":"1871","correct":true,"confidence":5},{"trial_n":116,"span":6,"encoder":"111759","distractor":"111750","target":"absent","response":"absent","rt":"2040.9999999995","correct":true,"confidence":4},{"trial_n":117,"span":7,"encoder":"3714183","distractor":"3714143","target":"absent","response":"present","rt":"2478.9999999995","correct":false,"confidence":3},{"trial_n":118,"span":6,"encoder":"082170","distractor":"282170","target":"absent","response":"absent","rt":"1386.0000000005","correct":true,"confidence":3},{"trial_n":119,"span":6,"encoder":"423086","distractor":"423080","target":"absent","response":"absent","rt":"1573.0000000005","correct":true,"confidence":5},{"trial_n":120,"span":7,"encoder":"1011004","distractor":"7011004","target":"present","response":"present","rt":"1877","correct":true,"confidence":4},{"trial_n":121,"span":7,"encoder":"9735246","distractor":"9735245","target":"present","response":"present","rt":"1297","correct":true,"confidence":5},{"trial_n":122,"span":8,"encoder":"00667362","distractor":"60667362","target":"present","response":"present","rt":"2084","correct":true,"confidence":3},{"trial_n":123,"span":8,"encoder":"07930573","distractor":"37930573","target":"absent","response":"present","rt":"1413.9999999995","correct":false,"confidence":3},{"trial_n":124,"span":7,"encoder":"5518295","distractor":"8518295","target":"present","response":"present","rt":"4752","correct":true,"confidence":2},{"trial_n":125,"span":7,"encoder":"7916358","distractor":"7916958","target":"present","response":"absent","rt":"2022","correct":false,"confidence":4},{"trial_n":126,"span":6,"encoder":"516805","distractor":"416805","target":"absent","response":"absent","rt":"3221","correct":true,"confidence":1},{"trial_n":127,"span":6,"encoder":"407315","distractor":"307315","target":"absent","response":"absent","rt":"1426.0000000005","correct":true,"confidence":1},{"trial_n":128,"span":7,"encoder":"7267145","distractor":"5267145","target":"absent","response":"present","rt":"2423.0000000005","correct":false,"confidence":2},{"trial_n":129,"span":6,"encoder":"755207","distractor":"755277","target":"present","response":"absent","rt":"1974.9999999995","correct":false,"confidence":1},{"trial_n":130,"span":5,"encoder":"05480","distractor":"05460","target":"absent","response":"absent","rt":"2174","correct":true,"confidence":3},{"trial_n":131,"span":5,"encoder":"54125","distractor":"54425","target":"present","response":"present","rt":"1849","correct":true,"confidence":3},{"trial_n":132,"span":6,"encoder":"416103","distractor":"486103","target":"present","response":"absent","rt":"2344","correct":false,"confidence":2},{"trial_n":133,"span":5,"encoder":"24269","distractor":"24239","target":"present","response":"present","rt":"2019","correct":true,"confidence":5},{"trial_n":134,"span":5,"encoder":"59830","distractor":"59836","target":"absent","response":"absent","rt":"1633.0000000005","correct":true,"confidence":4},{"trial_n":135,"span":6,"encoder":"172778","distractor":"072778","target":"absent","response":"absent","rt":"2374","correct":true,"confidence":4},{"trial_n":136,"span":6,"encoder":"084069","distractor":"044069","target":"present","response":"absent","rt":"1917","correct":false,"confidence":2},{"trial_n":137,"span":5,"encoder":"15616","distractor":"13616","target":"present","response":"absent","rt":"1798.0000000005","correct":false,"confidence":1},{"trial_n":138,"span":4,"encoder":"3424","distractor":"3494","target":"absent","response":"present","rt":"2488","correct":false,"confidence":1},{"trial_n":139,"span":3,"encoder":"282","distractor":"281","target":"absent","response":"absent","rt":"1407","correct":true,"confidence":5},{"trial_n":140,"span":3,"encoder":"144","distractor":"844","target":"present","response":"present","rt":"1622","correct":true,"confidence":5}]