[{"trial_n":1,"n_dots":4.25,"target":"right","response":"left","rt":5247,"correct":false,"confidence":-1},{"trial_n":2,"n_dots":4.25,"target":"left","response":"left","rt":689,"correct":true,"confidence":-1},{"trial_n":3,"n_dots":4.25,"target":"left","response":"left","rt":167,"correct":true,"confidence":-1},{"trial_n":4,"n_dots":3.85,"target":"right","response":"left","rt":130,"correct":false,"confidence":-1},{"trial_n":5,"n_dots":4.25,"target":"left","response":"left","rt":254,"correct":true,"confidence":-1},{"trial_n":6,"n_dots":4.25,"target":"right","response":"right","rt":382,"correct":true,"confidence":-1},{"trial_n":7,"n_dots":3.85,"target":"left","response":"left","rt":219,"correct":true,"confidence":-1},{"trial_n":8,"n_dots":3.85,"target":"left","response":"left","rt":465.00000000001,"correct":true,"confidence":-1},{"trial_n":9,"n_dots":3.65,"target":"right","response":"right","rt":352.99999999999,"correct":true,"confidence":-1},{"trial_n":10,"n_dots":3.65,"target":"right","response":"right","rt":38,"correct":true,"confidence":-1},{"trial_n":11,"n_dots":3.45,"target":"right","response":"right","rt":165,"correct":true,"confidence":-1},{"trial_n":12,"n_dots":3.45,"target":"left","response":"left","rt":111,"correct":true,"confidence":-1},{"trial_n":13,"n_dots":3.35,"target":"right","response":"left","rt":60,"correct":false,"confidence":-1},{"trial_n":14,"n_dots":3.45,"target":"right","response":"left","rt":68,"correct":false,"confidence":-1},{"trial_n":15,"n_dots":3.55,"target":"left","response":"left","rt":1373,"correct":true,"confidence":-1},{"trial_n":16,"n_dots":3.55,"target":"left","response":"left","rt":214,"correct":true,"confidence":-1},{"trial_n":17,"n_dots":3.45,"target":"right","response":"right","rt":1126,"correct":true,"confidence":-1},{"trial_n":18,"n_dots":3.45,"target":"left","response":"left","rt":98,"correct":true,"confidence":-1},{"trial_n":19,"n_dots":3.35,"target":"left","response":"left","rt":2160,"correct":true,"confidence":-1},{"trial_n":20,"n_dots":3.35,"target":"left","response":"left","rt":22.000000000015,"correct":true,"confidence":-1},{"trial_n":21,"n_dots":3.25,"target":"left","response":"left","rt":67.000000000015,"correct":true,"confidence":4},{"trial_n":22,"n_dots":3.25,"target":"left","response":"left","rt":454,"correct":true,"confidence":4},{"trial_n":23,"n_dots":3.15,"target":"right","response":"left","rt":422,"correct":false,"confidence":4},{"trial_n":24,"n_dots":3.25,"target":"left","response":"right","rt":497,"correct":false,"confidence":3},{"trial_n":25,"n_dots":3.35,"target":"right","response":"left","rt":411,"correct":false,"confidence":4},{"trial_n":26,"n_dots":3.45,"target":"right","response":"left","rt":36.999999999985,"correct":false,"confidence":4},{"trial_n":27,"n_dots":3.55,"target":"right","response":"left","rt":180,"correct":false,"confidence":4},{"trial_n":28,"n_dots":3.65,"target":"left","response":"left","rt":374,"correct":true,"confidence":4},{"trial_n":29,"n_dots":3.65,"target":"right","response":"right","rt":283.99999999999,"correct":true,"confidence":3},{"trial_n":30,"n_dots":3.55,"target":"right","response":"left","rt":137.00000000001,"correct":false,"confidence":4},{"trial_n":31,"n_dots":3.65,"target":"left","response":"left","rt":-4.0000000000146,"correct":true,"confidence":5},{"trial_n":32,"n_dots":3.65,"target":"left","response":"left","rt":-2.9999999999854,"correct":true,"confidence":5},{"trial_n":33,"n_dots":3.55,"target":"left","response":"left","rt":146,"correct":true,"confidence":5},{"trial_n":34,"n_dots":3.55,"target":"left","response":"left","rt":628,"correct":true,"confidence":5},{"trial_n":35,"n_dots":3.45,"target":"right","response":"left","rt":195.99999999997,"correct":false,"confidence":4},{"trial_n":36,"n_dots":3.55,"target":"right","response":"left","rt":794,"correct":false,"confidence":3},{"trial_n":37,"n_dots":3.65,"target":"right","response":"right","rt":355,"correct":true,"confidence":4},{"trial_n":38,"n_dots":3.65,"target":"right","response":"right","rt":341,"correct":true,"confidence":4},{"trial_n":39,"n_dots":3.55,"target":"left","response":"left","rt":84,"correct":true,"confidence":4},{"trial_n":40,"n_dots":3.55,"target":"left","response":"left","rt":2,"correct":true,"confidence":4},{"trial_n":41,"n_dots":3.45,"target":"left","response":"left","rt":382.00000000006,"correct":true,"confidence":4},{"trial_n":42,"n_dots":3.45,"target":"left","response":"left","rt":30,"correct":true,"confidence":4},{"trial_n":43,"n_dots":3.35,"target":"left","response":"left","rt":565,"correct":true,"confidence":4},{"trial_n":44,"n_dots":3.35,"target":"right","response":"right","rt":20,"correct":true,"confidence":3},{"trial_n":45,"n_dots":3.25,"target":"right","response":"left","rt":115,"correct":false,"confidence":4},{"trial_n":46,"n_dots":3.35,"target":"right","response":"left","rt":769,"correct":false,"confidence":4},{"trial_n":47,"n_dots":3.45,"target":"left","response":"left","rt":708.99999999994,"correct":true,"confidence":4},{"trial_n":48,"n_dots":3.45,"target":"left","response":"left","rt":345.00000000006,"correct":true,"confidence":4},{"trial_n":49,"n_dots":3.35,"target":"left","response":"left","rt":7,"correct":true,"confidence":5},{"trial_n":50,"n_dots":3.35,"target":"left","response":"right","rt":139,"correct":false,"confidence":3},{"trial_n":51,"n_dots":3.45,"target":"right","response":"left","rt":77,"correct":false,"confidence":5},{"trial_n":52,"n_dots":3.55,"target":"left","response":"left","rt":423,"correct":true,"confidence":5},{"trial_n":53,"n_dots":3.55,"target":"left","response":"right","rt":224,"correct":false,"confidence":4},{"trial_n":54,"n_dots":3.65,"target":"right","response":"left","rt":27,"correct":false,"confidence":3},{"trial_n":55,"n_dots":3.75,"target":"left","response":"left","rt":397,"correct":true,"confidence":4},{"trial_n":56,"n_dots":3.75,"target":"left","response":"right","rt":110,"correct":false,"confidence":2},{"trial_n":57,"n_dots":3.85,"target":"right","response":"right","rt":239,"correct":true,"confidence":4},{"trial_n":58,"n_dots":3.85,"target":"right","response":"left","rt":285,"correct":false,"confidence":4},{"trial_n":59,"n_dots":3.95,"target":"right","response":"right","rt":615,"correct":true,"confidence":4},{"trial_n":60,"n_dots":3.95,"target":"right","response":"right","rt":296,"correct":true,"confidence":3},{"trial_n":61,"n_dots":3.85,"target":"right","response":"left","rt":49,"correct":false,"confidence":4},{"trial_n":62,"n_dots":3.95,"target":"left","response":"left","rt":432,"correct":true,"confidence":5},{"trial_n":63,"n_dots":3.95,"target":"right","response":"right","rt":221,"correct":true,"confidence":5},{"trial_n":64,"n_dots":3.85,"target":"left","response":"right","rt":314,"correct":false,"confidence":4},{"trial_n":65,"n_dots":3.95,"target":"right","response":"left","rt":647.00000000006,"correct":false,"confidence":4},{"trial_n":66,"n_dots":4.05,"target":"left","response":"left","rt":606,"correct":true,"confidence":5},{"trial_n":67,"n_dots":4.05,"target":"right","response":"right","rt":3.9999999998836,"correct":true,"confidence":5},{"trial_n":68,"n_dots":3.95,"target":"left","response":"left","rt":278,"correct":true,"confidence":5},{"trial_n":69,"n_dots":3.95,"target":"right","response":"right","rt":59,"correct":true,"confidence":4},{"trial_n":70,"n_dots":3.85,"target":"right","response":"right","rt":715,"correct":true,"confidence":4},{"trial_n":71,"n_dots":3.85,"target":"left","response":"left","rt":165,"correct":true,"confidence":4},{"trial_n":72,"n_dots":3.75,"target":"right","response":"left","rt":224.00000000012,"correct":false,"confidence":4},{"trial_n":73,"n_dots":3.85,"target":"right","response":"left","rt":189,"correct":false,"confidence":4},{"trial_n":74,"n_dots":3.95,"target":"right","response":"right","rt":53,"correct":true,"confidence":4},{"trial_n":75,"n_dots":3.95,"target":"left","response":"left","rt":715,"correct":true,"confidence":4},{"trial_n":76,"n_dots":3.85,"target":"right","response":"right","rt":206.00000000012,"correct":true,"confidence":5},{"trial_n":77,"n_dots":3.85,"target":"right","response":"right","rt":51,"correct":true,"confidence":5},{"trial_n":78,"n_dots":3.75,"target":"left","response":"left","rt":124.00000000012,"correct":true,"confidence":5},{"trial_n":79,"n_dots":3.75,"target":"right","response":"right","rt":132,"correct":true,"confidence":5},{"trial_n":80,"n_dots":3.65,"target":"right","response":"right","rt":182.00000000012,"correct":true,"confidence":5},{"trial_n":81,"n_dots":3.65,"target":"right","response":"right","rt":622,"correct":true,"confidence":4},{"trial_n":82,"n_dots":3.55,"target":"left","response":"left","rt":327,"correct":true,"confidence":3},{"trial_n":83,"n_dots":3.55,"target":"left","response":"left","rt":126.99999999988,"correct":true,"confidence":3},{"trial_n":84,"n_dots":3.45,"target":"right","response":"right","rt":21.000000000116,"correct":true,"confidence":3},{"trial_n":85,"n_dots":3.45,"target":"left","response":"left","rt":193,"correct":true,"confidence":2},{"trial_n":86,"n_dots":3.35,"target":"left","response":"left","rt":101,"correct":true,"confidence":2},{"trial_n":87,"n_dots":3.35,"target":"right","response":"left","rt":40,"correct":false,"confidence":2},{"trial_n":88,"n_dots":3.45,"target":"right","response":"right","rt":894,"correct":true,"confidence":2},{"trial_n":89,"n_dots":3.45,"target":"right","response":"left","rt":10592,"correct":false,"confidence":3},{"trial_n":90,"n_dots":3.55,"target":"right","response":"right","rt":191,"correct":true,"confidence":2},{"trial_n":91,"n_dots":3.55,"target":"left","response":"left","rt":51,"correct":true,"confidence":2},{"trial_n":92,"n_dots":3.45,"target":"left","response":"left","rt":308.00000000012,"correct":true,"confidence":2},{"trial_n":93,"n_dots":3.45,"target":"left","response":"left","rt":698.00000000012,"correct":true,"confidence":3},{"trial_n":94,"n_dots":3.35,"target":"left","response":"left","rt":244.00000000012,"correct":true,"confidence":1},{"trial_n":95,"n_dots":3.35,"target":"right","response":"right","rt":21.999999999884,"correct":true,"confidence":1},{"trial_n":96,"n_dots":3.25,"target":"right","response":"right","rt":151,"correct":true,"confidence":1},{"trial_n":97,"n_dots":3.25,"target":"left","response":"left","rt":204,"correct":true,"confidence":2},{"trial_n":98,"n_dots":3.15,"target":"right","response":"right","rt":128,"correct":true,"confidence":1},{"trial_n":99,"n_dots":3.15,"target":"right","response":"left","rt":233,"correct":false,"confidence":1},{"trial_n":100,"n_dots":3.25,"target":"left","response":"left","rt":502,"correct":true,"confidence":3},{"trial_n":101,"n_dots":3.25,"target":"right","response":"left","rt":288.99999999988,"correct":false,"confidence":4},{"trial_n":102,"n_dots":3.35,"target":"right","response":"right","rt":164.00000000012,"correct":true,"confidence":4},{"trial_n":103,"n_dots":3.35,"target":"left","response":"left","rt":457,"correct":true,"confidence":1},{"trial_n":104,"n_dots":3.25,"target":"left","response":"left","rt":366.00000000012,"correct":true,"confidence":1},{"trial_n":105,"n_dots":3.25,"target":"right","response":"right","rt":83,"correct":true,"confidence":2},{"trial_n":106,"n_dots":3.15,"target":"left","response":"right","rt":460,"correct":false,"confidence":2},{"trial_n":107,"n_dots":3.25,"target":"left","response":"left","rt":209,"correct":true,"confidence":1},{"trial_n":108,"n_dots":3.25,"target":"left","response":"left","rt":132,"correct":true,"confidence":3},{"trial_n":109,"n_dots":3.15,"target":"left","response":"left","rt":456,"correct":true,"confidence":3},{"trial_n":110,"n_dots":3.15,"target":"left","response":"right","rt":390,"correct":false,"confidence":3},{"trial_n":111,"n_dots":3.25,"target":"right","response":"left","rt":224,"correct":false,"confidence":1},{"trial_n":112,"n_dots":3.35,"target":"left","response":"left","rt":425,"correct":true,"confidence":3},{"trial_n":113,"n_dots":3.35,"target":"right","response":"right","rt":255,"correct":true,"confidence":2},{"trial_n":114,"n_dots":3.25,"target":"left","response":"left","rt":59.000000000116,"correct":true,"confidence":4},{"trial_n":115,"n_dots":3.25,"target":"right","response":"left","rt":298,"correct":false,"confidence":4},{"trial_n":116,"n_dots":3.35,"target":"left","response":"left","rt":2183,"correct":true,"confidence":1},{"trial_n":117,"n_dots":3.35,"target":"right","response":"right","rt":21796,"correct":true,"confidence":2},{"trial_n":118,"n_dots":3.25,"target":"right","response":"right","rt":283,"correct":true,"confidence":2},{"trial_n":119,"n_dots":3.25,"target":"left","response":"right","rt":168,"correct":false,"confidence":1},{"trial_n":120,"n_dots":3.35,"target":"right","response":"left","rt":243,"correct":false,"confidence":1}]