[{"trial_n":1,"span":8,"encoder":"59384091","distractor":"59484091","target":"present","response":"present","rt":"7466.700000003","correct":true,"confidence":-1},{"trial_n":2,"span":8,"encoder":"07050255","distractor":"07040255","target":"present","response":"present","rt":"2322.599999994","correct":true,"confidence":-1},{"trial_n":3,"span":10,"encoder":"6677942444","distractor":"6677942424","target":"absent","response":"absent","rt":"2039.6000000089","correct":true,"confidence":-1},{"trial_n":4,"span":10,"encoder":"7504780381","distractor":"7564780381","target":"absent","response":"present","rt":"2774.5","correct":false,"confidence":-1},{"trial_n":5,"span":8,"encoder":"18131710","distractor":"18731710","target":"present","response":"present","rt":"3478.5","correct":true,"confidence":-1},{"trial_n":6,"span":8,"encoder":"99565905","distractor":"99565900","target":"present","response":"absent","rt":"3113.8999999911","correct":false,"confidence":-1},{"trial_n":7,"span":6,"encoder":"798677","distractor":"798627","target":"present","response":"absent","rt":"2298.400000006","correct":false,"confidence":-1},{"trial_n":8,"span":4,"encoder":"6936","distractor":"6930","target":"present","response":"present","rt":"1503.099999994","correct":true,"confidence":-1},{"trial_n":9,"span":4,"encoder":"8975","distractor":"1975","target":"present","response":"present","rt":"1543.6000000089","correct":true,"confidence":-1},{"trial_n":10,"span":6,"encoder":"590191","distractor":"590291","target":"present","response":"present","rt":"1424.599999994","correct":true,"confidence":-1},{"trial_n":11,"span":6,"encoder":"330026","distractor":"330027","target":"present","response":"present","rt":"1565.8999999911","correct":true,"confidence":-1},{"trial_n":12,"span":7,"encoder":"5090534","distractor":"5090574","target":"absent","response":"present","rt":"2425.799999997","correct":false,"confidence":-1},{"trial_n":13,"span":6,"encoder":"850630","distractor":"870630","target":"absent","response":"present","rt":"1106.1000000089","correct":false,"confidence":-1},{"trial_n":14,"span":5,"encoder":"39346","distractor":"39746","target":"present","response":"present","rt":"1620.900000006","correct":true,"confidence":-1},{"trial_n":15,"span":5,"encoder":"11109","distractor":"11169","target":"absent","response":"absent","rt":"2350.5","correct":true,"confidence":-1},{"trial_n":16,"span":6,"encoder":"787438","distractor":"786438","target":"present","response":"present","rt":"2572.6000000089","correct":true,"confidence":-1},{"trial_n":17,"span":6,"encoder":"892743","distractor":"092743","target":"present","response":"absent","rt":"3030.099999994","correct":false,"confidence":-1},{"trial_n":18,"span":5,"encoder":"24541","distractor":"29541","target":"absent","response":"present","rt":"2497.8999999911","correct":false,"confidence":-1},{"trial_n":19,"span":4,"encoder":"4277","distractor":"4977","target":"absent","response":"present","rt":"1232","correct":false,"confidence":-1},{"trial_n":20,"span":3,"encoder":"603","distractor":"003","target":"present","response":"present","rt":"1632","correct":true,"confidence":-1},{"trial_n":21,"span":3,"encoder":"255","distractor":"251","target":"absent","response":"absent","rt":"1783","correct":true,"confidence":5},{"trial_n":22,"span":4,"encoder":"0543","distractor":"0563","target":"present","response":"absent","rt":"2464.299999997","correct":false,"confidence":5},{"trial_n":23,"span":3,"encoder":"633","distractor":"683","target":"absent","response":"absent","rt":"1749.1000000089","correct":true,"confidence":5},{"trial_n":24,"span":3,"encoder":"752","distractor":"652","target":"present","response":"present","rt":"1761.3000000119","correct":true,"confidence":5},{"trial_n":25,"span":4,"encoder":"1962","distractor":"1562","target":"present","response":"present","rt":"1912.6000000089","correct":true,"confidence":5},{"trial_n":26,"span":4,"encoder":"1356","distractor":"1352","target":"present","response":"present","rt":"2078.799999997","correct":true,"confidence":4},{"trial_n":27,"span":5,"encoder":"25108","distractor":"75108","target":"absent","response":"absent","rt":"3051.700000003","correct":true,"confidence":5},{"trial_n":28,"span":5,"encoder":"41291","distractor":"21291","target":"absent","response":"absent","rt":"1877.8999999911","correct":true,"confidence":5},{"trial_n":29,"span":6,"encoder":"743265","distractor":"643265","target":"absent","response":"absent","rt":"1768.1000000089","correct":true,"confidence":5},{"trial_n":30,"span":6,"encoder":"879657","distractor":"479657","target":"absent","response":"absent","rt":"1790.6999999881","correct":true,"confidence":5},{"trial_n":31,"span":7,"encoder":"6489718","distractor":"4489718","target":"absent","response":"absent","rt":"1697","correct":true,"confidence":3},{"trial_n":32,"span":7,"encoder":"8859876","distractor":"8259876","target":"absent","response":"absent","rt":"1631.099999994","correct":true,"confidence":5},{"trial_n":33,"span":8,"encoder":"89044661","distractor":"84044661","target":"present","response":"present","rt":"3480.5","correct":true,"confidence":4},{"trial_n":34,"span":8,"encoder":"03240696","distractor":"03242696","target":"absent","response":"absent","rt":"5150.5","correct":true,"confidence":3},{"trial_n":35,"span":9,"encoder":"652415591","distractor":"672415591","target":"absent","response":"absent","rt":"3362.599999994","correct":true,"confidence":2},{"trial_n":36,"span":9,"encoder":"117907208","distractor":"116907208","target":"absent","response":"absent","rt":"3215.1999999881","correct":true,"confidence":2},{"trial_n":37,"span":10,"encoder":"6415604027","distractor":"6415404027","target":"absent","response":"present","rt":"4143.8999999911","correct":false,"confidence":3},{"trial_n":38,"span":9,"encoder":"364518589","distractor":"360518589","target":"absent","response":"absent","rt":"3830.5","correct":true,"confidence":3},{"trial_n":39,"span":9,"encoder":"695758453","distractor":"696758453","target":"present","response":"present","rt":"3848.299999997","correct":true,"confidence":2},{"trial_n":40,"span":10,"encoder":"8996103080","distractor":"9996103080","target":"absent","response":"present","rt":"3716.400000006","correct":false,"confidence":4},{"trial_n":41,"span":9,"encoder":"486617072","distractor":"486617074","target":"present","response":"present","rt":"2106","correct":true,"confidence":5},{"trial_n":42,"span":9,"encoder":"939779360","distractor":"933779360","target":"absent","response":"present","rt":"2751.099999994","correct":false,"confidence":5},{"trial_n":43,"span":8,"encoder":"26504585","distractor":"26804585","target":"present","response":"present","rt":"4403.900000006","correct":true,"confidence":5},{"trial_n":44,"span":8,"encoder":"86509510","distractor":"86529510","target":"present","response":"absent","rt":"4718.400000006","correct":false,"confidence":2},{"trial_n":45,"span":7,"encoder":"4502827","distractor":"8502827","target":"present","response":"present","rt":"3274.400000006","correct":true,"confidence":4},{"trial_n":46,"span":7,"encoder":"3537035","distractor":"3537015","target":"absent","response":"absent","rt":"2860.900000006","correct":true,"confidence":2},{"trial_n":47,"span":8,"encoder":"49855447","distractor":"49855407","target":"absent","response":"present","rt":"5214.5","correct":false,"confidence":3},{"trial_n":48,"span":7,"encoder":"1740922","distractor":"1740921","target":"absent","response":"absent","rt":"2267.5","correct":true,"confidence":5},{"trial_n":49,"span":7,"encoder":"0996254","distractor":"8996254","target":"present","response":"present","rt":"2768.400000006","correct":true,"confidence":5},{"trial_n":50,"span":8,"encoder":"30298801","distractor":"80298801","target":"absent","response":"absent","rt":"5031.299999997","correct":true,"confidence":4},{"trial_n":51,"span":8,"encoder":"23059021","distractor":"23059621","target":"absent","response":"absent","rt":"5021.799999997","correct":true,"confidence":2},{"trial_n":52,"span":9,"encoder":"838571480","distractor":"838576480","target":"present","response":"present","rt":"4679","correct":true,"confidence":2},{"trial_n":53,"span":9,"encoder":"577957771","distractor":"177957771","target":"absent","response":"absent","rt":"2791","correct":true,"confidence":4},{"trial_n":54,"span":10,"encoder":"4716030628","distractor":"4716230628","target":"present","response":"present","rt":"4098.400000006","correct":true,"confidence":2},{"trial_n":55,"span":10,"encoder":"6051309595","distractor":"6051309593","target":"present","response":"present","rt":"4096.599999994","correct":true,"confidence":3},{"trial_n":56,"span":11,"encoder":"49282613487","distractor":"49284613487","target":"present","response":"present","rt":"3943.1999999881","correct":true,"confidence":2},{"trial_n":57,"span":11,"encoder":"89508529292","distractor":"89508539292","target":"absent","response":"present","rt":"3014.5","correct":false,"confidence":2},{"trial_n":58,"span":10,"encoder":"6796107700","distractor":"6796107300","target":"present","response":"present","rt":"3917","correct":true,"confidence":5},{"trial_n":59,"span":10,"encoder":"0940810842","distractor":"0740810842","target":"present","response":"present","rt":"6071.5","correct":true,"confidence":2},{"trial_n":60,"span":11,"encoder":"24055733047","distractor":"24055723047","target":"present","response":"present","rt":"4240.200000003","correct":true,"confidence":4},{"trial_n":61,"span":11,"encoder":"74163970250","distractor":"74763970250","target":"absent","response":"absent","rt":"2163.900000006","correct":true,"confidence":3},{"trial_n":62,"span":12,"encoder":"288240055422","distractor":"218240055422","target":"present","response":"present","rt":"4407.8999999911","correct":true,"confidence":3},{"trial_n":63,"span":12,"encoder":"221532397397","distractor":"211532397397","target":"present","response":"present","rt":"4422.299999997","correct":true,"confidence":1},{"trial_n":64,"span":13,"encoder":"8315177604210","distractor":"8315177601210","target":"present","response":"present","rt":"5237.3999999911","correct":true,"confidence":2},{"trial_n":65,"span":13,"encoder":"2409385415160","distractor":"2409385415130","target":"absent","response":"absent","rt":"2577.200000003","correct":true,"confidence":5},{"trial_n":66,"span":14,"encoder":"75706617727269","distractor":"25706617727269","target":"absent","response":"present","rt":"6324.400000006","correct":false,"confidence":3},{"trial_n":67,"span":13,"encoder":"3768302743946","distractor":"3758302743946","target":"present","response":"present","rt":"7443.299999997","correct":true,"confidence":3},{"trial_n":68,"span":13,"encoder":"7579884061066","distractor":"7579084061066","target":"absent","response":"present","rt":"7053.900000006","correct":false,"confidence":2},{"trial_n":69,"span":12,"encoder":"495324559784","distractor":"495424559784","target":"present","response":"present","rt":"4668.1000000089","correct":true,"confidence":2},{"trial_n":70,"span":12,"encoder":"209747292820","distractor":"209147292820","target":"absent","response":"present","rt":"4801.299999997","correct":false,"confidence":2},{"trial_n":71,"span":8,"encoder":"83740540","distractor":"83940540","target":"present","response":"present","rt":"4781","correct":true,"confidence":-1},{"trial_n":72,"span":8,"encoder":"00752247","distractor":"00952247","target":"present","response":"present","rt":"5647.700000003","correct":true,"confidence":-1},{"trial_n":73,"span":9,"encoder":"460697329","distractor":"460697399","target":"absent","response":"absent","rt":"6208.900000006","correct":true,"confidence":-1},{"trial_n":74,"span":9,"encoder":"988675339","distractor":"988675839","target":"absent","response":"absent","rt":"5249.700000003","correct":true,"confidence":-1},{"trial_n":75,"span":10,"encoder":"6334215255","distractor":"6354215255","target":"present","response":"present","rt":"5719.900000006","correct":true,"confidence":-1},{"trial_n":76,"span":10,"encoder":"8069825002","distractor":"8049825002","target":"present","response":"present","rt":"5000","correct":true,"confidence":-1},{"trial_n":77,"span":11,"encoder":"10349777604","distractor":"10349779604","target":"present","response":"absent","rt":"11312.799999997","correct":false,"confidence":-1},{"trial_n":78,"span":10,"encoder":"0114833963","distractor":"0104833963","target":"absent","response":"absent","rt":"6854.5","correct":true,"confidence":-1},{"trial_n":79,"span":10,"encoder":"5417226456","distractor":"5417226856","target":"present","response":"present","rt":"20227.799999997","correct":true,"confidence":-1},{"trial_n":80,"span":11,"encoder":"53673961261","distractor":"73673961261","target":"present","response":"present","rt":"4458.700000003","correct":true,"confidence":-1},{"trial_n":81,"span":11,"encoder":"60365205660","distractor":"60361205660","target":"absent","response":"absent","rt":"9123.6000000089","correct":true,"confidence":-1},{"trial_n":82,"span":12,"encoder":"030692755437","distractor":"030692755937","target":"present","response":"present","rt":"5155.099999994","correct":true,"confidence":-1},{"trial_n":83,"span":12,"encoder":"574775923860","distractor":"574771923860","target":"present","response":"present","rt":"13133.600000009","correct":true,"confidence":-1},{"trial_n":84,"span":13,"encoder":"3086969191996","distractor":"3386969191996","target":"absent","response":"absent","rt":"12306.5","correct":true,"confidence":-1},{"trial_n":85,"span":13,"encoder":"8114253869636","distractor":"8112253869636","target":"absent","response":"absent","rt":"6660.900000006","correct":true,"confidence":-1},{"trial_n":86,"span":14,"encoder":"52941457291627","distractor":"52941457291827","target":"absent","response":"absent","rt":"7976.099999994","correct":true,"confidence":-1},{"trial_n":87,"span":14,"encoder":"70089014328479","distractor":"70089014328472","target":"present","response":"present","rt":"6397.5","correct":true,"confidence":-1},{"trial_n":88,"span":15,"encoder":"597608837619941","distractor":"597608837619441","target":"present","response":"present","rt":"5612.8999999911","correct":true,"confidence":-1},{"trial_n":89,"span":15,"encoder":"523865004795978","distractor":"523865004795958","target":"absent","response":"present","rt":"46731.100000009","correct":false,"confidence":-1},{"trial_n":90,"span":14,"encoder":"55879856879725","distractor":"57879856879725","target":"absent","response":"present","rt":"13088.100000009","correct":false,"confidence":-1},{"trial_n":91,"span":13,"encoder":"3705676101407","distractor":"3705676191407","target":"absent","response":"absent","rt":"4759.6000000089","correct":true,"confidence":2},{"trial_n":92,"span":13,"encoder":"8287082618313","distractor":"8287082608313","target":"present","response":"present","rt":"10419.200000003","correct":true,"confidence":5},{"trial_n":93,"span":14,"encoder":"75037095432299","distractor":"75033095432299","target":"absent","response":"present","rt":"12294.400000006","correct":false,"confidence":2},{"trial_n":94,"span":13,"encoder":"1628758763781","distractor":"1128758763781","target":"absent","response":"present","rt":"7241.8999999911","correct":false,"confidence":4},{"trial_n":95,"span":12,"encoder":"822579237478","distractor":"822579237479","target":"absent","response":"absent","rt":"4964.299999997","correct":true,"confidence":2},{"trial_n":96,"span":12,"encoder":"181053320389","distractor":"181053328389","target":"absent","response":"absent","rt":"4493.3999999911","correct":true,"confidence":5},{"trial_n":97,"span":13,"encoder":"7662657480990","distractor":"7662657480995","target":"absent","response":"absent","rt":"6601.1999999881","correct":true,"confidence":5},{"trial_n":98,"span":13,"encoder":"3105444865177","distractor":"3105448865177","target":"present","response":"absent","rt":"11523.699999988","correct":false,"confidence":2},{"trial_n":99,"span":12,"encoder":"599546890830","distractor":"599546890430","target":"present","response":"present","rt":"3878.1999999881","correct":true,"confidence":5},{"trial_n":100,"span":12,"encoder":"630932326416","distractor":"630930326416","target":"present","response":"absent","rt":"10371.099999994","correct":false,"confidence":5},{"trial_n":101,"span":11,"encoder":"55363843759","distractor":"55363843752","target":"present","response":"present","rt":"4894.299999997","correct":true,"confidence":5},{"trial_n":102,"span":11,"encoder":"18463452680","distractor":"15463452680","target":"present","response":"present","rt":"9583.700000003","correct":true,"confidence":2},{"trial_n":103,"span":12,"encoder":"499689712104","distractor":"439689712104","target":"absent","response":"absent","rt":"8781.8999999911","correct":true,"confidence":2},{"trial_n":104,"span":12,"encoder":"902669243886","distractor":"902669243887","target":"present","response":"present","rt":"12246.899999991","correct":true,"confidence":2},{"trial_n":105,"span":13,"encoder":"8094159997523","distractor":"8094159997526","target":"present","response":"present","rt":"2665","correct":true,"confidence":5},{"trial_n":106,"span":13,"encoder":"2583820506429","distractor":"2583820506419","target":"present","response":"present","rt":"3590.200000003","correct":true,"confidence":5},{"trial_n":107,"span":14,"encoder":"13905686221481","distractor":"13905689221481","target":"present","response":"present","rt":"7814.700000003","correct":true,"confidence":3},{"trial_n":108,"span":14,"encoder":"52049950987921","distractor":"52049950986921","target":"present","response":"present","rt":"10077.799999997","correct":true,"confidence":2},{"trial_n":109,"span":15,"encoder":"803381057835677","distractor":"803381053835677","target":"present","response":"present","rt":"10948.5","correct":true,"confidence":2},{"trial_n":110,"span":15,"encoder":"523972163529272","distractor":"529972163529272","target":"absent","response":"absent","rt":"11591.699999988","correct":true,"confidence":3},{"trial_n":111,"span":16,"encoder":"2090514666227894","distractor":"2090514666227194","target":"present","response":"present","rt":"6915","correct":true,"confidence":5},{"trial_n":112,"span":16,"encoder":"1355864377353656","distractor":"1355864377153656","target":"absent","response":"absent","rt":"22418.199999988","correct":true,"confidence":2},{"trial_n":113,"span":17,"encoder":"64900340627377422","distractor":"64900340227377422","target":"present","response":"absent","rt":"9384.5","correct":false,"confidence":2},{"trial_n":114,"span":16,"encoder":"9477243375867465","distractor":"9477203375867465","target":"present","response":"absent","rt":"11061.699999988","correct":false,"confidence":1},{"trial_n":115,"span":15,"encoder":"339726749899004","distractor":"339746749899004","target":"absent","response":"absent","rt":"12005.900000006","correct":true,"confidence":2},{"trial_n":116,"span":15,"encoder":"924073172191293","distractor":"924073172191233","target":"absent","response":"absent","rt":"3289.5","correct":true,"confidence":5},{"trial_n":117,"span":16,"encoder":"8606867458725789","distractor":"8606867478725789","target":"present","response":"present","rt":"19100.900000006","correct":true,"confidence":1},{"trial_n":118,"span":16,"encoder":"8129454036214806","distractor":"8129454036214876","target":"absent","response":"absent","rt":"20045.600000009","correct":true,"confidence":2},{"trial_n":119,"span":17,"encoder":"17941532856159584","distractor":"17941532956159584","target":"absent","response":"absent","rt":"7601.1000000089","correct":true,"confidence":1},{"trial_n":120,"span":17,"encoder":"65055250459188154","distractor":"65055250479188154","target":"present","response":"present","rt":"9261.200000003","correct":true,"confidence":1},{"trial_n":121,"span":18,"encoder":"205982908369450763","distractor":"205982902369450763","target":"absent","response":"absent","rt":"8392","correct":true,"confidence":1},{"trial_n":122,"span":18,"encoder":"944765771021790456","distractor":"944765771020790456","target":"absent","response":"absent","rt":"16722.100000009","correct":true,"confidence":2},{"trial_n":123,"span":19,"encoder":"2453829671136482863","distractor":"2453829171136482863","target":"absent","response":"present","rt":"20742.700000003","correct":false,"confidence":1},{"trial_n":124,"span":18,"encoder":"247665603549454428","distractor":"247665603549454498","target":"present","response":"present","rt":"3451","correct":true,"confidence":5},{"trial_n":125,"span":18,"encoder":"120863200399620045","distractor":"120763200399620045","target":"present","response":"present","rt":"9749.6000000089","correct":true,"confidence":2},{"trial_n":126,"span":19,"encoder":"3531275182263515849","distractor":"3541275182263515849","target":"present","response":"absent","rt":"11913.5","correct":false,"confidence":2},{"trial_n":127,"span":18,"encoder":"229078582394815819","distractor":"229078582394805819","target":"present","response":"present","rt":"8153.6999999881","correct":true,"confidence":2},{"trial_n":128,"span":18,"encoder":"273040438705202747","distractor":"273040431705202747","target":"absent","response":"absent","rt":"7653.799999997","correct":true,"confidence":2},{"trial_n":129,"span":19,"encoder":"4623959377555217525","distractor":"4923959377555217525","target":"present","response":"present","rt":"27340.199999988","correct":true,"confidence":3},{"trial_n":130,"span":19,"encoder":"5495781568767910968","distractor":"5495781568787910968","target":"absent","response":"absent","rt":"20004.199999988","correct":true,"confidence":3},{"trial_n":131,"span":20,"encoder":"97730090088079215333","distractor":"97730090888079215333","target":"absent","response":"absent","rt":"11637.5","correct":true,"confidence":3},{"trial_n":132,"span":20,"encoder":"10083980419177096444","distractor":"10083980411177096444","target":"present","response":"present","rt":"6796.1000000089","correct":true,"confidence":2},{"trial_n":133,"span":21,"encoder":"147723231776665152447","distractor":"144723231776665152447","target":"absent","response":"present","rt":"3394.5","correct":false,"confidence":2},{"trial_n":134,"span":20,"encoder":"92587459635392282708","distractor":"98587459635392282708","target":"absent","response":"absent","rt":"4721.1999999881","correct":true,"confidence":3},{"trial_n":135,"span":20,"encoder":"06074644386757229375","distractor":"06074644386757229373","target":"absent","response":"present","rt":"10927.799999997","correct":false,"confidence":3},{"trial_n":136,"span":19,"encoder":"6189478130225854893","distractor":"6189472130225854893","target":"present","response":"absent","rt":"2554.8999999911","correct":false,"confidence":2},{"trial_n":137,"span":18,"encoder":"316062219829147467","distractor":"316062219829647467","target":"absent","response":"present","rt":"1611","correct":false,"confidence":3},{"trial_n":138,"span":17,"encoder":"51963864331952377","distractor":"51963854331952377","target":"absent","response":"absent","rt":"10335.799999997","correct":true,"confidence":3},{"trial_n":139,"span":17,"encoder":"66701159753755802","distractor":"66701259753755802","target":"present","response":"present","rt":"6523.3999999911","correct":true,"confidence":2},{"trial_n":140,"span":18,"encoder":"725092649175869788","distractor":"725092649175969788","target":"absent","response":"absent","rt":"7439.6999999881","correct":true,"confidence":2}]