[{"trial_n":1,"n_dots":4.25,"target":"left","response":"right","rt":2145.700000003,"correct":false,"confidence":-1},{"trial_n":2,"n_dots":4.25,"target":"left","response":"left","rt":1278.3000000119,"correct":true,"confidence":-1},{"trial_n":3,"n_dots":4.25,"target":"right","response":"right","rt":1149.200000003,"correct":true,"confidence":-1},{"trial_n":4,"n_dots":3.85,"target":"right","response":"right","rt":1209.599999994,"correct":true,"confidence":-1},{"trial_n":5,"n_dots":3.85,"target":"left","response":"left","rt":1024.700000003,"correct":true,"confidence":-1},{"trial_n":6,"n_dots":3.45,"target":"left","response":"left","rt":595.90000000596,"correct":true,"confidence":-1},{"trial_n":7,"n_dots":3.45,"target":"left","response":"left","rt":701.09999999404,"correct":true,"confidence":-1},{"trial_n":8,"n_dots":3.25,"target":"right","response":"right","rt":2232.3999999911,"correct":true,"confidence":-1},{"trial_n":9,"n_dots":3.25,"target":"right","response":"right","rt":900,"correct":true,"confidence":-1},{"trial_n":10,"n_dots":3.05,"target":"right","response":"right","rt":749,"correct":true,"confidence":-1},{"trial_n":11,"n_dots":3.05,"target":"right","response":"left","rt":1160.8999999911,"correct":false,"confidence":-1},{"trial_n":12,"n_dots":3.25,"target":"right","response":"right","rt":959.59999999404,"correct":true,"confidence":-1},{"trial_n":13,"n_dots":3.25,"target":"right","response":"right","rt":936.10000000894,"correct":true,"confidence":-1},{"trial_n":14,"n_dots":3.15,"target":"right","response":"left","rt":1402.400000006,"correct":false,"confidence":-1},{"trial_n":15,"n_dots":3.25,"target":"right","response":"left","rt":602.20000000298,"correct":false,"confidence":-1},{"trial_n":16,"n_dots":3.35,"target":"left","response":"left","rt":865.59999999404,"correct":true,"confidence":-1},{"trial_n":17,"n_dots":3.35,"target":"left","response":"right","rt":1181.3999999911,"correct":false,"confidence":-1},{"trial_n":18,"n_dots":3.45,"target":"right","response":"left","rt":780.29999999702,"correct":false,"confidence":-1},{"trial_n":19,"n_dots":3.55,"target":"right","response":"right","rt":1662.599999994,"correct":true,"confidence":-1},{"trial_n":20,"n_dots":3.55,"target":"right","response":"right","rt":803.70000000298,"correct":true,"confidence":-1},{"trial_n":21,"n_dots":3.45,"target":"right","response":"left","rt":1745.5,"correct":false,"confidence":3},{"trial_n":22,"n_dots":3.55,"target":"right","response":"right","rt":821.20000000298,"correct":true,"confidence":5},{"trial_n":23,"n_dots":3.55,"target":"right","response":"left","rt":2515,"correct":false,"confidence":3},{"trial_n":24,"n_dots":3.65,"target":"right","response":"right","rt":2280.3000000119,"correct":true,"confidence":3},{"trial_n":25,"n_dots":3.65,"target":"left","response":"right","rt":1939,"correct":false,"confidence":3},{"trial_n":26,"n_dots":3.75,"target":"left","response":"left","rt":745.79999999702,"correct":true,"confidence":5},{"trial_n":27,"n_dots":3.75,"target":"left","response":"left","rt":768.89999999106,"correct":true,"confidence":5},{"trial_n":28,"n_dots":3.65,"target":"left","response":"left","rt":672.59999999404,"correct":true,"confidence":4},{"trial_n":29,"n_dots":3.65,"target":"left","response":"left","rt":628.20000000298,"correct":true,"confidence":4},{"trial_n":30,"n_dots":3.55,"target":"right","response":"right","rt":881.79999999702,"correct":true,"confidence":4},{"trial_n":31,"n_dots":3.55,"target":"left","response":"left","rt":462.5,"correct":true,"confidence":4},{"trial_n":32,"n_dots":3.45,"target":"right","response":"left","rt":559.89999999106,"correct":false,"confidence":4},{"trial_n":33,"n_dots":3.55,"target":"right","response":"right","rt":978.10000000894,"correct":true,"confidence":4},{"trial_n":34,"n_dots":3.55,"target":"right","response":"right","rt":1586,"correct":true,"confidence":4},{"trial_n":35,"n_dots":3.45,"target":"right","response":"right","rt":881.59999999404,"correct":true,"confidence":3},{"trial_n":36,"n_dots":3.45,"target":"right","response":"right","rt":729.09999999404,"correct":true,"confidence":3},{"trial_n":37,"n_dots":3.35,"target":"left","response":"left","rt":871.59999999404,"correct":true,"confidence":3},{"trial_n":38,"n_dots":3.35,"target":"left","response":"left","rt":382.20000000298,"correct":true,"confidence":3},{"trial_n":39,"n_dots":3.25,"target":"left","response":"right","rt":1528.799999997,"correct":false,"confidence":3},{"trial_n":40,"n_dots":3.35,"target":"right","response":"left","rt":1565.799999997,"correct":false,"confidence":2},{"trial_n":41,"n_dots":3.45,"target":"right","response":"right","rt":513.59999999404,"correct":true,"confidence":3},{"trial_n":42,"n_dots":3.45,"target":"left","response":"left","rt":324.59999999404,"correct":true,"confidence":4},{"trial_n":43,"n_dots":3.35,"target":"right","response":"right","rt":246,"correct":true,"confidence":4},{"trial_n":44,"n_dots":3.35,"target":"right","response":"left","rt":660.39999999106,"correct":false,"confidence":3},{"trial_n":45,"n_dots":3.45,"target":"left","response":"left","rt":963.40000000596,"correct":true,"confidence":3},{"trial_n":46,"n_dots":3.45,"target":"left","response":"left","rt":810.09999999404,"correct":true,"confidence":4},{"trial_n":47,"n_dots":3.35,"target":"left","response":"left","rt":872.79999999702,"correct":true,"confidence":4},{"trial_n":48,"n_dots":3.35,"target":"right","response":"left","rt":1863.700000003,"correct":false,"confidence":3},{"trial_n":49,"n_dots":3.45,"target":"left","response":"right","rt":883.5,"correct":false,"confidence":4},{"trial_n":50,"n_dots":3.55,"target":"left","response":"left","rt":863.70000000298,"correct":true,"confidence":3},{"trial_n":51,"n_dots":3.55,"target":"right","response":"right","rt":607.5,"correct":true,"confidence":4},{"trial_n":52,"n_dots":3.45,"target":"right","response":"right","rt":721.79999999702,"correct":true,"confidence":4},{"trial_n":53,"n_dots":3.45,"target":"left","response":"right","rt":1005,"correct":false,"confidence":3},{"trial_n":54,"n_dots":3.55,"target":"right","response":"right","rt":634.5,"correct":true,"confidence":5},{"trial_n":55,"n_dots":3.55,"target":"left","response":"left","rt":1046.700000003,"correct":true,"confidence":3},{"trial_n":56,"n_dots":3.45,"target":"right","response":"left","rt":1055.700000003,"correct":false,"confidence":2},{"trial_n":57,"n_dots":3.55,"target":"left","response":"left","rt":562.90000000596,"correct":true,"confidence":2},{"trial_n":58,"n_dots":3.55,"target":"left","response":"left","rt":1219.5,"correct":true,"confidence":3},{"trial_n":59,"n_dots":3.45,"target":"left","response":"left","rt":909.79999999702,"correct":true,"confidence":4},{"trial_n":60,"n_dots":3.45,"target":"left","response":"left","rt":1376.200000003,"correct":true,"confidence":1},{"trial_n":61,"n_dots":3.35,"target":"left","response":"left","rt":817.70000000298,"correct":true,"confidence":4},{"trial_n":62,"n_dots":3.35,"target":"left","response":"left","rt":1342.599999994,"correct":true,"confidence":3},{"trial_n":63,"n_dots":3.25,"target":"right","response":"right","rt":1039.200000003,"correct":true,"confidence":3},{"trial_n":64,"n_dots":3.25,"target":"right","response":"right","rt":743.5,"correct":true,"confidence":4},{"trial_n":65,"n_dots":3.15,"target":"left","response":"left","rt":796.80000001192,"correct":true,"confidence":4},{"trial_n":66,"n_dots":3.15,"target":"left","response":"left","rt":1651.299999997,"correct":true,"confidence":1},{"trial_n":67,"n_dots":3.05,"target":"left","response":"left","rt":1279.799999997,"correct":true,"confidence":1},{"trial_n":68,"n_dots":3.05,"target":"right","response":"right","rt":795.90000000596,"correct":true,"confidence":3},{"trial_n":69,"n_dots":2.95,"target":"right","response":"left","rt":1805.1000000089,"correct":false,"confidence":2},{"trial_n":70,"n_dots":3.05,"target":"left","response":"right","rt":1149,"correct":false,"confidence":3},{"trial_n":71,"n_dots":3.15,"target":"left","response":"left","rt":794,"correct":true,"confidence":3},{"trial_n":72,"n_dots":3.15,"target":"left","response":"left","rt":1654.799999997,"correct":true,"confidence":1},{"trial_n":73,"n_dots":3.05,"target":"right","response":"right","rt":840.20000000298,"correct":true,"confidence":2},{"trial_n":74,"n_dots":3.05,"target":"left","response":"left","rt":1516.700000003,"correct":true,"confidence":2},{"trial_n":75,"n_dots":2.95,"target":"left","response":"left","rt":872.70000000298,"correct":true,"confidence":2},{"trial_n":76,"n_dots":2.95,"target":"right","response":"left","rt":1085.299999997,"correct":false,"confidence":3},{"trial_n":77,"n_dots":3.05,"target":"right","response":"right","rt":752.59999999404,"correct":true,"confidence":3},{"trial_n":78,"n_dots":3.05,"target":"right","response":"left","rt":1137.8999999911,"correct":false,"confidence":1},{"trial_n":79,"n_dots":3.15,"target":"left","response":"left","rt":694.20000000298,"correct":true,"confidence":3},{"trial_n":80,"n_dots":3.15,"target":"right","response":"left","rt":1032.400000006,"correct":false,"confidence":3},{"trial_n":81,"n_dots":3.25,"target":"left","response":"left","rt":537.59999999404,"correct":true,"confidence":4},{"trial_n":82,"n_dots":3.25,"target":"right","response":"right","rt":689.39999999106,"correct":true,"confidence":4},{"trial_n":83,"n_dots":3.15,"target":"left","response":"left","rt":844.39999999106,"correct":true,"confidence":2},{"trial_n":84,"n_dots":3.15,"target":"right","response":"left","rt":1213.400000006,"correct":false,"confidence":2},{"trial_n":85,"n_dots":3.25,"target":"left","response":"left","rt":672.79999999702,"correct":true,"confidence":3},{"trial_n":86,"n_dots":3.25,"target":"left","response":"left","rt":658.79999999702,"correct":true,"confidence":4},{"trial_n":87,"n_dots":3.15,"target":"right","response":"right","rt":823.20000000298,"correct":true,"confidence":2},{"trial_n":88,"n_dots":3.15,"target":"left","response":"left","rt":658.29999999702,"correct":true,"confidence":3},{"trial_n":89,"n_dots":3.05,"target":"left","response":"left","rt":874,"correct":true,"confidence":4},{"trial_n":90,"n_dots":3.05,"target":"left","response":"left","rt":872.39999999106,"correct":true,"confidence":4},{"trial_n":91,"n_dots":2.95,"target":"right","response":"right","rt":1509.3999999911,"correct":true,"confidence":2},{"trial_n":92,"n_dots":2.95,"target":"right","response":"left","rt":678.09999999404,"correct":false,"confidence":3},{"trial_n":93,"n_dots":3.05,"target":"right","response":"left","rt":800.09999999404,"correct":false,"confidence":1},{"trial_n":94,"n_dots":3.15,"target":"left","response":"left","rt":872.20000000298,"correct":true,"confidence":3},{"trial_n":95,"n_dots":3.15,"target":"right","response":"right","rt":753.09999999404,"correct":true,"confidence":3},{"trial_n":96,"n_dots":3.05,"target":"left","response":"left","rt":1269.400000006,"correct":true,"confidence":2},{"trial_n":97,"n_dots":3.05,"target":"right","response":"left","rt":943.90000000596,"correct":false,"confidence":3},{"trial_n":98,"n_dots":3.15,"target":"left","response":"left","rt":539.70000000298,"correct":true,"confidence":3},{"trial_n":99,"n_dots":3.15,"target":"left","response":"left","rt":1193,"correct":true,"confidence":2},{"trial_n":100,"n_dots":3.05,"target":"left","response":"left","rt":726.80000001192,"correct":true,"confidence":3},{"trial_n":101,"n_dots":3.05,"target":"left","response":"left","rt":857.40000000596,"correct":true,"confidence":3},{"trial_n":102,"n_dots":2.95,"target":"left","response":"left","rt":563.70000000298,"correct":true,"confidence":3},{"trial_n":103,"n_dots":2.95,"target":"right","response":"right","rt":935.09999999404,"correct":true,"confidence":2},{"trial_n":104,"n_dots":2.85,"target":"right","response":"right","rt":913.90000000596,"correct":true,"confidence":3},{"trial_n":105,"n_dots":2.85,"target":"right","response":"right","rt":2809.400000006,"correct":true,"confidence":1},{"trial_n":106,"n_dots":2.75,"target":"left","response":"left","rt":899.60000000894,"correct":true,"confidence":3},{"trial_n":107,"n_dots":2.75,"target":"left","response":"right","rt":806.5,"correct":false,"confidence":3},{"trial_n":108,"n_dots":2.85,"target":"right","response":"right","rt":1378.5,"correct":true,"confidence":2},{"trial_n":109,"n_dots":2.85,"target":"right","response":"left","rt":587.79999999702,"correct":false,"confidence":2},{"trial_n":110,"n_dots":2.95,"target":"right","response":"left","rt":918.10000000894,"correct":false,"confidence":1},{"trial_n":111,"n_dots":3.05,"target":"right","response":"right","rt":769.5,"correct":true,"confidence":3},{"trial_n":112,"n_dots":3.05,"target":"left","response":"right","rt":1431.200000003,"correct":false,"confidence":2},{"trial_n":113,"n_dots":3.15,"target":"right","response":"right","rt":691.59999999404,"correct":true,"confidence":2},{"trial_n":114,"n_dots":3.15,"target":"right","response":"right","rt":899,"correct":true,"confidence":3},{"trial_n":115,"n_dots":3.05,"target":"left","response":"right","rt":1002.3000000119,"correct":false,"confidence":1},{"trial_n":116,"n_dots":3.15,"target":"right","response":"left","rt":603.30000001192,"correct":false,"confidence":1},{"trial_n":117,"n_dots":3.25,"target":"right","response":"right","rt":865.40000000596,"correct":true,"confidence":2},{"trial_n":118,"n_dots":3.25,"target":"left","response":"left","rt":531.59999999404,"correct":true,"confidence":3},{"trial_n":119,"n_dots":3.15,"target":"left","response":"left","rt":840.29999999702,"correct":true,"confidence":3},{"trial_n":120,"n_dots":3.15,"target":"left","response":"right","rt":907.39999999106,"correct":false,"confidence":3}]