[{"trial_n":1,"min":25,"max":230,"target":"present","response":"absent","rt":7824,"correct":false,"confidence":-1},{"trial_n":2,"min":25,"max":230,"target":"present","response":"present","rt":1900,"correct":true,"confidence":-1},{"trial_n":3,"min":25,"max":230,"target":"absent","response":"absent","rt":1355,"correct":true,"confidence":-1},{"trial_n":4,"min":41,"max":214,"target":"absent","response":"absent","rt":784,"correct":true,"confidence":-1},{"trial_n":5,"min":41,"max":214,"target":"present","response":"present","rt":905.99999999999,"correct":true,"confidence":-1},{"trial_n":6,"min":57,"max":198,"target":"present","response":"present","rt":830,"correct":true,"confidence":-1},{"trial_n":7,"min":57,"max":198,"target":"present","response":"present","rt":483.00000000001,"correct":true,"confidence":-1},{"trial_n":8,"min":73,"max":182,"target":"absent","response":"absent","rt":777.99999999999,"correct":true,"confidence":-1},{"trial_n":9,"min":73,"max":182,"target":"present","response":"absent","rt":1278,"correct":false,"confidence":-1},{"trial_n":10,"min":57,"max":198,"target":"present","response":"present","rt":740,"correct":true,"confidence":-1},{"trial_n":11,"min":57,"max":198,"target":"absent","response":"absent","rt":695,"correct":true,"confidence":-1},{"trial_n":12,"min":65,"max":190,"target":"present","response":"present","rt":790,"correct":true,"confidence":-1},{"trial_n":13,"min":65,"max":190,"target":"present","response":"present","rt":1234,"correct":true,"confidence":-1},{"trial_n":14,"min":73,"max":182,"target":"absent","response":"absent","rt":543,"correct":true,"confidence":-1},{"trial_n":15,"min":73,"max":182,"target":"absent","response":"absent","rt":1112,"correct":true,"confidence":-1},{"trial_n":16,"min":81,"max":174,"target":"present","response":"absent","rt":669.00000000001,"correct":false,"confidence":-1},{"trial_n":17,"min":73,"max":182,"target":"present","response":"present","rt":1142,"correct":true,"confidence":-1},{"trial_n":18,"min":73,"max":182,"target":"absent","response":"absent","rt":845,"correct":true,"confidence":-1},{"trial_n":19,"min":81,"max":174,"target":"absent","response":"absent","rt":720,"correct":true,"confidence":-1},{"trial_n":20,"min":81,"max":174,"target":"present","response":"present","rt":700,"correct":true,"confidence":-1},{"trial_n":21,"min":85,"max":170,"target":"absent","response":"absent","rt":1190,"correct":true,"confidence":4},{"trial_n":22,"min":85,"max":170,"target":"absent","response":"absent","rt":980,"correct":true,"confidence":3},{"trial_n":23,"min":89,"max":166,"target":"present","response":"absent","rt":1351,"correct":false,"confidence":2},{"trial_n":24,"min":85,"max":170,"target":"present","response":"absent","rt":2731,"correct":false,"confidence":3},{"trial_n":25,"min":81,"max":174,"target":"absent","response":"absent","rt":4539,"correct":true,"confidence":3},{"trial_n":26,"min":81,"max":174,"target":"present","response":"absent","rt":1514,"correct":false,"confidence":4},{"trial_n":27,"min":77,"max":178,"target":"absent","response":"absent","rt":1223,"correct":true,"confidence":4},{"trial_n":28,"min":77,"max":178,"target":"absent","response":"absent","rt":1221,"correct":true,"confidence":4},{"trial_n":29,"min":81,"max":174,"target":"absent","response":"absent","rt":1022,"correct":true,"confidence":3},{"trial_n":30,"min":81,"max":174,"target":"present","response":"present","rt":1233,"correct":true,"confidence":5},{"trial_n":31,"min":83,"max":172,"target":"absent","response":"absent","rt":1103,"correct":true,"confidence":3},{"trial_n":32,"min":83,"max":172,"target":"absent","response":"absent","rt":1290,"correct":true,"confidence":3},{"trial_n":33,"min":85,"max":170,"target":"present","response":"present","rt":964,"correct":true,"confidence":5},{"trial_n":34,"min":85,"max":170,"target":"absent","response":"absent","rt":1221,"correct":true,"confidence":4},{"trial_n":35,"min":87,"max":168,"target":"absent","response":"absent","rt":939.99999999997,"correct":true,"confidence":4},{"trial_n":36,"min":87,"max":168,"target":"present","response":"absent","rt":982,"correct":false,"confidence":4},{"trial_n":37,"min":85,"max":170,"target":"present","response":"present","rt":1350,"correct":true,"confidence":4},{"trial_n":38,"min":85,"max":170,"target":"absent","response":"absent","rt":924.99999999997,"correct":true,"confidence":3},{"trial_n":39,"min":87,"max":168,"target":"present","response":"present","rt":1269,"correct":true,"confidence":4},{"trial_n":40,"min":87,"max":168,"target":"present","response":"absent","rt":934,"correct":false,"confidence":2},{"trial_n":41,"min":86,"max":169,"target":"absent","response":"absent","rt":957.00000000003,"correct":true,"confidence":4},{"trial_n":42,"min":86,"max":169,"target":"absent","response":"absent","rt":1810,"correct":true,"confidence":3},{"trial_n":43,"min":87,"max":168,"target":"present","response":"present","rt":1018,"correct":true,"confidence":5},{"trial_n":44,"min":87,"max":168,"target":"present","response":"present","rt":984,"correct":true,"confidence":5},{"trial_n":45,"min":88,"max":167,"target":"present","response":"present","rt":1003,"correct":true,"confidence":5},{"trial_n":46,"min":88,"max":167,"target":"absent","response":"absent","rt":1558,"correct":true,"confidence":2},{"trial_n":47,"min":89,"max":166,"target":"present","response":"absent","rt":3102,"correct":false,"confidence":1},{"trial_n":48,"min":88,"max":167,"target":"absent","response":"absent","rt":1040,"correct":true,"confidence":2},{"trial_n":49,"min":88,"max":167,"target":"present","response":"present","rt":986,"correct":true,"confidence":4},{"trial_n":50,"min":89,"max":166,"target":"present","response":"present","rt":951,"correct":true,"confidence":4},{"trial_n":51,"min":89,"max":166,"target":"absent","response":"present","rt":995.99999999997,"correct":false,"confidence":3},{"trial_n":52,"min":88,"max":167,"target":"present","response":"present","rt":1484,"correct":true,"confidence":4},{"trial_n":53,"min":88,"max":167,"target":"absent","response":"present","rt":860.99999999997,"correct":false,"confidence":2},{"trial_n":54,"min":87,"max":168,"target":"absent","response":"present","rt":941.99999999997,"correct":false,"confidence":2},{"trial_n":55,"min":86,"max":169,"target":"present","response":"present","rt":1004,"correct":true,"confidence":3},{"trial_n":56,"min":86,"max":169,"target":"present","response":"present","rt":764,"correct":true,"confidence":4},{"trial_n":57,"min":87,"max":168,"target":"present","response":"absent","rt":916,"correct":false,"confidence":3},{"trial_n":58,"min":86,"max":169,"target":"present","response":"present","rt":870,"correct":true,"confidence":3},{"trial_n":59,"min":86,"max":169,"target":"present","response":"absent","rt":1184,"correct":false,"confidence":4},{"trial_n":60,"min":85,"max":170,"target":"absent","response":"absent","rt":1144,"correct":true,"confidence":4},{"trial_n":61,"min":85,"max":170,"target":"present","response":"present","rt":1435,"correct":true,"confidence":4},{"trial_n":62,"min":86,"max":169,"target":"present","response":"present","rt":1119,"correct":true,"confidence":5},{"trial_n":63,"min":86,"max":169,"target":"absent","response":"absent","rt":1711,"correct":true,"confidence":4},{"trial_n":64,"min":87,"max":168,"target":"absent","response":"absent","rt":1894,"correct":true,"confidence":3},{"trial_n":65,"min":87,"max":168,"target":"absent","response":"absent","rt":1344,"correct":true,"confidence":4},{"trial_n":66,"min":88,"max":167,"target":"absent","response":"absent","rt":8147,"correct":true,"confidence":1},{"trial_n":67,"min":88,"max":167,"target":"absent","response":"absent","rt":1313,"correct":true,"confidence":4},{"trial_n":68,"min":89,"max":166,"target":"present","response":"present","rt":954.99999999994,"correct":true,"confidence":4},{"trial_n":69,"min":89,"max":166,"target":"absent","response":"absent","rt":1246,"correct":true,"confidence":3},{"trial_n":70,"min":90,"max":165,"target":"absent","response":"absent","rt":913.00000000006,"correct":true,"confidence":3},{"trial_n":71,"min":41,"max":214,"target":"present","response":"present","rt":2060,"correct":true,"confidence":-1},{"trial_n":72,"min":41,"max":214,"target":"present","response":"present","rt":768,"correct":true,"confidence":-1},{"trial_n":73,"min":57,"max":198,"target":"absent","response":"absent","rt":901,"correct":true,"confidence":-1},{"trial_n":74,"min":57,"max":198,"target":"absent","response":"absent","rt":1068,"correct":true,"confidence":-1},{"trial_n":75,"min":73,"max":182,"target":"present","response":"present","rt":1068.9999999999,"correct":true,"confidence":-1},{"trial_n":76,"min":73,"max":182,"target":"present","response":"present","rt":875,"correct":true,"confidence":-1},{"trial_n":77,"min":89,"max":166,"target":"absent","response":"absent","rt":1252,"correct":true,"confidence":-1},{"trial_n":78,"min":89,"max":166,"target":"present","response":"present","rt":1417,"correct":true,"confidence":-1},{"trial_n":79,"min":105,"max":150,"target":"absent","response":"present","rt":1752,"correct":false,"confidence":-1},{"trial_n":80,"min":89,"max":166,"target":"absent","response":"absent","rt":1202.9999999999,"correct":true,"confidence":-1},{"trial_n":81,"min":89,"max":166,"target":"present","response":"absent","rt":750.99999999994,"correct":false,"confidence":-1},{"trial_n":82,"min":81,"max":174,"target":"present","response":"present","rt":936,"correct":true,"confidence":-1},{"trial_n":83,"min":81,"max":174,"target":"absent","response":"present","rt":771,"correct":false,"confidence":-1},{"trial_n":84,"min":73,"max":182,"target":"absent","response":"absent","rt":1120,"correct":true,"confidence":-1},{"trial_n":85,"min":73,"max":182,"target":"present","response":"present","rt":804.00000000006,"correct":true,"confidence":-1},{"trial_n":86,"min":81,"max":174,"target":"absent","response":"present","rt":868,"correct":false,"confidence":-1},{"trial_n":87,"min":73,"max":182,"target":"present","response":"present","rt":872,"correct":true,"confidence":-1},{"trial_n":88,"min":73,"max":182,"target":"absent","response":"present","rt":769,"correct":false,"confidence":-1},{"trial_n":89,"min":65,"max":190,"target":"present","response":"present","rt":954.99999999994,"correct":true,"confidence":-1},{"trial_n":90,"min":65,"max":190,"target":"present","response":"present","rt":587,"correct":true,"confidence":-1},{"trial_n":91,"min":69,"max":186,"target":"absent","response":"absent","rt":1188,"correct":true,"confidence":5},{"trial_n":92,"min":69,"max":186,"target":"present","response":"absent","rt":1723.9999999999,"correct":false,"confidence":3},{"trial_n":93,"min":65,"max":190,"target":"absent","response":"absent","rt":1006.0000000001,"correct":true,"confidence":5},{"trial_n":94,"min":65,"max":190,"target":"absent","response":"absent","rt":822,"correct":true,"confidence":5},{"trial_n":95,"min":69,"max":186,"target":"present","response":"present","rt":903,"correct":true,"confidence":5},{"trial_n":96,"min":69,"max":186,"target":"present","response":"present","rt":922,"correct":true,"confidence":5},{"trial_n":97,"min":73,"max":182,"target":"absent","response":"absent","rt":1005,"correct":true,"confidence":5},{"trial_n":98,"min":73,"max":182,"target":"present","response":"present","rt":907,"correct":true,"confidence":5},{"trial_n":99,"min":77,"max":178,"target":"present","response":"present","rt":690,"correct":true,"confidence":5},{"trial_n":100,"min":77,"max":178,"target":"present","response":"present","rt":704,"correct":true,"confidence":5},{"trial_n":101,"min":79,"max":176,"target":"absent","response":"absent","rt":1273,"correct":true,"confidence":5},{"trial_n":102,"min":79,"max":176,"target":"present","response":"present","rt":1174,"correct":true,"confidence":5},{"trial_n":103,"min":81,"max":174,"target":"absent","response":"present","rt":1557,"correct":false,"confidence":2},{"trial_n":104,"min":79,"max":176,"target":"present","response":"present","rt":824,"correct":true,"confidence":3},{"trial_n":105,"min":79,"max":176,"target":"absent","response":"absent","rt":908.99999999994,"correct":true,"confidence":4},{"trial_n":106,"min":81,"max":174,"target":"present","response":"absent","rt":5772.9999999999,"correct":false,"confidence":1},{"trial_n":107,"min":79,"max":176,"target":"absent","response":"absent","rt":941.00000000006,"correct":true,"confidence":4},{"trial_n":108,"min":79,"max":176,"target":"present","response":"present","rt":809,"correct":true,"confidence":5},{"trial_n":109,"min":81,"max":174,"target":"present","response":"present","rt":807,"correct":true,"confidence":4},{"trial_n":110,"min":81,"max":174,"target":"absent","response":"present","rt":1159,"correct":false,"confidence":4},{"trial_n":111,"min":80,"max":175,"target":"absent","response":"absent","rt":1492,"correct":true,"confidence":3},{"trial_n":112,"min":80,"max":175,"target":"absent","response":"absent","rt":1442,"correct":true,"confidence":3},{"trial_n":113,"min":81,"max":174,"target":"absent","response":"absent","rt":942,"correct":true,"confidence":2},{"trial_n":114,"min":81,"max":174,"target":"present","response":"absent","rt":1043.9999999999,"correct":false,"confidence":3},{"trial_n":115,"min":80,"max":175,"target":"absent","response":"absent","rt":857.99999999994,"correct":true,"confidence":5},{"trial_n":116,"min":80,"max":175,"target":"present","response":"present","rt":1409,"correct":true,"confidence":4},{"trial_n":117,"min":81,"max":174,"target":"present","response":"present","rt":791,"correct":true,"confidence":5},{"trial_n":118,"min":81,"max":174,"target":"absent","response":"absent","rt":1260.0000000001,"correct":true,"confidence":5},{"trial_n":119,"min":82,"max":173,"target":"present","response":"absent","rt":1677,"correct":false,"confidence":1},{"trial_n":120,"min":81,"max":174,"target":"present","response":"present","rt":907.00000000006,"correct":true,"confidence":5},{"trial_n":121,"min":81,"max":174,"target":"present","response":"present","rt":1094,"correct":true,"confidence":5},{"trial_n":122,"min":82,"max":173,"target":"absent","response":"present","rt":1260,"correct":false,"confidence":1},{"trial_n":123,"min":81,"max":174,"target":"present","response":"present","rt":1429,"correct":true,"confidence":5},{"trial_n":124,"min":81,"max":174,"target":"present","response":"present","rt":991,"correct":true,"confidence":5},{"trial_n":125,"min":82,"max":173,"target":"absent","response":"absent","rt":1792,"correct":true,"confidence":3},{"trial_n":126,"min":82,"max":173,"target":"absent","response":"absent","rt":961.00000000006,"correct":true,"confidence":5},{"trial_n":127,"min":83,"max":172,"target":"absent","response":"absent","rt":826,"correct":true,"confidence":5},{"trial_n":128,"min":83,"max":172,"target":"present","response":"present","rt":928,"correct":true,"confidence":5},{"trial_n":129,"min":84,"max":171,"target":"absent","response":"absent","rt":2145.0000000001,"correct":true,"confidence":4},{"trial_n":130,"min":84,"max":171,"target":"present","response":"present","rt":860.99999999994,"correct":true,"confidence":5},{"trial_n":131,"min":85,"max":170,"target":"absent","response":"absent","rt":1196,"correct":true,"confidence":1},{"trial_n":132,"min":85,"max":170,"target":"absent","response":"absent","rt":2029,"correct":true,"confidence":3},{"trial_n":133,"min":86,"max":169,"target":"absent","response":"absent","rt":1213,"correct":true,"confidence":5},{"trial_n":134,"min":86,"max":169,"target":"present","response":"present","rt":1145,"correct":true,"confidence":4},{"trial_n":135,"min":87,"max":168,"target":"present","response":"present","rt":945,"correct":true,"confidence":4},{"trial_n":136,"min":87,"max":168,"target":"absent","response":"absent","rt":1579,"correct":true,"confidence":3},{"trial_n":137,"min":88,"max":167,"target":"absent","response":"present","rt":2144,"correct":false,"confidence":2},{"trial_n":138,"min":87,"max":168,"target":"present","response":"present","rt":1660,"correct":true,"confidence":3},{"trial_n":139,"min":87,"max":168,"target":"absent","response":"absent","rt":1064,"correct":true,"confidence":2},{"trial_n":140,"min":88,"max":167,"target":"present","response":"present","rt":1047,"correct":true,"confidence":1}]