[{"trial_n":1,"n_dots":4.25,"target":"right","response":"right","rt":4556,"correct":true,"confidence":-1},{"trial_n":2,"n_dots":4.25,"target":"left","response":"left","rt":1119,"correct":true,"confidence":-1},{"trial_n":3,"n_dots":3.85,"target":"right","response":"right","rt":905,"correct":true,"confidence":-1},{"trial_n":4,"n_dots":3.85,"target":"right","response":"right","rt":556,"correct":true,"confidence":-1},{"trial_n":5,"n_dots":3.45,"target":"right","response":"right","rt":289,"correct":true,"confidence":-1},{"trial_n":6,"n_dots":3.45,"target":"left","response":"left","rt":622,"correct":true,"confidence":-1},{"trial_n":7,"n_dots":3.05,"target":"right","response":"right","rt":857,"correct":true,"confidence":-1},{"trial_n":8,"n_dots":3.05,"target":"right","response":"left","rt":955,"correct":false,"confidence":-1},{"trial_n":9,"n_dots":3.25,"target":"left","response":"left","rt":454,"correct":true,"confidence":-1},{"trial_n":10,"n_dots":3.25,"target":"right","response":"right","rt":541,"correct":true,"confidence":-1},{"trial_n":11,"n_dots":3.05,"target":"left","response":"left","rt":604.99999999999,"correct":true,"confidence":-1},{"trial_n":12,"n_dots":3.05,"target":"left","response":"left","rt":173,"correct":true,"confidence":-1},{"trial_n":13,"n_dots":2.95,"target":"right","response":"left","rt":108,"correct":false,"confidence":-1},{"trial_n":14,"n_dots":3.05,"target":"right","response":"right","rt":1259,"correct":true,"confidence":-1},{"trial_n":15,"n_dots":3.05,"target":"right","response":"right","rt":993,"correct":true,"confidence":-1},{"trial_n":16,"n_dots":2.95,"target":"right","response":"right","rt":1672,"correct":true,"confidence":-1},{"trial_n":17,"n_dots":2.95,"target":"right","response":"right","rt":488.99999999999,"correct":true,"confidence":-1},{"trial_n":18,"n_dots":2.85,"target":"left","response":"left","rt":803.00000000001,"correct":true,"confidence":-1},{"trial_n":19,"n_dots":2.85,"target":"right","response":"right","rt":389,"correct":true,"confidence":-1},{"trial_n":20,"n_dots":2.75,"target":"left","response":"left","rt":889.99999999999,"correct":true,"confidence":-1},{"trial_n":21,"n_dots":2.75,"target":"left","response":"left","rt":956,"correct":true,"confidence":3},{"trial_n":22,"n_dots":2.65,"target":"left","response":"right","rt":908,"correct":false,"confidence":2},{"trial_n":23,"n_dots":2.75,"target":"right","response":"left","rt":1007,"correct":false,"confidence":2},{"trial_n":24,"n_dots":2.85,"target":"left","response":"left","rt":623,"correct":true,"confidence":4},{"trial_n":25,"n_dots":2.85,"target":"left","response":"left","rt":693,"correct":true,"confidence":3},{"trial_n":26,"n_dots":2.75,"target":"right","response":"left","rt":876,"correct":false,"confidence":1},{"trial_n":27,"n_dots":2.85,"target":"right","response":"left","rt":940.00000000001,"correct":false,"confidence":1},{"trial_n":28,"n_dots":2.95,"target":"left","response":"left","rt":657,"correct":true,"confidence":4},{"trial_n":29,"n_dots":2.95,"target":"right","response":"left","rt":492,"correct":false,"confidence":3},{"trial_n":30,"n_dots":3.05,"target":"right","response":"left","rt":845,"correct":false,"confidence":2},{"trial_n":31,"n_dots":3.15,"target":"right","response":"right","rt":658,"correct":true,"confidence":3},{"trial_n":32,"n_dots":3.15,"target":"left","response":"left","rt":691,"correct":true,"confidence":3},{"trial_n":33,"n_dots":3.05,"target":"right","response":"right","rt":679,"correct":true,"confidence":1},{"trial_n":34,"n_dots":3.05,"target":"right","response":"left","rt":625,"correct":false,"confidence":1},{"trial_n":35,"n_dots":3.15,"target":"right","response":"right","rt":494,"correct":true,"confidence":2},{"trial_n":36,"n_dots":3.15,"target":"right","response":"right","rt":494,"correct":true,"confidence":1},{"trial_n":37,"n_dots":3.05,"target":"right","response":"right","rt":559,"correct":true,"confidence":1},{"trial_n":38,"n_dots":3.05,"target":"left","response":"right","rt":492.00000000003,"correct":false,"confidence":1},{"trial_n":39,"n_dots":3.15,"target":"left","response":"left","rt":461,"correct":true,"confidence":1},{"trial_n":40,"n_dots":3.15,"target":"left","response":"left","rt":430,"correct":true,"confidence":1},{"trial_n":41,"n_dots":3.05,"target":"right","response":"right","rt":415,"correct":true,"confidence":1},{"trial_n":42,"n_dots":3.05,"target":"left","response":"left","rt":477,"correct":true,"confidence":4},{"trial_n":43,"n_dots":2.95,"target":"left","response":"left","rt":545,"correct":true,"confidence":4},{"trial_n":44,"n_dots":2.95,"target":"right","response":"right","rt":444,"correct":true,"confidence":3},{"trial_n":45,"n_dots":2.85,"target":"left","response":"right","rt":560,"correct":false,"confidence":1},{"trial_n":46,"n_dots":2.95,"target":"left","response":"left","rt":643,"correct":true,"confidence":5},{"trial_n":47,"n_dots":2.95,"target":"right","response":"right","rt":461,"correct":true,"confidence":2},{"trial_n":48,"n_dots":2.85,"target":"left","response":"right","rt":311,"correct":false,"confidence":1},{"trial_n":49,"n_dots":2.95,"target":"right","response":"left","rt":594,"correct":false,"confidence":2},{"trial_n":50,"n_dots":3.05,"target":"left","response":"right","rt":462,"correct":false,"confidence":1},{"trial_n":51,"n_dots":3.15,"target":"right","response":"right","rt":527,"correct":true,"confidence":3},{"trial_n":52,"n_dots":3.15,"target":"left","response":"left","rt":562.00000000003,"correct":true,"confidence":3},{"trial_n":53,"n_dots":3.05,"target":"right","response":"right","rt":413,"correct":true,"confidence":1},{"trial_n":54,"n_dots":3.05,"target":"left","response":"right","rt":645,"correct":false,"confidence":1},{"trial_n":55,"n_dots":3.15,"target":"right","response":"right","rt":745,"correct":true,"confidence":4},{"trial_n":56,"n_dots":3.15,"target":"right","response":"right","rt":679.99999999997,"correct":true,"confidence":3},{"trial_n":57,"n_dots":3.05,"target":"left","response":"right","rt":379.00000000003,"correct":false,"confidence":2},{"trial_n":58,"n_dots":3.15,"target":"right","response":"right","rt":527,"correct":true,"confidence":4},{"trial_n":59,"n_dots":3.15,"target":"left","response":"left","rt":546,"correct":true,"confidence":4},{"trial_n":60,"n_dots":3.05,"target":"left","response":"left","rt":330,"correct":true,"confidence":4},{"trial_n":61,"n_dots":3.05,"target":"right","response":"right","rt":284,"correct":true,"confidence":4},{"trial_n":62,"n_dots":2.95,"target":"right","response":"left","rt":235.00000000003,"correct":false,"confidence":3},{"trial_n":63,"n_dots":3.05,"target":"left","response":"left","rt":664,"correct":true,"confidence":4},{"trial_n":64,"n_dots":3.05,"target":"left","response":"right","rt":300,"correct":false,"confidence":1},{"trial_n":65,"n_dots":3.15,"target":"left","response":"left","rt":496,"correct":true,"confidence":3},{"trial_n":66,"n_dots":3.15,"target":"right","response":"right","rt":330,"correct":true,"confidence":1},{"trial_n":67,"n_dots":3.05,"target":"right","response":"right","rt":232,"correct":true,"confidence":3},{"trial_n":68,"n_dots":3.05,"target":"left","response":"right","rt":166,"correct":false,"confidence":3},{"trial_n":69,"n_dots":3.15,"target":"right","response":"right","rt":214,"correct":true,"confidence":3},{"trial_n":70,"n_dots":3.15,"target":"left","response":"right","rt":431,"correct":false,"confidence":3},{"trial_n":71,"n_dots":3.25,"target":"right","response":"right","rt":283,"correct":true,"confidence":5},{"trial_n":72,"n_dots":3.25,"target":"left","response":"right","rt":316,"correct":false,"confidence":4},{"trial_n":73,"n_dots":3.35,"target":"right","response":"right","rt":418,"correct":true,"confidence":4},{"trial_n":74,"n_dots":3.35,"target":"right","response":"right","rt":414,"correct":true,"confidence":4},{"trial_n":75,"n_dots":3.25,"target":"left","response":"right","rt":368,"correct":false,"confidence":3},{"trial_n":76,"n_dots":3.35,"target":"left","response":"left","rt":566,"correct":true,"confidence":4},{"trial_n":77,"n_dots":3.35,"target":"left","response":"right","rt":318,"correct":false,"confidence":3},{"trial_n":78,"n_dots":3.45,"target":"left","response":"left","rt":431.99999999994,"correct":true,"confidence":4},{"trial_n":79,"n_dots":3.45,"target":"right","response":"right","rt":267,"correct":true,"confidence":4},{"trial_n":80,"n_dots":3.35,"target":"left","response":"right","rt":951,"correct":false,"confidence":4},{"trial_n":81,"n_dots":3.45,"target":"right","response":"right","rt":505,"correct":true,"confidence":3},{"trial_n":82,"n_dots":3.45,"target":"left","response":"left","rt":699.00000000006,"correct":true,"confidence":4},{"trial_n":83,"n_dots":3.35,"target":"left","response":"left","rt":800,"correct":true,"confidence":4},{"trial_n":84,"n_dots":3.35,"target":"right","response":"right","rt":584,"correct":true,"confidence":4},{"trial_n":85,"n_dots":3.25,"target":"left","response":"left","rt":368,"correct":true,"confidence":4},{"trial_n":86,"n_dots":3.25,"target":"right","response":"right","rt":434,"correct":true,"confidence":4},{"trial_n":87,"n_dots":3.15,"target":"right","response":"right","rt":483,"correct":true,"confidence":4},{"trial_n":88,"n_dots":3.15,"target":"left","response":"left","rt":402,"correct":true,"confidence":4},{"trial_n":89,"n_dots":3.05,"target":"left","response":"left","rt":602,"correct":true,"confidence":3},{"trial_n":90,"n_dots":3.05,"target":"right","response":"right","rt":1101,"correct":true,"confidence":1},{"trial_n":91,"n_dots":2.95,"target":"right","response":"right","rt":718,"correct":true,"confidence":3},{"trial_n":92,"n_dots":2.95,"target":"left","response":"left","rt":635,"correct":true,"confidence":3},{"trial_n":93,"n_dots":2.85,"target":"left","response":"left","rt":1302,"correct":true,"confidence":3},{"trial_n":94,"n_dots":2.85,"target":"left","response":"left","rt":1066,"correct":true,"confidence":3},{"trial_n":95,"n_dots":2.75,"target":"right","response":"right","rt":633,"correct":true,"confidence":1},{"trial_n":96,"n_dots":2.75,"target":"right","response":"left","rt":1137,"correct":false,"confidence":1},{"trial_n":97,"n_dots":2.85,"target":"left","response":"left","rt":867,"correct":true,"confidence":1},{"trial_n":98,"n_dots":2.85,"target":"right","response":"left","rt":1517.9999999999,"correct":false,"confidence":1},{"trial_n":99,"n_dots":2.95,"target":"left","response":"left","rt":954.00000000006,"correct":true,"confidence":3},{"trial_n":100,"n_dots":2.95,"target":"right","response":"left","rt":887,"correct":false,"confidence":3},{"trial_n":101,"n_dots":3.05,"target":"right","response":"right","rt":642,"correct":true,"confidence":3},{"trial_n":102,"n_dots":3.05,"target":"right","response":"right","rt":570,"correct":true,"confidence":2},{"trial_n":103,"n_dots":2.95,"target":"left","response":"left","rt":752,"correct":true,"confidence":2},{"trial_n":104,"n_dots":2.95,"target":"right","response":"right","rt":702.99999999994,"correct":true,"confidence":2},{"trial_n":105,"n_dots":2.85,"target":"right","response":"left","rt":818.00000000006,"correct":false,"confidence":2},{"trial_n":106,"n_dots":2.95,"target":"left","response":"left","rt":936,"correct":true,"confidence":3},{"trial_n":107,"n_dots":2.95,"target":"left","response":"left","rt":1020,"correct":true,"confidence":3},{"trial_n":108,"n_dots":2.85,"target":"left","response":"left","rt":538,"correct":true,"confidence":3},{"trial_n":109,"n_dots":2.85,"target":"right","response":"left","rt":806,"correct":false,"confidence":2},{"trial_n":110,"n_dots":2.95,"target":"left","response":"left","rt":603.99999999994,"correct":true,"confidence":2},{"trial_n":111,"n_dots":2.95,"target":"left","response":"left","rt":455,"correct":true,"confidence":2},{"trial_n":112,"n_dots":2.85,"target":"right","response":"left","rt":919.99999999994,"correct":false,"confidence":2},{"trial_n":113,"n_dots":2.95,"target":"left","response":"left","rt":489,"correct":true,"confidence":2},{"trial_n":114,"n_dots":2.95,"target":"left","response":"left","rt":790,"correct":true,"confidence":2},{"trial_n":115,"n_dots":2.85,"target":"right","response":"left","rt":623.99999999994,"correct":false,"confidence":2},{"trial_n":116,"n_dots":2.95,"target":"left","response":"left","rt":210.99999999994,"correct":true,"confidence":2},{"trial_n":117,"n_dots":2.95,"target":"left","response":"left","rt":510,"correct":true,"confidence":2},{"trial_n":118,"n_dots":2.85,"target":"left","response":"left","rt":789.99999999994,"correct":true,"confidence":2},{"trial_n":119,"n_dots":2.85,"target":"right","response":"left","rt":837,"correct":false,"confidence":1},{"trial_n":120,"n_dots":2.95,"target":"left","response":"left","rt":756,"correct":true,"confidence":4}]