[{"trial_n":1,"min":25,"max":230,"target":"present","response":"absent","rt":15101,"correct":false,"confidence":-1},{"trial_n":2,"min":25,"max":230,"target":"present","response":"present","rt":1233,"correct":true,"confidence":-1},{"trial_n":3,"min":25,"max":230,"target":"absent","response":"absent","rt":2060,"correct":true,"confidence":-1},{"trial_n":4,"min":41,"max":214,"target":"absent","response":"absent","rt":1322,"correct":true,"confidence":-1},{"trial_n":5,"min":41,"max":214,"target":"present","response":"present","rt":962,"correct":true,"confidence":-1},{"trial_n":6,"min":57,"max":198,"target":"absent","response":"absent","rt":965,"correct":true,"confidence":-1},{"trial_n":7,"min":57,"max":198,"target":"absent","response":"absent","rt":936,"correct":true,"confidence":-1},{"trial_n":8,"min":73,"max":182,"target":"absent","response":"absent","rt":1363,"correct":true,"confidence":-1},{"trial_n":9,"min":73,"max":182,"target":"present","response":"present","rt":851,"correct":true,"confidence":-1},{"trial_n":10,"min":89,"max":166,"target":"present","response":"present","rt":896,"correct":true,"confidence":-1},{"trial_n":11,"min":89,"max":166,"target":"present","response":"present","rt":1146,"correct":true,"confidence":-1},{"trial_n":12,"min":97,"max":158,"target":"absent","response":"absent","rt":946,"correct":true,"confidence":-1},{"trial_n":13,"min":97,"max":158,"target":"present","response":"absent","rt":850,"correct":false,"confidence":-1},{"trial_n":14,"min":89,"max":166,"target":"present","response":"absent","rt":1024,"correct":false,"confidence":-1},{"trial_n":15,"min":81,"max":174,"target":"present","response":"present","rt":1093,"correct":true,"confidence":-1},{"trial_n":16,"min":81,"max":174,"target":"absent","response":"absent","rt":888,"correct":true,"confidence":-1},{"trial_n":17,"min":89,"max":166,"target":"absent","response":"absent","rt":702,"correct":true,"confidence":-1},{"trial_n":18,"min":89,"max":166,"target":"present","response":"present","rt":2192,"correct":true,"confidence":-1},{"trial_n":19,"min":97,"max":158,"target":"present","response":"absent","rt":689,"correct":false,"confidence":-1},{"trial_n":20,"min":89,"max":166,"target":"present","response":"absent","rt":1363,"correct":false,"confidence":-1},{"trial_n":21,"min":85,"max":170,"target":"present","response":"absent","rt":751,"correct":false,"confidence":4},{"trial_n":22,"min":81,"max":174,"target":"present","response":"present","rt":1148,"correct":true,"confidence":3},{"trial_n":23,"min":81,"max":174,"target":"absent","response":"present","rt":1906,"correct":false,"confidence":3},{"trial_n":24,"min":77,"max":178,"target":"present","response":"absent","rt":2304,"correct":false,"confidence":2},{"trial_n":25,"min":73,"max":182,"target":"absent","response":"absent","rt":1315,"correct":true,"confidence":2},{"trial_n":26,"min":73,"max":182,"target":"present","response":"present","rt":1055,"correct":true,"confidence":4},{"trial_n":27,"min":77,"max":178,"target":"present","response":"present","rt":778,"correct":true,"confidence":4},{"trial_n":28,"min":77,"max":178,"target":"absent","response":"absent","rt":940,"correct":true,"confidence":4},{"trial_n":29,"min":81,"max":174,"target":"present","response":"present","rt":667,"correct":true,"confidence":4},{"trial_n":30,"min":81,"max":174,"target":"absent","response":"absent","rt":869,"correct":true,"confidence":3},{"trial_n":31,"min":83,"max":172,"target":"absent","response":"absent","rt":941,"correct":true,"confidence":3},{"trial_n":32,"min":83,"max":172,"target":"present","response":"absent","rt":1455,"correct":false,"confidence":2},{"trial_n":33,"min":81,"max":174,"target":"present","response":"present","rt":800,"correct":true,"confidence":3},{"trial_n":34,"min":81,"max":174,"target":"present","response":"present","rt":833,"correct":true,"confidence":3},{"trial_n":35,"min":83,"max":172,"target":"present","response":"absent","rt":882,"correct":false,"confidence":3},{"trial_n":36,"min":81,"max":174,"target":"present","response":"present","rt":1183,"correct":true,"confidence":2},{"trial_n":37,"min":81,"max":174,"target":"absent","response":"absent","rt":1328,"correct":true,"confidence":3},{"trial_n":38,"min":83,"max":172,"target":"present","response":"absent","rt":633,"correct":false,"confidence":4},{"trial_n":39,"min":81,"max":174,"target":"absent","response":"absent","rt":834,"correct":true,"confidence":3},{"trial_n":40,"min":81,"max":174,"target":"present","response":"present","rt":589,"correct":true,"confidence":4},{"trial_n":41,"min":82,"max":173,"target":"present","response":"absent","rt":2572,"correct":false,"confidence":2},{"trial_n":42,"min":81,"max":174,"target":"present","response":"absent","rt":945,"correct":false,"confidence":3},{"trial_n":43,"min":80,"max":175,"target":"present","response":"present","rt":672,"correct":true,"confidence":3},{"trial_n":44,"min":80,"max":175,"target":"absent","response":"absent","rt":643,"correct":true,"confidence":3},{"trial_n":45,"min":81,"max":174,"target":"present","response":"present","rt":834,"correct":true,"confidence":4},{"trial_n":46,"min":81,"max":174,"target":"present","response":"present","rt":786,"correct":true,"confidence":3},{"trial_n":47,"min":82,"max":173,"target":"absent","response":"absent","rt":774,"correct":true,"confidence":4},{"trial_n":48,"min":82,"max":173,"target":"absent","response":"absent","rt":639,"correct":true,"confidence":3},{"trial_n":49,"min":83,"max":172,"target":"absent","response":"absent","rt":761,"correct":true,"confidence":3},{"trial_n":50,"min":83,"max":172,"target":"absent","response":"absent","rt":761,"correct":true,"confidence":3},{"trial_n":51,"min":84,"max":171,"target":"absent","response":"absent","rt":1381,"correct":true,"confidence":4},{"trial_n":52,"min":84,"max":171,"target":"absent","response":"absent","rt":997,"correct":true,"confidence":4},{"trial_n":53,"min":85,"max":170,"target":"present","response":"present","rt":1879,"correct":true,"confidence":2},{"trial_n":54,"min":85,"max":170,"target":"absent","response":"absent","rt":858,"correct":true,"confidence":2},{"trial_n":55,"min":86,"max":169,"target":"absent","response":"absent","rt":820,"correct":true,"confidence":3},{"trial_n":56,"min":86,"max":169,"target":"absent","response":"absent","rt":620,"correct":true,"confidence":3},{"trial_n":57,"min":87,"max":168,"target":"present","response":"present","rt":611,"correct":true,"confidence":4},{"trial_n":58,"min":87,"max":168,"target":"present","response":"present","rt":747,"correct":true,"confidence":4},{"trial_n":59,"min":88,"max":167,"target":"absent","response":"present","rt":5715,"correct":false,"confidence":2},{"trial_n":60,"min":87,"max":168,"target":"absent","response":"present","rt":2036,"correct":false,"confidence":2},{"trial_n":61,"min":86,"max":169,"target":"absent","response":"absent","rt":1114,"correct":true,"confidence":3},{"trial_n":62,"min":86,"max":169,"target":"present","response":"present","rt":1000,"correct":true,"confidence":3},{"trial_n":63,"min":87,"max":168,"target":"present","response":"absent","rt":747,"correct":false,"confidence":2},{"trial_n":64,"min":86,"max":169,"target":"absent","response":"absent","rt":851,"correct":true,"confidence":3},{"trial_n":65,"min":86,"max":169,"target":"present","response":"present","rt":661,"correct":true,"confidence":3},{"trial_n":66,"min":87,"max":168,"target":"absent","response":"absent","rt":758,"correct":true,"confidence":2},{"trial_n":67,"min":87,"max":168,"target":"absent","response":"absent","rt":612,"correct":true,"confidence":2},{"trial_n":68,"min":88,"max":167,"target":"absent","response":"absent","rt":592,"correct":true,"confidence":3},{"trial_n":69,"min":88,"max":167,"target":"absent","response":"absent","rt":836,"correct":true,"confidence":3},{"trial_n":70,"min":89,"max":166,"target":"absent","response":"absent","rt":719,"correct":true,"confidence":4},{"trial_n":71,"min":41,"max":214,"target":"present","response":"present","rt":2885,"correct":true,"confidence":-1},{"trial_n":72,"min":41,"max":214,"target":"present","response":"present","rt":1562,"correct":true,"confidence":-1},{"trial_n":73,"min":57,"max":198,"target":"absent","response":"absent","rt":695,"correct":true,"confidence":-1},{"trial_n":74,"min":57,"max":198,"target":"absent","response":"absent","rt":728,"correct":true,"confidence":-1},{"trial_n":75,"min":73,"max":182,"target":"present","response":"present","rt":698,"correct":true,"confidence":-1},{"trial_n":76,"min":73,"max":182,"target":"absent","response":"absent","rt":656,"correct":true,"confidence":-1},{"trial_n":77,"min":89,"max":166,"target":"absent","response":"absent","rt":1147,"correct":true,"confidence":-1},{"trial_n":78,"min":89,"max":166,"target":"absent","response":"absent","rt":896,"correct":true,"confidence":-1},{"trial_n":79,"min":105,"max":150,"target":"present","response":"present","rt":1355,"correct":true,"confidence":-1},{"trial_n":80,"min":105,"max":150,"target":"absent","response":"absent","rt":650,"correct":true,"confidence":-1},{"trial_n":81,"min":113,"max":142,"target":"absent","response":"absent","rt":827,"correct":true,"confidence":-1},{"trial_n":82,"min":113,"max":142,"target":"present","response":"present","rt":860,"correct":true,"confidence":-1},{"trial_n":83,"min":121,"max":134,"target":"absent","response":"absent","rt":1335,"correct":true,"confidence":-1},{"trial_n":84,"min":121,"max":134,"target":"absent","response":"absent","rt":729,"correct":true,"confidence":-1},{"trial_n":85,"min":121,"max":134,"target":"present","response":"present","rt":929,"correct":true,"confidence":-1},{"trial_n":86,"min":121,"max":134,"target":"absent","response":"absent","rt":1447,"correct":true,"confidence":-1},{"trial_n":87,"min":121,"max":134,"target":"present","response":"present","rt":1011,"correct":true,"confidence":-1},{"trial_n":88,"min":121,"max":134,"target":"present","response":"present","rt":1018,"correct":true,"confidence":-1},{"trial_n":89,"min":121,"max":134,"target":"absent","response":"absent","rt":850,"correct":true,"confidence":-1},{"trial_n":90,"min":121,"max":134,"target":"present","response":"present","rt":869,"correct":true,"confidence":-1},{"trial_n":91,"min":125,"max":130,"target":"absent","response":"absent","rt":1671,"correct":true,"confidence":2},{"trial_n":92,"min":125,"max":130,"target":"absent","response":"present","rt":966,"correct":false,"confidence":2},{"trial_n":93,"min":125,"max":130,"target":"absent","response":"present","rt":995,"correct":false,"confidence":2},{"trial_n":94,"min":125,"max":130,"target":"present","response":"absent","rt":1675,"correct":false,"confidence":2},{"trial_n":95,"min":125,"max":130,"target":"absent","response":"present","rt":1575,"correct":false,"confidence":1},{"trial_n":96,"min":125,"max":130,"target":"present","response":"absent","rt":1834,"correct":false,"confidence":1},{"trial_n":97,"min":125,"max":130,"target":"absent","response":"present","rt":1321,"correct":false,"confidence":1},{"trial_n":98,"min":125,"max":130,"target":"absent","response":"present","rt":2335,"correct":false,"confidence":1},{"trial_n":99,"min":125,"max":130,"target":"present","response":"absent","rt":1264,"correct":false,"confidence":1},{"trial_n":100,"min":125,"max":130,"target":"absent","response":"absent","rt":4640,"correct":true,"confidence":1},{"trial_n":101,"min":125,"max":130,"target":"absent","response":"absent","rt":1587,"correct":true,"confidence":1},{"trial_n":102,"min":125,"max":130,"target":"absent","response":"absent","rt":911,"correct":true,"confidence":2},{"trial_n":103,"min":125,"max":130,"target":"present","response":"present","rt":1991,"correct":true,"confidence":2},{"trial_n":104,"min":125,"max":130,"target":"absent","response":"absent","rt":1058,"correct":true,"confidence":2},{"trial_n":105,"min":125,"max":130,"target":"present","response":"present","rt":764,"correct":true,"confidence":2},{"trial_n":106,"min":125,"max":130,"target":"present","response":"present","rt":970,"correct":true,"confidence":2},{"trial_n":107,"min":125,"max":130,"target":"absent","response":"absent","rt":709,"correct":true,"confidence":2},{"trial_n":108,"min":125,"max":130,"target":"absent","response":"absent","rt":2046,"correct":true,"confidence":2},{"trial_n":109,"min":125,"max":130,"target":"present","response":"present","rt":594,"correct":true,"confidence":2},{"trial_n":110,"min":125,"max":130,"target":"absent","response":"absent","rt":706,"correct":true,"confidence":2},{"trial_n":111,"min":125,"max":130,"target":"present","response":"present","rt":990,"correct":true,"confidence":2},{"trial_n":112,"min":126,"max":128,"target":"absent","response":"absent","rt":837,"correct":true,"confidence":2},{"trial_n":113,"min":126,"max":128,"target":"absent","response":"absent","rt":1186,"correct":true,"confidence":3},{"trial_n":114,"min":126,"max":128,"target":"absent","response":"absent","rt":743,"correct":true,"confidence":3},{"trial_n":115,"min":126,"max":128,"target":"present","response":"present","rt":521,"correct":true,"confidence":3},{"trial_n":116,"min":126,"max":128,"target":"present","response":"present","rt":555,"correct":true,"confidence":3},{"trial_n":117,"min":126,"max":128,"target":"absent","response":"absent","rt":929,"correct":true,"confidence":3},{"trial_n":118,"min":126,"max":128,"target":"present","response":"present","rt":1119,"correct":true,"confidence":3},{"trial_n":119,"min":126,"max":128,"target":"present","response":"present","rt":1131,"correct":true,"confidence":3},{"trial_n":120,"min":126,"max":128,"target":"absent","response":"present","rt":706,"correct":false,"confidence":3},{"trial_n":121,"min":126,"max":128,"target":"absent","response":"absent","rt":710,"correct":true,"confidence":3},{"trial_n":122,"min":126,"max":128,"target":"present","response":"present","rt":325,"correct":true,"confidence":3},{"trial_n":123,"min":126,"max":128,"target":"present","response":"present","rt":619,"correct":true,"confidence":3},{"trial_n":124,"min":126,"max":128,"target":"present","response":"present","rt":607,"correct":true,"confidence":3},{"trial_n":125,"min":126,"max":128,"target":"absent","response":"present","rt":799,"correct":false,"confidence":1},{"trial_n":126,"min":126,"max":128,"target":"present","response":"present","rt":610,"correct":true,"confidence":3},{"trial_n":127,"min":126,"max":128,"target":"present","response":"present","rt":2029,"correct":true,"confidence":3},{"trial_n":128,"min":126,"max":128,"target":"present","response":"present","rt":347,"correct":true,"confidence":3},{"trial_n":129,"min":126,"max":128,"target":"present","response":"present","rt":583,"correct":true,"confidence":3},{"trial_n":130,"min":126,"max":128,"target":"present","response":"present","rt":353,"correct":true,"confidence":3},{"trial_n":131,"min":126,"max":128,"target":"absent","response":"absent","rt":1120,"correct":true,"confidence":3},{"trial_n":132,"min":126,"max":128,"target":"absent","response":"absent","rt":1141,"correct":true,"confidence":3},{"trial_n":133,"min":126,"max":128,"target":"present","response":"present","rt":363,"correct":true,"confidence":3},{"trial_n":134,"min":126,"max":128,"target":"present","response":"present","rt":635,"correct":true,"confidence":3},{"trial_n":135,"min":126,"max":128,"target":"absent","response":"absent","rt":563,"correct":true,"confidence":3},{"trial_n":136,"min":126,"max":128,"target":"present","response":"present","rt":580,"correct":true,"confidence":3},{"trial_n":137,"min":126,"max":128,"target":"present","response":"present","rt":613,"correct":true,"confidence":3},{"trial_n":138,"min":126,"max":128,"target":"present","response":"present","rt":436,"correct":true,"confidence":3},{"trial_n":139,"min":126,"max":128,"target":"present","response":"present","rt":1199,"correct":true,"confidence":3},{"trial_n":140,"min":126,"max":128,"target":"present","response":"present","rt":433,"correct":true,"confidence":1}]