[{"trial_n":1,"min":25,"max":230,"target":"present","response":"absent","rt":4483,"correct":false,"confidence":-1},{"trial_n":2,"min":25,"max":230,"target":"present","response":"present","rt":2295,"correct":true,"confidence":-1},{"trial_n":3,"min":25,"max":230,"target":"absent","response":"present","rt":717,"correct":false,"confidence":-1},{"trial_n":4,"min":9,"max":246,"target":"absent","response":"present","rt":968,"correct":false,"confidence":-1},{"trial_n":5,"min":0,"max":255,"target":"present","response":"present","rt":666,"correct":true,"confidence":-1},{"trial_n":6,"min":0,"max":255,"target":"absent","response":"absent","rt":1009,"correct":true,"confidence":-1},{"trial_n":7,"min":16,"max":239,"target":"present","response":"absent","rt":446,"correct":false,"confidence":-1},{"trial_n":8,"min":0,"max":255,"target":"present","response":"present","rt":770,"correct":true,"confidence":-1},{"trial_n":9,"min":0,"max":255,"target":"present","response":"present","rt":570,"correct":true,"confidence":-1},{"trial_n":10,"min":16,"max":239,"target":"present","response":"present","rt":480,"correct":true,"confidence":-1},{"trial_n":11,"min":16,"max":239,"target":"absent","response":"absent","rt":876,"correct":true,"confidence":-1},{"trial_n":12,"min":24,"max":231,"target":"present","response":"present","rt":915,"correct":true,"confidence":-1},{"trial_n":13,"min":24,"max":231,"target":"present","response":"present","rt":4818,"correct":true,"confidence":-1},{"trial_n":14,"min":32,"max":223,"target":"absent","response":"absent","rt":782,"correct":true,"confidence":-1},{"trial_n":15,"min":32,"max":223,"target":"present","response":"present","rt":573,"correct":true,"confidence":-1},{"trial_n":16,"min":40,"max":215,"target":"absent","response":"absent","rt":395.99999999999,"correct":true,"confidence":-1},{"trial_n":17,"min":40,"max":215,"target":"present","response":"present","rt":585,"correct":true,"confidence":-1},{"trial_n":18,"min":48,"max":207,"target":"present","response":"absent","rt":472.00000000001,"correct":false,"confidence":-1},{"trial_n":19,"min":40,"max":215,"target":"present","response":"present","rt":622.99999999999,"correct":true,"confidence":-1},{"trial_n":20,"min":40,"max":215,"target":"present","response":"present","rt":892,"correct":true,"confidence":-1},{"trial_n":21,"min":44,"max":211,"target":"absent","response":"present","rt":1061,"correct":false,"confidence":1},{"trial_n":22,"min":40,"max":215,"target":"present","response":"present","rt":671,"correct":true,"confidence":4},{"trial_n":23,"min":40,"max":215,"target":"absent","response":"absent","rt":633.00000000001,"correct":true,"confidence":4},{"trial_n":24,"min":44,"max":211,"target":"absent","response":"absent","rt":1038,"correct":true,"confidence":3},{"trial_n":25,"min":44,"max":211,"target":"absent","response":"absent","rt":799.99999999999,"correct":true,"confidence":3},{"trial_n":26,"min":48,"max":207,"target":"present","response":"present","rt":562,"correct":true,"confidence":3},{"trial_n":27,"min":48,"max":207,"target":"present","response":"present","rt":975,"correct":true,"confidence":3},{"trial_n":28,"min":52,"max":203,"target":"absent","response":"absent","rt":833,"correct":true,"confidence":3},{"trial_n":29,"min":52,"max":203,"target":"present","response":"present","rt":1668,"correct":true,"confidence":2},{"trial_n":30,"min":56,"max":199,"target":"present","response":"present","rt":641,"correct":true,"confidence":3},{"trial_n":31,"min":56,"max":199,"target":"absent","response":"absent","rt":998.99999999999,"correct":true,"confidence":3},{"trial_n":32,"min":58,"max":197,"target":"present","response":"present","rt":551,"correct":true,"confidence":3},{"trial_n":33,"min":58,"max":197,"target":"absent","response":"absent","rt":637,"correct":true,"confidence":3},{"trial_n":34,"min":60,"max":195,"target":"present","response":"present","rt":793,"correct":true,"confidence":3},{"trial_n":35,"min":60,"max":195,"target":"absent","response":"absent","rt":885,"correct":true,"confidence":3},{"trial_n":36,"min":62,"max":193,"target":"present","response":"present","rt":562.99999999997,"correct":true,"confidence":2},{"trial_n":37,"min":62,"max":193,"target":"present","response":"present","rt":638,"correct":true,"confidence":2},{"trial_n":38,"min":64,"max":191,"target":"absent","response":"absent","rt":1077,"correct":true,"confidence":2},{"trial_n":39,"min":64,"max":191,"target":"present","response":"present","rt":706,"correct":true,"confidence":2},{"trial_n":40,"min":66,"max":189,"target":"present","response":"present","rt":740,"correct":true,"confidence":2},{"trial_n":41,"min":66,"max":189,"target":"absent","response":"absent","rt":1094.9999999999,"correct":true,"confidence":3},{"trial_n":42,"min":67,"max":188,"target":"absent","response":"absent","rt":878,"correct":true,"confidence":3},{"trial_n":43,"min":67,"max":188,"target":"absent","response":"absent","rt":600,"correct":true,"confidence":3},{"trial_n":44,"min":68,"max":187,"target":"absent","response":"absent","rt":706,"correct":true,"confidence":3},{"trial_n":45,"min":68,"max":187,"target":"absent","response":"absent","rt":787,"correct":true,"confidence":3},{"trial_n":46,"min":69,"max":186,"target":"present","response":"absent","rt":1699.9999999999,"correct":false,"confidence":2},{"trial_n":47,"min":68,"max":187,"target":"present","response":"present","rt":1016,"correct":true,"confidence":3},{"trial_n":48,"min":68,"max":187,"target":"absent","response":"absent","rt":885,"correct":true,"confidence":3},{"trial_n":49,"min":69,"max":186,"target":"absent","response":"absent","rt":703,"correct":true,"confidence":3},{"trial_n":50,"min":69,"max":186,"target":"absent","response":"absent","rt":968,"correct":true,"confidence":3},{"trial_n":51,"min":70,"max":185,"target":"absent","response":"absent","rt":696,"correct":true,"confidence":3},{"trial_n":52,"min":70,"max":185,"target":"absent","response":"absent","rt":708,"correct":true,"confidence":3},{"trial_n":53,"min":71,"max":184,"target":"present","response":"present","rt":1013.0000000001,"correct":true,"confidence":3},{"trial_n":54,"min":71,"max":184,"target":"absent","response":"absent","rt":773,"correct":true,"confidence":3},{"trial_n":55,"min":72,"max":183,"target":"present","response":"present","rt":653.00000000012,"correct":true,"confidence":3},{"trial_n":56,"min":72,"max":183,"target":"present","response":"absent","rt":2388,"correct":false,"confidence":3},{"trial_n":57,"min":71,"max":184,"target":"absent","response":"present","rt":634.00000000012,"correct":false,"confidence":3},{"trial_n":58,"min":70,"max":185,"target":"absent","response":"absent","rt":609,"correct":true,"confidence":3},{"trial_n":59,"min":70,"max":185,"target":"present","response":"present","rt":682,"correct":true,"confidence":3},{"trial_n":60,"min":71,"max":184,"target":"absent","response":"present","rt":619,"correct":false,"confidence":3},{"trial_n":61,"min":70,"max":185,"target":"present","response":"present","rt":570.99999999988,"correct":true,"confidence":4},{"trial_n":62,"min":70,"max":185,"target":"present","response":"present","rt":587,"correct":true,"confidence":4},{"trial_n":63,"min":71,"max":184,"target":"present","response":"present","rt":551,"correct":true,"confidence":3},{"trial_n":64,"min":71,"max":184,"target":"present","response":"present","rt":564,"correct":true,"confidence":3},{"trial_n":65,"min":72,"max":183,"target":"present","response":"present","rt":561,"correct":true,"confidence":3},{"trial_n":66,"min":72,"max":183,"target":"absent","response":"absent","rt":838,"correct":true,"confidence":3},{"trial_n":67,"min":73,"max":182,"target":"absent","response":"absent","rt":612,"correct":true,"confidence":4},{"trial_n":68,"min":73,"max":182,"target":"absent","response":"present","rt":806.00000000012,"correct":false,"confidence":2},{"trial_n":69,"min":72,"max":183,"target":"absent","response":"absent","rt":775,"correct":true,"confidence":4},{"trial_n":70,"min":72,"max":183,"target":"absent","response":"absent","rt":634,"correct":true,"confidence":4},{"trial_n":71,"min":41,"max":214,"target":"present","response":"present","rt":4189,"correct":true,"confidence":-1},{"trial_n":72,"min":41,"max":214,"target":"present","response":"present","rt":775,"correct":true,"confidence":-1},{"trial_n":73,"min":57,"max":198,"target":"absent","response":"absent","rt":897,"correct":true,"confidence":-1},{"trial_n":74,"min":57,"max":198,"target":"absent","response":"absent","rt":629,"correct":true,"confidence":-1},{"trial_n":75,"min":73,"max":182,"target":"present","response":"present","rt":749.00000000012,"correct":true,"confidence":-1},{"trial_n":76,"min":73,"max":182,"target":"present","response":"present","rt":465,"correct":true,"confidence":-1},{"trial_n":77,"min":89,"max":166,"target":"absent","response":"absent","rt":1058,"correct":true,"confidence":-1},{"trial_n":78,"min":89,"max":166,"target":"present","response":"absent","rt":719,"correct":false,"confidence":-1},{"trial_n":79,"min":73,"max":182,"target":"absent","response":"absent","rt":1498,"correct":true,"confidence":-1},{"trial_n":80,"min":73,"max":182,"target":"absent","response":"present","rt":769,"correct":false,"confidence":-1},{"trial_n":81,"min":65,"max":190,"target":"absent","response":"absent","rt":909,"correct":true,"confidence":-1},{"trial_n":82,"min":65,"max":190,"target":"absent","response":"absent","rt":557,"correct":true,"confidence":-1},{"trial_n":83,"min":73,"max":182,"target":"present","response":"absent","rt":484.99999999988,"correct":false,"confidence":-1},{"trial_n":84,"min":65,"max":190,"target":"absent","response":"absent","rt":516.99999999988,"correct":true,"confidence":-1},{"trial_n":85,"min":65,"max":190,"target":"absent","response":"absent","rt":476,"correct":true,"confidence":-1},{"trial_n":86,"min":73,"max":182,"target":"present","response":"present","rt":578,"correct":true,"confidence":-1},{"trial_n":87,"min":73,"max":182,"target":"present","response":"present","rt":696.00000000012,"correct":true,"confidence":-1},{"trial_n":88,"min":81,"max":174,"target":"absent","response":"present","rt":764.99999999988,"correct":false,"confidence":-1},{"trial_n":89,"min":73,"max":182,"target":"present","response":"present","rt":453,"correct":true,"confidence":-1},{"trial_n":90,"min":73,"max":182,"target":"absent","response":"absent","rt":921,"correct":true,"confidence":-1},{"trial_n":91,"min":77,"max":178,"target":"present","response":"present","rt":1065,"correct":true,"confidence":3},{"trial_n":92,"min":77,"max":178,"target":"present","response":"present","rt":555.00000000012,"correct":true,"confidence":3},{"trial_n":93,"min":81,"max":174,"target":"absent","response":"absent","rt":690,"correct":true,"confidence":3},{"trial_n":94,"min":81,"max":174,"target":"absent","response":"present","rt":1134,"correct":false,"confidence":3},{"trial_n":95,"min":77,"max":178,"target":"present","response":"present","rt":567,"correct":true,"confidence":3},{"trial_n":96,"min":77,"max":178,"target":"absent","response":"absent","rt":1997.9999999999,"correct":true,"confidence":3},{"trial_n":97,"min":81,"max":174,"target":"present","response":"present","rt":650.00000000012,"correct":true,"confidence":3},{"trial_n":98,"min":81,"max":174,"target":"absent","response":"absent","rt":801.00000000012,"correct":true,"confidence":3},{"trial_n":99,"min":85,"max":170,"target":"present","response":"present","rt":803,"correct":true,"confidence":3},{"trial_n":100,"min":85,"max":170,"target":"present","response":"present","rt":741,"correct":true,"confidence":3},{"trial_n":101,"min":87,"max":168,"target":"present","response":"present","rt":1392,"correct":true,"confidence":3},{"trial_n":102,"min":87,"max":168,"target":"absent","response":"present","rt":1466,"correct":false,"confidence":3},{"trial_n":103,"min":85,"max":170,"target":"present","response":"present","rt":550,"correct":true,"confidence":3},{"trial_n":104,"min":85,"max":170,"target":"absent","response":"absent","rt":569,"correct":true,"confidence":2},{"trial_n":105,"min":87,"max":168,"target":"absent","response":"absent","rt":947,"correct":true,"confidence":2},{"trial_n":106,"min":87,"max":168,"target":"present","response":"present","rt":1327.9999999999,"correct":true,"confidence":3},{"trial_n":107,"min":89,"max":166,"target":"present","response":"present","rt":824,"correct":true,"confidence":2},{"trial_n":108,"min":89,"max":166,"target":"absent","response":"absent","rt":11588,"correct":true,"confidence":3},{"trial_n":109,"min":91,"max":164,"target":"present","response":"present","rt":1034,"correct":true,"confidence":3},{"trial_n":110,"min":91,"max":164,"target":"present","response":"present","rt":676,"correct":true,"confidence":1},{"trial_n":111,"min":92,"max":163,"target":"present","response":"present","rt":1281,"correct":true,"confidence":1},{"trial_n":112,"min":92,"max":163,"target":"present","response":"present","rt":594,"correct":true,"confidence":2},{"trial_n":113,"min":93,"max":162,"target":"present","response":"present","rt":663,"correct":true,"confidence":1},{"trial_n":114,"min":93,"max":162,"target":"absent","response":"absent","rt":666,"correct":true,"confidence":1},{"trial_n":115,"min":94,"max":161,"target":"present","response":"absent","rt":739.00000000012,"correct":false,"confidence":1},{"trial_n":116,"min":93,"max":162,"target":"absent","response":"absent","rt":386.99999999988,"correct":true,"confidence":1},{"trial_n":117,"min":93,"max":162,"target":"absent","response":"present","rt":875,"correct":false,"confidence":1},{"trial_n":118,"min":92,"max":163,"target":"present","response":"absent","rt":769.99999999988,"correct":false,"confidence":1},{"trial_n":119,"min":91,"max":164,"target":"present","response":"absent","rt":681,"correct":false,"confidence":1},{"trial_n":120,"min":90,"max":165,"target":"absent","response":"present","rt":797.00000000012,"correct":false,"confidence":1},{"trial_n":121,"min":89,"max":166,"target":"present","response":"absent","rt":455,"correct":false,"confidence":3},{"trial_n":122,"min":88,"max":167,"target":"present","response":"absent","rt":539,"correct":false,"confidence":1},{"trial_n":123,"min":87,"max":168,"target":"present","response":"present","rt":607,"correct":true,"confidence":1},{"trial_n":124,"min":87,"max":168,"target":"present","response":"present","rt":1286,"correct":true,"confidence":3},{"trial_n":125,"min":88,"max":167,"target":"present","response":"present","rt":551.99999999988,"correct":true,"confidence":1},{"trial_n":126,"min":88,"max":167,"target":"absent","response":"absent","rt":526,"correct":true,"confidence":1},{"trial_n":127,"min":89,"max":166,"target":"absent","response":"present","rt":529,"correct":false,"confidence":1},{"trial_n":128,"min":88,"max":167,"target":"absent","response":"absent","rt":770,"correct":true,"confidence":1},{"trial_n":129,"min":88,"max":167,"target":"present","response":"absent","rt":477,"correct":false,"confidence":1},{"trial_n":130,"min":87,"max":168,"target":"absent","response":"present","rt":620,"correct":false,"confidence":1},{"trial_n":131,"min":86,"max":169,"target":"absent","response":"present","rt":549,"correct":false,"confidence":1},{"trial_n":132,"min":85,"max":170,"target":"absent","response":"present","rt":507.00000000012,"correct":false,"confidence":1},{"trial_n":133,"min":84,"max":171,"target":"absent","response":"present","rt":1199.9999999999,"correct":false,"confidence":1},{"trial_n":134,"min":83,"max":172,"target":"present","response":"absent","rt":755,"correct":false,"confidence":1},{"trial_n":135,"min":82,"max":173,"target":"absent","response":"absent","rt":401.00000000012,"correct":true,"confidence":1},{"trial_n":136,"min":82,"max":173,"target":"absent","response":"present","rt":446.00000000012,"correct":false,"confidence":1},{"trial_n":137,"min":81,"max":174,"target":"present","response":"absent","rt":973,"correct":false,"confidence":1},{"trial_n":138,"min":80,"max":175,"target":"present","response":"absent","rt":763,"correct":false,"confidence":1},{"trial_n":139,"min":79,"max":176,"target":"absent","response":"present","rt":555,"correct":false,"confidence":1},{"trial_n":140,"min":78,"max":177,"target":"absent","response":"present","rt":802,"correct":false,"confidence":1}]