[{"trial_n":1,"n_dots":4.25,"target":"left","response":"left","rt":3367,"correct":true,"confidence":-1},{"trial_n":2,"n_dots":4.25,"target":"right","response":"right","rt":855,"correct":true,"confidence":-1},{"trial_n":3,"n_dots":3.85,"target":"left","response":"left","rt":706,"correct":true,"confidence":-1},{"trial_n":4,"n_dots":3.85,"target":"right","response":"right","rt":548,"correct":true,"confidence":-1},{"trial_n":5,"n_dots":3.45,"target":"left","response":"left","rt":374,"correct":true,"confidence":-1},{"trial_n":6,"n_dots":3.45,"target":"right","response":"right","rt":745,"correct":true,"confidence":-1},{"trial_n":7,"n_dots":3.05,"target":"right","response":"right","rt":457,"correct":true,"confidence":-1},{"trial_n":8,"n_dots":3.05,"target":"right","response":"left","rt":1396,"correct":false,"confidence":-1},{"trial_n":9,"n_dots":3.25,"target":"right","response":"right","rt":602,"correct":true,"confidence":-1},{"trial_n":10,"n_dots":3.25,"target":"left","response":"left","rt":540,"correct":true,"confidence":-1},{"trial_n":11,"n_dots":3.05,"target":"right","response":"right","rt":806,"correct":true,"confidence":-1},{"trial_n":12,"n_dots":3.05,"target":"right","response":"right","rt":611,"correct":true,"confidence":-1},{"trial_n":13,"n_dots":2.95,"target":"left","response":"left","rt":554,"correct":true,"confidence":-1},{"trial_n":14,"n_dots":2.95,"target":"right","response":"left","rt":429,"correct":false,"confidence":-1},{"trial_n":15,"n_dots":3.05,"target":"left","response":"left","rt":468,"correct":true,"confidence":-1},{"trial_n":16,"n_dots":3.05,"target":"left","response":"left","rt":610,"correct":true,"confidence":-1},{"trial_n":17,"n_dots":2.95,"target":"right","response":"right","rt":698,"correct":true,"confidence":-1},{"trial_n":18,"n_dots":2.95,"target":"right","response":"left","rt":797,"correct":false,"confidence":-1},{"trial_n":19,"n_dots":3.05,"target":"left","response":"left","rt":552,"correct":true,"confidence":-1},{"trial_n":20,"n_dots":3.05,"target":"right","response":"right","rt":669,"correct":true,"confidence":-1},{"trial_n":21,"n_dots":2.95,"target":"left","response":"left","rt":757,"correct":true,"confidence":2},{"trial_n":22,"n_dots":2.95,"target":"right","response":"right","rt":627,"correct":true,"confidence":2},{"trial_n":23,"n_dots":2.85,"target":"left","response":"right","rt":621,"correct":false,"confidence":2},{"trial_n":24,"n_dots":2.95,"target":"right","response":"right","rt":312,"correct":true,"confidence":3},{"trial_n":25,"n_dots":2.95,"target":"right","response":"right","rt":426,"correct":true,"confidence":3},{"trial_n":26,"n_dots":2.85,"target":"right","response":"right","rt":386,"correct":true,"confidence":2},{"trial_n":27,"n_dots":2.85,"target":"left","response":"right","rt":507,"correct":false,"confidence":2},{"trial_n":28,"n_dots":2.95,"target":"left","response":"left","rt":407,"correct":true,"confidence":3},{"trial_n":29,"n_dots":2.95,"target":"right","response":"right","rt":538,"correct":true,"confidence":3},{"trial_n":30,"n_dots":2.85,"target":"left","response":"left","rt":625,"correct":true,"confidence":2},{"trial_n":31,"n_dots":2.85,"target":"left","response":"left","rt":487,"correct":true,"confidence":3},{"trial_n":32,"n_dots":2.75,"target":"right","response":"left","rt":728,"correct":false,"confidence":3},{"trial_n":33,"n_dots":2.85,"target":"left","response":"left","rt":855,"correct":true,"confidence":2},{"trial_n":34,"n_dots":2.85,"target":"right","response":"right","rt":472,"correct":true,"confidence":2},{"trial_n":35,"n_dots":2.75,"target":"right","response":"right","rt":464,"correct":true,"confidence":2},{"trial_n":36,"n_dots":2.75,"target":"right","response":"right","rt":386,"correct":true,"confidence":2},{"trial_n":37,"n_dots":2.65,"target":"right","response":"left","rt":618,"correct":false,"confidence":3},{"trial_n":38,"n_dots":2.75,"target":"left","response":"right","rt":414,"correct":false,"confidence":3},{"trial_n":39,"n_dots":2.85,"target":"left","response":"left","rt":476,"correct":true,"confidence":2},{"trial_n":40,"n_dots":2.85,"target":"left","response":"left","rt":2336,"correct":true,"confidence":2},{"trial_n":41,"n_dots":2.75,"target":"left","response":"left","rt":1193,"correct":true,"confidence":2},{"trial_n":42,"n_dots":2.75,"target":"right","response":"right","rt":553,"correct":true,"confidence":3},{"trial_n":43,"n_dots":2.65,"target":"right","response":"right","rt":741,"correct":true,"confidence":3},{"trial_n":44,"n_dots":2.65,"target":"right","response":"right","rt":856,"correct":true,"confidence":2},{"trial_n":45,"n_dots":2.55,"target":"right","response":"right","rt":665,"correct":true,"confidence":3},{"trial_n":46,"n_dots":2.55,"target":"left","response":"right","rt":978,"correct":false,"confidence":2},{"trial_n":47,"n_dots":2.65,"target":"left","response":"left","rt":762,"correct":true,"confidence":3},{"trial_n":48,"n_dots":2.65,"target":"left","response":"left","rt":1962,"correct":true,"confidence":2},{"trial_n":49,"n_dots":2.55,"target":"left","response":"left","rt":650,"correct":true,"confidence":2},{"trial_n":50,"n_dots":2.55,"target":"left","response":"left","rt":695,"correct":true,"confidence":2},{"trial_n":51,"n_dots":2.45,"target":"right","response":"right","rt":1000,"correct":true,"confidence":2},{"trial_n":52,"n_dots":2.45,"target":"left","response":"left","rt":377,"correct":true,"confidence":3},{"trial_n":53,"n_dots":2.35,"target":"right","response":"left","rt":980,"correct":false,"confidence":2},{"trial_n":54,"n_dots":2.45,"target":"left","response":"left","rt":545,"correct":true,"confidence":3},{"trial_n":55,"n_dots":2.45,"target":"left","response":"left","rt":459,"correct":true,"confidence":3},{"trial_n":56,"n_dots":2.35,"target":"left","response":"left","rt":480,"correct":true,"confidence":3},{"trial_n":57,"n_dots":2.35,"target":"left","response":"left","rt":672,"correct":true,"confidence":3},{"trial_n":58,"n_dots":2.25,"target":"left","response":"right","rt":1099,"correct":false,"confidence":2},{"trial_n":59,"n_dots":2.35,"target":"left","response":"left","rt":520,"correct":true,"confidence":2},{"trial_n":60,"n_dots":2.35,"target":"right","response":"left","rt":476,"correct":false,"confidence":2},{"trial_n":61,"n_dots":2.45,"target":"right","response":"right","rt":542,"correct":true,"confidence":1},{"trial_n":62,"n_dots":2.45,"target":"right","response":"left","rt":722,"correct":false,"confidence":2},{"trial_n":63,"n_dots":2.55,"target":"right","response":"left","rt":627,"correct":false,"confidence":2},{"trial_n":64,"n_dots":2.65,"target":"left","response":"left","rt":297,"correct":true,"confidence":2},{"trial_n":65,"n_dots":2.65,"target":"left","response":"left","rt":451,"correct":true,"confidence":2},{"trial_n":66,"n_dots":2.55,"target":"right","response":"left","rt":297,"correct":false,"confidence":2},{"trial_n":67,"n_dots":2.65,"target":"left","response":"left","rt":283,"correct":true,"confidence":2},{"trial_n":68,"n_dots":2.65,"target":"right","response":"left","rt":1009,"correct":false,"confidence":2},{"trial_n":69,"n_dots":2.75,"target":"right","response":"right","rt":755,"correct":true,"confidence":2},{"trial_n":70,"n_dots":2.75,"target":"right","response":"right","rt":1217,"correct":true,"confidence":2},{"trial_n":71,"n_dots":2.65,"target":"left","response":"right","rt":1001,"correct":false,"confidence":2},{"trial_n":72,"n_dots":2.75,"target":"right","response":"left","rt":1114,"correct":false,"confidence":2},{"trial_n":73,"n_dots":2.85,"target":"left","response":"right","rt":2680,"correct":false,"confidence":2},{"trial_n":74,"n_dots":2.95,"target":"left","response":"left","rt":600,"correct":true,"confidence":2},{"trial_n":75,"n_dots":2.95,"target":"left","response":"left","rt":538,"correct":true,"confidence":2},{"trial_n":76,"n_dots":2.85,"target":"left","response":"left","rt":633,"correct":true,"confidence":2},{"trial_n":77,"n_dots":2.85,"target":"left","response":"left","rt":224,"correct":true,"confidence":2},{"trial_n":78,"n_dots":2.75,"target":"right","response":"right","rt":666,"correct":true,"confidence":2},{"trial_n":79,"n_dots":2.75,"target":"left","response":"left","rt":457,"correct":true,"confidence":3},{"trial_n":80,"n_dots":2.65,"target":"right","response":"right","rt":637,"correct":true,"confidence":2},{"trial_n":81,"n_dots":2.65,"target":"right","response":"right","rt":457,"correct":true,"confidence":2},{"trial_n":82,"n_dots":2.55,"target":"left","response":"left","rt":617,"correct":true,"confidence":2},{"trial_n":83,"n_dots":2.55,"target":"left","response":"right","rt":768,"correct":false,"confidence":2},{"trial_n":84,"n_dots":2.65,"target":"left","response":"left","rt":718,"correct":true,"confidence":2},{"trial_n":85,"n_dots":2.65,"target":"left","response":"left","rt":506,"correct":true,"confidence":2},{"trial_n":86,"n_dots":2.55,"target":"right","response":"left","rt":616,"correct":false,"confidence":2},{"trial_n":87,"n_dots":2.65,"target":"right","response":"left","rt":501,"correct":false,"confidence":2},{"trial_n":88,"n_dots":2.75,"target":"left","response":"left","rt":552,"correct":true,"confidence":2},{"trial_n":89,"n_dots":2.75,"target":"left","response":"right","rt":428,"correct":false,"confidence":2},{"trial_n":90,"n_dots":2.85,"target":"right","response":"left","rt":944,"correct":false,"confidence":2},{"trial_n":91,"n_dots":2.95,"target":"right","response":"right","rt":486,"correct":true,"confidence":2},{"trial_n":92,"n_dots":2.95,"target":"left","response":"left","rt":440,"correct":true,"confidence":2},{"trial_n":93,"n_dots":2.85,"target":"right","response":"left","rt":768,"correct":false,"confidence":2},{"trial_n":94,"n_dots":2.95,"target":"right","response":"left","rt":903,"correct":false,"confidence":2},{"trial_n":95,"n_dots":3.05,"target":"left","response":"left","rt":580,"correct":true,"confidence":2},{"trial_n":96,"n_dots":3.05,"target":"left","response":"left","rt":331,"correct":true,"confidence":2},{"trial_n":97,"n_dots":2.95,"target":"right","response":"right","rt":555,"correct":true,"confidence":2},{"trial_n":98,"n_dots":2.95,"target":"right","response":"right","rt":613,"correct":true,"confidence":2},{"trial_n":99,"n_dots":2.85,"target":"left","response":"left","rt":359,"correct":true,"confidence":3},{"trial_n":100,"n_dots":2.85,"target":"left","response":"left","rt":537,"correct":true,"confidence":2},{"trial_n":101,"n_dots":2.75,"target":"right","response":"right","rt":574,"correct":true,"confidence":2},{"trial_n":102,"n_dots":2.75,"target":"right","response":"right","rt":351,"correct":true,"confidence":2},{"trial_n":103,"n_dots":2.65,"target":"right","response":"right","rt":416,"correct":true,"confidence":2},{"trial_n":104,"n_dots":2.65,"target":"right","response":"left","rt":475,"correct":false,"confidence":2},{"trial_n":105,"n_dots":2.75,"target":"left","response":"left","rt":428,"correct":true,"confidence":2},{"trial_n":106,"n_dots":2.75,"target":"right","response":"right","rt":618,"correct":true,"confidence":2},{"trial_n":107,"n_dots":2.65,"target":"left","response":"right","rt":980,"correct":false,"confidence":2},{"trial_n":108,"n_dots":2.75,"target":"right","response":"left","rt":375,"correct":false,"confidence":2},{"trial_n":109,"n_dots":2.85,"target":"left","response":"left","rt":203,"correct":true,"confidence":3},{"trial_n":110,"n_dots":2.85,"target":"right","response":"left","rt":379,"correct":false,"confidence":2},{"trial_n":111,"n_dots":2.95,"target":"right","response":"left","rt":669,"correct":false,"confidence":2},{"trial_n":112,"n_dots":3.05,"target":"left","response":"left","rt":422,"correct":true,"confidence":2},{"trial_n":113,"n_dots":3.05,"target":"right","response":"right","rt":728,"correct":true,"confidence":3},{"trial_n":114,"n_dots":2.95,"target":"right","response":"right","rt":381,"correct":true,"confidence":3},{"trial_n":115,"n_dots":2.95,"target":"left","response":"left","rt":208,"correct":true,"confidence":2},{"trial_n":116,"n_dots":2.85,"target":"left","response":"right","rt":367,"correct":false,"confidence":3},{"trial_n":117,"n_dots":2.95,"target":"left","response":"left","rt":341,"correct":true,"confidence":2},{"trial_n":118,"n_dots":2.95,"target":"right","response":"right","rt":561,"correct":true,"confidence":3},{"trial_n":119,"n_dots":2.85,"target":"right","response":"left","rt":992,"correct":false,"confidence":2},{"trial_n":120,"n_dots":2.95,"target":"left","response":"left","rt":430,"correct":true,"confidence":2}]