[{"trial_n":1,"span":8,"encoder":"07360640","distractor":"07330640","target":"present","response":"present","rt":"2201659","correct":true,"confidence":-1},{"trial_n":2,"span":8,"encoder":"33490463","distractor":"33490443","target":"present","response":"present","rt":"2262","correct":true,"confidence":-1},{"trial_n":3,"span":10,"encoder":"1381892663","distractor":"1381842663","target":"absent","response":"absent","rt":"1980","correct":true,"confidence":-1},{"trial_n":4,"span":10,"encoder":"0161337208","distractor":"0161337708","target":"absent","response":"absent","rt":"4690","correct":true,"confidence":-1},{"trial_n":5,"span":12,"encoder":"321054149458","distractor":"321054149478","target":"present","response":"present","rt":"2225","correct":true,"confidence":-1},{"trial_n":6,"span":12,"encoder":"815354424816","distractor":"815354494816","target":"present","response":"present","rt":"2623","correct":true,"confidence":-1},{"trial_n":7,"span":14,"encoder":"52466905823409","distractor":"52466905823406","target":"present","response":"present","rt":"1947","correct":true,"confidence":-1},{"trial_n":8,"span":14,"encoder":"60104965965473","distractor":"63104965965473","target":"absent","response":"absent","rt":"5404","correct":true,"confidence":-1},{"trial_n":9,"span":16,"encoder":"1675946786524421","distractor":"1645946786524421","target":"present","response":"present","rt":"4320","correct":true,"confidence":-1},{"trial_n":10,"span":16,"encoder":"4835832888059303","distractor":"4835832848059303","target":"present","response":"absent","rt":"5783","correct":false,"confidence":-1},{"trial_n":11,"span":14,"encoder":"42511183085313","distractor":"42511180085313","target":"absent","response":"present","rt":"2267","correct":false,"confidence":-1},{"trial_n":12,"span":13,"encoder":"2748404055453","distractor":"2768404055453","target":"absent","response":"present","rt":"9346","correct":false,"confidence":-1},{"trial_n":13,"span":12,"encoder":"046556382405","distractor":"046556382305","target":"present","response":"present","rt":"2967","correct":true,"confidence":-1},{"trial_n":14,"span":12,"encoder":"782069563373","distractor":"782069569373","target":"absent","response":"absent","rt":"2398","correct":true,"confidence":-1},{"trial_n":15,"span":13,"encoder":"9337711480554","distractor":"9337711480454","target":"absent","response":"present","rt":"2363","correct":false,"confidence":-1},{"trial_n":16,"span":12,"encoder":"088313700962","distractor":"088313700965","target":"present","response":"present","rt":"2110","correct":true,"confidence":-1},{"trial_n":17,"span":12,"encoder":"497084874108","distractor":"497084674108","target":"absent","response":"absent","rt":"2217","correct":true,"confidence":-1},{"trial_n":18,"span":13,"encoder":"1979936312356","distractor":"1979936412356","target":"absent","response":"present","rt":"3228","correct":false,"confidence":-1},{"trial_n":19,"span":12,"encoder":"332095001802","distractor":"332099001802","target":"present","response":"present","rt":"3001","correct":true,"confidence":-1},{"trial_n":20,"span":12,"encoder":"616878566985","distractor":"616878566885","target":"present","response":"present","rt":"4797","correct":true,"confidence":-1},{"trial_n":21,"span":13,"encoder":"2865268045101","distractor":"2865268045401","target":"present","response":"present","rt":"3129","correct":true,"confidence":3},{"trial_n":22,"span":13,"encoder":"9262800294618","distractor":"8262800294618","target":"present","response":"present","rt":"3765","correct":true,"confidence":3},{"trial_n":23,"span":14,"encoder":"61276252052390","distractor":"61216252052390","target":"present","response":"present","rt":"4508","correct":true,"confidence":3},{"trial_n":24,"span":14,"encoder":"95357019538923","distractor":"95357029538923","target":"absent","response":"absent","rt":"5925","correct":true,"confidence":1},{"trial_n":25,"span":15,"encoder":"836775770349584","distractor":"836775770349588","target":"present","response":"absent","rt":"3427","correct":false,"confidence":2},{"trial_n":26,"span":14,"encoder":"37725097552706","distractor":"37785097552706","target":"present","response":"present","rt":"4700","correct":true,"confidence":2},{"trial_n":27,"span":14,"encoder":"61181462952842","distractor":"61181462952822","target":"absent","response":"absent","rt":"8042","correct":true,"confidence":2},{"trial_n":28,"span":15,"encoder":"678242239281828","distractor":"674242239281828","target":"absent","response":"present","rt":"1764","correct":false,"confidence":2},{"trial_n":29,"span":14,"encoder":"35878141882038","distractor":"35878141881038","target":"absent","response":"present","rt":"2364","correct":false,"confidence":2},{"trial_n":30,"span":13,"encoder":"4508669260977","distractor":"4505669260977","target":"absent","response":"present","rt":"2025","correct":false,"confidence":2},{"trial_n":31,"span":12,"encoder":"320448841714","distractor":"320448841715","target":"absent","response":"present","rt":"1609","correct":false,"confidence":2},{"trial_n":32,"span":11,"encoder":"89659071111","distractor":"89679071111","target":"absent","response":"present","rt":"3872","correct":false,"confidence":3},{"trial_n":33,"span":10,"encoder":"8412087365","distractor":"8412587365","target":"absent","response":"present","rt":"4035","correct":false,"confidence":2},{"trial_n":34,"span":9,"encoder":"374605707","distractor":"374005707","target":"absent","response":"present","rt":"1753","correct":false,"confidence":2},{"trial_n":35,"span":8,"encoder":"43616608","distractor":"43611608","target":"absent","response":"absent","rt":"5132","correct":true,"confidence":3},{"trial_n":36,"span":8,"encoder":"84711368","distractor":"84721368","target":"absent","response":"absent","rt":"2633","correct":true,"confidence":4},{"trial_n":37,"span":9,"encoder":"861311234","distractor":"961311234","target":"absent","response":"present","rt":"3787","correct":false,"confidence":3},{"trial_n":38,"span":8,"encoder":"24415654","distractor":"24415652","target":"absent","response":"absent","rt":"2273","correct":true,"confidence":2},{"trial_n":39,"span":8,"encoder":"00682504","distractor":"00682904","target":"present","response":"present","rt":"1990","correct":true,"confidence":3},{"trial_n":40,"span":9,"encoder":"159192595","distractor":"159192545","target":"present","response":"present","rt":"2972","correct":true,"confidence":3},{"trial_n":41,"span":9,"encoder":"172948686","distractor":"072948686","target":"present","response":"present","rt":"4680","correct":true,"confidence":2},{"trial_n":42,"span":10,"encoder":"7158632575","distractor":"7158232575","target":"present","response":"present","rt":"7189","correct":true,"confidence":2},{"trial_n":43,"span":10,"encoder":"5953890565","distractor":"5953890555","target":"present","response":"absent","rt":"9213","correct":false,"confidence":2},{"trial_n":44,"span":9,"encoder":"355767084","distractor":"355768084","target":"present","response":"present","rt":"5130","correct":true,"confidence":1},{"trial_n":45,"span":9,"encoder":"871688846","distractor":"871688546","target":"present","response":"absent","rt":"2453","correct":false,"confidence":2},{"trial_n":46,"span":8,"encoder":"58244169","distractor":"58244166","target":"present","response":"present","rt":"2186","correct":true,"confidence":2},{"trial_n":47,"span":8,"encoder":"11182062","distractor":"91182062","target":"present","response":"present","rt":"2180","correct":true,"confidence":2},{"trial_n":48,"span":9,"encoder":"232366519","distractor":"232366513","target":"absent","response":"present","rt":"11668","correct":false,"confidence":3},{"trial_n":49,"span":8,"encoder":"05486991","distractor":"05486891","target":"absent","response":"absent","rt":"5301","correct":true,"confidence":2},{"trial_n":50,"span":8,"encoder":"04904320","distractor":"04904328","target":"absent","response":"absent","rt":"3947","correct":true,"confidence":4},{"trial_n":51,"span":9,"encoder":"130485794","distractor":"130481794","target":"present","response":"present","rt":"4814","correct":true,"confidence":2},{"trial_n":52,"span":9,"encoder":"582789810","distractor":"542789810","target":"absent","response":"present","rt":"3443","correct":false,"confidence":2},{"trial_n":53,"span":8,"encoder":"03546931","distractor":"03547931","target":"absent","response":"present","rt":"2049","correct":false,"confidence":3},{"trial_n":54,"span":7,"encoder":"3966100","distractor":"3966102","target":"present","response":"present","rt":"4895","correct":true,"confidence":4},{"trial_n":55,"span":7,"encoder":"1166990","distractor":"1566990","target":"absent","response":"absent","rt":"3181","correct":true,"confidence":4},{"trial_n":56,"span":8,"encoder":"62081192","distractor":"62051192","target":"present","response":"absent","rt":"3082","correct":false,"confidence":2},{"trial_n":57,"span":7,"encoder":"4752713","distractor":"4252713","target":"present","response":"absent","rt":"5744","correct":false,"confidence":3},{"trial_n":58,"span":6,"encoder":"774121","distractor":"774120","target":"present","response":"present","rt":"2456","correct":true,"confidence":4},{"trial_n":59,"span":6,"encoder":"533539","distractor":"533579","target":"absent","response":"absent","rt":"2403","correct":true,"confidence":4},{"trial_n":60,"span":7,"encoder":"1515465","distractor":"1515665","target":"absent","response":"absent","rt":"5549","correct":true,"confidence":4},{"trial_n":61,"span":7,"encoder":"1802514","distractor":"1702514","target":"absent","response":"absent","rt":"2577","correct":true,"confidence":4},{"trial_n":62,"span":8,"encoder":"21824529","distractor":"31824529","target":"absent","response":"absent","rt":"2502","correct":true,"confidence":3},{"trial_n":63,"span":8,"encoder":"99507473","distractor":"96507473","target":"absent","response":"absent","rt":"2229","correct":true,"confidence":3},{"trial_n":64,"span":9,"encoder":"027911392","distractor":"927911392","target":"present","response":"present","rt":"3267","correct":true,"confidence":3},{"trial_n":65,"span":9,"encoder":"906221468","distractor":"906223468","target":"absent","response":"present","rt":"4743","correct":false,"confidence":2},{"trial_n":66,"span":8,"encoder":"74109246","distractor":"74169246","target":"present","response":"present","rt":"2582","correct":true,"confidence":2},{"trial_n":67,"span":8,"encoder":"90314756","distractor":"90314752","target":"present","response":"present","rt":"4191","correct":true,"confidence":2},{"trial_n":68,"span":9,"encoder":"624767067","distractor":"624767066","target":"present","response":"present","rt":"3412","correct":true,"confidence":2},{"trial_n":69,"span":9,"encoder":"253537302","distractor":"253537702","target":"present","response":"absent","rt":"9189","correct":false,"confidence":1},{"trial_n":70,"span":8,"encoder":"52380146","distractor":"52980146","target":"present","response":"present","rt":"7367","correct":true,"confidence":3},{"trial_n":71,"span":8,"encoder":"92556344","distractor":"94556344","target":"present","response":"present","rt":"3432","correct":true,"confidence":-1},{"trial_n":72,"span":8,"encoder":"82636629","distractor":"82136629","target":"present","response":"present","rt":"2896","correct":true,"confidence":-1},{"trial_n":73,"span":9,"encoder":"671977484","distractor":"071977484","target":"absent","response":"absent","rt":"3615","correct":true,"confidence":-1},{"trial_n":74,"span":9,"encoder":"023026921","distractor":"023026925","target":"absent","response":"absent","rt":"5056","correct":true,"confidence":-1},{"trial_n":75,"span":10,"encoder":"4487569763","distractor":"4485569763","target":"present","response":"present","rt":"2855","correct":true,"confidence":-1},{"trial_n":76,"span":10,"encoder":"3944743652","distractor":"3944743682","target":"present","response":"present","rt":"3144","correct":true,"confidence":-1},{"trial_n":77,"span":11,"encoder":"66130534989","distractor":"66138534989","target":"present","response":"absent","rt":"7462","correct":false,"confidence":-1},{"trial_n":78,"span":10,"encoder":"2292219648","distractor":"2292219688","target":"absent","response":"absent","rt":"4901","correct":true,"confidence":-1},{"trial_n":79,"span":10,"encoder":"5260145644","distractor":"5240145644","target":"absent","response":"absent","rt":"6379","correct":true,"confidence":-1},{"trial_n":80,"span":11,"encoder":"17480906159","distractor":"17680906159","target":"absent","response":"present","rt":"6198","correct":false,"confidence":-1},{"trial_n":81,"span":10,"encoder":"8617146541","distractor":"9617146541","target":"present","response":"present","rt":"14942","correct":true,"confidence":-1},{"trial_n":82,"span":10,"encoder":"6399145387","distractor":"6397145387","target":"present","response":"absent","rt":"1187","correct":false,"confidence":-1},{"trial_n":83,"span":9,"encoder":"858697149","distractor":"558697149","target":"present","response":"present","rt":"4974","correct":true,"confidence":-1},{"trial_n":84,"span":9,"encoder":"599074163","distractor":"599064163","target":"absent","response":"absent","rt":"7030","correct":true,"confidence":-1},{"trial_n":85,"span":10,"encoder":"0431980087","distractor":"0431680087","target":"absent","response":"present","rt":"5979","correct":false,"confidence":-1},{"trial_n":86,"span":9,"encoder":"743650257","distractor":"743650457","target":"present","response":"present","rt":"10649","correct":true,"confidence":-1},{"trial_n":87,"span":9,"encoder":"981813973","distractor":"981814973","target":"present","response":"absent","rt":"11327","correct":false,"confidence":-1},{"trial_n":88,"span":8,"encoder":"86189563","distractor":"86189567","target":"absent","response":"present","rt":"17583","correct":false,"confidence":-1},{"trial_n":89,"span":7,"encoder":"9695015","distractor":"9697015","target":"absent","response":"absent","rt":"2510","correct":true,"confidence":-1},{"trial_n":90,"span":7,"encoder":"3273219","distractor":"3276219","target":"absent","response":"absent","rt":"2008","correct":true,"confidence":-1},{"trial_n":91,"span":8,"encoder":"95299742","distractor":"93299742","target":"absent","response":"absent","rt":"9390","correct":true,"confidence":2},{"trial_n":92,"span":8,"encoder":"49974434","distractor":"49974734","target":"absent","response":"absent","rt":"4086","correct":true,"confidence":4},{"trial_n":93,"span":9,"encoder":"069130690","distractor":"069130698","target":"absent","response":"absent","rt":"4808","correct":true,"confidence":3},{"trial_n":94,"span":9,"encoder":"967318747","distractor":"967388747","target":"present","response":"present","rt":"6179","correct":true,"confidence":2},{"trial_n":95,"span":10,"encoder":"2129549210","distractor":"2129549610","target":"absent","response":"present","rt":"10341","correct":false,"confidence":2},{"trial_n":96,"span":9,"encoder":"351613340","distractor":"371613340","target":"present","response":"present","rt":"6073","correct":true,"confidence":3},{"trial_n":97,"span":9,"encoder":"272149070","distractor":"272149060","target":"present","response":"present","rt":"3037","correct":true,"confidence":4},{"trial_n":98,"span":10,"encoder":"5673867444","distractor":"5673867454","target":"present","response":"present","rt":"3885","correct":true,"confidence":4},{"trial_n":99,"span":10,"encoder":"4172567724","distractor":"4172567524","target":"absent","response":"absent","rt":"2977","correct":true,"confidence":4},{"trial_n":100,"span":11,"encoder":"24609663667","distractor":"24609653667","target":"absent","response":"absent","rt":"5810","correct":true,"confidence":4},{"trial_n":101,"span":11,"encoder":"55424554486","distractor":"55424553486","target":"absent","response":"absent","rt":"5068","correct":true,"confidence":3},{"trial_n":102,"span":12,"encoder":"243837622088","distractor":"243837622080","target":"present","response":"present","rt":"2955","correct":true,"confidence":4},{"trial_n":103,"span":12,"encoder":"320995499237","distractor":"320995439237","target":"absent","response":"absent","rt":"4002","correct":true,"confidence":3},{"trial_n":104,"span":13,"encoder":"8736872843950","distractor":"8736872833950","target":"present","response":"absent","rt":"13666","correct":false,"confidence":3},{"trial_n":105,"span":12,"encoder":"034579865414","distractor":"034079865414","target":"absent","response":"absent","rt":"6561","correct":true,"confidence":4},{"trial_n":106,"span":12,"encoder":"528969833487","distractor":"528969873487","target":"present","response":"present","rt":"14978","correct":true,"confidence":3},{"trial_n":107,"span":13,"encoder":"7840499423526","distractor":"7840499623526","target":"absent","response":"absent","rt":"9168","correct":true,"confidence":2},{"trial_n":108,"span":13,"encoder":"0179168511870","distractor":"0178168511870","target":"present","response":"present","rt":"6632","correct":true,"confidence":2},{"trial_n":109,"span":14,"encoder":"59673358110350","distractor":"59673758110350","target":"absent","response":"absent","rt":"8672","correct":true,"confidence":3},{"trial_n":110,"span":14,"encoder":"84792117276043","distractor":"84792117274043","target":"present","response":"absent","rt":"9938","correct":false,"confidence":2},{"trial_n":111,"span":13,"encoder":"7815280637696","distractor":"7815285637696","target":"absent","response":"absent","rt":"10827","correct":true,"confidence":2},{"trial_n":112,"span":13,"encoder":"4174908808257","distractor":"4174908800257","target":"absent","response":"absent","rt":"7078","correct":true,"confidence":1},{"trial_n":113,"span":14,"encoder":"29537337145761","distractor":"29577337145761","target":"absent","response":"present","rt":"5745","correct":false,"confidence":1},{"trial_n":114,"span":13,"encoder":"4172977665135","distractor":"4372977665135","target":"absent","response":"absent","rt":"6247","correct":true,"confidence":2},{"trial_n":115,"span":13,"encoder":"3481022828573","distractor":"3881022828573","target":"absent","response":"absent","rt":"5509","correct":true,"confidence":3},{"trial_n":116,"span":14,"encoder":"73080623125404","distractor":"13080623125404","target":"present","response":"present","rt":"5528","correct":true,"confidence":2},{"trial_n":117,"span":14,"encoder":"00683898621153","distractor":"00683898621183","target":"present","response":"absent","rt":"11359","correct":false,"confidence":2},{"trial_n":118,"span":13,"encoder":"2212163730744","distractor":"2212103730744","target":"absent","response":"present","rt":"11172","correct":false,"confidence":1},{"trial_n":119,"span":12,"encoder":"472459966416","distractor":"472459966436","target":"present","response":"present","rt":"3655","correct":true,"confidence":4},{"trial_n":120,"span":12,"encoder":"523820663041","distractor":"523820263041","target":"present","response":"absent","rt":"10085","correct":false,"confidence":1},{"trial_n":121,"span":11,"encoder":"65082736151","distractor":"65682736151","target":"present","response":"present","rt":"4565","correct":true,"confidence":3},{"trial_n":122,"span":11,"encoder":"75553157451","distractor":"75553157453","target":"present","response":"present","rt":"2545","correct":true,"confidence":4},{"trial_n":123,"span":12,"encoder":"960933034633","distractor":"960233034633","target":"present","response":"present","rt":"9029","correct":true,"confidence":2},{"trial_n":124,"span":12,"encoder":"420792371448","distractor":"420798371448","target":"present","response":"present","rt":"8703","correct":true,"confidence":3},{"trial_n":125,"span":13,"encoder":"7539347975003","distractor":"7539347975503","target":"present","response":"present","rt":"3122","correct":true,"confidence":4},{"trial_n":126,"span":13,"encoder":"6856765010994","distractor":"6856765710994","target":"absent","response":"present","rt":"8399","correct":false,"confidence":2},{"trial_n":127,"span":12,"encoder":"679885041437","distractor":"679885041487","target":"absent","response":"absent","rt":"2568","correct":true,"confidence":3},{"trial_n":128,"span":12,"encoder":"430976032075","distractor":"430976032077","target":"absent","response":"present","rt":"3319","correct":false,"confidence":3},{"trial_n":129,"span":11,"encoder":"46900096107","distractor":"46906096107","target":"present","response":"present","rt":"4800","correct":true,"confidence":4},{"trial_n":130,"span":11,"encoder":"36173519422","distractor":"36153519422","target":"absent","response":"absent","rt":"4156","correct":true,"confidence":2},{"trial_n":131,"span":12,"encoder":"230571787801","distractor":"230571789801","target":"present","response":"present","rt":"5241","correct":true,"confidence":3},{"trial_n":132,"span":12,"encoder":"359930095093","distractor":"359930095090","target":"present","response":"present","rt":"2198","correct":true,"confidence":3},{"trial_n":133,"span":13,"encoder":"4001471122791","distractor":"0001471122791","target":"present","response":"present","rt":"8691","correct":true,"confidence":2},{"trial_n":134,"span":13,"encoder":"3174993219267","distractor":"3174933219267","target":"present","response":"present","rt":"12715","correct":true,"confidence":1},{"trial_n":135,"span":14,"encoder":"24845388733847","distractor":"24845388733547","target":"absent","response":"absent","rt":"18415","correct":true,"confidence":3},{"trial_n":136,"span":14,"encoder":"21284719721262","distractor":"21284719721062","target":"absent","response":"absent","rt":"3242","correct":true,"confidence":3},{"trial_n":137,"span":15,"encoder":"620062998020772","distractor":"620062998026772","target":"present","response":"present","rt":"8503","correct":true,"confidence":2},{"trial_n":138,"span":15,"encoder":"886098140423056","distractor":"856098140423056","target":"present","response":"present","rt":"7211","correct":true,"confidence":3},{"trial_n":139,"span":16,"encoder":"1748308504364050","distractor":"1748308704364050","target":"present","response":"present","rt":"14423","correct":true,"confidence":2},{"trial_n":140,"span":16,"encoder":"4166619566259756","distractor":"4166619966259756","target":"absent","response":"absent","rt":"15885","correct":true,"confidence":2}]