[{"trial_n":1,"min":25,"max":230,"target":"present","response":"absent","rt":8824.5,"correct":false,"confidence":-1},{"trial_n":2,"min":25,"max":230,"target":"present","response":"present","rt":1450.0999999046,"correct":true,"confidence":-1},{"trial_n":3,"min":25,"max":230,"target":"absent","response":"absent","rt":3288.8999998569,"correct":true,"confidence":-1},{"trial_n":4,"min":41,"max":214,"target":"absent","response":"absent","rt":1042.5,"correct":true,"confidence":-1},{"trial_n":5,"min":41,"max":214,"target":"present","response":"present","rt":1074.5,"correct":true,"confidence":-1},{"trial_n":6,"min":57,"max":198,"target":"present","response":"present","rt":760.20000004768,"correct":true,"confidence":-1},{"trial_n":7,"min":57,"max":198,"target":"absent","response":"absent","rt":620.5,"correct":true,"confidence":-1},{"trial_n":8,"min":73,"max":182,"target":"present","response":"absent","rt":801.29999995232,"correct":false,"confidence":-1},{"trial_n":9,"min":57,"max":198,"target":"absent","response":"absent","rt":762.40000009537,"correct":true,"confidence":-1},{"trial_n":10,"min":57,"max":198,"target":"present","response":"present","rt":753.20000004768,"correct":true,"confidence":-1},{"trial_n":11,"min":65,"max":190,"target":"absent","response":"present","rt":749,"correct":false,"confidence":-1},{"trial_n":12,"min":57,"max":198,"target":"absent","response":"absent","rt":795.80000019073,"correct":true,"confidence":-1},{"trial_n":13,"min":57,"max":198,"target":"absent","response":"absent","rt":781.59999990463,"correct":true,"confidence":-1},{"trial_n":14,"min":65,"max":190,"target":"present","response":"present","rt":35752.600000143,"correct":true,"confidence":-1},{"trial_n":15,"min":65,"max":190,"target":"present","response":"present","rt":2015.2999999523,"correct":true,"confidence":-1},{"trial_n":16,"min":73,"max":182,"target":"absent","response":"absent","rt":911.09999990463,"correct":true,"confidence":-1},{"trial_n":17,"min":73,"max":182,"target":"present","response":"present","rt":815.90000009537,"correct":true,"confidence":-1},{"trial_n":18,"min":81,"max":174,"target":"present","response":"present","rt":1033.2999999523,"correct":true,"confidence":-1},{"trial_n":19,"min":81,"max":174,"target":"absent","response":"absent","rt":4285.9000000954,"correct":true,"confidence":-1},{"trial_n":20,"min":89,"max":166,"target":"absent","response":"absent","rt":898.5,"correct":true,"confidence":-1},{"trial_n":21,"min":89,"max":166,"target":"absent","response":"absent","rt":1031.7000000477,"correct":true,"confidence":4},{"trial_n":22,"min":93,"max":162,"target":"present","response":"absent","rt":985.40000009537,"correct":false,"confidence":3},{"trial_n":23,"min":89,"max":166,"target":"present","response":"present","rt":977.79999995232,"correct":true,"confidence":4},{"trial_n":24,"min":89,"max":166,"target":"absent","response":"absent","rt":1229.5,"correct":true,"confidence":3},{"trial_n":25,"min":93,"max":162,"target":"present","response":"present","rt":1191,"correct":true,"confidence":3},{"trial_n":26,"min":93,"max":162,"target":"absent","response":"absent","rt":794.09999990463,"correct":true,"confidence":5},{"trial_n":27,"min":97,"max":158,"target":"absent","response":"absent","rt":722.70000004768,"correct":true,"confidence":4},{"trial_n":28,"min":97,"max":158,"target":"present","response":"present","rt":1396.5,"correct":true,"confidence":2},{"trial_n":29,"min":101,"max":154,"target":"absent","response":"present","rt":1282.3999998569,"correct":false,"confidence":2},{"trial_n":30,"min":97,"max":158,"target":"absent","response":"absent","rt":5146.3999998569,"correct":true,"confidence":1},{"trial_n":31,"min":97,"max":158,"target":"present","response":"absent","rt":703.40000009537,"correct":false,"confidence":2},{"trial_n":32,"min":95,"max":160,"target":"absent","response":"absent","rt":724.80000019073,"correct":true,"confidence":2},{"trial_n":33,"min":95,"max":160,"target":"present","response":"present","rt":613.20000004768,"correct":true,"confidence":3},{"trial_n":34,"min":97,"max":158,"target":"absent","response":"absent","rt":1298.5,"correct":true,"confidence":2},{"trial_n":35,"min":97,"max":158,"target":"absent","response":"present","rt":641,"correct":false,"confidence":2},{"trial_n":36,"min":95,"max":160,"target":"present","response":"absent","rt":1115.9000000954,"correct":false,"confidence":1},{"trial_n":37,"min":93,"max":162,"target":"present","response":"absent","rt":1244.2999999523,"correct":false,"confidence":1},{"trial_n":38,"min":91,"max":164,"target":"absent","response":"absent","rt":1244.7999999523,"correct":true,"confidence":1},{"trial_n":39,"min":91,"max":164,"target":"absent","response":"absent","rt":1817.3999998569,"correct":true,"confidence":1},{"trial_n":40,"min":93,"max":162,"target":"absent","response":"absent","rt":1288.9000000954,"correct":true,"confidence":2},{"trial_n":41,"min":93,"max":162,"target":"present","response":"present","rt":1146.0999999046,"correct":true,"confidence":1},{"trial_n":42,"min":94,"max":161,"target":"present","response":"present","rt":622,"correct":true,"confidence":3},{"trial_n":43,"min":94,"max":161,"target":"absent","response":"present","rt":625.79999995232,"correct":false,"confidence":3},{"trial_n":44,"min":93,"max":162,"target":"present","response":"present","rt":857.20000004768,"correct":true,"confidence":5},{"trial_n":45,"min":93,"max":162,"target":"present","response":"absent","rt":475.70000004768,"correct":false,"confidence":1},{"trial_n":46,"min":92,"max":163,"target":"present","response":"absent","rt":1325.4000000954,"correct":false,"confidence":1},{"trial_n":47,"min":91,"max":164,"target":"present","response":"absent","rt":791.90000009537,"correct":false,"confidence":1},{"trial_n":48,"min":90,"max":165,"target":"present","response":"absent","rt":999,"correct":false,"confidence":1},{"trial_n":49,"min":89,"max":166,"target":"present","response":"present","rt":602.79999995232,"correct":true,"confidence":3},{"trial_n":50,"min":89,"max":166,"target":"absent","response":"absent","rt":871.89999985695,"correct":true,"confidence":1},{"trial_n":51,"min":90,"max":165,"target":"present","response":"present","rt":669.60000014305,"correct":true,"confidence":3},{"trial_n":52,"min":90,"max":165,"target":"absent","response":"present","rt":761.09999990463,"correct":false,"confidence":1},{"trial_n":53,"min":89,"max":166,"target":"present","response":"present","rt":1957.5,"correct":true,"confidence":2},{"trial_n":54,"min":89,"max":166,"target":"absent","response":"present","rt":822,"correct":false,"confidence":2},{"trial_n":55,"min":88,"max":167,"target":"present","response":"present","rt":628.29999995232,"correct":true,"confidence":3},{"trial_n":56,"min":88,"max":167,"target":"absent","response":"absent","rt":625.29999995232,"correct":true,"confidence":1},{"trial_n":57,"min":89,"max":166,"target":"present","response":"absent","rt":496.5,"correct":false,"confidence":5},{"trial_n":58,"min":88,"max":167,"target":"absent","response":"absent","rt":522.79999995232,"correct":true,"confidence":3},{"trial_n":59,"min":88,"max":167,"target":"absent","response":"absent","rt":519.79999995232,"correct":true,"confidence":2},{"trial_n":60,"min":89,"max":166,"target":"absent","response":"present","rt":592.79999995232,"correct":false,"confidence":4},{"trial_n":61,"min":88,"max":167,"target":"present","response":"absent","rt":745,"correct":false,"confidence":1},{"trial_n":62,"min":87,"max":168,"target":"present","response":"absent","rt":544.5,"correct":false,"confidence":1},{"trial_n":63,"min":86,"max":169,"target":"absent","response":"present","rt":633,"correct":false,"confidence":3},{"trial_n":64,"min":85,"max":170,"target":"absent","response":"present","rt":665.90000009537,"correct":false,"confidence":2},{"trial_n":65,"min":84,"max":171,"target":"present","response":"present","rt":608.79999995232,"correct":true,"confidence":5},{"trial_n":66,"min":84,"max":171,"target":"absent","response":"present","rt":956.10000014305,"correct":false,"confidence":2},{"trial_n":67,"min":83,"max":172,"target":"present","response":"absent","rt":370,"correct":false,"confidence":1},{"trial_n":68,"min":82,"max":173,"target":"present","response":"present","rt":839.10000014305,"correct":true,"confidence":5},{"trial_n":69,"min":82,"max":173,"target":"present","response":"present","rt":1077.5,"correct":true,"confidence":3},{"trial_n":70,"min":83,"max":172,"target":"absent","response":"absent","rt":576.59999990463,"correct":true,"confidence":1},{"trial_n":71,"min":41,"max":214,"target":"present","response":"present","rt":8226.2999999523,"correct":true,"confidence":-1},{"trial_n":72,"min":41,"max":214,"target":"present","response":"present","rt":1100.2999999523,"correct":true,"confidence":-1},{"trial_n":73,"min":57,"max":198,"target":"absent","response":"absent","rt":922.5,"correct":true,"confidence":-1},{"trial_n":74,"min":57,"max":198,"target":"absent","response":"absent","rt":440.30000019073,"correct":true,"confidence":-1},{"trial_n":75,"min":73,"max":182,"target":"present","response":"present","rt":174.59999990463,"correct":true,"confidence":-1},{"trial_n":76,"min":73,"max":182,"target":"absent","response":"absent","rt":435.80000019073,"correct":true,"confidence":-1},{"trial_n":77,"min":89,"max":166,"target":"absent","response":"present","rt":988.30000019073,"correct":false,"confidence":-1},{"trial_n":78,"min":73,"max":182,"target":"present","response":"present","rt":366.19999980927,"correct":true,"confidence":-1},{"trial_n":79,"min":73,"max":182,"target":"absent","response":"absent","rt":333.20000004768,"correct":true,"confidence":-1},{"trial_n":80,"min":89,"max":166,"target":"present","response":"absent","rt":488.60000014305,"correct":false,"confidence":-1},{"trial_n":81,"min":81,"max":174,"target":"absent","response":"absent","rt":628.29999995232,"correct":true,"confidence":-1},{"trial_n":82,"min":81,"max":174,"target":"present","response":"absent","rt":316.69999980927,"correct":false,"confidence":-1},{"trial_n":83,"min":73,"max":182,"target":"present","response":"present","rt":253.79999995232,"correct":true,"confidence":-1},{"trial_n":84,"min":73,"max":182,"target":"present","response":"present","rt":217.60000014305,"correct":true,"confidence":-1},{"trial_n":85,"min":81,"max":174,"target":"absent","response":"absent","rt":420.70000004768,"correct":true,"confidence":-1},{"trial_n":86,"min":81,"max":174,"target":"present","response":"present","rt":502.40000009537,"correct":true,"confidence":-1},{"trial_n":87,"min":89,"max":166,"target":"present","response":"present","rt":1111.5,"correct":true,"confidence":-1},{"trial_n":88,"min":89,"max":166,"target":"absent","response":"absent","rt":461.60000014305,"correct":true,"confidence":-1},{"trial_n":89,"min":97,"max":158,"target":"present","response":"present","rt":508.20000004768,"correct":true,"confidence":-1},{"trial_n":90,"min":97,"max":158,"target":"present","response":"absent","rt":341.10000014305,"correct":false,"confidence":-1},{"trial_n":91,"min":93,"max":162,"target":"absent","response":"present","rt":533.5,"correct":false,"confidence":3},{"trial_n":92,"min":89,"max":166,"target":"absent","response":"present","rt":1108.2999999523,"correct":false,"confidence":1},{"trial_n":93,"min":85,"max":170,"target":"absent","response":"present","rt":1686.1999998093,"correct":false,"confidence":1},{"trial_n":94,"min":81,"max":174,"target":"absent","response":"absent","rt":1811.4000000954,"correct":true,"confidence":1},{"trial_n":95,"min":81,"max":174,"target":"absent","response":"present","rt":510.39999985695,"correct":false,"confidence":3},{"trial_n":96,"min":77,"max":178,"target":"present","response":"present","rt":146,"correct":true,"confidence":5},{"trial_n":97,"min":77,"max":178,"target":"absent","response":"absent","rt":673.20000004768,"correct":true,"confidence":4},{"trial_n":98,"min":81,"max":174,"target":"present","response":"present","rt":354.89999985695,"correct":true,"confidence":5},{"trial_n":99,"min":81,"max":174,"target":"absent","response":"absent","rt":737.40000009537,"correct":true,"confidence":3},{"trial_n":100,"min":85,"max":170,"target":"absent","response":"present","rt":559.79999995232,"correct":false,"confidence":1},{"trial_n":101,"min":83,"max":172,"target":"present","response":"present","rt":192.79999995232,"correct":true,"confidence":3},{"trial_n":102,"min":83,"max":172,"target":"absent","response":"absent","rt":664,"correct":true,"confidence":3},{"trial_n":103,"min":85,"max":170,"target":"present","response":"present","rt":412.70000004768,"correct":true,"confidence":5},{"trial_n":104,"min":85,"max":170,"target":"present","response":"present","rt":665.20000004768,"correct":true,"confidence":5},{"trial_n":105,"min":87,"max":168,"target":"present","response":"absent","rt":1513.7000000477,"correct":false,"confidence":5},{"trial_n":106,"min":85,"max":170,"target":"absent","response":"absent","rt":1842.8999998569,"correct":true,"confidence":3},{"trial_n":107,"min":85,"max":170,"target":"present","response":"present","rt":1423.5999999046,"correct":true,"confidence":1},{"trial_n":108,"min":87,"max":168,"target":"present","response":"present","rt":243.39999985695,"correct":true,"confidence":5},{"trial_n":109,"min":87,"max":168,"target":"absent","response":"absent","rt":548.29999995232,"correct":true,"confidence":2},{"trial_n":110,"min":89,"max":166,"target":"absent","response":"present","rt":1735.5999999046,"correct":false,"confidence":2},{"trial_n":111,"min":88,"max":167,"target":"absent","response":"absent","rt":450.09999990463,"correct":true,"confidence":3},{"trial_n":112,"min":88,"max":167,"target":"present","response":"present","rt":413.29999995232,"correct":true,"confidence":5},{"trial_n":113,"min":89,"max":166,"target":"present","response":"present","rt":530.20000004768,"correct":true,"confidence":5},{"trial_n":114,"min":89,"max":166,"target":"absent","response":"absent","rt":546.90000009537,"correct":true,"confidence":5},{"trial_n":115,"min":90,"max":165,"target":"absent","response":"present","rt":478.70000004768,"correct":false,"confidence":3},{"trial_n":116,"min":89,"max":166,"target":"absent","response":"absent","rt":480.5,"correct":true,"confidence":1},{"trial_n":117,"min":89,"max":166,"target":"absent","response":"absent","rt":981.29999995232,"correct":true,"confidence":1},{"trial_n":118,"min":90,"max":165,"target":"present","response":"absent","rt":1094.4000000954,"correct":false,"confidence":1},{"trial_n":119,"min":89,"max":166,"target":"present","response":"present","rt":191.70000004768,"correct":true,"confidence":4},{"trial_n":120,"min":89,"max":166,"target":"present","response":"present","rt":383.90000009537,"correct":true,"confidence":1},{"trial_n":121,"min":90,"max":165,"target":"absent","response":"present","rt":1209.1000001431,"correct":false,"confidence":2},{"trial_n":122,"min":89,"max":166,"target":"absent","response":"present","rt":722.59999990463,"correct":false,"confidence":1},{"trial_n":123,"min":88,"max":167,"target":"absent","response":"absent","rt":1800.1000001431,"correct":true,"confidence":1},{"trial_n":124,"min":88,"max":167,"target":"present","response":"present","rt":315.59999990463,"correct":true,"confidence":4},{"trial_n":125,"min":89,"max":166,"target":"present","response":"present","rt":378.09999990463,"correct":true,"confidence":4},{"trial_n":126,"min":89,"max":166,"target":"absent","response":"absent","rt":464.20000004768,"correct":true,"confidence":1},{"trial_n":127,"min":90,"max":165,"target":"absent","response":"absent","rt":234.59999990463,"correct":true,"confidence":5},{"trial_n":128,"min":90,"max":165,"target":"absent","response":"absent","rt":543.59999990463,"correct":true,"confidence":1},{"trial_n":129,"min":91,"max":164,"target":"present","response":"present","rt":1068.7000000477,"correct":true,"confidence":3},{"trial_n":130,"min":91,"max":164,"target":"present","response":"present","rt":433.59999990463,"correct":true,"confidence":2},{"trial_n":131,"min":92,"max":163,"target":"present","response":"present","rt":594.5,"correct":true,"confidence":3},{"trial_n":132,"min":92,"max":163,"target":"present","response":"present","rt":449.09999990463,"correct":true,"confidence":5},{"trial_n":133,"min":93,"max":162,"target":"present","response":"absent","rt":644.20000004768,"correct":false,"confidence":1},{"trial_n":134,"min":92,"max":163,"target":"present","response":"present","rt":939.30000019073,"correct":true,"confidence":2},{"trial_n":135,"min":92,"max":163,"target":"present","response":"present","rt":217.29999995232,"correct":true,"confidence":4},{"trial_n":136,"min":93,"max":162,"target":"present","response":"absent","rt":554.59999990463,"correct":false,"confidence":4},{"trial_n":137,"min":92,"max":163,"target":"present","response":"present","rt":287.40000009537,"correct":true,"confidence":5},{"trial_n":138,"min":92,"max":163,"target":"absent","response":"present","rt":253.20000004768,"correct":false,"confidence":1},{"trial_n":139,"min":91,"max":164,"target":"absent","response":"present","rt":419.29999995232,"correct":false,"confidence":1},{"trial_n":140,"min":90,"max":165,"target":"absent","response":"absent","rt":244.20000004768,"correct":true,"confidence":4}]