[{"trial_n":1,"n_dots":4.25,"target":"right","response":"left","rt":7797.6999999997,"correct":false,"confidence":-1},{"trial_n":2,"n_dots":4.25,"target":"left","response":"right","rt":731.60000000009,"correct":false,"confidence":-1},{"trial_n":3,"n_dots":4.65,"target":"right","response":"right","rt":616.79999999981,"correct":true,"confidence":-1},{"trial_n":4,"n_dots":4.65,"target":"right","response":"right","rt":451.10000000009,"correct":true,"confidence":-1},{"trial_n":5,"n_dots":4.25,"target":"left","response":"left","rt":380.90000000037,"correct":true,"confidence":-1},{"trial_n":6,"n_dots":4.25,"target":"right","response":"right","rt":476.39999999991,"correct":true,"confidence":-1},{"trial_n":7,"n_dots":3.85,"target":"right","response":"right","rt":580.70000000019,"correct":true,"confidence":-1},{"trial_n":8,"n_dots":3.85,"target":"left","response":"left","rt":548.89999999991,"correct":true,"confidence":-1},{"trial_n":9,"n_dots":3.65,"target":"left","response":"left","rt":1010,"correct":true,"confidence":-1},{"trial_n":10,"n_dots":3.65,"target":"right","response":"left","rt":481.60000000009,"correct":false,"confidence":-1},{"trial_n":11,"n_dots":3.85,"target":"left","response":"left","rt":510.60000000009,"correct":true,"confidence":-1},{"trial_n":12,"n_dots":3.85,"target":"left","response":"right","rt":552.10000000009,"correct":false,"confidence":-1},{"trial_n":13,"n_dots":3.95,"target":"left","response":"right","rt":1231.8999999999,"correct":false,"confidence":-1},{"trial_n":14,"n_dots":4.05,"target":"left","response":"left","rt":408.20000000019,"correct":true,"confidence":-1},{"trial_n":15,"n_dots":4.05,"target":"right","response":"right","rt":397.5,"correct":true,"confidence":-1},{"trial_n":16,"n_dots":3.95,"target":"left","response":"left","rt":1518.2999999998,"correct":true,"confidence":-1},{"trial_n":17,"n_dots":3.95,"target":"right","response":"right","rt":734.79999999981,"correct":true,"confidence":-1},{"trial_n":18,"n_dots":3.85,"target":"right","response":"right","rt":913.5,"correct":true,"confidence":-1},{"trial_n":19,"n_dots":3.85,"target":"left","response":"left","rt":1299.3999999999,"correct":true,"confidence":-1},{"trial_n":20,"n_dots":3.75,"target":"right","response":"left","rt":565.29999999981,"correct":false,"confidence":-1},{"trial_n":21,"n_dots":3.85,"target":"left","response":"left","rt":319.10000000009,"correct":true,"confidence":5},{"trial_n":22,"n_dots":3.85,"target":"left","response":"right","rt":696.39999999991,"correct":false,"confidence":5},{"trial_n":23,"n_dots":3.95,"target":"left","response":"left","rt":1161.1999999997,"correct":true,"confidence":3},{"trial_n":24,"n_dots":3.95,"target":"left","response":"right","rt":1499.5,"correct":false,"confidence":3},{"trial_n":25,"n_dots":4.05,"target":"right","response":"right","rt":1086.8000000003,"correct":true,"confidence":5},{"trial_n":26,"n_dots":4.05,"target":"left","response":"left","rt":1286,"correct":true,"confidence":5},{"trial_n":27,"n_dots":3.95,"target":"left","response":"right","rt":1724.3999999999,"correct":false,"confidence":5},{"trial_n":28,"n_dots":4.05,"target":"left","response":"left","rt":1065.7999999998,"correct":true,"confidence":5},{"trial_n":29,"n_dots":4.05,"target":"right","response":"right","rt":1073.3999999999,"correct":true,"confidence":1},{"trial_n":30,"n_dots":3.95,"target":"right","response":"right","rt":977.79999999981,"correct":true,"confidence":5},{"trial_n":31,"n_dots":3.95,"target":"right","response":"right","rt":1919.3999999999,"correct":true,"confidence":5},{"trial_n":32,"n_dots":3.85,"target":"right","response":"right","rt":1640,"correct":true,"confidence":5},{"trial_n":33,"n_dots":3.85,"target":"right","response":"right","rt":911,"correct":true,"confidence":5},{"trial_n":34,"n_dots":3.75,"target":"left","response":"right","rt":1186.2000000002,"correct":false,"confidence":5},{"trial_n":35,"n_dots":3.85,"target":"right","response":"right","rt":849.80000000028,"correct":true,"confidence":5},{"trial_n":36,"n_dots":3.85,"target":"left","response":"left","rt":768.30000000028,"correct":true,"confidence":5},{"trial_n":37,"n_dots":3.75,"target":"right","response":"right","rt":1193.5,"correct":true,"confidence":5},{"trial_n":38,"n_dots":3.75,"target":"right","response":"right","rt":1183.2000000002,"correct":true,"confidence":4},{"trial_n":39,"n_dots":3.65,"target":"left","response":"left","rt":1389.8999999999,"correct":true,"confidence":4},{"trial_n":40,"n_dots":3.65,"target":"left","response":"right","rt":1099.3000000003,"correct":false,"confidence":2},{"trial_n":41,"n_dots":3.75,"target":"left","response":"left","rt":492.30000000028,"correct":true,"confidence":5},{"trial_n":42,"n_dots":3.75,"target":"left","response":"left","rt":694.60000000009,"correct":true,"confidence":5},{"trial_n":43,"n_dots":3.65,"target":"left","response":"left","rt":658,"correct":true,"confidence":5},{"trial_n":44,"n_dots":3.65,"target":"left","response":"right","rt":1107.8000000003,"correct":false,"confidence":4},{"trial_n":45,"n_dots":3.75,"target":"left","response":"left","rt":1356.7000000002,"correct":true,"confidence":5},{"trial_n":46,"n_dots":3.75,"target":"left","response":"right","rt":1463.6000000001,"correct":false,"confidence":2},{"trial_n":47,"n_dots":3.85,"target":"left","response":"left","rt":1501,"correct":true,"confidence":2},{"trial_n":48,"n_dots":3.85,"target":"right","response":"right","rt":1116.6000000001,"correct":true,"confidence":5},{"trial_n":49,"n_dots":3.75,"target":"left","response":"left","rt":1379.8999999999,"correct":true,"confidence":3},{"trial_n":50,"n_dots":3.75,"target":"right","response":"right","rt":927.5,"correct":true,"confidence":5},{"trial_n":51,"n_dots":3.65,"target":"right","response":"right","rt":1523.6999999997,"correct":true,"confidence":4},{"trial_n":52,"n_dots":3.65,"target":"left","response":"left","rt":743.09999999963,"correct":true,"confidence":5},{"trial_n":53,"n_dots":3.55,"target":"left","response":"left","rt":756.69999999972,"correct":true,"confidence":5},{"trial_n":54,"n_dots":3.55,"target":"left","response":"right","rt":1577.5,"correct":false,"confidence":3},{"trial_n":55,"n_dots":3.65,"target":"right","response":"right","rt":909.19999999972,"correct":true,"confidence":4},{"trial_n":56,"n_dots":3.65,"target":"right","response":"right","rt":1402.0999999996,"correct":true,"confidence":4},{"trial_n":57,"n_dots":3.55,"target":"right","response":"left","rt":3634.1000000001,"correct":false,"confidence":1},{"trial_n":58,"n_dots":3.65,"target":"right","response":"right","rt":833.20000000019,"correct":true,"confidence":5},{"trial_n":59,"n_dots":3.65,"target":"right","response":"right","rt":1062.2999999998,"correct":true,"confidence":3},{"trial_n":60,"n_dots":3.55,"target":"left","response":"left","rt":3599.3999999999,"correct":true,"confidence":3},{"trial_n":61,"n_dots":3.55,"target":"right","response":"right","rt":399,"correct":true,"confidence":5},{"trial_n":62,"n_dots":3.45,"target":"right","response":"right","rt":822.19999999972,"correct":true,"confidence":5},{"trial_n":63,"n_dots":3.45,"target":"left","response":"left","rt":641.10000000009,"correct":true,"confidence":5},{"trial_n":64,"n_dots":3.35,"target":"right","response":"right","rt":906.70000000019,"correct":true,"confidence":5},{"trial_n":65,"n_dots":3.35,"target":"left","response":"left","rt":1431,"correct":true,"confidence":3},{"trial_n":66,"n_dots":3.25,"target":"left","response":"right","rt":1277.2000000002,"correct":false,"confidence":3},{"trial_n":67,"n_dots":3.35,"target":"left","response":"left","rt":1123.1000000001,"correct":true,"confidence":3},{"trial_n":68,"n_dots":3.35,"target":"right","response":"right","rt":473.80000000028,"correct":true,"confidence":5},{"trial_n":69,"n_dots":3.25,"target":"left","response":"right","rt":958,"correct":false,"confidence":4},{"trial_n":70,"n_dots":3.35,"target":"right","response":"right","rt":780,"correct":true,"confidence":4},{"trial_n":71,"n_dots":3.35,"target":"left","response":"left","rt":1614.6000000001,"correct":true,"confidence":4},{"trial_n":72,"n_dots":3.25,"target":"right","response":"right","rt":835.39999999991,"correct":true,"confidence":5},{"trial_n":73,"n_dots":3.25,"target":"right","response":"right","rt":536.30000000028,"correct":true,"confidence":4},{"trial_n":74,"n_dots":3.15,"target":"right","response":"right","rt":3128.6000000001,"correct":true,"confidence":1},{"trial_n":75,"n_dots":3.15,"target":"right","response":"left","rt":1265.3999999999,"correct":false,"confidence":3},{"trial_n":76,"n_dots":3.25,"target":"right","response":"right","rt":633.20000000019,"correct":true,"confidence":5},{"trial_n":77,"n_dots":3.25,"target":"right","response":"right","rt":511.60000000009,"correct":true,"confidence":5},{"trial_n":78,"n_dots":3.15,"target":"right","response":"right","rt":736.70000000019,"correct":true,"confidence":5},{"trial_n":79,"n_dots":3.15,"target":"right","response":"right","rt":2536,"correct":true,"confidence":3},{"trial_n":80,"n_dots":3.05,"target":"left","response":"left","rt":908.69999999972,"correct":true,"confidence":3},{"trial_n":81,"n_dots":3.05,"target":"right","response":"right","rt":1017.2999999998,"correct":true,"confidence":1},{"trial_n":82,"n_dots":2.95,"target":"left","response":"right","rt":879,"correct":false,"confidence":3},{"trial_n":83,"n_dots":3.05,"target":"left","response":"left","rt":966.10000000009,"correct":true,"confidence":4},{"trial_n":84,"n_dots":3.05,"target":"left","response":"left","rt":1374.1000000001,"correct":true,"confidence":4},{"trial_n":85,"n_dots":2.95,"target":"left","response":"right","rt":657.89999999991,"correct":false,"confidence":4},{"trial_n":86,"n_dots":3.05,"target":"left","response":"left","rt":959.60000000009,"correct":true,"confidence":4},{"trial_n":87,"n_dots":3.05,"target":"right","response":"right","rt":572.89999999991,"correct":true,"confidence":4},{"trial_n":88,"n_dots":2.95,"target":"right","response":"left","rt":1204.6000000001,"correct":false,"confidence":4},{"trial_n":89,"n_dots":3.05,"target":"left","response":"left","rt":3621.8999999999,"correct":true,"confidence":2},{"trial_n":90,"n_dots":3.05,"target":"right","response":"right","rt":516.89999999991,"correct":true,"confidence":5},{"trial_n":91,"n_dots":2.95,"target":"right","response":"right","rt":1732.1999999997,"correct":true,"confidence":3},{"trial_n":92,"n_dots":2.95,"target":"left","response":"right","rt":423.5,"correct":false,"confidence":3},{"trial_n":93,"n_dots":3.05,"target":"right","response":"right","rt":656.59999999963,"correct":true,"confidence":3},{"trial_n":94,"n_dots":3.05,"target":"right","response":"left","rt":651,"correct":false,"confidence":5},{"trial_n":95,"n_dots":3.15,"target":"right","response":"right","rt":783.29999999981,"correct":true,"confidence":4},{"trial_n":96,"n_dots":3.15,"target":"right","response":"right","rt":408.39999999991,"correct":true,"confidence":4},{"trial_n":97,"n_dots":3.05,"target":"left","response":"left","rt":2768.4000000004,"correct":true,"confidence":3},{"trial_n":98,"n_dots":3.05,"target":"left","response":"left","rt":538,"correct":true,"confidence":5},{"trial_n":99,"n_dots":2.95,"target":"left","response":"right","rt":676.5,"correct":false,"confidence":4},{"trial_n":100,"n_dots":3.05,"target":"right","response":"left","rt":798.39999999991,"correct":false,"confidence":3},{"trial_n":101,"n_dots":3.15,"target":"right","response":"left","rt":883.39999999991,"correct":false,"confidence":4},{"trial_n":102,"n_dots":3.25,"target":"left","response":"left","rt":900,"correct":true,"confidence":4},{"trial_n":103,"n_dots":3.25,"target":"left","response":"left","rt":765.10000000009,"correct":true,"confidence":4},{"trial_n":104,"n_dots":3.15,"target":"right","response":"right","rt":535.60000000009,"correct":true,"confidence":4},{"trial_n":105,"n_dots":3.15,"target":"right","response":"left","rt":1678.8000000003,"correct":false,"confidence":3},{"trial_n":106,"n_dots":3.25,"target":"left","response":"left","rt":442.79999999981,"correct":true,"confidence":4},{"trial_n":107,"n_dots":3.25,"target":"left","response":"left","rt":918.10000000009,"correct":true,"confidence":4},{"trial_n":108,"n_dots":3.15,"target":"right","response":"left","rt":1768.5,"correct":false,"confidence":4},{"trial_n":109,"n_dots":3.25,"target":"right","response":"left","rt":962.5,"correct":false,"confidence":4},{"trial_n":110,"n_dots":3.35,"target":"left","response":"left","rt":1077.5,"correct":true,"confidence":4},{"trial_n":111,"n_dots":3.35,"target":"right","response":"right","rt":653.5,"correct":true,"confidence":4},{"trial_n":112,"n_dots":3.25,"target":"left","response":"right","rt":2291.3000000003,"correct":false,"confidence":1},{"trial_n":113,"n_dots":3.35,"target":"left","response":"left","rt":855,"correct":true,"confidence":4},{"trial_n":114,"n_dots":3.35,"target":"right","response":"right","rt":600.10000000009,"correct":true,"confidence":4},{"trial_n":115,"n_dots":3.25,"target":"right","response":"right","rt":1348.1000000001,"correct":true,"confidence":2},{"trial_n":116,"n_dots":3.25,"target":"right","response":"right","rt":1242.8999999999,"correct":true,"confidence":3},{"trial_n":117,"n_dots":3.15,"target":"left","response":"left","rt":1130.5,"correct":true,"confidence":3},{"trial_n":118,"n_dots":3.15,"target":"left","response":"left","rt":592.39999999991,"correct":true,"confidence":4},{"trial_n":119,"n_dots":3.05,"target":"right","response":"right","rt":980.29999999981,"correct":true,"confidence":4},{"trial_n":120,"n_dots":3.05,"target":"left","response":"left","rt":864.60000000009,"correct":true,"confidence":4}]