[{"trial_n":1,"n_dots":4.25,"target":"left","response":"left","rt":2795.4000000954,"correct":true,"confidence":-1},{"trial_n":2,"n_dots":4.25,"target":"right","response":"right","rt":865.40000009537,"correct":true,"confidence":-1},{"trial_n":3,"n_dots":3.85,"target":"left","response":"left","rt":571.10000014305,"correct":true,"confidence":-1},{"trial_n":4,"n_dots":3.85,"target":"left","response":"left","rt":491.29999995232,"correct":true,"confidence":-1},{"trial_n":5,"n_dots":3.45,"target":"right","response":"right","rt":1689.2000000477,"correct":true,"confidence":-1},{"trial_n":6,"n_dots":3.45,"target":"right","response":"right","rt":517.40000009537,"correct":true,"confidence":-1},{"trial_n":7,"n_dots":3.05,"target":"right","response":"right","rt":834,"correct":true,"confidence":-1},{"trial_n":8,"n_dots":3.05,"target":"left","response":"left","rt":492.80000019073,"correct":true,"confidence":-1},{"trial_n":9,"n_dots":2.85,"target":"left","response":"left","rt":570.29999995232,"correct":true,"confidence":-1},{"trial_n":10,"n_dots":2.85,"target":"left","response":"left","rt":673.09999990463,"correct":true,"confidence":-1},{"trial_n":11,"n_dots":2.65,"target":"right","response":"right","rt":450.10000014305,"correct":true,"confidence":-1},{"trial_n":12,"n_dots":2.65,"target":"left","response":"left","rt":1051.3000001907,"correct":true,"confidence":-1},{"trial_n":13,"n_dots":2.55,"target":"right","response":"right","rt":538.10000014305,"correct":true,"confidence":-1},{"trial_n":14,"n_dots":2.55,"target":"left","response":"left","rt":687.5,"correct":true,"confidence":-1},{"trial_n":15,"n_dots":2.45,"target":"right","response":"left","rt":604.10000014305,"correct":false,"confidence":-1},{"trial_n":16,"n_dots":2.55,"target":"left","response":"right","rt":785,"correct":false,"confidence":-1},{"trial_n":17,"n_dots":2.65,"target":"left","response":"right","rt":773,"correct":false,"confidence":-1},{"trial_n":18,"n_dots":2.75,"target":"right","response":"left","rt":644.69999980927,"correct":false,"confidence":-1},{"trial_n":19,"n_dots":2.85,"target":"right","response":"right","rt":250.90000009537,"correct":true,"confidence":-1},{"trial_n":20,"n_dots":2.85,"target":"right","response":"right","rt":412.59999990463,"correct":true,"confidence":-1},{"trial_n":21,"n_dots":2.75,"target":"right","response":"right","rt":429.10000014305,"correct":true,"confidence":3},{"trial_n":22,"n_dots":2.75,"target":"left","response":"left","rt":1143.2999999523,"correct":true,"confidence":2},{"trial_n":23,"n_dots":2.65,"target":"right","response":"right","rt":526.5,"correct":true,"confidence":3},{"trial_n":24,"n_dots":2.65,"target":"right","response":"right","rt":824,"correct":true,"confidence":3},{"trial_n":25,"n_dots":2.55,"target":"left","response":"left","rt":1181.4000000954,"correct":true,"confidence":3},{"trial_n":26,"n_dots":2.55,"target":"right","response":"left","rt":801.5,"correct":false,"confidence":4},{"trial_n":27,"n_dots":2.65,"target":"right","response":"left","rt":1438.7999999523,"correct":false,"confidence":3},{"trial_n":28,"n_dots":2.75,"target":"right","response":"right","rt":1049.0999999046,"correct":true,"confidence":2},{"trial_n":29,"n_dots":2.75,"target":"left","response":"right","rt":751.09999990463,"correct":false,"confidence":2},{"trial_n":30,"n_dots":2.85,"target":"right","response":"left","rt":1092,"correct":false,"confidence":2},{"trial_n":31,"n_dots":2.95,"target":"left","response":"right","rt":1455.1000001431,"correct":false,"confidence":3},{"trial_n":32,"n_dots":3.05,"target":"right","response":"left","rt":3669.7999999523,"correct":false,"confidence":2},{"trial_n":33,"n_dots":3.15,"target":"left","response":"left","rt":1033,"correct":true,"confidence":2},{"trial_n":34,"n_dots":3.15,"target":"left","response":"right","rt":1150.7000000477,"correct":false,"confidence":2},{"trial_n":35,"n_dots":3.25,"target":"right","response":"right","rt":1168.6999998093,"correct":true,"confidence":3},{"trial_n":36,"n_dots":3.25,"target":"right","response":"right","rt":949.60000014305,"correct":true,"confidence":2},{"trial_n":37,"n_dots":3.15,"target":"left","response":"left","rt":988,"correct":true,"confidence":2},{"trial_n":38,"n_dots":3.15,"target":"left","response":"left","rt":821.39999985695,"correct":true,"confidence":2},{"trial_n":39,"n_dots":3.05,"target":"right","response":"right","rt":2111.5,"correct":true,"confidence":4},{"trial_n":40,"n_dots":3.05,"target":"right","response":"right","rt":456.40000009537,"correct":true,"confidence":3},{"trial_n":41,"n_dots":2.95,"target":"right","response":"right","rt":340.89999985695,"correct":true,"confidence":2},{"trial_n":42,"n_dots":2.95,"target":"right","response":"right","rt":666.70000004768,"correct":true,"confidence":2},{"trial_n":43,"n_dots":2.85,"target":"right","response":"right","rt":379.40000009537,"correct":true,"confidence":3},{"trial_n":44,"n_dots":2.85,"target":"right","response":"right","rt":436.40000009537,"correct":true,"confidence":3},{"trial_n":45,"n_dots":2.75,"target":"left","response":"left","rt":203.59999990463,"correct":true,"confidence":4},{"trial_n":46,"n_dots":2.75,"target":"left","response":"left","rt":300.30000019073,"correct":true,"confidence":2},{"trial_n":47,"n_dots":2.65,"target":"right","response":"right","rt":457.70000004768,"correct":true,"confidence":2},{"trial_n":48,"n_dots":2.65,"target":"right","response":"right","rt":385.70000004768,"correct":true,"confidence":2},{"trial_n":49,"n_dots":2.55,"target":"right","response":"right","rt":388.40000009537,"correct":true,"confidence":2},{"trial_n":50,"n_dots":2.55,"target":"left","response":"left","rt":373.59999990463,"correct":true,"confidence":3},{"trial_n":51,"n_dots":2.45,"target":"left","response":"right","rt":146,"correct":false,"confidence":1},{"trial_n":52,"n_dots":2.55,"target":"right","response":"right","rt":395.60000014305,"correct":true,"confidence":2},{"trial_n":53,"n_dots":2.55,"target":"left","response":"right","rt":708.70000004768,"correct":false,"confidence":1},{"trial_n":54,"n_dots":2.65,"target":"left","response":"left","rt":455.20000004768,"correct":true,"confidence":2},{"trial_n":55,"n_dots":2.65,"target":"left","response":"left","rt":1329.2000000477,"correct":true,"confidence":1},{"trial_n":56,"n_dots":2.55,"target":"left","response":"left","rt":390.20000004768,"correct":true,"confidence":3},{"trial_n":57,"n_dots":2.55,"target":"right","response":"right","rt":922.60000014305,"correct":true,"confidence":1},{"trial_n":58,"n_dots":2.45,"target":"right","response":"right","rt":401.29999995232,"correct":true,"confidence":2},{"trial_n":59,"n_dots":2.45,"target":"right","response":"left","rt":270.40000009537,"correct":false,"confidence":3},{"trial_n":60,"n_dots":2.55,"target":"right","response":"left","rt":171.90000009537,"correct":false,"confidence":4},{"trial_n":61,"n_dots":2.65,"target":"right","response":"left","rt":330.20000004768,"correct":false,"confidence":5},{"trial_n":62,"n_dots":2.75,"target":"right","response":"left","rt":170.79999995232,"correct":false,"confidence":4},{"trial_n":63,"n_dots":2.85,"target":"right","response":"right","rt":494.09999990463,"correct":true,"confidence":2},{"trial_n":64,"n_dots":2.85,"target":"right","response":"left","rt":499.59999990463,"correct":false,"confidence":2},{"trial_n":65,"n_dots":2.95,"target":"left","response":"left","rt":258.80000019073,"correct":true,"confidence":3},{"trial_n":66,"n_dots":2.95,"target":"left","response":"left","rt":320.70000004768,"correct":true,"confidence":4},{"trial_n":67,"n_dots":2.85,"target":"left","response":"left","rt":711.60000014305,"correct":true,"confidence":2},{"trial_n":68,"n_dots":2.85,"target":"right","response":"left","rt":330.20000004768,"correct":false,"confidence":3},{"trial_n":69,"n_dots":2.95,"target":"left","response":"right","rt":242.5,"correct":false,"confidence":1},{"trial_n":70,"n_dots":3.05,"target":"right","response":"left","rt":806.90000009537,"correct":false,"confidence":3},{"trial_n":71,"n_dots":3.15,"target":"left","response":"left","rt":625.70000004768,"correct":true,"confidence":4},{"trial_n":72,"n_dots":3.15,"target":"right","response":"left","rt":386.19999980927,"correct":false,"confidence":2},{"trial_n":73,"n_dots":3.25,"target":"right","response":"right","rt":337.70000004768,"correct":true,"confidence":2},{"trial_n":74,"n_dots":3.25,"target":"left","response":"left","rt":593.30000019073,"correct":true,"confidence":2},{"trial_n":75,"n_dots":3.15,"target":"right","response":"right","rt":404.39999985695,"correct":true,"confidence":2},{"trial_n":76,"n_dots":3.15,"target":"left","response":"left","rt":687.29999995232,"correct":true,"confidence":1},{"trial_n":77,"n_dots":3.05,"target":"left","response":"right","rt":637.60000014305,"correct":false,"confidence":2},{"trial_n":78,"n_dots":3.15,"target":"left","response":"left","rt":960.20000004768,"correct":true,"confidence":2},{"trial_n":79,"n_dots":3.15,"target":"left","response":"right","rt":721.5,"correct":false,"confidence":2},{"trial_n":80,"n_dots":3.25,"target":"right","response":"right","rt":279.30000019073,"correct":true,"confidence":2},{"trial_n":81,"n_dots":3.25,"target":"left","response":"left","rt":195.79999995232,"correct":true,"confidence":2},{"trial_n":82,"n_dots":3.15,"target":"left","response":"left","rt":365.5,"correct":true,"confidence":3},{"trial_n":83,"n_dots":3.15,"target":"right","response":"right","rt":295.89999985695,"correct":true,"confidence":1},{"trial_n":84,"n_dots":3.05,"target":"left","response":"left","rt":326,"correct":true,"confidence":2},{"trial_n":85,"n_dots":3.05,"target":"right","response":"right","rt":331.09999990463,"correct":true,"confidence":1},{"trial_n":86,"n_dots":2.95,"target":"left","response":"left","rt":779.20000004768,"correct":true,"confidence":2},{"trial_n":87,"n_dots":2.95,"target":"right","response":"right","rt":399.79999995232,"correct":true,"confidence":2},{"trial_n":88,"n_dots":2.85,"target":"right","response":"left","rt":752.5,"correct":false,"confidence":2},{"trial_n":89,"n_dots":2.95,"target":"right","response":"right","rt":500.80000019073,"correct":true,"confidence":2},{"trial_n":90,"n_dots":2.95,"target":"left","response":"right","rt":1329.2999999523,"correct":false,"confidence":1},{"trial_n":91,"n_dots":3.05,"target":"right","response":"right","rt":462.5,"correct":true,"confidence":2},{"trial_n":92,"n_dots":3.05,"target":"left","response":"left","rt":346.10000014305,"correct":true,"confidence":2},{"trial_n":93,"n_dots":2.95,"target":"left","response":"left","rt":305.5,"correct":true,"confidence":2},{"trial_n":94,"n_dots":2.95,"target":"left","response":"left","rt":587.79999995232,"correct":true,"confidence":2},{"trial_n":95,"n_dots":2.85,"target":"right","response":"right","rt":362.59999990463,"correct":true,"confidence":1},{"trial_n":96,"n_dots":2.85,"target":"left","response":"right","rt":853.59999990463,"correct":false,"confidence":4},{"trial_n":97,"n_dots":2.95,"target":"right","response":"right","rt":872.29999995232,"correct":true,"confidence":1},{"trial_n":98,"n_dots":2.95,"target":"left","response":"left","rt":372567.70000005,"correct":true,"confidence":1},{"trial_n":99,"n_dots":2.85,"target":"left","response":"left","rt":293.79999995232,"correct":true,"confidence":3},{"trial_n":100,"n_dots":2.85,"target":"left","response":"right","rt":4558.7000000477,"correct":false,"confidence":2},{"trial_n":101,"n_dots":2.95,"target":"right","response":"right","rt":169.59999990463,"correct":true,"confidence":3},{"trial_n":102,"n_dots":2.95,"target":"left","response":"right","rt":279.5,"correct":false,"confidence":2},{"trial_n":103,"n_dots":3.05,"target":"right","response":"left","rt":583.79999995232,"correct":false,"confidence":2},{"trial_n":104,"n_dots":3.15,"target":"left","response":"left","rt":487.40000009537,"correct":true,"confidence":2},{"trial_n":105,"n_dots":3.15,"target":"left","response":"right","rt":1331.5999999046,"correct":false,"confidence":1},{"trial_n":106,"n_dots":3.25,"target":"left","response":"left","rt":567.89999985695,"correct":true,"confidence":2},{"trial_n":107,"n_dots":3.25,"target":"right","response":"right","rt":270.89999985695,"correct":true,"confidence":2},{"trial_n":108,"n_dots":3.15,"target":"left","response":"left","rt":129.39999985695,"correct":true,"confidence":3},{"trial_n":109,"n_dots":3.15,"target":"right","response":"right","rt":484.29999995232,"correct":true,"confidence":1},{"trial_n":110,"n_dots":3.05,"target":"right","response":"left","rt":698.70000004768,"correct":false,"confidence":2},{"trial_n":111,"n_dots":3.15,"target":"right","response":"right","rt":224.20000004768,"correct":true,"confidence":2},{"trial_n":112,"n_dots":3.15,"target":"left","response":"right","rt":229.39999985695,"correct":false,"confidence":2},{"trial_n":113,"n_dots":3.25,"target":"right","response":"right","rt":396.29999995232,"correct":true,"confidence":2},{"trial_n":114,"n_dots":3.25,"target":"left","response":"left","rt":87,"correct":true,"confidence":4},{"trial_n":115,"n_dots":3.15,"target":"left","response":"right","rt":454.5,"correct":false,"confidence":2},{"trial_n":116,"n_dots":3.25,"target":"left","response":"left","rt":992.20000004768,"correct":true,"confidence":3},{"trial_n":117,"n_dots":3.25,"target":"right","response":"left","rt":796.10000014305,"correct":false,"confidence":2},{"trial_n":118,"n_dots":3.35,"target":"left","response":"right","rt":57.399999856949,"correct":false,"confidence":3},{"trial_n":119,"n_dots":3.45,"target":"left","response":"left","rt":537.90000009537,"correct":true,"confidence":2},{"trial_n":120,"n_dots":3.45,"target":"left","response":"left","rt":279.30000019073,"correct":true,"confidence":2}]