[{"trial_n":1,"min":25,"max":230,"target":"present","response":"present","rt":6732.8000000007,"correct":true,"confidence":-1},{"trial_n":2,"min":25,"max":230,"target":"present","response":"present","rt":2682.6999999993,"correct":true,"confidence":-1},{"trial_n":3,"min":41,"max":214,"target":"absent","response":"present","rt":572.70000000298,"correct":false,"confidence":-1},{"trial_n":4,"min":25,"max":230,"target":"absent","response":"absent","rt":2122.5,"correct":true,"confidence":-1},{"trial_n":5,"min":25,"max":230,"target":"present","response":"present","rt":1185.5,"correct":true,"confidence":-1},{"trial_n":6,"min":41,"max":214,"target":"absent","response":"absent","rt":1196.1000000015,"correct":true,"confidence":-1},{"trial_n":7,"min":41,"max":214,"target":"present","response":"present","rt":843.90000000224,"correct":true,"confidence":-1},{"trial_n":8,"min":57,"max":198,"target":"present","response":"present","rt":1062.5,"correct":true,"confidence":-1},{"trial_n":9,"min":57,"max":198,"target":"present","response":"present","rt":692.10000000149,"correct":true,"confidence":-1},{"trial_n":10,"min":73,"max":182,"target":"absent","response":"absent","rt":1549.5,"correct":true,"confidence":-1},{"trial_n":11,"min":73,"max":182,"target":"absent","response":"absent","rt":781.39999999851,"correct":true,"confidence":-1},{"trial_n":12,"min":81,"max":174,"target":"present","response":"absent","rt":664.69999999925,"correct":false,"confidence":-1},{"trial_n":13,"min":73,"max":182,"target":"absent","response":"absent","rt":2133.3999999985,"correct":true,"confidence":-1},{"trial_n":14,"min":73,"max":182,"target":"present","response":"present","rt":731.20000000298,"correct":true,"confidence":-1},{"trial_n":15,"min":81,"max":174,"target":"present","response":"absent","rt":913.30000000075,"correct":false,"confidence":-1},{"trial_n":16,"min":73,"max":182,"target":"present","response":"present","rt":745.90000000224,"correct":true,"confidence":-1},{"trial_n":17,"min":73,"max":182,"target":"present","response":"present","rt":748,"correct":true,"confidence":-1},{"trial_n":18,"min":81,"max":174,"target":"absent","response":"absent","rt":869.69999999925,"correct":true,"confidence":-1},{"trial_n":19,"min":81,"max":174,"target":"absent","response":"absent","rt":1006.8000000007,"correct":true,"confidence":-1},{"trial_n":20,"min":89,"max":166,"target":"present","response":"absent","rt":832.89999999851,"correct":false,"confidence":-1},{"trial_n":21,"min":85,"max":170,"target":"absent","response":"absent","rt":1184.200000003,"correct":true,"confidence":3},{"trial_n":22,"min":85,"max":170,"target":"absent","response":"present","rt":1694.8000000007,"correct":false,"confidence":3},{"trial_n":23,"min":81,"max":174,"target":"absent","response":"present","rt":1009.6999999993,"correct":false,"confidence":3},{"trial_n":24,"min":77,"max":178,"target":"present","response":"present","rt":881.80000000075,"correct":true,"confidence":3},{"trial_n":25,"min":77,"max":178,"target":"absent","response":"present","rt":773.80000000075,"correct":false,"confidence":3},{"trial_n":26,"min":73,"max":182,"target":"absent","response":"absent","rt":783,"correct":true,"confidence":3},{"trial_n":27,"min":73,"max":182,"target":"present","response":"present","rt":969.89999999851,"correct":true,"confidence":3},{"trial_n":28,"min":77,"max":178,"target":"absent","response":"absent","rt":882.09999999776,"correct":true,"confidence":3},{"trial_n":29,"min":77,"max":178,"target":"absent","response":"absent","rt":1128.5,"correct":true,"confidence":4},{"trial_n":30,"min":81,"max":174,"target":"absent","response":"absent","rt":708.70000000298,"correct":true,"confidence":4},{"trial_n":31,"min":81,"max":174,"target":"present","response":"present","rt":1584,"correct":true,"confidence":3},{"trial_n":32,"min":83,"max":172,"target":"present","response":"present","rt":1446.3999999985,"correct":true,"confidence":3},{"trial_n":33,"min":83,"max":172,"target":"present","response":"present","rt":2785.0999999978,"correct":true,"confidence":3},{"trial_n":34,"min":85,"max":170,"target":"present","response":"absent","rt":761.90000000224,"correct":false,"confidence":3},{"trial_n":35,"min":83,"max":172,"target":"present","response":"absent","rt":728.80000000075,"correct":false,"confidence":4},{"trial_n":36,"min":81,"max":174,"target":"absent","response":"absent","rt":697,"correct":true,"confidence":5},{"trial_n":37,"min":81,"max":174,"target":"present","response":"present","rt":1334.0999999978,"correct":true,"confidence":3},{"trial_n":38,"min":83,"max":172,"target":"present","response":"absent","rt":698.89999999851,"correct":false,"confidence":3},{"trial_n":39,"min":81,"max":174,"target":"present","response":"absent","rt":836.60000000149,"correct":false,"confidence":3},{"trial_n":40,"min":79,"max":176,"target":"absent","response":"absent","rt":668.80000000075,"correct":true,"confidence":3},{"trial_n":41,"min":79,"max":176,"target":"present","response":"present","rt":1450.3000000007,"correct":true,"confidence":3},{"trial_n":42,"min":80,"max":175,"target":"absent","response":"present","rt":1453.3999999985,"correct":false,"confidence":2},{"trial_n":43,"min":79,"max":176,"target":"absent","response":"present","rt":1064.1000000015,"correct":false,"confidence":1},{"trial_n":44,"min":78,"max":177,"target":"present","response":"present","rt":1074.1999999993,"correct":true,"confidence":3},{"trial_n":45,"min":78,"max":177,"target":"absent","response":"present","rt":2925.1000000015,"correct":false,"confidence":2},{"trial_n":46,"min":77,"max":178,"target":"absent","response":"absent","rt":1263.3000000007,"correct":true,"confidence":3},{"trial_n":47,"min":77,"max":178,"target":"present","response":"absent","rt":2440.1999999993,"correct":false,"confidence":2},{"trial_n":48,"min":76,"max":179,"target":"absent","response":"present","rt":1126.299999997,"correct":false,"confidence":3},{"trial_n":49,"min":75,"max":180,"target":"present","response":"present","rt":924.39999999851,"correct":true,"confidence":5},{"trial_n":50,"min":75,"max":180,"target":"present","response":"present","rt":797.10000000149,"correct":true,"confidence":5},{"trial_n":51,"min":76,"max":179,"target":"present","response":"present","rt":1229.5999999978,"correct":true,"confidence":5},{"trial_n":52,"min":76,"max":179,"target":"present","response":"present","rt":1762.1000000015,"correct":true,"confidence":5},{"trial_n":53,"min":77,"max":178,"target":"present","response":"present","rt":1414.6999999993,"correct":true,"confidence":5},{"trial_n":54,"min":77,"max":178,"target":"present","response":"present","rt":1441.3999999985,"correct":true,"confidence":3},{"trial_n":55,"min":78,"max":177,"target":"present","response":"present","rt":1555.8000000007,"correct":true,"confidence":3},{"trial_n":56,"min":78,"max":177,"target":"absent","response":"absent","rt":1241.1999999993,"correct":true,"confidence":3},{"trial_n":57,"min":79,"max":176,"target":"absent","response":"absent","rt":1871.8999999985,"correct":true,"confidence":3},{"trial_n":58,"min":79,"max":176,"target":"absent","response":"absent","rt":1237.6999999993,"correct":true,"confidence":3},{"trial_n":59,"min":80,"max":175,"target":"absent","response":"absent","rt":2087.5,"correct":true,"confidence":2},{"trial_n":60,"min":80,"max":175,"target":"present","response":"present","rt":1523.0999999978,"correct":true,"confidence":2},{"trial_n":61,"min":81,"max":174,"target":"present","response":"absent","rt":2897.9000000022,"correct":false,"confidence":1},{"trial_n":62,"min":80,"max":175,"target":"absent","response":"absent","rt":1128.0999999978,"correct":true,"confidence":3},{"trial_n":63,"min":80,"max":175,"target":"absent","response":"absent","rt":2606.5999999978,"correct":true,"confidence":3},{"trial_n":64,"min":81,"max":174,"target":"present","response":"absent","rt":2645.8999999985,"correct":false,"confidence":3},{"trial_n":65,"min":80,"max":175,"target":"absent","response":"present","rt":1681.799999997,"correct":false,"confidence":2},{"trial_n":66,"min":79,"max":176,"target":"present","response":"absent","rt":2876.8000000007,"correct":false,"confidence":2},{"trial_n":67,"min":78,"max":177,"target":"absent","response":"absent","rt":2630,"correct":true,"confidence":2},{"trial_n":68,"min":78,"max":177,"target":"absent","response":"absent","rt":2580.1999999993,"correct":true,"confidence":2},{"trial_n":69,"min":79,"max":176,"target":"absent","response":"absent","rt":1512.3999999985,"correct":true,"confidence":2},{"trial_n":70,"min":79,"max":176,"target":"absent","response":"absent","rt":2972.3000000007,"correct":true,"confidence":3},{"trial_n":71,"min":41,"max":214,"target":"present","response":"present","rt":2434.0999999978,"correct":true,"confidence":-1},{"trial_n":72,"min":41,"max":214,"target":"present","response":"present","rt":2170.5,"correct":true,"confidence":-1},{"trial_n":73,"min":57,"max":198,"target":"absent","response":"absent","rt":1566.1999999993,"correct":true,"confidence":-1},{"trial_n":74,"min":57,"max":198,"target":"absent","response":"absent","rt":1107.6000000015,"correct":true,"confidence":-1},{"trial_n":75,"min":73,"max":182,"target":"present","response":"present","rt":1691.5,"correct":true,"confidence":-1},{"trial_n":76,"min":73,"max":182,"target":"present","response":"present","rt":1362.8000000007,"correct":true,"confidence":-1},{"trial_n":77,"min":89,"max":166,"target":"absent","response":"present","rt":1082.3999999985,"correct":false,"confidence":-1},{"trial_n":78,"min":73,"max":182,"target":"absent","response":"present","rt":809.40000000224,"correct":false,"confidence":-1},{"trial_n":79,"min":57,"max":198,"target":"present","response":"present","rt":1762.1000000015,"correct":true,"confidence":-1},{"trial_n":80,"min":57,"max":198,"target":"present","response":"present","rt":1176.9000000022,"correct":true,"confidence":-1},{"trial_n":81,"min":65,"max":190,"target":"present","response":"present","rt":885.69999999925,"correct":true,"confidence":-1},{"trial_n":82,"min":65,"max":190,"target":"present","response":"present","rt":1136.1000000015,"correct":true,"confidence":-1},{"trial_n":83,"min":73,"max":182,"target":"absent","response":"absent","rt":1838.299999997,"correct":true,"confidence":-1},{"trial_n":84,"min":73,"max":182,"target":"present","response":"present","rt":1457,"correct":true,"confidence":-1},{"trial_n":85,"min":81,"max":174,"target":"present","response":"present","rt":1150.6000000015,"correct":true,"confidence":-1},{"trial_n":86,"min":81,"max":174,"target":"absent","response":"present","rt":892.5,"correct":false,"confidence":-1},{"trial_n":87,"min":73,"max":182,"target":"absent","response":"present","rt":914.39999999851,"correct":false,"confidence":-1},{"trial_n":88,"min":65,"max":190,"target":"absent","response":"present","rt":863.5,"correct":false,"confidence":-1},{"trial_n":89,"min":57,"max":198,"target":"absent","response":"absent","rt":2419,"correct":true,"confidence":-1},{"trial_n":90,"min":57,"max":198,"target":"present","response":"present","rt":1340.6999999993,"correct":true,"confidence":-1},{"trial_n":91,"min":61,"max":194,"target":"absent","response":"absent","rt":1731.8000000007,"correct":true,"confidence":3},{"trial_n":92,"min":61,"max":194,"target":"absent","response":"absent","rt":1258.3999999985,"correct":true,"confidence":3},{"trial_n":93,"min":65,"max":190,"target":"present","response":"present","rt":810.80000000075,"correct":true,"confidence":5},{"trial_n":94,"min":65,"max":190,"target":"absent","response":"absent","rt":1606.6999999993,"correct":true,"confidence":2},{"trial_n":95,"min":69,"max":186,"target":"absent","response":"absent","rt":986.69999999925,"correct":true,"confidence":2},{"trial_n":96,"min":69,"max":186,"target":"present","response":"present","rt":715.5,"correct":true,"confidence":5},{"trial_n":97,"min":73,"max":182,"target":"absent","response":"absent","rt":1159.1999999993,"correct":true,"confidence":4},{"trial_n":98,"min":73,"max":182,"target":"present","response":"present","rt":701.39999999851,"correct":true,"confidence":5},{"trial_n":99,"min":77,"max":178,"target":"absent","response":"present","rt":952.69999999925,"correct":false,"confidence":1},{"trial_n":100,"min":73,"max":182,"target":"absent","response":"absent","rt":1046.3000000007,"correct":true,"confidence":2},{"trial_n":101,"min":73,"max":182,"target":"absent","response":"present","rt":1110.0999999978,"correct":false,"confidence":1},{"trial_n":102,"min":71,"max":184,"target":"present","response":"present","rt":856.20000000298,"correct":true,"confidence":1},{"trial_n":103,"min":71,"max":184,"target":"absent","response":"present","rt":620,"correct":false,"confidence":1},{"trial_n":104,"min":69,"max":186,"target":"present","response":"present","rt":657,"correct":true,"confidence":4},{"trial_n":105,"min":69,"max":186,"target":"present","response":"present","rt":825.59999999776,"correct":true,"confidence":5},{"trial_n":106,"min":71,"max":184,"target":"present","response":"present","rt":989.5,"correct":true,"confidence":5},{"trial_n":107,"min":71,"max":184,"target":"present","response":"present","rt":670.09999999776,"correct":true,"confidence":5},{"trial_n":108,"min":73,"max":182,"target":"absent","response":"absent","rt":1238.3999999985,"correct":true,"confidence":3},{"trial_n":109,"min":73,"max":182,"target":"present","response":"present","rt":731.69999999925,"correct":true,"confidence":5},{"trial_n":110,"min":75,"max":180,"target":"absent","response":"present","rt":866.60000000149,"correct":false,"confidence":1},{"trial_n":111,"min":74,"max":181,"target":"absent","response":"absent","rt":876.20000000298,"correct":true,"confidence":1},{"trial_n":112,"min":74,"max":181,"target":"present","response":"present","rt":735.60000000149,"correct":true,"confidence":1},{"trial_n":113,"min":75,"max":180,"target":"present","response":"present","rt":1684.6000000015,"correct":true,"confidence":1},{"trial_n":114,"min":75,"max":180,"target":"present","response":"present","rt":679.39999999851,"correct":true,"confidence":3},{"trial_n":115,"min":76,"max":179,"target":"absent","response":"absent","rt":759,"correct":true,"confidence":1},{"trial_n":116,"min":76,"max":179,"target":"absent","response":"absent","rt":889,"correct":true,"confidence":1},{"trial_n":117,"min":77,"max":178,"target":"absent","response":"absent","rt":1210.8000000007,"correct":true,"confidence":1},{"trial_n":118,"min":77,"max":178,"target":"present","response":"present","rt":644.60000000149,"correct":true,"confidence":5},{"trial_n":119,"min":78,"max":177,"target":"present","response":"present","rt":800.69999999925,"correct":true,"confidence":1},{"trial_n":120,"min":78,"max":177,"target":"present","response":"present","rt":1003.5,"correct":true,"confidence":1},{"trial_n":121,"min":79,"max":176,"target":"absent","response":"present","rt":768.19999999925,"correct":false,"confidence":1},{"trial_n":122,"min":78,"max":177,"target":"absent","response":"present","rt":922.69999999925,"correct":false,"confidence":1},{"trial_n":123,"min":77,"max":178,"target":"present","response":"absent","rt":1178,"correct":false,"confidence":3},{"trial_n":124,"min":76,"max":179,"target":"absent","response":"absent","rt":716.69999999925,"correct":true,"confidence":1},{"trial_n":125,"min":76,"max":179,"target":"present","response":"present","rt":894.60000000149,"correct":true,"confidence":1},{"trial_n":126,"min":77,"max":178,"target":"present","response":"present","rt":934.60000000149,"correct":true,"confidence":3},{"trial_n":127,"min":77,"max":178,"target":"absent","response":"present","rt":1064.5,"correct":false,"confidence":1},{"trial_n":128,"min":76,"max":179,"target":"absent","response":"absent","rt":944.09999999776,"correct":true,"confidence":1},{"trial_n":129,"min":76,"max":179,"target":"absent","response":"absent","rt":1081,"correct":true,"confidence":3},{"trial_n":130,"min":77,"max":178,"target":"present","response":"present","rt":825.89999999851,"correct":true,"confidence":3},{"trial_n":131,"min":77,"max":178,"target":"absent","response":"absent","rt":785.5,"correct":true,"confidence":4},{"trial_n":132,"min":78,"max":177,"target":"absent","response":"absent","rt":779.29999999702,"correct":true,"confidence":4},{"trial_n":133,"min":78,"max":177,"target":"absent","response":"present","rt":1102.5,"correct":false,"confidence":2},{"trial_n":134,"min":77,"max":178,"target":"present","response":"present","rt":624.80000000075,"correct":true,"confidence":3},{"trial_n":135,"min":77,"max":178,"target":"present","response":"present","rt":640.60000000149,"correct":true,"confidence":3},{"trial_n":136,"min":78,"max":177,"target":"absent","response":"present","rt":802.60000000149,"correct":false,"confidence":1},{"trial_n":137,"min":77,"max":178,"target":"present","response":"present","rt":696.19999999925,"correct":true,"confidence":3},{"trial_n":138,"min":77,"max":178,"target":"present","response":"present","rt":590.80000000075,"correct":true,"confidence":3},{"trial_n":139,"min":78,"max":177,"target":"present","response":"present","rt":763.30000000075,"correct":true,"confidence":1},{"trial_n":140,"min":78,"max":177,"target":"present","response":"present","rt":634.90000000224,"correct":true,"confidence":5}]