[{"trial_n":1,"span":8,"encoder":"41897117","distractor":"41894117","target":"present","response":"present","rt":"3983.8999999999","correct":true,"confidence":-1},{"trial_n":2,"span":8,"encoder":"80414519","distractor":"80414119","target":"present","response":"present","rt":"3130.5","correct":true,"confidence":-1},{"trial_n":3,"span":10,"encoder":"0780650665","distractor":"2780650665","target":"absent","response":"present","rt":"1332.8000000003","correct":false,"confidence":-1},{"trial_n":4,"span":8,"encoder":"05373830","distractor":"05373330","target":"absent","response":"present","rt":"1888","correct":false,"confidence":-1},{"trial_n":5,"span":6,"encoder":"995594","distractor":"995534","target":"present","response":"present","rt":"1527.4000000004","correct":true,"confidence":-1},{"trial_n":6,"span":6,"encoder":"955248","distractor":"955268","target":"absent","response":"present","rt":"1226","correct":false,"confidence":-1},{"trial_n":7,"span":4,"encoder":"8425","distractor":"8445","target":"absent","response":"present","rt":"1274.2999999998","correct":false,"confidence":-1},{"trial_n":8,"span":2,"encoder":"78","distractor":"38","target":"present","response":"present","rt":"1462.4000000004","correct":true,"confidence":-1},{"trial_n":9,"span":2,"encoder":"35","distractor":"45","target":"absent","response":"absent","rt":"1797.0999999996","correct":true,"confidence":-1},{"trial_n":10,"span":4,"encoder":"3146","distractor":"3142","target":"absent","response":"present","rt":"1609.1000000001","correct":false,"confidence":-1},{"trial_n":11,"span":2,"encoder":"51","distractor":"52","target":"absent","response":"present","rt":"7157.5","correct":false,"confidence":-1},{"trial_n":12,"span":2,"encoder":"55","distractor":"75","target":"absent","response":"present","rt":"1829.7999999998","correct":false,"confidence":-1},{"trial_n":13,"span":2,"encoder":"56","distractor":"57","target":"present","response":"present","rt":"1399","correct":true,"confidence":-1},{"trial_n":14,"span":2,"encoder":"57","distractor":"52","target":"present","response":"present","rt":"1133.7000000002","correct":true,"confidence":-1},{"trial_n":15,"span":3,"encoder":"138","distractor":"198","target":"absent","response":"absent","rt":"2066.9000000004","correct":true,"confidence":-1},{"trial_n":16,"span":3,"encoder":"095","distractor":"075","target":"absent","response":"absent","rt":"1193","correct":true,"confidence":-1},{"trial_n":17,"span":4,"encoder":"9095","distractor":"9097","target":"absent","response":"absent","rt":"1301.2999999998","correct":true,"confidence":-1},{"trial_n":18,"span":4,"encoder":"8005","distractor":"0005","target":"present","response":"present","rt":"2629.5","correct":true,"confidence":-1},{"trial_n":19,"span":5,"encoder":"18677","distractor":"15677","target":"present","response":"present","rt":"1012.7999999998","correct":true,"confidence":-1},{"trial_n":20,"span":5,"encoder":"81158","distractor":"21158","target":"present","response":"present","rt":"2251.6000000001","correct":true,"confidence":-1},{"trial_n":21,"span":6,"encoder":"085881","distractor":"085841","target":"absent","response":"absent","rt":"2948.0999999996","correct":true,"confidence":3},{"trial_n":22,"span":6,"encoder":"405388","distractor":"405385","target":"absent","response":"absent","rt":"2824.7000000002","correct":true,"confidence":5},{"trial_n":23,"span":7,"encoder":"9395383","distractor":"9395382","target":"present","response":"absent","rt":"5383.5","correct":false,"confidence":3},{"trial_n":24,"span":6,"encoder":"516110","distractor":"514110","target":"absent","response":"absent","rt":"1727","correct":true,"confidence":5},{"trial_n":25,"span":6,"encoder":"865853","distractor":"865863","target":"present","response":"present","rt":"3313.3999999999","correct":true,"confidence":4},{"trial_n":26,"span":7,"encoder":"4919269","distractor":"4919869","target":"present","response":"present","rt":"3908.8999999999","correct":true,"confidence":5},{"trial_n":27,"span":7,"encoder":"9111356","distractor":"9611356","target":"present","response":"present","rt":"2238.5999999996","correct":true,"confidence":5},{"trial_n":28,"span":8,"encoder":"09936549","distractor":"09936540","target":"absent","response":"present","rt":"3916.7000000002","correct":false,"confidence":3},{"trial_n":29,"span":7,"encoder":"6025483","distractor":"6095483","target":"absent","response":"present","rt":"3887.2999999998","correct":false,"confidence":3},{"trial_n":30,"span":6,"encoder":"132396","distractor":"132397","target":"absent","response":"absent","rt":"3039.3999999999","correct":true,"confidence":5},{"trial_n":31,"span":6,"encoder":"776187","distractor":"775187","target":"present","response":"present","rt":"2600.7999999998","correct":true,"confidence":5},{"trial_n":32,"span":7,"encoder":"6029990","distractor":"6029920","target":"present","response":"present","rt":"3651.7000000002","correct":true,"confidence":5},{"trial_n":33,"span":7,"encoder":"0431543","distractor":"2431543","target":"present","response":"absent","rt":"3391.2000000002","correct":false,"confidence":5},{"trial_n":34,"span":6,"encoder":"559080","distractor":"549080","target":"absent","response":"absent","rt":"2625.2000000002","correct":true,"confidence":4},{"trial_n":35,"span":6,"encoder":"247299","distractor":"245299","target":"present","response":"present","rt":"2185.3999999999","correct":true,"confidence":5},{"trial_n":36,"span":7,"encoder":"8051441","distractor":"8951441","target":"absent","response":"absent","rt":"2272.2000000002","correct":true,"confidence":5},{"trial_n":37,"span":7,"encoder":"0152936","distractor":"0150936","target":"present","response":"absent","rt":"3062.6999999997","correct":false,"confidence":3},{"trial_n":38,"span":6,"encoder":"201581","distractor":"201588","target":"absent","response":"present","rt":"1856.5","correct":false,"confidence":1},{"trial_n":39,"span":5,"encoder":"52226","distractor":"52266","target":"absent","response":"absent","rt":"3182.3000000003","correct":true,"confidence":5},{"trial_n":40,"span":5,"encoder":"74198","distractor":"74598","target":"present","response":"present","rt":"3319.6999999997","correct":true,"confidence":3},{"trial_n":41,"span":6,"encoder":"557859","distractor":"557659","target":"present","response":"present","rt":"5539.3999999999","correct":true,"confidence":5},{"trial_n":42,"span":6,"encoder":"201202","distractor":"201262","target":"present","response":"present","rt":"2481.7999999998","correct":true,"confidence":5},{"trial_n":43,"span":7,"encoder":"3945673","distractor":"3985673","target":"present","response":"present","rt":"4569.7999999998","correct":true,"confidence":5},{"trial_n":44,"span":7,"encoder":"4458047","distractor":"4458045","target":"absent","response":"absent","rt":"3278.1000000001","correct":true,"confidence":5},{"trial_n":45,"span":8,"encoder":"18474576","distractor":"18479576","target":"present","response":"present","rt":"5339.4000000004","correct":true,"confidence":4},{"trial_n":46,"span":8,"encoder":"93692662","distractor":"93698662","target":"absent","response":"absent","rt":"2029.3999999999","correct":true,"confidence":3},{"trial_n":47,"span":9,"encoder":"958506532","distractor":"958506432","target":"present","response":"absent","rt":"3727.0999999996","correct":false,"confidence":3},{"trial_n":48,"span":8,"encoder":"39686145","distractor":"39686144","target":"absent","response":"absent","rt":"2950.1999999997","correct":true,"confidence":5},{"trial_n":49,"span":8,"encoder":"62569224","distractor":"62569024","target":"absent","response":"present","rt":"6592.2999999998","correct":false,"confidence":2},{"trial_n":50,"span":7,"encoder":"2186539","distractor":"2186139","target":"present","response":"present","rt":"2712.5","correct":true,"confidence":5},{"trial_n":51,"span":7,"encoder":"1351737","distractor":"7351737","target":"present","response":"present","rt":"2437","correct":true,"confidence":5},{"trial_n":52,"span":8,"encoder":"83662632","distractor":"83662639","target":"present","response":"present","rt":"2234.1000000001","correct":true,"confidence":5},{"trial_n":53,"span":8,"encoder":"20048357","distractor":"20048359","target":"absent","response":"absent","rt":"2012.9000000004","correct":true,"confidence":5},{"trial_n":54,"span":9,"encoder":"177188086","distractor":"177188056","target":"absent","response":"absent","rt":"5341","correct":true,"confidence":2},{"trial_n":55,"span":9,"encoder":"180584290","distractor":"181584290","target":"absent","response":"absent","rt":"2621.1000000001","correct":true,"confidence":5},{"trial_n":56,"span":10,"encoder":"5176554520","distractor":"4176554520","target":"absent","response":"absent","rt":"2457.2999999998","correct":true,"confidence":3},{"trial_n":57,"span":10,"encoder":"3676494568","distractor":"3676434568","target":"absent","response":"absent","rt":"2842","correct":true,"confidence":3},{"trial_n":58,"span":11,"encoder":"29756833275","distractor":"29756833285","target":"present","response":"present","rt":"4007","correct":true,"confidence":4},{"trial_n":59,"span":11,"encoder":"67754470197","distractor":"27754470197","target":"present","response":"present","rt":"17555.4","correct":true,"confidence":3},{"trial_n":60,"span":12,"encoder":"003492288590","distractor":"003492278590","target":"present","response":"present","rt":"2259.6000000001","correct":true,"confidence":3},{"trial_n":61,"span":12,"encoder":"422516185259","distractor":"422586185259","target":"present","response":"present","rt":"2005.8999999999","correct":true,"confidence":4},{"trial_n":62,"span":13,"encoder":"3136758292249","distractor":"3136758292289","target":"present","response":"present","rt":"11776.5","correct":true,"confidence":3},{"trial_n":63,"span":13,"encoder":"4492794736033","distractor":"4492794736933","target":"absent","response":"absent","rt":"2612.7999999998","correct":true,"confidence":5},{"trial_n":64,"span":14,"encoder":"91061586078632","distractor":"91041586078632","target":"present","response":"absent","rt":"3809.5","correct":false,"confidence":3},{"trial_n":65,"span":13,"encoder":"5964245574175","distractor":"5964241574175","target":"absent","response":"present","rt":"4331","correct":false,"confidence":3},{"trial_n":66,"span":12,"encoder":"277788929591","distractor":"277780929591","target":"absent","response":"absent","rt":"4583.3000000003","correct":true,"confidence":5},{"trial_n":67,"span":12,"encoder":"753580113116","distractor":"755580113116","target":"present","response":"absent","rt":"6348.6000000001","correct":false,"confidence":2},{"trial_n":68,"span":11,"encoder":"28086594375","distractor":"28084594375","target":"present","response":"absent","rt":"6881.5999999996","correct":false,"confidence":4},{"trial_n":69,"span":10,"encoder":"1574859468","distractor":"1574829468","target":"absent","response":"present","rt":"3391.8999999999","correct":false,"confidence":3},{"trial_n":70,"span":9,"encoder":"313268162","distractor":"313068162","target":"present","response":"present","rt":"2405.0999999996","correct":true,"confidence":5},{"trial_n":71,"span":8,"encoder":"64844532","distractor":"64844536","target":"present","response":"present","rt":"2990.8999999999","correct":true,"confidence":-1},{"trial_n":72,"span":8,"encoder":"23760652","distractor":"27760652","target":"present","response":"present","rt":"1345.1999999997","correct":true,"confidence":-1},{"trial_n":73,"span":9,"encoder":"286241196","distractor":"286241193","target":"absent","response":"absent","rt":"2074.6000000001","correct":true,"confidence":-1},{"trial_n":74,"span":9,"encoder":"363084938","distractor":"363054938","target":"absent","response":"absent","rt":"4869.3999999999","correct":true,"confidence":-1},{"trial_n":75,"span":10,"encoder":"9670368208","distractor":"5670368208","target":"present","response":"present","rt":"4165.0999999996","correct":true,"confidence":-1},{"trial_n":76,"span":10,"encoder":"0618091291","distractor":"0618031291","target":"absent","response":"absent","rt":"5775.0999999996","correct":true,"confidence":-1},{"trial_n":77,"span":11,"encoder":"06443864879","distractor":"00443864879","target":"absent","response":"absent","rt":"3181.6000000001","correct":true,"confidence":-1},{"trial_n":78,"span":11,"encoder":"74833593571","distractor":"74833593575","target":"present","response":"present","rt":"1834.7999999998","correct":true,"confidence":-1},{"trial_n":79,"span":12,"encoder":"751590388582","distractor":"751510388582","target":"absent","response":"present","rt":"7410.1999999997","correct":false,"confidence":-1},{"trial_n":80,"span":11,"encoder":"59956809797","distractor":"59156809797","target":"absent","response":"present","rt":"5279.9000000004","correct":false,"confidence":-1},{"trial_n":81,"span":10,"encoder":"0824969597","distractor":"0824969596","target":"present","response":"present","rt":"4761.6000000001","correct":true,"confidence":-1},{"trial_n":82,"span":10,"encoder":"8097629482","distractor":"8097629481","target":"present","response":"present","rt":"1319.7000000002","correct":true,"confidence":-1},{"trial_n":83,"span":11,"encoder":"17039136336","distractor":"18039136336","target":"present","response":"present","rt":"3902.3000000003","correct":true,"confidence":-1},{"trial_n":84,"span":11,"encoder":"38602204936","distractor":"38602224936","target":"present","response":"present","rt":"5767.3000000003","correct":true,"confidence":-1},{"trial_n":85,"span":12,"encoder":"903017732945","distractor":"903017732935","target":"present","response":"absent","rt":"4044.8999999999","correct":false,"confidence":-1},{"trial_n":86,"span":11,"encoder":"17810507567","distractor":"12810507567","target":"present","response":"present","rt":"4503.5","correct":true,"confidence":-1},{"trial_n":87,"span":11,"encoder":"82549378717","distractor":"82749378717","target":"absent","response":"present","rt":"4074.1000000001","correct":false,"confidence":-1},{"trial_n":88,"span":10,"encoder":"7448467526","distractor":"7448427526","target":"absent","response":"present","rt":"4790.3000000003","correct":false,"confidence":-1},{"trial_n":89,"span":9,"encoder":"280615731","distractor":"580615731","target":"present","response":"present","rt":"1574","correct":true,"confidence":-1},{"trial_n":90,"span":9,"encoder":"447174368","distractor":"442174368","target":"absent","response":"absent","rt":"1081.3000000003","correct":true,"confidence":-1},{"trial_n":91,"span":10,"encoder":"2257246375","distractor":"3257246375","target":"present","response":"present","rt":"2400.7000000002","correct":true,"confidence":4},{"trial_n":92,"span":10,"encoder":"4409559326","distractor":"4409559386","target":"absent","response":"absent","rt":"1851.6000000001","correct":true,"confidence":3},{"trial_n":93,"span":11,"encoder":"55784207989","distractor":"55784207985","target":"present","response":"present","rt":"928","correct":true,"confidence":5},{"trial_n":94,"span":11,"encoder":"90141813893","distractor":"94141813893","target":"absent","response":"absent","rt":"355","correct":true,"confidence":2},{"trial_n":95,"span":12,"encoder":"373071577247","distractor":"373074577247","target":"absent","response":"absent","rt":"2679.6000000001","correct":true,"confidence":5},{"trial_n":96,"span":12,"encoder":"883659566166","distractor":"883659506166","target":"present","response":"present","rt":"3584.2000000002","correct":true,"confidence":4},{"trial_n":97,"span":13,"encoder":"9479027013473","distractor":"3479027013473","target":"absent","response":"absent","rt":"1802.1000000001","correct":true,"confidence":5},{"trial_n":98,"span":13,"encoder":"1646644937717","distractor":"1646744937717","target":"absent","response":"absent","rt":"1062","correct":true,"confidence":3},{"trial_n":99,"span":14,"encoder":"26560499739989","distractor":"26560499139989","target":"absent","response":"present","rt":"4236.7000000002","correct":false,"confidence":1},{"trial_n":100,"span":13,"encoder":"4939317407594","distractor":"4939317407591","target":"absent","response":"absent","rt":"1337.8999999994","correct":true,"confidence":5},{"trial_n":101,"span":13,"encoder":"2890482293323","distractor":"2896482293323","target":"present","response":"present","rt":"6470.2000000002","correct":true,"confidence":5},{"trial_n":102,"span":14,"encoder":"98656931788754","distractor":"98656931785754","target":"present","response":"absent","rt":"5963","correct":false,"confidence":1},{"trial_n":103,"span":13,"encoder":"7609791382631","distractor":"7609796382631","target":"present","response":"absent","rt":"5710","correct":false,"confidence":3},{"trial_n":104,"span":12,"encoder":"408831671499","distractor":"708831671499","target":"present","response":"absent","rt":"5095.3999999994","correct":false,"confidence":3},{"trial_n":105,"span":11,"encoder":"21641089840","distractor":"27641089840","target":"present","response":"absent","rt":"8220.2999999998","correct":false,"confidence":3},{"trial_n":106,"span":10,"encoder":"7355825752","distractor":"7355825852","target":"present","response":"absent","rt":"5930.1999999993","correct":false,"confidence":4},{"trial_n":107,"span":9,"encoder":"433911271","distractor":"433914271","target":"present","response":"present","rt":"3704.9000000004","correct":true,"confidence":5},{"trial_n":108,"span":9,"encoder":"526440575","distractor":"526449575","target":"present","response":"present","rt":"4091.3999999994","correct":true,"confidence":4},{"trial_n":109,"span":10,"encoder":"1362528131","distractor":"1362228131","target":"absent","response":"absent","rt":"2312.9000000004","correct":true,"confidence":5},{"trial_n":110,"span":10,"encoder":"5834525582","distractor":"5834525562","target":"absent","response":"absent","rt":"7063.5999999996","correct":true,"confidence":5},{"trial_n":111,"span":11,"encoder":"39127398581","distractor":"39127298581","target":"present","response":"present","rt":"5157.8999999994","correct":true,"confidence":5},{"trial_n":112,"span":11,"encoder":"45863276991","distractor":"45853276991","target":"absent","response":"absent","rt":"10731.8","correct":true,"confidence":5},{"trial_n":113,"span":12,"encoder":"424489697248","distractor":"424489697948","target":"present","response":"present","rt":"2665.5999999996","correct":true,"confidence":5},{"trial_n":114,"span":12,"encoder":"651185893426","distractor":"651185892426","target":"present","response":"present","rt":"2824.7000000002","correct":true,"confidence":5},{"trial_n":115,"span":13,"encoder":"1761622338363","distractor":"1761322338363","target":"present","response":"present","rt":"9341.7999999998","correct":true,"confidence":4},{"trial_n":116,"span":13,"encoder":"1571049826020","distractor":"1571049726020","target":"present","response":"present","rt":"5210.3000000007","correct":true,"confidence":5},{"trial_n":117,"span":14,"encoder":"27408359372395","distractor":"27408359372392","target":"absent","response":"absent","rt":"2021.5","correct":true,"confidence":5},{"trial_n":118,"span":14,"encoder":"23582917361578","distractor":"23582917161578","target":"present","response":"present","rt":"14978","correct":true,"confidence":3},{"trial_n":119,"span":15,"encoder":"390358502515509","distractor":"390358502515209","target":"present","response":"present","rt":"2170.2999999998","correct":true,"confidence":5},{"trial_n":120,"span":15,"encoder":"719614486038896","distractor":"719614486038816","target":"absent","response":"absent","rt":"2740.7000000002","correct":true,"confidence":5},{"trial_n":121,"span":16,"encoder":"9840327580604660","distractor":"9840327580604667","target":"absent","response":"absent","rt":"1858.4000000004","correct":true,"confidence":5},{"trial_n":122,"span":16,"encoder":"6508255324241579","distractor":"6508255326241579","target":"present","response":"absent","rt":"17197.8","correct":false,"confidence":2},{"trial_n":123,"span":15,"encoder":"518998874785107","distractor":"518998874765107","target":"present","response":"present","rt":"3278","correct":true,"confidence":4},{"trial_n":124,"span":15,"encoder":"132967167069006","distractor":"132967167069906","target":"present","response":"present","rt":"4512.7999999998","correct":true,"confidence":5},{"trial_n":125,"span":16,"encoder":"8407875125631344","distractor":"8407875125631944","target":"present","response":"present","rt":"2397.9000000004","correct":true,"confidence":5},{"trial_n":126,"span":16,"encoder":"9427013477121268","distractor":"9427013477721268","target":"absent","response":"absent","rt":"4664.7999999998","correct":true,"confidence":5},{"trial_n":127,"span":17,"encoder":"41931640164075967","distractor":"41931640164075968","target":"absent","response":"absent","rt":"4736.5","correct":true,"confidence":5},{"trial_n":128,"span":17,"encoder":"96200099446972741","distractor":"96200099546972741","target":"absent","response":"absent","rt":"10112.800000001","correct":true,"confidence":4},{"trial_n":129,"span":18,"encoder":"668248162881611906","distractor":"668248162880611906","target":"absent","response":"present","rt":"7309.2000000002","correct":false,"confidence":3},{"trial_n":130,"span":17,"encoder":"77227561779200998","distractor":"77827561779200998","target":"absent","response":"absent","rt":"8176.5999999996","correct":true,"confidence":5},{"trial_n":131,"span":17,"encoder":"58403573033091774","distractor":"58403573233091774","target":"present","response":"present","rt":"6403.6999999993","correct":true,"confidence":3},{"trial_n":132,"span":18,"encoder":"970570262761285766","distractor":"970570262761281766","target":"absent","response":"absent","rt":"22506.8","correct":true,"confidence":4},{"trial_n":133,"span":18,"encoder":"705026088077466359","distractor":"705026088077466355","target":"present","response":"present","rt":"2582.0999999996","correct":true,"confidence":5},{"trial_n":134,"span":19,"encoder":"1549123931386138746","distractor":"1549163931386138746","target":"absent","response":"absent","rt":"13000.699999999","correct":true,"confidence":5},{"trial_n":135,"span":19,"encoder":"8881355020599447659","distractor":"8881355020579447659","target":"absent","response":"absent","rt":"13737","correct":true,"confidence":4},{"trial_n":136,"span":20,"encoder":"94718536346365207232","distractor":"94718536346365607232","target":"present","response":"present","rt":"8279.5999999996","correct":true,"confidence":3},{"trial_n":137,"span":20,"encoder":"49223535409745616305","distractor":"49223535409845616305","target":"absent","response":"absent","rt":"7656.2000000002","correct":true,"confidence":2},{"trial_n":138,"span":21,"encoder":"451720745072138641078","distractor":"451720745072138647078","target":"absent","response":"absent","rt":"2971","correct":true,"confidence":4},{"trial_n":139,"span":21,"encoder":"699078165599902564622","distractor":"699076165599902564622","target":"absent","response":"present","rt":"10560.8","correct":false,"confidence":2},{"trial_n":140,"span":20,"encoder":"23701114854126826110","distractor":"23701114824126826110","target":"absent","response":"absent","rt":"6515.1000000006","correct":true,"confidence":2}]