[{"trial_n":1,"min":25,"max":230,"target":"present","response":"absent","rt":5307.1000000001,"correct":false,"confidence":-1},{"trial_n":2,"min":25,"max":230,"target":"present","response":"present","rt":2085.6,"correct":true,"confidence":-1},{"trial_n":3,"min":25,"max":230,"target":"absent","response":"absent","rt":1803.6,"correct":true,"confidence":-1},{"trial_n":4,"min":41,"max":214,"target":"absent","response":"absent","rt":1151.9,"correct":true,"confidence":-1},{"trial_n":5,"min":41,"max":214,"target":"present","response":"present","rt":1335,"correct":true,"confidence":-1},{"trial_n":6,"min":57,"max":198,"target":"present","response":"present","rt":760,"correct":true,"confidence":-1},{"trial_n":7,"min":57,"max":198,"target":"absent","response":"absent","rt":1388.9,"correct":true,"confidence":-1},{"trial_n":8,"min":73,"max":182,"target":"present","response":"present","rt":1270.5,"correct":true,"confidence":-1},{"trial_n":9,"min":73,"max":182,"target":"present","response":"present","rt":2377,"correct":true,"confidence":-1},{"trial_n":10,"min":89,"max":166,"target":"absent","response":"present","rt":873.80000000005,"correct":false,"confidence":-1},{"trial_n":11,"min":81,"max":174,"target":"present","response":"present","rt":2311.2000000001,"correct":true,"confidence":-1},{"trial_n":12,"min":81,"max":174,"target":"absent","response":"present","rt":754.19999999995,"correct":false,"confidence":-1},{"trial_n":13,"min":73,"max":182,"target":"present","response":"present","rt":1253.2999999999,"correct":true,"confidence":-1},{"trial_n":14,"min":73,"max":182,"target":"present","response":"present","rt":975.19999999995,"correct":true,"confidence":-1},{"trial_n":15,"min":81,"max":174,"target":"absent","response":"absent","rt":1678.9,"correct":true,"confidence":-1},{"trial_n":16,"min":81,"max":174,"target":"present","response":"absent","rt":1280.2000000001,"correct":false,"confidence":-1},{"trial_n":17,"min":73,"max":182,"target":"absent","response":"present","rt":1137,"correct":false,"confidence":-1},{"trial_n":18,"min":65,"max":190,"target":"present","response":"present","rt":1032.5,"correct":true,"confidence":-1},{"trial_n":19,"min":65,"max":190,"target":"absent","response":"absent","rt":1569.5,"correct":true,"confidence":-1},{"trial_n":20,"min":73,"max":182,"target":"absent","response":"absent","rt":1058.7,"correct":true,"confidence":-1},{"trial_n":21,"min":73,"max":182,"target":"absent","response":"absent","rt":911.90000000002,"correct":true,"confidence":3},{"trial_n":22,"min":77,"max":178,"target":"absent","response":"absent","rt":1884,"correct":true,"confidence":4},{"trial_n":23,"min":77,"max":178,"target":"absent","response":"present","rt":2054.5,"correct":false,"confidence":3},{"trial_n":24,"min":73,"max":182,"target":"absent","response":"absent","rt":3395,"correct":true,"confidence":4},{"trial_n":25,"min":73,"max":182,"target":"absent","response":"present","rt":1694.6,"correct":false,"confidence":3},{"trial_n":26,"min":69,"max":186,"target":"present","response":"present","rt":1314.5,"correct":true,"confidence":4},{"trial_n":27,"min":69,"max":186,"target":"present","response":"present","rt":1181.5,"correct":true,"confidence":5},{"trial_n":28,"min":73,"max":182,"target":"present","response":"present","rt":980.10000000009,"correct":true,"confidence":5},{"trial_n":29,"min":73,"max":182,"target":"absent","response":"absent","rt":1923.7,"correct":true,"confidence":4},{"trial_n":30,"min":77,"max":178,"target":"present","response":"present","rt":1315.2,"correct":true,"confidence":5},{"trial_n":31,"min":77,"max":178,"target":"present","response":"present","rt":1598.7000000001,"correct":true,"confidence":5},{"trial_n":32,"min":79,"max":176,"target":"present","response":"absent","rt":4417.6,"correct":false,"confidence":3},{"trial_n":33,"min":77,"max":178,"target":"present","response":"absent","rt":4064,"correct":false,"confidence":3},{"trial_n":34,"min":75,"max":180,"target":"absent","response":"absent","rt":1239.4,"correct":true,"confidence":5},{"trial_n":35,"min":75,"max":180,"target":"present","response":"absent","rt":1346,"correct":false,"confidence":5},{"trial_n":36,"min":73,"max":182,"target":"absent","response":"absent","rt":2202.7999999999,"correct":true,"confidence":4},{"trial_n":37,"min":73,"max":182,"target":"absent","response":"absent","rt":1744.1000000001,"correct":true,"confidence":4},{"trial_n":38,"min":75,"max":180,"target":"absent","response":"absent","rt":1396.4,"correct":true,"confidence":5},{"trial_n":39,"min":75,"max":180,"target":"absent","response":"absent","rt":1895.3,"correct":true,"confidence":5},{"trial_n":40,"min":77,"max":178,"target":"present","response":"present","rt":1293.7,"correct":true,"confidence":4},{"trial_n":41,"min":77,"max":178,"target":"absent","response":"absent","rt":1611.6,"correct":true,"confidence":5},{"trial_n":42,"min":78,"max":177,"target":"absent","response":"present","rt":2883.5,"correct":false,"confidence":4},{"trial_n":43,"min":77,"max":178,"target":"present","response":"absent","rt":1617.3999999999,"correct":false,"confidence":4},{"trial_n":44,"min":76,"max":179,"target":"absent","response":"absent","rt":1318.5,"correct":true,"confidence":4},{"trial_n":45,"min":76,"max":179,"target":"present","response":"absent","rt":1705.3999999999,"correct":false,"confidence":4},{"trial_n":46,"min":75,"max":180,"target":"present","response":"present","rt":1532.8,"correct":true,"confidence":5},{"trial_n":47,"min":75,"max":180,"target":"absent","response":"present","rt":4772.5,"correct":false,"confidence":3},{"trial_n":48,"min":74,"max":181,"target":"present","response":"present","rt":1840.9,"correct":true,"confidence":2},{"trial_n":49,"min":74,"max":181,"target":"absent","response":"present","rt":1682.7000000001,"correct":false,"confidence":3},{"trial_n":50,"min":73,"max":182,"target":"present","response":"present","rt":6520.2,"correct":true,"confidence":2},{"trial_n":51,"min":73,"max":182,"target":"absent","response":"present","rt":3215,"correct":false,"confidence":3},{"trial_n":52,"min":72,"max":183,"target":"absent","response":"present","rt":11104.2,"correct":false,"confidence":2},{"trial_n":53,"min":71,"max":184,"target":"present","response":"present","rt":1106.7,"correct":true,"confidence":5},{"trial_n":54,"min":71,"max":184,"target":"present","response":"present","rt":1403.3999999999,"correct":true,"confidence":5},{"trial_n":55,"min":72,"max":183,"target":"present","response":"present","rt":1351.5999999999,"correct":true,"confidence":5},{"trial_n":56,"min":72,"max":183,"target":"present","response":"present","rt":834.69999999995,"correct":true,"confidence":5},{"trial_n":57,"min":73,"max":182,"target":"present","response":"present","rt":751.5,"correct":true,"confidence":5},{"trial_n":58,"min":73,"max":182,"target":"present","response":"present","rt":643.5,"correct":true,"confidence":5},{"trial_n":59,"min":74,"max":181,"target":"present","response":"present","rt":554.5,"correct":true,"confidence":5},{"trial_n":60,"min":74,"max":181,"target":"absent","response":"absent","rt":1205.4000000001,"correct":true,"confidence":5},{"trial_n":61,"min":75,"max":180,"target":"present","response":"present","rt":884.80000000005,"correct":true,"confidence":5},{"trial_n":62,"min":75,"max":180,"target":"absent","response":"present","rt":644.60000000009,"correct":false,"confidence":4},{"trial_n":63,"min":74,"max":181,"target":"present","response":"present","rt":543.60000000009,"correct":true,"confidence":5},{"trial_n":64,"min":74,"max":181,"target":"present","response":"present","rt":505,"correct":true,"confidence":5},{"trial_n":65,"min":75,"max":180,"target":"absent","response":"absent","rt":1166.7,"correct":true,"confidence":5},{"trial_n":66,"min":75,"max":180,"target":"present","response":"present","rt":1408.9000000001,"correct":true,"confidence":5},{"trial_n":67,"min":76,"max":179,"target":"absent","response":"absent","rt":1210.8999999999,"correct":true,"confidence":5},{"trial_n":68,"min":76,"max":179,"target":"absent","response":"present","rt":1053.2,"correct":false,"confidence":4},{"trial_n":69,"min":75,"max":180,"target":"absent","response":"present","rt":1058.5,"correct":false,"confidence":4},{"trial_n":70,"min":74,"max":181,"target":"absent","response":"absent","rt":992.5,"correct":true,"confidence":5},{"trial_n":71,"min":41,"max":214,"target":"present","response":"present","rt":1742.7,"correct":true,"confidence":-1},{"trial_n":72,"min":41,"max":214,"target":"present","response":"present","rt":3791.8,"correct":true,"confidence":-1},{"trial_n":73,"min":57,"max":198,"target":"absent","response":"present","rt":595.5,"correct":false,"confidence":-1},{"trial_n":74,"min":41,"max":214,"target":"absent","response":"absent","rt":725.60000000009,"correct":true,"confidence":-1},{"trial_n":75,"min":41,"max":214,"target":"present","response":"present","rt":367,"correct":true,"confidence":-1},{"trial_n":76,"min":57,"max":198,"target":"absent","response":"absent","rt":434.20000000019,"correct":true,"confidence":-1},{"trial_n":77,"min":57,"max":198,"target":"absent","response":"present","rt":639,"correct":false,"confidence":-1},{"trial_n":78,"min":41,"max":214,"target":"absent","response":"absent","rt":829,"correct":true,"confidence":-1},{"trial_n":79,"min":41,"max":214,"target":"present","response":"present","rt":472.69999999995,"correct":true,"confidence":-1},{"trial_n":80,"min":57,"max":198,"target":"absent","response":"absent","rt":488.10000000009,"correct":true,"confidence":-1},{"trial_n":81,"min":57,"max":198,"target":"present","response":"present","rt":813.30000000005,"correct":true,"confidence":-1},{"trial_n":82,"min":65,"max":190,"target":"present","response":"present","rt":451.10000000009,"correct":true,"confidence":-1},{"trial_n":83,"min":65,"max":190,"target":"present","response":"present","rt":716.40000000014,"correct":true,"confidence":-1},{"trial_n":84,"min":73,"max":182,"target":"present","response":"present","rt":799.60000000009,"correct":true,"confidence":-1},{"trial_n":85,"min":73,"max":182,"target":"absent","response":"present","rt":3092.3,"correct":false,"confidence":-1},{"trial_n":86,"min":65,"max":190,"target":"present","response":"present","rt":427.90000000014,"correct":true,"confidence":-1},{"trial_n":87,"min":65,"max":190,"target":"present","response":"present","rt":469.60000000009,"correct":true,"confidence":-1},{"trial_n":88,"min":73,"max":182,"target":"absent","response":"absent","rt":674.80000000005,"correct":true,"confidence":-1},{"trial_n":89,"min":73,"max":182,"target":"present","response":"present","rt":424.40000000014,"correct":true,"confidence":-1},{"trial_n":90,"min":81,"max":174,"target":"absent","response":"absent","rt":943.60000000009,"correct":true,"confidence":-1},{"trial_n":91,"min":81,"max":174,"target":"present","response":"present","rt":1107,"correct":true,"confidence":3},{"trial_n":92,"min":85,"max":170,"target":"absent","response":"present","rt":3961.6000000001,"correct":false,"confidence":2},{"trial_n":93,"min":81,"max":174,"target":"absent","response":"present","rt":425.60000000009,"correct":false,"confidence":4},{"trial_n":94,"min":77,"max":178,"target":"absent","response":"absent","rt":1056,"correct":true,"confidence":4},{"trial_n":95,"min":77,"max":178,"target":"absent","response":"absent","rt":608.60000000009,"correct":true,"confidence":4},{"trial_n":96,"min":81,"max":174,"target":"present","response":"present","rt":470,"correct":true,"confidence":5},{"trial_n":97,"min":81,"max":174,"target":"present","response":"present","rt":666.5,"correct":true,"confidence":5},{"trial_n":98,"min":85,"max":170,"target":"present","response":"present","rt":567.69999999995,"correct":true,"confidence":5},{"trial_n":99,"min":85,"max":170,"target":"present","response":"present","rt":717.90000000014,"correct":true,"confidence":5},{"trial_n":100,"min":89,"max":166,"target":"present","response":"present","rt":795.19999999995,"correct":true,"confidence":5},{"trial_n":101,"min":89,"max":166,"target":"present","response":"present","rt":552.69999999995,"correct":true,"confidence":5},{"trial_n":102,"min":91,"max":164,"target":"present","response":"present","rt":528.89999999991,"correct":true,"confidence":5},{"trial_n":103,"min":91,"max":164,"target":"absent","response":"absent","rt":2566.5,"correct":true,"confidence":1},{"trial_n":104,"min":93,"max":162,"target":"absent","response":"present","rt":499.19999999995,"correct":false,"confidence":5},{"trial_n":105,"min":91,"max":164,"target":"present","response":"present","rt":643.69999999995,"correct":true,"confidence":5},{"trial_n":106,"min":91,"max":164,"target":"present","response":"present","rt":589.89999999991,"correct":true,"confidence":5},{"trial_n":107,"min":93,"max":162,"target":"present","response":"present","rt":524.69999999995,"correct":true,"confidence":5},{"trial_n":108,"min":93,"max":162,"target":"absent","response":"present","rt":537.79999999981,"correct":false,"confidence":5},{"trial_n":109,"min":91,"max":164,"target":"present","response":"present","rt":775.89999999991,"correct":true,"confidence":5},{"trial_n":110,"min":91,"max":164,"target":"absent","response":"present","rt":746.60000000009,"correct":false,"confidence":5},{"trial_n":111,"min":90,"max":165,"target":"present","response":"present","rt":3438.0999999999,"correct":true,"confidence":1},{"trial_n":112,"min":90,"max":165,"target":"absent","response":"present","rt":541.5,"correct":false,"confidence":5},{"trial_n":113,"min":89,"max":166,"target":"absent","response":"absent","rt":2955.5,"correct":true,"confidence":1},{"trial_n":114,"min":89,"max":166,"target":"present","response":"present","rt":564.60000000009,"correct":true,"confidence":5},{"trial_n":115,"min":90,"max":165,"target":"absent","response":"present","rt":3757.9000000001,"correct":false,"confidence":1},{"trial_n":116,"min":89,"max":166,"target":"present","response":"present","rt":544.5,"correct":true,"confidence":5},{"trial_n":117,"min":89,"max":166,"target":"absent","response":"present","rt":719.40000000014,"correct":false,"confidence":4},{"trial_n":118,"min":88,"max":167,"target":"present","response":"present","rt":596,"correct":true,"confidence":5},{"trial_n":119,"min":88,"max":167,"target":"present","response":"present","rt":704.09999999986,"correct":true,"confidence":5},{"trial_n":120,"min":89,"max":166,"target":"present","response":"present","rt":568.80000000005,"correct":true,"confidence":5},{"trial_n":121,"min":89,"max":166,"target":"absent","response":"present","rt":476.90000000014,"correct":false,"confidence":5},{"trial_n":122,"min":88,"max":167,"target":"absent","response":"absent","rt":1055.3,"correct":true,"confidence":4},{"trial_n":123,"min":88,"max":167,"target":"present","response":"present","rt":803.09999999986,"correct":true,"confidence":5},{"trial_n":124,"min":89,"max":166,"target":"absent","response":"absent","rt":1077.8,"correct":true,"confidence":4},{"trial_n":125,"min":89,"max":166,"target":"present","response":"present","rt":1924.2,"correct":true,"confidence":4},{"trial_n":126,"min":90,"max":165,"target":"absent","response":"present","rt":765.30000000005,"correct":false,"confidence":4},{"trial_n":127,"min":89,"max":166,"target":"absent","response":"absent","rt":2752.6000000001,"correct":true,"confidence":2},{"trial_n":128,"min":89,"max":166,"target":"absent","response":"present","rt":602.30000000005,"correct":false,"confidence":5},{"trial_n":129,"min":88,"max":167,"target":"present","response":"present","rt":551.60000000009,"correct":true,"confidence":5},{"trial_n":130,"min":88,"max":167,"target":"absent","response":"present","rt":3487.5,"correct":false,"confidence":1},{"trial_n":131,"min":87,"max":168,"target":"absent","response":"present","rt":1579.2,"correct":false,"confidence":5},{"trial_n":132,"min":86,"max":169,"target":"absent","response":"absent","rt":827.10000000009,"correct":true,"confidence":5},{"trial_n":133,"min":86,"max":169,"target":"present","response":"present","rt":4243.7,"correct":true,"confidence":1},{"trial_n":134,"min":87,"max":168,"target":"present","response":"present","rt":615.89999999991,"correct":true,"confidence":5},{"trial_n":135,"min":87,"max":168,"target":"present","response":"present","rt":570.5,"correct":true,"confidence":5},{"trial_n":136,"min":88,"max":167,"target":"present","response":"absent","rt":1774.3999999999,"correct":false,"confidence":1},{"trial_n":137,"min":87,"max":168,"target":"absent","response":"absent","rt":2347,"correct":true,"confidence":1},{"trial_n":138,"min":87,"max":168,"target":"absent","response":"absent","rt":1178,"correct":true,"confidence":1},{"trial_n":139,"min":88,"max":167,"target":"absent","response":"absent","rt":2104,"correct":true,"confidence":1},{"trial_n":140,"min":88,"max":167,"target":"absent","response":"present","rt":818.89999999991,"correct":false,"confidence":1}]