[{"trial_n":1,"span":8,"encoder":"30335674","distractor":"80335674","target":"present","response":"present","rt":"4029.1999999993","correct":true,"confidence":-1},{"trial_n":2,"span":8,"encoder":"32225245","distractor":"32223245","target":"present","response":"present","rt":"1449.8999999985","correct":true,"confidence":-1},{"trial_n":3,"span":10,"encoder":"4207483428","distractor":"4207482428","target":"absent","response":"present","rt":"1508.200000003","correct":false,"confidence":-1},{"trial_n":4,"span":8,"encoder":"70210118","distractor":"70210119","target":"absent","response":"absent","rt":"2512.700000003","correct":true,"confidence":-1},{"trial_n":5,"span":8,"encoder":"79070485","distractor":"79670485","target":"present","response":"present","rt":"1861.3000000007","correct":true,"confidence":-1},{"trial_n":6,"span":10,"encoder":"4741927809","distractor":"4441927809","target":"present","response":"present","rt":"2227.5","correct":true,"confidence":-1},{"trial_n":7,"span":10,"encoder":"2005585032","distractor":"2805585032","target":"present","response":"present","rt":"3195.0999999978","correct":true,"confidence":-1},{"trial_n":8,"span":12,"encoder":"337905795652","distractor":"337905795642","target":"present","response":"absent","rt":"2032.8999999985","correct":false,"confidence":-1},{"trial_n":9,"span":10,"encoder":"8596654499","distractor":"8196654499","target":"present","response":"present","rt":"1669.0999999978","correct":true,"confidence":-1},{"trial_n":10,"span":10,"encoder":"0103969888","distractor":"1103969888","target":"absent","response":"absent","rt":"2165.1999999993","correct":true,"confidence":-1},{"trial_n":11,"span":12,"encoder":"710792840686","distractor":"720792840686","target":"absent","response":"present","rt":"3114.3999999985","correct":false,"confidence":-1},{"trial_n":12,"span":11,"encoder":"03170530634","distractor":"03170540634","target":"present","response":"present","rt":"1544","correct":true,"confidence":-1},{"trial_n":13,"span":11,"encoder":"96532837600","distractor":"96532834600","target":"absent","response":"present","rt":"1555","correct":false,"confidence":-1},{"trial_n":14,"span":10,"encoder":"4694896184","distractor":"4694896134","target":"absent","response":"present","rt":"2458.5999999978","correct":false,"confidence":-1},{"trial_n":15,"span":9,"encoder":"525978738","distractor":"525878738","target":"absent","response":"present","rt":"2115","correct":false,"confidence":-1},{"trial_n":16,"span":8,"encoder":"87191402","distractor":"97191402","target":"present","response":"present","rt":"1860","correct":true,"confidence":-1},{"trial_n":17,"span":8,"encoder":"99091231","distractor":"99091531","target":"present","response":"absent","rt":"1845","correct":false,"confidence":-1},{"trial_n":18,"span":7,"encoder":"7864514","distractor":"7864114","target":"present","response":"present","rt":"1727.0999999978","correct":true,"confidence":-1},{"trial_n":19,"span":7,"encoder":"6971848","distractor":"6971838","target":"present","response":"present","rt":"1473","correct":true,"confidence":-1},{"trial_n":20,"span":8,"encoder":"07019619","distractor":"07019617","target":"present","response":"present","rt":"1941.8999999985","correct":true,"confidence":-1},{"trial_n":21,"span":8,"encoder":"73730952","distractor":"71730952","target":"absent","response":"absent","rt":"1800.1999999993","correct":true,"confidence":5},{"trial_n":22,"span":9,"encoder":"240401825","distractor":"240401865","target":"absent","response":"present","rt":"1636.700000003","correct":false,"confidence":3},{"trial_n":23,"span":8,"encoder":"97344090","distractor":"97144090","target":"absent","response":"absent","rt":"3002.5999999978","correct":true,"confidence":5},{"trial_n":24,"span":8,"encoder":"25055369","distractor":"25055669","target":"absent","response":"present","rt":"1519.9000000022","correct":false,"confidence":2},{"trial_n":25,"span":7,"encoder":"0881786","distractor":"0831786","target":"absent","response":"absent","rt":"2830","correct":true,"confidence":5},{"trial_n":26,"span":7,"encoder":"1676472","distractor":"1676442","target":"present","response":"present","rt":"2750.1000000015","correct":true,"confidence":3},{"trial_n":27,"span":8,"encoder":"05634037","distractor":"05634097","target":"absent","response":"present","rt":"2248.8999999985","correct":false,"confidence":2},{"trial_n":28,"span":7,"encoder":"2528631","distractor":"2526631","target":"present","response":"present","rt":"2606","correct":true,"confidence":2},{"trial_n":29,"span":7,"encoder":"4493035","distractor":"4491035","target":"absent","response":"absent","rt":"2919.3999999985","correct":true,"confidence":5},{"trial_n":30,"span":8,"encoder":"93376880","distractor":"93376885","target":"present","response":"present","rt":"2402.1999999993","correct":true,"confidence":3},{"trial_n":31,"span":8,"encoder":"88995994","distractor":"88995990","target":"present","response":"present","rt":"2354.200000003","correct":true,"confidence":3},{"trial_n":32,"span":9,"encoder":"104580639","distractor":"101580639","target":"absent","response":"absent","rt":"3108.8999999985","correct":true,"confidence":5},{"trial_n":33,"span":9,"encoder":"660057952","distractor":"660057992","target":"present","response":"present","rt":"2146","correct":true,"confidence":3},{"trial_n":34,"span":10,"encoder":"4799490393","distractor":"4199490393","target":"absent","response":"absent","rt":"2571.3000000007","correct":true,"confidence":5},{"trial_n":35,"span":10,"encoder":"8230195536","distractor":"8230195530","target":"present","response":"present","rt":"2015.1999999993","correct":true,"confidence":3},{"trial_n":36,"span":11,"encoder":"09969890388","distractor":"09969890888","target":"present","response":"absent","rt":"4865.5999999978","correct":false,"confidence":3},{"trial_n":37,"span":10,"encoder":"0202386420","distractor":"0202186420","target":"present","response":"present","rt":"2716.200000003","correct":true,"confidence":3},{"trial_n":38,"span":10,"encoder":"9999557491","distractor":"9999557401","target":"present","response":"present","rt":"2268.3999999985","correct":true,"confidence":3},{"trial_n":39,"span":11,"encoder":"12453849031","distractor":"12453847031","target":"present","response":"present","rt":"2178.3000000007","correct":true,"confidence":3},{"trial_n":40,"span":11,"encoder":"75869070049","distractor":"75869070059","target":"absent","response":"present","rt":"1513.3999999985","correct":false,"confidence":3},{"trial_n":41,"span":10,"encoder":"9512824165","distractor":"9512828165","target":"absent","response":"absent","rt":"2638.8999999985","correct":true,"confidence":1},{"trial_n":42,"span":10,"encoder":"4022965466","distractor":"4022965966","target":"absent","response":"present","rt":"2234.3000000007","correct":false,"confidence":3},{"trial_n":43,"span":9,"encoder":"451127738","distractor":"451127138","target":"absent","response":"present","rt":"1530.0999999978","correct":false,"confidence":3},{"trial_n":44,"span":8,"encoder":"00285271","distractor":"00245271","target":"absent","response":"present","rt":"3007.6999999993","correct":false,"confidence":3},{"trial_n":45,"span":7,"encoder":"5659631","distractor":"5652631","target":"absent","response":"absent","rt":"2567.6999999993","correct":true,"confidence":5},{"trial_n":46,"span":7,"encoder":"8275531","distractor":"8278531","target":"present","response":"present","rt":"4678.6000000015","correct":true,"confidence":3},{"trial_n":47,"span":8,"encoder":"19154124","distractor":"19104124","target":"present","response":"present","rt":"2006.1000000015","correct":true,"confidence":3},{"trial_n":48,"span":8,"encoder":"19281893","distractor":"19281892","target":"present","response":"present","rt":"2051.6000000015","correct":true,"confidence":3},{"trial_n":49,"span":9,"encoder":"658679469","distractor":"658679369","target":"absent","response":"present","rt":"3925.6000000015","correct":false,"confidence":3},{"trial_n":50,"span":8,"encoder":"26470033","distractor":"26470030","target":"present","response":"present","rt":"2203.5","correct":true,"confidence":3},{"trial_n":51,"span":8,"encoder":"98914470","distractor":"28914470","target":"absent","response":"absent","rt":"3314.3000000007","correct":true,"confidence":5},{"trial_n":52,"span":9,"encoder":"089800863","distractor":"589800863","target":"present","response":"present","rt":"2803","correct":true,"confidence":3},{"trial_n":53,"span":9,"encoder":"341114440","distractor":"341174440","target":"absent","response":"absent","rt":"3518.5999999978","correct":true,"confidence":5},{"trial_n":54,"span":10,"encoder":"9815019985","distractor":"8815019985","target":"absent","response":"absent","rt":"1679.9000000022","correct":true,"confidence":5},{"trial_n":55,"span":10,"encoder":"8677573075","distractor":"8877573075","target":"present","response":"present","rt":"2744.5","correct":true,"confidence":3},{"trial_n":56,"span":11,"encoder":"35770805541","distractor":"35770805841","target":"present","response":"present","rt":"2560.6999999993","correct":true,"confidence":3},{"trial_n":57,"span":11,"encoder":"80255240016","distractor":"00255240016","target":"absent","response":"absent","rt":"2772.6999999993","correct":true,"confidence":5},{"trial_n":58,"span":12,"encoder":"026183128993","distractor":"026183128193","target":"absent","response":"present","rt":"2933.5","correct":false,"confidence":3},{"trial_n":59,"span":11,"encoder":"51077252311","distractor":"51977252311","target":"absent","response":"absent","rt":"3123.1000000015","correct":true,"confidence":5},{"trial_n":60,"span":11,"encoder":"32865550806","distractor":"32865450806","target":"absent","response":"present","rt":"2962","correct":false,"confidence":3},{"trial_n":61,"span":10,"encoder":"7582867869","distractor":"7582867269","target":"present","response":"present","rt":"2412.5","correct":true,"confidence":4},{"trial_n":62,"span":10,"encoder":"7794716499","distractor":"7294716499","target":"absent","response":"absent","rt":"2771.1000000015","correct":true,"confidence":5},{"trial_n":63,"span":11,"encoder":"77359295891","distractor":"77059295891","target":"absent","response":"absent","rt":"2589.3000000007","correct":true,"confidence":5},{"trial_n":64,"span":11,"encoder":"72547414863","distractor":"72544414863","target":"present","response":"present","rt":"2775.700000003","correct":true,"confidence":3},{"trial_n":65,"span":12,"encoder":"456488056572","distractor":"456488056272","target":"present","response":"present","rt":"2502.6999999993","correct":true,"confidence":3},{"trial_n":66,"span":12,"encoder":"671722152137","distractor":"871722152137","target":"present","response":"present","rt":"5179.3999999985","correct":true,"confidence":3},{"trial_n":67,"span":13,"encoder":"5473425315723","distractor":"5473425315721","target":"present","response":"present","rt":"2802","correct":true,"confidence":3},{"trial_n":68,"span":13,"encoder":"3343230901497","distractor":"3343230931497","target":"absent","response":"present","rt":"2482.200000003","correct":false,"confidence":3},{"trial_n":69,"span":12,"encoder":"638638428578","distractor":"608638428578","target":"present","response":"present","rt":"2669.1999999993","correct":true,"confidence":3},{"trial_n":70,"span":12,"encoder":"080290801659","distractor":"380290801659","target":"absent","response":"absent","rt":"2030.6000000015","correct":true,"confidence":5},{"trial_n":71,"span":8,"encoder":"00928245","distractor":"60928245","target":"present","response":"present","rt":"3102.5999999978","correct":true,"confidence":-1},{"trial_n":72,"span":8,"encoder":"38566703","distractor":"38576703","target":"present","response":"present","rt":"4509.3000000007","correct":true,"confidence":-1},{"trial_n":73,"span":9,"encoder":"925448518","distractor":"927448518","target":"absent","response":"absent","rt":"3477.1000000015","correct":true,"confidence":-1},{"trial_n":74,"span":9,"encoder":"729749927","distractor":"729649927","target":"absent","response":"absent","rt":"3077.8000000007","correct":true,"confidence":-1},{"trial_n":75,"span":10,"encoder":"3224715123","distractor":"7224715123","target":"present","response":"present","rt":"3548.6000000015","correct":true,"confidence":-1},{"trial_n":76,"span":10,"encoder":"9451221101","distractor":"9431221101","target":"present","response":"present","rt":"2999.299999997","correct":true,"confidence":-1},{"trial_n":77,"span":11,"encoder":"15588311034","distractor":"15528311034","target":"absent","response":"absent","rt":"2341.3999999985","correct":true,"confidence":-1},{"trial_n":78,"span":11,"encoder":"88989691901","distractor":"88980691901","target":"present","response":"present","rt":"5001.1999999993","correct":true,"confidence":-1},{"trial_n":79,"span":12,"encoder":"009291418471","distractor":"019291418471","target":"present","response":"present","rt":"2564.8999999985","correct":true,"confidence":-1},{"trial_n":80,"span":12,"encoder":"725742436313","distractor":"725742406313","target":"present","response":"present","rt":"3096.1000000015","correct":true,"confidence":-1},{"trial_n":81,"span":13,"encoder":"8542974108253","distractor":"8544974108253","target":"present","response":"present","rt":"3302.700000003","correct":true,"confidence":-1},{"trial_n":82,"span":13,"encoder":"2737153664581","distractor":"4737153664581","target":"present","response":"present","rt":"2263.5","correct":true,"confidence":-1},{"trial_n":83,"span":14,"encoder":"44552012925215","distractor":"48552012925215","target":"present","response":"present","rt":"2557.6999999993","correct":true,"confidence":-1},{"trial_n":84,"span":14,"encoder":"11356348966098","distractor":"11350348966098","target":"absent","response":"absent","rt":"3064.1000000015","correct":true,"confidence":-1},{"trial_n":85,"span":15,"encoder":"677342211719575","distractor":"877342211719575","target":"absent","response":"present","rt":"1095.3000000007","correct":false,"confidence":-1},{"trial_n":86,"span":14,"encoder":"40089535996883","distractor":"40089535996583","target":"present","response":"present","rt":"2623.3000000007","correct":true,"confidence":-1},{"trial_n":87,"span":14,"encoder":"67535304563206","distractor":"67535304563276","target":"absent","response":"absent","rt":"4080.8999999985","correct":true,"confidence":-1},{"trial_n":88,"span":15,"encoder":"388788634209615","distractor":"388788634219615","target":"absent","response":"present","rt":"5672.1000000015","correct":false,"confidence":-1},{"trial_n":89,"span":14,"encoder":"83188362911362","distractor":"43188362911362","target":"absent","response":"absent","rt":"3168.1000000015","correct":true,"confidence":-1},{"trial_n":90,"span":14,"encoder":"46722172053132","distractor":"46722072053132","target":"absent","response":"absent","rt":"1664.6999999993","correct":true,"confidence":-1},{"trial_n":91,"span":15,"encoder":"351623956128247","distractor":"351683956128247","target":"absent","response":"present","rt":"2604.5999999978","correct":false,"confidence":2},{"trial_n":92,"span":14,"encoder":"70569546118530","distractor":"70569546118130","target":"absent","response":"present","rt":"4659.4000000022","correct":false,"confidence":2},{"trial_n":93,"span":13,"encoder":"6853687626198","distractor":"6853687626194","target":"absent","response":"absent","rt":"2825.8999999985","correct":true,"confidence":2},{"trial_n":94,"span":13,"encoder":"7759261373043","distractor":"7769261373043","target":"absent","response":"absent","rt":"1942","correct":true,"confidence":5},{"trial_n":95,"span":14,"encoder":"46597048575875","distractor":"41597048575875","target":"absent","response":"absent","rt":"2455","correct":true,"confidence":5},{"trial_n":96,"span":14,"encoder":"08140300974141","distractor":"08110300974141","target":"present","response":"present","rt":"3108.4000000022","correct":true,"confidence":5},{"trial_n":97,"span":15,"encoder":"056040733388054","distractor":"056040433388054","target":"absent","response":"absent","rt":"5776.5","correct":true,"confidence":1},{"trial_n":98,"span":15,"encoder":"830355791849930","distractor":"830355791879930","target":"present","response":"absent","rt":"3615.6999999993","correct":false,"confidence":1},{"trial_n":99,"span":14,"encoder":"83624206715439","distractor":"88624206715439","target":"absent","response":"present","rt":"7221.5","correct":false,"confidence":5},{"trial_n":100,"span":13,"encoder":"3733861812685","distractor":"3733861812385","target":"absent","response":"present","rt":"5691.8000000007","correct":false,"confidence":1},{"trial_n":101,"span":12,"encoder":"101956943727","distractor":"181956943727","target":"present","response":"present","rt":"2203.8999999985","correct":true,"confidence":5},{"trial_n":102,"span":12,"encoder":"548428286380","distractor":"548428086380","target":"present","response":"present","rt":"3362.3000000007","correct":true,"confidence":1},{"trial_n":103,"span":13,"encoder":"8728170282231","distractor":"8728170287231","target":"present","response":"absent","rt":"5356","correct":false,"confidence":1},{"trial_n":104,"span":12,"encoder":"664926448150","distractor":"634926448150","target":"present","response":"present","rt":"3901.8000000007","correct":true,"confidence":5},{"trial_n":105,"span":12,"encoder":"245680634759","distractor":"245680734759","target":"present","response":"present","rt":"5164.9000000022","correct":true,"confidence":1},{"trial_n":106,"span":13,"encoder":"9838697921867","distractor":"9838697921865","target":"present","response":"present","rt":"5834","correct":true,"confidence":1},{"trial_n":107,"span":13,"encoder":"0995348466581","distractor":"0995340466581","target":"absent","response":"present","rt":"4996.8000000007","correct":false,"confidence":1},{"trial_n":108,"span":12,"encoder":"822604095666","distractor":"822604045666","target":"present","response":"absent","rt":"4276.1000000015","correct":false,"confidence":1},{"trial_n":109,"span":11,"encoder":"87480534538","distractor":"87480534531","target":"present","response":"present","rt":"4229","correct":true,"confidence":1},{"trial_n":110,"span":11,"encoder":"29887260524","distractor":"29887360524","target":"present","response":"present","rt":"3212.299999997","correct":true,"confidence":1},{"trial_n":111,"span":12,"encoder":"720012996209","distractor":"720016996209","target":"present","response":"present","rt":"4253.1999999993","correct":true,"confidence":5},{"trial_n":112,"span":12,"encoder":"990251947085","distractor":"920251947085","target":"present","response":"present","rt":"5290.5","correct":true,"confidence":1},{"trial_n":113,"span":13,"encoder":"4698114043528","distractor":"2698114043528","target":"absent","response":"absent","rt":"2293.5999999978","correct":true,"confidence":5},{"trial_n":114,"span":13,"encoder":"2624816244616","distractor":"2624816224616","target":"present","response":"absent","rt":"4138.1000000015","correct":false,"confidence":1},{"trial_n":115,"span":12,"encoder":"899620431056","distractor":"899620431058","target":"absent","response":"absent","rt":"3095.3000000007","correct":true,"confidence":1},{"trial_n":116,"span":12,"encoder":"658215576238","distractor":"658218576238","target":"absent","response":"present","rt":"18914.099999998","correct":false,"confidence":3},{"trial_n":117,"span":11,"encoder":"43854464868","distractor":"43854564868","target":"absent","response":"absent","rt":"3643.3999999985","correct":true,"confidence":2},{"trial_n":118,"span":11,"encoder":"95338583451","distractor":"95334583451","target":"absent","response":"absent","rt":"165.30000000075","correct":true,"confidence":1},{"trial_n":119,"span":12,"encoder":"618395592912","distractor":"668395592912","target":"absent","response":"absent","rt":"4704","correct":true,"confidence":5},{"trial_n":120,"span":12,"encoder":"784006019647","distractor":"784006009647","target":"present","response":"absent","rt":"3438.9000000022","correct":false,"confidence":3},{"trial_n":121,"span":11,"encoder":"32313477912","distractor":"32314477912","target":"present","response":"absent","rt":"7382.9000000022","correct":false,"confidence":2},{"trial_n":122,"span":10,"encoder":"1591429681","distractor":"1491429681","target":"absent","response":"present","rt":"4332","correct":false,"confidence":5},{"trial_n":123,"span":9,"encoder":"450794380","distractor":"450794320","target":"absent","response":"absent","rt":"3090.299999997","correct":true,"confidence":5},{"trial_n":124,"span":9,"encoder":"327992255","distractor":"321992255","target":"absent","response":"present","rt":"4804","correct":false,"confidence":5},{"trial_n":125,"span":8,"encoder":"71908217","distractor":"71968217","target":"absent","response":"absent","rt":"3355.5999999978","correct":true,"confidence":5},{"trial_n":126,"span":8,"encoder":"68998495","distractor":"68198495","target":"present","response":"absent","rt":"6975.200000003","correct":false,"confidence":3},{"trial_n":127,"span":7,"encoder":"9433502","distractor":"9133502","target":"present","response":"present","rt":"6952.9000000022","correct":true,"confidence":3},{"trial_n":128,"span":7,"encoder":"5518251","distractor":"7518251","target":"present","response":"present","rt":"2624.299999997","correct":true,"confidence":5},{"trial_n":129,"span":8,"encoder":"78484527","distractor":"78484927","target":"absent","response":"absent","rt":"9368.6999999993","correct":true,"confidence":3},{"trial_n":130,"span":8,"encoder":"83627404","distractor":"83327404","target":"absent","response":"absent","rt":"2864.5","correct":true,"confidence":3},{"trial_n":131,"span":9,"encoder":"724211833","distractor":"724210833","target":"absent","response":"absent","rt":"4796.3999999985","correct":true,"confidence":5},{"trial_n":132,"span":9,"encoder":"623114818","distractor":"623114810","target":"absent","response":"absent","rt":"6057.3000000007","correct":true,"confidence":5},{"trial_n":133,"span":10,"encoder":"2159843807","distractor":"2159843407","target":"present","response":"present","rt":"8202.3000000007","correct":true,"confidence":2},{"trial_n":134,"span":10,"encoder":"0898636168","distractor":"0898536168","target":"present","response":"present","rt":"12527.099999998","correct":true,"confidence":2},{"trial_n":135,"span":11,"encoder":"52644601757","distractor":"52644605757","target":"absent","response":"absent","rt":"3360.700000003","correct":true,"confidence":5},{"trial_n":136,"span":11,"encoder":"91875567718","distractor":"91075567718","target":"present","response":"absent","rt":"7383.1999999993","correct":false,"confidence":3},{"trial_n":137,"span":10,"encoder":"8957481905","distractor":"8957481925","target":"present","response":"present","rt":"9221.5","correct":true,"confidence":3},{"trial_n":138,"span":10,"encoder":"8827753555","distractor":"7827753555","target":"present","response":"present","rt":"4581.5","correct":true,"confidence":4},{"trial_n":139,"span":11,"encoder":"92023208031","distractor":"92023508031","target":"absent","response":"absent","rt":"6694.3000000007","correct":true,"confidence":4},{"trial_n":140,"span":11,"encoder":"02521380896","distractor":"02571380896","target":"present","response":"present","rt":"6842.3000000007","correct":true,"confidence":4}]