[{"trial_n":1,"n_dots":4.25,"target":"left","response":"left","rt":4711.299999997,"correct":true,"confidence":-1},{"trial_n":2,"n_dots":4.25,"target":"right","response":"left","rt":570.79999999702,"correct":false,"confidence":-1},{"trial_n":3,"n_dots":4.65,"target":"left","response":"left","rt":497.5,"correct":true,"confidence":-1},{"trial_n":4,"n_dots":4.65,"target":"left","response":"left","rt":598.60000000149,"correct":true,"confidence":-1},{"trial_n":5,"n_dots":4.25,"target":"left","response":"left","rt":574.39999999851,"correct":true,"confidence":-1},{"trial_n":6,"n_dots":4.25,"target":"right","response":"right","rt":1504.8999999985,"correct":true,"confidence":-1},{"trial_n":7,"n_dots":3.85,"target":"right","response":"right","rt":462,"correct":true,"confidence":-1},{"trial_n":8,"n_dots":3.85,"target":"left","response":"left","rt":390.69999999553,"correct":true,"confidence":-1},{"trial_n":9,"n_dots":3.65,"target":"left","response":"left","rt":459.29999999702,"correct":true,"confidence":-1},{"trial_n":10,"n_dots":3.65,"target":"left","response":"right","rt":513.5,"correct":false,"confidence":-1},{"trial_n":11,"n_dots":3.85,"target":"right","response":"left","rt":521.70000000298,"correct":false,"confidence":-1},{"trial_n":12,"n_dots":4.05,"target":"left","response":"right","rt":572.30000000447,"correct":false,"confidence":-1},{"trial_n":13,"n_dots":4.15,"target":"left","response":"left","rt":192.89999999851,"correct":true,"confidence":-1},{"trial_n":14,"n_dots":4.15,"target":"right","response":"right","rt":549.70000000298,"correct":true,"confidence":-1},{"trial_n":15,"n_dots":4.05,"target":"left","response":"left","rt":573,"correct":true,"confidence":-1},{"trial_n":16,"n_dots":4.05,"target":"left","response":"left","rt":646.10000000149,"correct":true,"confidence":-1},{"trial_n":17,"n_dots":3.95,"target":"left","response":"left","rt":737.40000000596,"correct":true,"confidence":-1},{"trial_n":18,"n_dots":3.95,"target":"left","response":"right","rt":502.10000000149,"correct":false,"confidence":-1},{"trial_n":19,"n_dots":4.05,"target":"right","response":"right","rt":416.09999999404,"correct":true,"confidence":-1},{"trial_n":20,"n_dots":4.05,"target":"right","response":"right","rt":375.89999999851,"correct":true,"confidence":-1},{"trial_n":21,"n_dots":3.95,"target":"right","response":"right","rt":809.70000000298,"correct":true,"confidence":3},{"trial_n":22,"n_dots":3.95,"target":"right","response":"right","rt":356.69999999553,"correct":true,"confidence":5},{"trial_n":23,"n_dots":3.85,"target":"left","response":"left","rt":295.5,"correct":true,"confidence":5},{"trial_n":24,"n_dots":3.85,"target":"left","response":"left","rt":337.19999999553,"correct":true,"confidence":5},{"trial_n":25,"n_dots":3.75,"target":"right","response":"left","rt":867.70000000298,"correct":false,"confidence":3},{"trial_n":26,"n_dots":3.85,"target":"left","response":"left","rt":575.70000000298,"correct":true,"confidence":5},{"trial_n":27,"n_dots":3.85,"target":"left","response":"left","rt":354.60000000149,"correct":true,"confidence":5},{"trial_n":28,"n_dots":3.75,"target":"left","response":"left","rt":472.29999999702,"correct":true,"confidence":4},{"trial_n":29,"n_dots":3.75,"target":"left","response":"left","rt":318.79999999702,"correct":true,"confidence":4},{"trial_n":30,"n_dots":3.65,"target":"left","response":"left","rt":368.20000000298,"correct":true,"confidence":5},{"trial_n":31,"n_dots":3.65,"target":"left","response":"left","rt":347.69999999553,"correct":true,"confidence":5},{"trial_n":32,"n_dots":3.55,"target":"left","response":"left","rt":370,"correct":true,"confidence":2},{"trial_n":33,"n_dots":3.55,"target":"right","response":"left","rt":477.39999999851,"correct":false,"confidence":3},{"trial_n":34,"n_dots":3.65,"target":"right","response":"left","rt":311.39999999851,"correct":false,"confidence":3},{"trial_n":35,"n_dots":3.75,"target":"left","response":"left","rt":442.59999999404,"correct":true,"confidence":5},{"trial_n":36,"n_dots":3.75,"target":"right","response":"right","rt":420,"correct":true,"confidence":3},{"trial_n":37,"n_dots":3.65,"target":"right","response":"left","rt":1737.1999999955,"correct":false,"confidence":1},{"trial_n":38,"n_dots":3.75,"target":"right","response":"right","rt":1454.6999999955,"correct":true,"confidence":1},{"trial_n":39,"n_dots":3.75,"target":"left","response":"left","rt":586.79999999702,"correct":true,"confidence":2},{"trial_n":40,"n_dots":3.65,"target":"left","response":"left","rt":302.79999999702,"correct":true,"confidence":4},{"trial_n":41,"n_dots":3.65,"target":"right","response":"left","rt":685.80000000447,"correct":false,"confidence":3},{"trial_n":42,"n_dots":3.75,"target":"left","response":"left","rt":346.89999999851,"correct":true,"confidence":3},{"trial_n":43,"n_dots":3.75,"target":"right","response":"left","rt":486.90000000596,"correct":false,"confidence":2},{"trial_n":44,"n_dots":3.85,"target":"right","response":"left","rt":406.39999999851,"correct":false,"confidence":2},{"trial_n":45,"n_dots":3.95,"target":"left","response":"left","rt":247.89999999851,"correct":true,"confidence":4},{"trial_n":46,"n_dots":3.95,"target":"right","response":"right","rt":512.5,"correct":true,"confidence":3},{"trial_n":47,"n_dots":3.85,"target":"left","response":"right","rt":845.20000000298,"correct":false,"confidence":2},{"trial_n":48,"n_dots":3.95,"target":"left","response":"left","rt":301,"correct":true,"confidence":5},{"trial_n":49,"n_dots":3.95,"target":"right","response":"right","rt":332.5,"correct":true,"confidence":2},{"trial_n":50,"n_dots":3.85,"target":"right","response":"left","rt":358.5,"correct":false,"confidence":2},{"trial_n":51,"n_dots":3.95,"target":"left","response":"left","rt":1939.8999999985,"correct":true,"confidence":5},{"trial_n":52,"n_dots":3.95,"target":"left","response":"left","rt":312.70000000298,"correct":true,"confidence":5},{"trial_n":53,"n_dots":3.85,"target":"left","response":"left","rt":376.60000000149,"correct":true,"confidence":5},{"trial_n":54,"n_dots":3.85,"target":"right","response":"right","rt":336.89999999851,"correct":true,"confidence":4},{"trial_n":55,"n_dots":3.75,"target":"right","response":"left","rt":593,"correct":false,"confidence":3},{"trial_n":56,"n_dots":3.85,"target":"right","response":"right","rt":856.59999999404,"correct":true,"confidence":2},{"trial_n":57,"n_dots":3.85,"target":"right","response":"right","rt":283.30000000447,"correct":true,"confidence":3},{"trial_n":58,"n_dots":3.75,"target":"right","response":"right","rt":313.79999999702,"correct":true,"confidence":3},{"trial_n":59,"n_dots":3.75,"target":"right","response":"left","rt":597.5,"correct":false,"confidence":2},{"trial_n":60,"n_dots":3.85,"target":"right","response":"right","rt":487.30000000447,"correct":true,"confidence":2},{"trial_n":61,"n_dots":3.85,"target":"right","response":"left","rt":520.5,"correct":false,"confidence":1},{"trial_n":62,"n_dots":3.95,"target":"left","response":"left","rt":248.89999999851,"correct":true,"confidence":4},{"trial_n":63,"n_dots":3.95,"target":"right","response":"left","rt":724.30000000447,"correct":false,"confidence":1},{"trial_n":64,"n_dots":4.05,"target":"right","response":"left","rt":725.10000000149,"correct":false,"confidence":2},{"trial_n":65,"n_dots":4.15,"target":"right","response":"right","rt":292.59999999404,"correct":true,"confidence":3},{"trial_n":66,"n_dots":4.15,"target":"right","response":"left","rt":2243.599999994,"correct":false,"confidence":1},{"trial_n":67,"n_dots":4.25,"target":"left","response":"left","rt":268.60000000149,"correct":true,"confidence":5},{"trial_n":68,"n_dots":4.25,"target":"right","response":"right","rt":309,"correct":true,"confidence":5},{"trial_n":69,"n_dots":4.15,"target":"left","response":"left","rt":620.5,"correct":true,"confidence":1},{"trial_n":70,"n_dots":4.15,"target":"right","response":"right","rt":229.69999999553,"correct":true,"confidence":5},{"trial_n":71,"n_dots":4.05,"target":"left","response":"left","rt":260.89999999851,"correct":true,"confidence":4},{"trial_n":72,"n_dots":4.05,"target":"left","response":"left","rt":532.5,"correct":true,"confidence":3},{"trial_n":73,"n_dots":3.95,"target":"right","response":"right","rt":2221.6000000015,"correct":true,"confidence":3},{"trial_n":74,"n_dots":3.95,"target":"right","response":"left","rt":3817.8999999985,"correct":false,"confidence":2},{"trial_n":75,"n_dots":4.05,"target":"right","response":"right","rt":7827.6000000015,"correct":true,"confidence":2},{"trial_n":76,"n_dots":4.05,"target":"right","response":"right","rt":390.69999999553,"correct":true,"confidence":3},{"trial_n":77,"n_dots":3.95,"target":"left","response":"left","rt":2661.299999997,"correct":true,"confidence":4},{"trial_n":78,"n_dots":3.95,"target":"left","response":"left","rt":1307.799999997,"correct":true,"confidence":4},{"trial_n":79,"n_dots":3.85,"target":"right","response":"right","rt":880.10000000149,"correct":true,"confidence":2},{"trial_n":80,"n_dots":3.85,"target":"right","response":"right","rt":702.69999999553,"correct":true,"confidence":5},{"trial_n":81,"n_dots":3.75,"target":"left","response":"right","rt":1515.1999999955,"correct":false,"confidence":2},{"trial_n":82,"n_dots":3.85,"target":"left","response":"left","rt":630.60000000149,"correct":true,"confidence":5},{"trial_n":83,"n_dots":3.85,"target":"left","response":"left","rt":396.89999999851,"correct":true,"confidence":4},{"trial_n":84,"n_dots":3.75,"target":"left","response":"left","rt":529.69999999553,"correct":true,"confidence":3},{"trial_n":85,"n_dots":3.75,"target":"left","response":"left","rt":524.70000000298,"correct":true,"confidence":4},{"trial_n":86,"n_dots":3.65,"target":"right","response":"left","rt":1428,"correct":false,"confidence":2},{"trial_n":87,"n_dots":3.75,"target":"left","response":"left","rt":486,"correct":true,"confidence":4},{"trial_n":88,"n_dots":3.75,"target":"right","response":"right","rt":1541.3999999985,"correct":true,"confidence":2},{"trial_n":89,"n_dots":3.65,"target":"left","response":"left","rt":477.70000000298,"correct":true,"confidence":4},{"trial_n":90,"n_dots":3.65,"target":"right","response":"right","rt":449.29999999702,"correct":true,"confidence":4},{"trial_n":91,"n_dots":3.55,"target":"left","response":"left","rt":1139.200000003,"correct":true,"confidence":3},{"trial_n":92,"n_dots":3.55,"target":"left","response":"left","rt":402.5,"correct":true,"confidence":5},{"trial_n":93,"n_dots":3.45,"target":"right","response":"right","rt":363.20000000298,"correct":true,"confidence":2},{"trial_n":94,"n_dots":3.45,"target":"left","response":"left","rt":537.39999999851,"correct":true,"confidence":4},{"trial_n":95,"n_dots":3.35,"target":"left","response":"left","rt":2447.6999999955,"correct":true,"confidence":2},{"trial_n":96,"n_dots":3.35,"target":"right","response":"right","rt":388.5,"correct":true,"confidence":4},{"trial_n":97,"n_dots":3.25,"target":"right","response":"right","rt":1462.299999997,"correct":true,"confidence":3},{"trial_n":98,"n_dots":3.25,"target":"left","response":"left","rt":2611.299999997,"correct":true,"confidence":2},{"trial_n":99,"n_dots":3.15,"target":"right","response":"left","rt":861.70000000298,"correct":false,"confidence":2},{"trial_n":100,"n_dots":3.25,"target":"right","response":"left","rt":823.79999999702,"correct":false,"confidence":2},{"trial_n":101,"n_dots":3.35,"target":"right","response":"right","rt":416.29999999702,"correct":true,"confidence":3},{"trial_n":102,"n_dots":3.35,"target":"right","response":"right","rt":345.29999999702,"correct":true,"confidence":4},{"trial_n":103,"n_dots":3.25,"target":"right","response":"right","rt":296.60000000149,"correct":true,"confidence":4},{"trial_n":104,"n_dots":3.25,"target":"right","response":"right","rt":477,"correct":true,"confidence":3},{"trial_n":105,"n_dots":3.15,"target":"right","response":"left","rt":1176.5,"correct":false,"confidence":2},{"trial_n":106,"n_dots":3.25,"target":"right","response":"right","rt":1088.8999999985,"correct":true,"confidence":3},{"trial_n":107,"n_dots":3.25,"target":"right","response":"right","rt":464.5,"correct":true,"confidence":2},{"trial_n":108,"n_dots":3.15,"target":"left","response":"left","rt":1622.5,"correct":true,"confidence":2},{"trial_n":109,"n_dots":3.15,"target":"right","response":"right","rt":1666.5,"correct":true,"confidence":2},{"trial_n":110,"n_dots":3.05,"target":"left","response":"left","rt":874.5,"correct":true,"confidence":3},{"trial_n":111,"n_dots":3.05,"target":"left","response":"left","rt":2089.299999997,"correct":true,"confidence":1},{"trial_n":112,"n_dots":2.95,"target":"left","response":"left","rt":2155.099999994,"correct":true,"confidence":3},{"trial_n":113,"n_dots":2.95,"target":"left","response":"left","rt":1812.3000000045,"correct":true,"confidence":3},{"trial_n":114,"n_dots":2.85,"target":"right","response":"left","rt":1950.5,"correct":false,"confidence":3},{"trial_n":115,"n_dots":2.95,"target":"left","response":"right","rt":1002.799999997,"correct":false,"confidence":4},{"trial_n":116,"n_dots":3.05,"target":"left","response":"left","rt":816.69999999553,"correct":true,"confidence":3},{"trial_n":117,"n_dots":3.05,"target":"right","response":"right","rt":604.5,"correct":true,"confidence":4},{"trial_n":118,"n_dots":2.95,"target":"right","response":"right","rt":479.20000000298,"correct":true,"confidence":3},{"trial_n":119,"n_dots":2.95,"target":"left","response":"left","rt":311.5,"correct":true,"confidence":3},{"trial_n":120,"n_dots":2.85,"target":"left","response":"left","rt":450,"correct":true,"confidence":4}]