[{"trial_n":1,"span":8,"encoder":"96450830","distractor":"96450850","target":"present","response":"absent","rt":"10294.899999857","correct":false,"confidence":-1},{"trial_n":2,"span":6,"encoder":"712464","distractor":"812464","target":"present","response":"present","rt":"2220.0999999046","correct":true,"confidence":-1},{"trial_n":3,"span":6,"encoder":"751201","distractor":"751271","target":"absent","response":"present","rt":"2355.2000000477","correct":false,"confidence":-1},{"trial_n":4,"span":4,"encoder":"8316","distractor":"8816","target":"absent","response":"absent","rt":"2752.7000000477","correct":true,"confidence":-1},{"trial_n":5,"span":4,"encoder":"0701","distractor":"3701","target":"present","response":"present","rt":"1536.6999998093","correct":true,"confidence":-1},{"trial_n":6,"span":6,"encoder":"201341","distractor":"201345","target":"absent","response":"present","rt":"2119.6000001431","correct":false,"confidence":-1},{"trial_n":7,"span":4,"encoder":"1665","distractor":"3665","target":"present","response":"present","rt":"3365","correct":true,"confidence":-1},{"trial_n":8,"span":4,"encoder":"3955","distractor":"3655","target":"present","response":"present","rt":"1212.7000000477","correct":true,"confidence":-1},{"trial_n":9,"span":6,"encoder":"257287","distractor":"257285","target":"absent","response":"absent","rt":"3160.6000001431","correct":true,"confidence":-1},{"trial_n":10,"span":6,"encoder":"167135","distractor":"157135","target":"present","response":"present","rt":"1282.2999999523","correct":true,"confidence":-1},{"trial_n":11,"span":8,"encoder":"25772044","distractor":"25770044","target":"absent","response":"absent","rt":"2491.3999998569","correct":true,"confidence":-1},{"trial_n":12,"span":8,"encoder":"35350640","distractor":"35350540","target":"absent","response":"absent","rt":"3412.1999998093","correct":true,"confidence":-1},{"trial_n":13,"span":9,"encoder":"607472467","distractor":"607472477","target":"present","response":"absent","rt":"1542.5999999046","correct":false,"confidence":-1},{"trial_n":14,"span":8,"encoder":"78262152","distractor":"78261152","target":"absent","response":"present","rt":"2392.0999999046","correct":false,"confidence":-1},{"trial_n":15,"span":7,"encoder":"1814225","distractor":"1844225","target":"present","response":"present","rt":"1677.5999999046","correct":true,"confidence":-1},{"trial_n":16,"span":7,"encoder":"3075506","distractor":"3275506","target":"present","response":"present","rt":"1999.5999999046","correct":true,"confidence":-1},{"trial_n":17,"span":8,"encoder":"34346682","distractor":"74346682","target":"absent","response":"absent","rt":"2426","correct":true,"confidence":-1},{"trial_n":18,"span":8,"encoder":"40400500","distractor":"80400500","target":"present","response":"present","rt":"2734.8999998569","correct":true,"confidence":-1},{"trial_n":19,"span":9,"encoder":"754120458","distractor":"754120408","target":"present","response":"present","rt":"1252","correct":true,"confidence":-1},{"trial_n":20,"span":9,"encoder":"306762677","distractor":"306782677","target":"absent","response":"present","rt":"1225.1000001431","correct":false,"confidence":-1},{"trial_n":21,"span":8,"encoder":"23541450","distractor":"23541750","target":"absent","response":"absent","rt":"2783.1000001431","correct":true,"confidence":5},{"trial_n":22,"span":8,"encoder":"65875186","distractor":"65875188","target":"absent","response":"absent","rt":"1775","correct":true,"confidence":3},{"trial_n":23,"span":9,"encoder":"661826712","distractor":"661824712","target":"present","response":"present","rt":"2881.6000001431","correct":true,"confidence":5},{"trial_n":24,"span":9,"encoder":"862148788","distractor":"869148788","target":"absent","response":"absent","rt":"2304.1000001431","correct":true,"confidence":4},{"trial_n":25,"span":10,"encoder":"1355470200","distractor":"1355470207","target":"absent","response":"absent","rt":"1517.2000000477","correct":true,"confidence":5},{"trial_n":26,"span":10,"encoder":"0682889036","distractor":"0982889036","target":"absent","response":"present","rt":"2016.3999998569","correct":false,"confidence":5},{"trial_n":27,"span":9,"encoder":"969766892","distractor":"969766692","target":"absent","response":"absent","rt":"2822.2000000477","correct":true,"confidence":3},{"trial_n":28,"span":9,"encoder":"648520655","distractor":"648520645","target":"absent","response":"present","rt":"2152.9000000954","correct":false,"confidence":4},{"trial_n":29,"span":8,"encoder":"32262265","distractor":"35262265","target":"present","response":"present","rt":"2187.6999998093","correct":true,"confidence":5},{"trial_n":30,"span":8,"encoder":"37472313","distractor":"37402313","target":"absent","response":"absent","rt":"4931.0999999046","correct":true,"confidence":4},{"trial_n":31,"span":9,"encoder":"780627106","distractor":"680627106","target":"absent","response":"present","rt":"2089.7000000477","correct":false,"confidence":2},{"trial_n":32,"span":8,"encoder":"59174000","distractor":"59174004","target":"absent","response":"absent","rt":"2335.1000001431","correct":true,"confidence":5},{"trial_n":33,"span":8,"encoder":"21805522","distractor":"21805122","target":"absent","response":"absent","rt":"2314.7999999523","correct":true,"confidence":5},{"trial_n":34,"span":9,"encoder":"151149038","distractor":"151149638","target":"present","response":"present","rt":"2516.0999999046","correct":true,"confidence":5},{"trial_n":35,"span":9,"encoder":"152644659","distractor":"152244659","target":"present","response":"present","rt":"2005.0999999046","correct":true,"confidence":3},{"trial_n":36,"span":10,"encoder":"7500428641","distractor":"7500498641","target":"absent","response":"present","rt":"2278.2000000477","correct":false,"confidence":4},{"trial_n":37,"span":9,"encoder":"009044145","distractor":"059044145","target":"present","response":"present","rt":"4502.9000000954","correct":true,"confidence":5},{"trial_n":38,"span":9,"encoder":"160226204","distractor":"160226404","target":"absent","response":"present","rt":"2275","correct":false,"confidence":3},{"trial_n":39,"span":8,"encoder":"60709013","distractor":"60709023","target":"absent","response":"absent","rt":"1640.6000001431","correct":true,"confidence":5},{"trial_n":40,"span":8,"encoder":"52966665","distractor":"55966665","target":"absent","response":"absent","rt":"4880.4000000954","correct":true,"confidence":5},{"trial_n":41,"span":9,"encoder":"584366949","distractor":"584363949","target":"present","response":"present","rt":"1472.4000000954","correct":true,"confidence":4},{"trial_n":42,"span":9,"encoder":"633650182","distractor":"633950182","target":"absent","response":"absent","rt":"2426.2000000477","correct":true,"confidence":2},{"trial_n":43,"span":10,"encoder":"8359254152","distractor":"8359254153","target":"absent","response":"present","rt":"2535.2000000477","correct":false,"confidence":2},{"trial_n":44,"span":9,"encoder":"156412486","distractor":"156442486","target":"present","response":"present","rt":"1761.5","correct":true,"confidence":3},{"trial_n":45,"span":9,"encoder":"469333804","distractor":"469339804","target":"present","response":"present","rt":"3031.2999999523","correct":true,"confidence":4},{"trial_n":46,"span":10,"encoder":"0862682407","distractor":"0862682507","target":"present","response":"absent","rt":"4214.5","correct":false,"confidence":3},{"trial_n":47,"span":9,"encoder":"771045995","distractor":"771040995","target":"absent","response":"present","rt":"2169.5","correct":false,"confidence":5},{"trial_n":48,"span":8,"encoder":"53863007","distractor":"53893007","target":"present","response":"absent","rt":"5115.7000000477","correct":false,"confidence":3},{"trial_n":49,"span":7,"encoder":"8922712","distractor":"8922772","target":"present","response":"present","rt":"1517.5","correct":true,"confidence":5},{"trial_n":50,"span":7,"encoder":"7328013","distractor":"7328019","target":"present","response":"absent","rt":"3628.2999999523","correct":false,"confidence":1},{"trial_n":51,"span":6,"encoder":"673666","distractor":"273666","target":"present","response":"present","rt":"2245.2000000477","correct":true,"confidence":5},{"trial_n":52,"span":6,"encoder":"829520","distractor":"859520","target":"absent","response":"absent","rt":"3635.7999999523","correct":true,"confidence":3},{"trial_n":53,"span":7,"encoder":"7020867","distractor":"5020867","target":"present","response":"present","rt":"4594.5","correct":true,"confidence":5},{"trial_n":54,"span":7,"encoder":"0782694","distractor":"0785694","target":"present","response":"present","rt":"3708.5","correct":true,"confidence":5},{"trial_n":55,"span":8,"encoder":"29179959","distractor":"29179859","target":"present","response":"present","rt":"2573.0999999046","correct":true,"confidence":4},{"trial_n":56,"span":8,"encoder":"07298312","distractor":"97298312","target":"present","response":"absent","rt":"4919.5","correct":false,"confidence":1},{"trial_n":57,"span":7,"encoder":"3747371","distractor":"3777371","target":"present","response":"present","rt":"1639","correct":true,"confidence":4},{"trial_n":58,"span":7,"encoder":"2052516","distractor":"2052514","target":"present","response":"absent","rt":"2924.2000000477","correct":false,"confidence":3},{"trial_n":59,"span":6,"encoder":"771160","distractor":"771060","target":"absent","response":"present","rt":"1392.5","correct":false,"confidence":5},{"trial_n":60,"span":5,"encoder":"37970","distractor":"37971","target":"present","response":"present","rt":"4135.0999999046","correct":true,"confidence":5},{"trial_n":61,"span":5,"encoder":"05471","distractor":"05571","target":"absent","response":"absent","rt":"2140.5999999046","correct":true,"confidence":5},{"trial_n":62,"span":6,"encoder":"397162","distractor":"897162","target":"present","response":"present","rt":"2999.8999998569","correct":true,"confidence":5},{"trial_n":63,"span":6,"encoder":"764482","distractor":"264482","target":"present","response":"present","rt":"1851.0999999046","correct":true,"confidence":5},{"trial_n":64,"span":7,"encoder":"8088034","distractor":"8888034","target":"present","response":"present","rt":"2257.0999999046","correct":true,"confidence":5},{"trial_n":65,"span":7,"encoder":"7403689","distractor":"5403689","target":"present","response":"present","rt":"2635.1000001431","correct":true,"confidence":5},{"trial_n":66,"span":8,"encoder":"92519366","distractor":"92519368","target":"absent","response":"absent","rt":"1570.0999999046","correct":true,"confidence":5},{"trial_n":67,"span":8,"encoder":"32391889","distractor":"32391884","target":"absent","response":"absent","rt":"1339.3999998569","correct":true,"confidence":5},{"trial_n":68,"span":9,"encoder":"529209724","distractor":"539209724","target":"present","response":"present","rt":"3204.2999999523","correct":true,"confidence":4},{"trial_n":69,"span":9,"encoder":"019404068","distractor":"619404068","target":"absent","response":"absent","rt":"2504.9000000954","correct":true,"confidence":4},{"trial_n":70,"span":10,"encoder":"5741716898","distractor":"5741716892","target":"absent","response":"absent","rt":"1452.7000000477","correct":true,"confidence":5},{"trial_n":71,"span":8,"encoder":"93209641","distractor":"93259641","target":"present","response":"present","rt":"17236.200000048","correct":true,"confidence":-1},{"trial_n":72,"span":8,"encoder":"09082077","distractor":"09082087","target":"present","response":"present","rt":"11770.600000143","correct":true,"confidence":-1},{"trial_n":73,"span":9,"encoder":"845207753","distractor":"843207753","target":"absent","response":"present","rt":"2693.7999999523","correct":false,"confidence":-1},{"trial_n":74,"span":8,"encoder":"69819788","distractor":"69819786","target":"absent","response":"absent","rt":"896.29999995232","correct":true,"confidence":-1},{"trial_n":75,"span":8,"encoder":"46648267","distractor":"46638267","target":"present","response":"absent","rt":"4150.7999999523","correct":false,"confidence":-1},{"trial_n":76,"span":7,"encoder":"9870326","distractor":"9870336","target":"present","response":"present","rt":"4100.5999999046","correct":true,"confidence":-1},{"trial_n":77,"span":7,"encoder":"6339654","distractor":"6339655","target":"absent","response":"absent","rt":"2426.6000001431","correct":true,"confidence":-1},{"trial_n":78,"span":8,"encoder":"51217717","distractor":"51217777","target":"absent","response":"present","rt":"2721","correct":false,"confidence":-1},{"trial_n":79,"span":7,"encoder":"6972287","distractor":"6973287","target":"absent","response":"absent","rt":"534709.5","correct":true,"confidence":-1},{"trial_n":80,"span":7,"encoder":"9012019","distractor":"9012079","target":"absent","response":"present","rt":"3361.7000000477","correct":false,"confidence":-1},{"trial_n":81,"span":6,"encoder":"507419","distractor":"507119","target":"present","response":"present","rt":"263.70000004768","correct":true,"confidence":-1},{"trial_n":82,"span":6,"encoder":"530473","distractor":"590473","target":"present","response":"present","rt":"2533.7999999523","correct":true,"confidence":-1},{"trial_n":83,"span":7,"encoder":"7102071","distractor":"7102041","target":"absent","response":"absent","rt":"2465","correct":true,"confidence":-1},{"trial_n":84,"span":7,"encoder":"3427510","distractor":"3487510","target":"absent","response":"present","rt":"2631.0999999046","correct":false,"confidence":-1},{"trial_n":85,"span":6,"encoder":"282117","distractor":"280117","target":"absent","response":"absent","rt":"424.5","correct":true,"confidence":-1},{"trial_n":86,"span":6,"encoder":"322519","distractor":"329519","target":"present","response":"present","rt":"355","correct":true,"confidence":-1},{"trial_n":87,"span":7,"encoder":"4386416","distractor":"4786416","target":"present","response":"present","rt":"451.10000014305","correct":true,"confidence":-1},{"trial_n":88,"span":7,"encoder":"3141931","distractor":"3141981","target":"present","response":"absent","rt":"438.40000009537","correct":false,"confidence":-1},{"trial_n":89,"span":6,"encoder":"243947","distractor":"253947","target":"absent","response":"absent","rt":"488.60000014305","correct":true,"confidence":-1},{"trial_n":90,"span":6,"encoder":"850223","distractor":"850227","target":"present","response":"present","rt":"1285.5999999046","correct":true,"confidence":-1},{"trial_n":91,"span":7,"encoder":"3717069","distractor":"3717569","target":"absent","response":"absent","rt":"3428","correct":true,"confidence":3},{"trial_n":92,"span":7,"encoder":"0679091","distractor":"6679091","target":"present","response":"present","rt":"2651","correct":true,"confidence":5},{"trial_n":93,"span":8,"encoder":"84779505","distractor":"89779505","target":"absent","response":"present","rt":"3657.2000000477","correct":false,"confidence":4},{"trial_n":94,"span":7,"encoder":"2364988","distractor":"2364788","target":"present","response":"present","rt":"5385.2999999523","correct":true,"confidence":1},{"trial_n":95,"span":7,"encoder":"6487605","distractor":"6487505","target":"absent","response":"absent","rt":"1845.7999999523","correct":true,"confidence":1},{"trial_n":96,"span":8,"encoder":"26229174","distractor":"56229174","target":"present","response":"present","rt":"2163.2999999523","correct":true,"confidence":5},{"trial_n":97,"span":8,"encoder":"81055465","distractor":"87055465","target":"absent","response":"absent","rt":"3702.2999999523","correct":true,"confidence":3},{"trial_n":98,"span":9,"encoder":"914359246","distractor":"915359246","target":"present","response":"present","rt":"2558.2000000477","correct":true,"confidence":1},{"trial_n":99,"span":9,"encoder":"150918027","distractor":"150918021","target":"absent","response":"absent","rt":"1467.2999999523","correct":true,"confidence":4},{"trial_n":100,"span":10,"encoder":"9811383182","distractor":"9311383182","target":"absent","response":"absent","rt":"4069","correct":true,"confidence":3},{"trial_n":101,"span":10,"encoder":"0581067014","distractor":"0581067024","target":"present","response":"present","rt":"5723.7999999523","correct":true,"confidence":1},{"trial_n":102,"span":11,"encoder":"97050172305","distractor":"97050172301","target":"present","response":"present","rt":"3444.5999999046","correct":true,"confidence":4},{"trial_n":103,"span":11,"encoder":"14141425766","distractor":"14141425966","target":"present","response":"present","rt":"2649.4000000954","correct":true,"confidence":5},{"trial_n":104,"span":12,"encoder":"775336477955","distractor":"775336470955","target":"absent","response":"present","rt":"6607.2000000477","correct":false,"confidence":2},{"trial_n":105,"span":11,"encoder":"68826495478","distractor":"48826495478","target":"present","response":"present","rt":"3557.7999999523","correct":true,"confidence":3},{"trial_n":106,"span":11,"encoder":"31150080946","distractor":"34150080946","target":"present","response":"present","rt":"2329.2999999523","correct":true,"confidence":3},{"trial_n":107,"span":12,"encoder":"074183715000","distractor":"074183715002","target":"present","response":"present","rt":"1819.6000001431","correct":true,"confidence":5},{"trial_n":108,"span":12,"encoder":"544715953932","distractor":"541715953932","target":"present","response":"present","rt":"2501.2000000477","correct":true,"confidence":4},{"trial_n":109,"span":13,"encoder":"0226192243752","distractor":"0226192243753","target":"absent","response":"absent","rt":"3155","correct":true,"confidence":4},{"trial_n":110,"span":13,"encoder":"6145054300787","distractor":"6145154300787","target":"absent","response":"absent","rt":"5174","correct":true,"confidence":1},{"trial_n":111,"span":14,"encoder":"21303230423755","distractor":"23303230423755","target":"present","response":"present","rt":"4790.5","correct":true,"confidence":2},{"trial_n":112,"span":14,"encoder":"25069078460999","distractor":"25068078460999","target":"present","response":"present","rt":"7400.7999999523","correct":true,"confidence":1},{"trial_n":113,"span":15,"encoder":"974051770389977","distractor":"974051270389977","target":"present","response":"present","rt":"7444.5","correct":true,"confidence":1},{"trial_n":114,"span":15,"encoder":"681910745210373","distractor":"681910745210383","target":"present","response":"present","rt":"1945.9000000954","correct":true,"confidence":4},{"trial_n":115,"span":16,"encoder":"2806319915802192","distractor":"4806319915802192","target":"absent","response":"present","rt":"5258","correct":false,"confidence":2},{"trial_n":116,"span":15,"encoder":"678111357676708","distractor":"678111356676708","target":"absent","response":"absent","rt":"7932.2999999523","correct":true,"confidence":2},{"trial_n":117,"span":15,"encoder":"144891900861644","distractor":"144811900861644","target":"present","response":"absent","rt":"5437","correct":false,"confidence":2},{"trial_n":118,"span":14,"encoder":"94208704579267","distractor":"94208704579287","target":"absent","response":"absent","rt":"3037.0999999046","correct":true,"confidence":2},{"trial_n":119,"span":14,"encoder":"21093975741826","distractor":"21693975741826","target":"absent","response":"present","rt":"3235.5","correct":false,"confidence":2},{"trial_n":120,"span":13,"encoder":"1532637134098","distractor":"1572637134098","target":"absent","response":"present","rt":"2665.7999999523","correct":false,"confidence":1},{"trial_n":121,"span":12,"encoder":"544219803564","distractor":"744219803564","target":"absent","response":"present","rt":"3590","correct":false,"confidence":2},{"trial_n":122,"span":11,"encoder":"66912413755","distractor":"68912413755","target":"present","response":"absent","rt":"2856.7999999523","correct":false,"confidence":1},{"trial_n":123,"span":10,"encoder":"4642481340","distractor":"4642481320","target":"present","response":"present","rt":"1681.5999999046","correct":true,"confidence":3},{"trial_n":124,"span":10,"encoder":"7936235141","distractor":"8936235141","target":"present","response":"present","rt":"1586.7000000477","correct":true,"confidence":3},{"trial_n":125,"span":11,"encoder":"86155853523","distractor":"86155853543","target":"present","response":"present","rt":"3731.4000000954","correct":true,"confidence":4},{"trial_n":126,"span":11,"encoder":"42194466018","distractor":"12194466018","target":"absent","response":"absent","rt":"3134.3999998569","correct":true,"confidence":3},{"trial_n":127,"span":12,"encoder":"772954525156","distractor":"772994525156","target":"absent","response":"absent","rt":"3626.2999999523","correct":true,"confidence":4},{"trial_n":128,"span":12,"encoder":"993153406649","distractor":"993153406659","target":"present","response":"present","rt":"2793.4000000954","correct":true,"confidence":2},{"trial_n":129,"span":13,"encoder":"9463960217970","distractor":"9463360217970","target":"present","response":"present","rt":"3401.2000000477","correct":true,"confidence":2},{"trial_n":130,"span":13,"encoder":"9258941228583","distractor":"9258941228883","target":"present","response":"present","rt":"5938.9000000954","correct":true,"confidence":4},{"trial_n":131,"span":14,"encoder":"13850361627096","distractor":"13850361626096","target":"absent","response":"absent","rt":"2429.6999998093","correct":true,"confidence":2},{"trial_n":132,"span":14,"encoder":"15211027204974","distractor":"15211027207974","target":"absent","response":"present","rt":"3096.7000000477","correct":false,"confidence":2},{"trial_n":133,"span":13,"encoder":"1992134275074","distractor":"1992134273074","target":"absent","response":"absent","rt":"2450.5999999046","correct":true,"confidence":3},{"trial_n":134,"span":13,"encoder":"1887119927876","distractor":"1807119927876","target":"absent","response":"absent","rt":"2122","correct":true,"confidence":3},{"trial_n":135,"span":14,"encoder":"76149740064028","distractor":"76149740664028","target":"absent","response":"present","rt":"2609.7999999523","correct":false,"confidence":3},{"trial_n":136,"span":13,"encoder":"0520866198884","distractor":"9520866198884","target":"absent","response":"present","rt":"2607.7999999523","correct":false,"confidence":2},{"trial_n":137,"span":12,"encoder":"801220680388","distractor":"801220620388","target":"present","response":"present","rt":"6757.8000001907","correct":true,"confidence":1},{"trial_n":138,"span":12,"encoder":"691475585847","distractor":"691475485847","target":"present","response":"present","rt":"5696.7999999523","correct":true,"confidence":1},{"trial_n":139,"span":13,"encoder":"0204496496058","distractor":"0204496096058","target":"absent","response":"present","rt":"2611.5","correct":false,"confidence":2},{"trial_n":140,"span":12,"encoder":"455123852169","distractor":"455123252169","target":"present","response":"absent","rt":"5328.7999999523","correct":false,"confidence":2}]