[{"trial_n":1,"n_dots":4.25,"target":"right","response":"right","rt":345.20000004768,"correct":true,"confidence":-1},{"trial_n":2,"n_dots":4.25,"target":"right","response":"left","rt":2417.5,"correct":false,"confidence":-1},{"trial_n":3,"n_dots":4.65,"target":"left","response":"left","rt":463.5,"correct":true,"confidence":-1},{"trial_n":4,"n_dots":4.65,"target":"right","response":"right","rt":29.700000047684,"correct":true,"confidence":-1},{"trial_n":5,"n_dots":4.25,"target":"right","response":"right","rt":691,"correct":true,"confidence":-1},{"trial_n":6,"n_dots":4.25,"target":"right","response":"left","rt":233,"correct":false,"confidence":-1},{"trial_n":7,"n_dots":4.65,"target":"left","response":"right","rt":280.20000004768,"correct":false,"confidence":-1},{"trial_n":8,"n_dots":4.85,"target":"right","response":"right","rt":71.799999952316,"correct":true,"confidence":-1},{"trial_n":9,"n_dots":4.85,"target":"left","response":"left","rt":176.5,"correct":true,"confidence":-1},{"trial_n":10,"n_dots":4.65,"target":"left","response":"left","rt":18.599999904633,"correct":true,"confidence":-1},{"trial_n":11,"n_dots":4.65,"target":"left","response":"left","rt":1106.5,"correct":true,"confidence":-1},{"trial_n":12,"n_dots":4.45,"target":"right","response":"right","rt":128.59999990463,"correct":true,"confidence":-1},{"trial_n":13,"n_dots":4.45,"target":"right","response":"right","rt":35.5,"correct":true,"confidence":-1},{"trial_n":14,"n_dots":4.35,"target":"right","response":"right","rt":1525.7999999523,"correct":true,"confidence":-1},{"trial_n":15,"n_dots":4.35,"target":"left","response":"left","rt":190.79999995232,"correct":true,"confidence":-1},{"trial_n":16,"n_dots":4.25,"target":"right","response":"right","rt":139,"correct":true,"confidence":-1},{"trial_n":17,"n_dots":4.25,"target":"right","response":"right","rt":51,"correct":true,"confidence":-1},{"trial_n":18,"n_dots":4.15,"target":"left","response":"left","rt":22.300000190735,"correct":true,"confidence":-1},{"trial_n":19,"n_dots":4.15,"target":"left","response":"left","rt":137.20000004768,"correct":true,"confidence":-1},{"trial_n":20,"n_dots":4.05,"target":"right","response":"right","rt":61.400000095367,"correct":true,"confidence":-1},{"trial_n":21,"n_dots":4.05,"target":"left","response":"left","rt":1874.2000000477,"correct":true,"confidence":1},{"trial_n":22,"n_dots":3.95,"target":"left","response":"left","rt":302.09999990463,"correct":true,"confidence":5},{"trial_n":23,"n_dots":3.95,"target":"right","response":"right","rt":621.09999990463,"correct":true,"confidence":4},{"trial_n":24,"n_dots":3.85,"target":"right","response":"right","rt":1066.8999998569,"correct":true,"confidence":4},{"trial_n":25,"n_dots":3.85,"target":"left","response":"left","rt":571.89999985695,"correct":true,"confidence":3},{"trial_n":26,"n_dots":3.75,"target":"right","response":"right","rt":1427.4000000954,"correct":true,"confidence":4},{"trial_n":27,"n_dots":3.75,"target":"right","response":"left","rt":350.79999995232,"correct":false,"confidence":3},{"trial_n":28,"n_dots":3.85,"target":"right","response":"right","rt":1385.5999999046,"correct":true,"confidence":3},{"trial_n":29,"n_dots":3.85,"target":"right","response":"right","rt":441,"correct":true,"confidence":5},{"trial_n":30,"n_dots":3.75,"target":"left","response":"left","rt":300.29999995232,"correct":true,"confidence":5},{"trial_n":31,"n_dots":3.75,"target":"left","response":"left","rt":580.59999990463,"correct":true,"confidence":5},{"trial_n":32,"n_dots":3.65,"target":"left","response":"left","rt":313.90000009537,"correct":true,"confidence":5},{"trial_n":33,"n_dots":3.65,"target":"right","response":"right","rt":301.59999990463,"correct":true,"confidence":5},{"trial_n":34,"n_dots":3.55,"target":"right","response":"left","rt":1295.4000000954,"correct":false,"confidence":3},{"trial_n":35,"n_dots":3.65,"target":"left","response":"left","rt":306,"correct":true,"confidence":4},{"trial_n":36,"n_dots":3.65,"target":"left","response":"left","rt":360.69999980927,"correct":true,"confidence":5},{"trial_n":37,"n_dots":3.55,"target":"right","response":"right","rt":565.20000004768,"correct":true,"confidence":5},{"trial_n":38,"n_dots":3.55,"target":"left","response":"left","rt":334.59999990463,"correct":true,"confidence":5},{"trial_n":39,"n_dots":3.45,"target":"left","response":"left","rt":511.20000004768,"correct":true,"confidence":4},{"trial_n":40,"n_dots":3.45,"target":"right","response":"left","rt":708,"correct":false,"confidence":2},{"trial_n":41,"n_dots":3.55,"target":"right","response":"left","rt":3218.6000001431,"correct":false,"confidence":1},{"trial_n":42,"n_dots":3.65,"target":"left","response":"left","rt":648.30000019073,"correct":true,"confidence":1},{"trial_n":43,"n_dots":3.65,"target":"right","response":"right","rt":248.70000004768,"correct":true,"confidence":5},{"trial_n":44,"n_dots":3.55,"target":"right","response":"left","rt":111.5,"correct":false,"confidence":4},{"trial_n":45,"n_dots":3.65,"target":"right","response":"right","rt":1509.7000000477,"correct":true,"confidence":3},{"trial_n":46,"n_dots":3.65,"target":"right","response":"right","rt":312.70000004768,"correct":true,"confidence":4},{"trial_n":47,"n_dots":3.55,"target":"right","response":"right","rt":330.69999980927,"correct":true,"confidence":4},{"trial_n":48,"n_dots":3.55,"target":"left","response":"left","rt":782.60000014305,"correct":true,"confidence":3},{"trial_n":49,"n_dots":3.45,"target":"right","response":"right","rt":382.70000004768,"correct":true,"confidence":3},{"trial_n":50,"n_dots":3.45,"target":"right","response":"right","rt":324.70000004768,"correct":true,"confidence":4},{"trial_n":51,"n_dots":3.35,"target":"right","response":"right","rt":1840.2999999523,"correct":true,"confidence":3},{"trial_n":52,"n_dots":3.35,"target":"right","response":"left","rt":1145.5,"correct":false,"confidence":3},{"trial_n":53,"n_dots":3.45,"target":"left","response":"left","rt":922.20000004768,"correct":true,"confidence":4},{"trial_n":54,"n_dots":3.45,"target":"right","response":"right","rt":142.70000004768,"correct":true,"confidence":4},{"trial_n":55,"n_dots":3.35,"target":"left","response":"left","rt":650.70000004768,"correct":true,"confidence":3},{"trial_n":56,"n_dots":3.35,"target":"right","response":"left","rt":1945.3999998569,"correct":false,"confidence":2},{"trial_n":57,"n_dots":3.45,"target":"left","response":"left","rt":272.69999980927,"correct":true,"confidence":5},{"trial_n":58,"n_dots":3.45,"target":"left","response":"left","rt":132,"correct":true,"confidence":5},{"trial_n":59,"n_dots":3.35,"target":"left","response":"left","rt":800.59999990463,"correct":true,"confidence":3},{"trial_n":60,"n_dots":3.35,"target":"right","response":"right","rt":5.2000000476837,"correct":true,"confidence":3},{"trial_n":61,"n_dots":3.25,"target":"right","response":"left","rt":657.20000004768,"correct":false,"confidence":5},{"trial_n":62,"n_dots":3.35,"target":"right","response":"left","rt":4468.5999999046,"correct":false,"confidence":1},{"trial_n":63,"n_dots":3.45,"target":"left","response":"left","rt":342.20000004768,"correct":true,"confidence":4},{"trial_n":64,"n_dots":3.45,"target":"left","response":"left","rt":502.80000019073,"correct":true,"confidence":5},{"trial_n":65,"n_dots":3.35,"target":"left","response":"left","rt":619.20000004768,"correct":true,"confidence":4},{"trial_n":66,"n_dots":3.35,"target":"left","response":"left","rt":346.10000014305,"correct":true,"confidence":4},{"trial_n":67,"n_dots":3.25,"target":"left","response":"left","rt":60.599999904633,"correct":true,"confidence":4},{"trial_n":68,"n_dots":3.25,"target":"right","response":"right","rt":51.099999904633,"correct":true,"confidence":3},{"trial_n":69,"n_dots":3.15,"target":"left","response":"left","rt":195.79999995232,"correct":true,"confidence":4},{"trial_n":70,"n_dots":3.15,"target":"right","response":"left","rt":2155.6999998093,"correct":false,"confidence":4},{"trial_n":71,"n_dots":3.25,"target":"left","response":"left","rt":983.20000004768,"correct":true,"confidence":5},{"trial_n":72,"n_dots":3.25,"target":"right","response":"right","rt":291,"correct":true,"confidence":4},{"trial_n":73,"n_dots":3.15,"target":"left","response":"left","rt":349.09999990463,"correct":true,"confidence":4},{"trial_n":74,"n_dots":3.15,"target":"right","response":"right","rt":7,"correct":true,"confidence":4},{"trial_n":75,"n_dots":3.05,"target":"right","response":"left","rt":414.5,"correct":false,"confidence":3},{"trial_n":76,"n_dots":3.15,"target":"left","response":"left","rt":1574.7999999523,"correct":true,"confidence":3},{"trial_n":77,"n_dots":3.15,"target":"left","response":"left","rt":486.5,"correct":true,"confidence":4},{"trial_n":78,"n_dots":3.05,"target":"left","response":"right","rt":821.70000004768,"correct":false,"confidence":4},{"trial_n":79,"n_dots":3.15,"target":"right","response":"right","rt":1269.5999999046,"correct":true,"confidence":4},{"trial_n":80,"n_dots":3.15,"target":"right","response":"right","rt":847.20000004768,"correct":true,"confidence":2},{"trial_n":81,"n_dots":3.05,"target":"left","response":"left","rt":754,"correct":true,"confidence":4},{"trial_n":82,"n_dots":3.05,"target":"left","response":"left","rt":63.200000047684,"correct":true,"confidence":4},{"trial_n":83,"n_dots":2.95,"target":"left","response":"right","rt":793.5,"correct":false,"confidence":2},{"trial_n":84,"n_dots":3.05,"target":"left","response":"left","rt":545.5,"correct":true,"confidence":3},{"trial_n":85,"n_dots":3.05,"target":"right","response":"right","rt":1113.5,"correct":true,"confidence":4},{"trial_n":86,"n_dots":2.95,"target":"right","response":"right","rt":123.20000004768,"correct":true,"confidence":4},{"trial_n":87,"n_dots":2.95,"target":"left","response":"left","rt":378.29999995232,"correct":true,"confidence":3},{"trial_n":88,"n_dots":2.85,"target":"left","response":"right","rt":239.20000004768,"correct":false,"confidence":4},{"trial_n":89,"n_dots":2.95,"target":"left","response":"left","rt":208.70000004768,"correct":true,"confidence":2},{"trial_n":90,"n_dots":2.95,"target":"right","response":"right","rt":93.5,"correct":true,"confidence":4},{"trial_n":91,"n_dots":2.85,"target":"left","response":"left","rt":824.90000009537,"correct":true,"confidence":3},{"trial_n":92,"n_dots":2.85,"target":"right","response":"right","rt":716.5,"correct":true,"confidence":4},{"trial_n":93,"n_dots":2.75,"target":"left","response":"left","rt":221.09999990463,"correct":true,"confidence":4},{"trial_n":94,"n_dots":2.75,"target":"left","response":"left","rt":749.90000009537,"correct":true,"confidence":4},{"trial_n":95,"n_dots":2.65,"target":"right","response":"right","rt":177.89999985695,"correct":true,"confidence":4},{"trial_n":96,"n_dots":2.65,"target":"right","response":"left","rt":879.20000004768,"correct":false,"confidence":4},{"trial_n":97,"n_dots":2.75,"target":"left","response":"left","rt":644.20000004768,"correct":true,"confidence":4},{"trial_n":98,"n_dots":2.75,"target":"left","response":"left","rt":387,"correct":true,"confidence":3},{"trial_n":99,"n_dots":2.65,"target":"right","response":"left","rt":202.29999995232,"correct":false,"confidence":4},{"trial_n":100,"n_dots":2.75,"target":"left","response":"left","rt":91.100000143051,"correct":true,"confidence":3},{"trial_n":101,"n_dots":2.75,"target":"left","response":"left","rt":8.7999999523163,"correct":true,"confidence":4},{"trial_n":102,"n_dots":2.65,"target":"left","response":"right","rt":84.799999952316,"correct":false,"confidence":3},{"trial_n":103,"n_dots":2.75,"target":"right","response":"left","rt":123.09999990463,"correct":false,"confidence":1},{"trial_n":104,"n_dots":2.85,"target":"left","response":"right","rt":100.20000004768,"correct":false,"confidence":3},{"trial_n":105,"n_dots":2.95,"target":"right","response":"left","rt":57.799999952316,"correct":false,"confidence":4},{"trial_n":106,"n_dots":3.05,"target":"right","response":"right","rt":641.20000004768,"correct":true,"confidence":3},{"trial_n":107,"n_dots":3.05,"target":"left","response":"left","rt":372.10000014305,"correct":true,"confidence":4},{"trial_n":108,"n_dots":2.95,"target":"left","response":"left","rt":7.9000000953674,"correct":true,"confidence":4},{"trial_n":109,"n_dots":2.95,"target":"left","response":"left","rt":617.90000009537,"correct":true,"confidence":2},{"trial_n":110,"n_dots":2.85,"target":"left","response":"right","rt":44.099999904633,"correct":false,"confidence":3},{"trial_n":111,"n_dots":2.95,"target":"left","response":"left","rt":490.70000004768,"correct":true,"confidence":4},{"trial_n":112,"n_dots":2.95,"target":"right","response":"right","rt":1091.9000000954,"correct":true,"confidence":4},{"trial_n":113,"n_dots":2.85,"target":"right","response":"right","rt":197,"correct":true,"confidence":3},{"trial_n":114,"n_dots":2.85,"target":"right","response":"right","rt":748.90000009537,"correct":true,"confidence":4},{"trial_n":115,"n_dots":2.75,"target":"right","response":"left","rt":1982.0999999046,"correct":false,"confidence":3},{"trial_n":116,"n_dots":2.85,"target":"right","response":"right","rt":590.5,"correct":true,"confidence":2},{"trial_n":117,"n_dots":2.85,"target":"right","response":"left","rt":143.30000019073,"correct":false,"confidence":4},{"trial_n":118,"n_dots":2.95,"target":"left","response":"right","rt":8.3999998569489,"correct":false,"confidence":2},{"trial_n":119,"n_dots":3.05,"target":"left","response":"left","rt":1042.3999998569,"correct":true,"confidence":4},{"trial_n":120,"n_dots":3.05,"target":"left","response":"right","rt":89.400000095367,"correct":false,"confidence":3}]