[{"trial_n":1,"min":25,"max":230,"target":"present","response":"absent","rt":10272,"correct":false,"confidence":-1},{"trial_n":2,"min":25,"max":230,"target":"present","response":"present","rt":10072,"correct":true,"confidence":-1},{"trial_n":3,"min":25,"max":230,"target":"absent","response":"absent","rt":2189,"correct":true,"confidence":-1},{"trial_n":4,"min":41,"max":214,"target":"absent","response":"absent","rt":2211,"correct":true,"confidence":-1},{"trial_n":5,"min":41,"max":214,"target":"present","response":"present","rt":1254,"correct":true,"confidence":-1},{"trial_n":6,"min":57,"max":198,"target":"absent","response":"absent","rt":1723,"correct":true,"confidence":-1},{"trial_n":7,"min":57,"max":198,"target":"absent","response":"absent","rt":792,"correct":true,"confidence":-1},{"trial_n":8,"min":73,"max":182,"target":"absent","response":"absent","rt":794,"correct":true,"confidence":-1},{"trial_n":9,"min":73,"max":182,"target":"present","response":"absent","rt":723.99999999999,"correct":false,"confidence":-1},{"trial_n":10,"min":57,"max":198,"target":"absent","response":"absent","rt":1372,"correct":true,"confidence":-1},{"trial_n":11,"min":57,"max":198,"target":"present","response":"present","rt":976,"correct":true,"confidence":-1},{"trial_n":12,"min":65,"max":190,"target":"absent","response":"absent","rt":897,"correct":true,"confidence":-1},{"trial_n":13,"min":65,"max":190,"target":"absent","response":"absent","rt":852,"correct":true,"confidence":-1},{"trial_n":14,"min":73,"max":182,"target":"absent","response":"absent","rt":818,"correct":true,"confidence":-1},{"trial_n":15,"min":73,"max":182,"target":"present","response":"absent","rt":760,"correct":false,"confidence":-1},{"trial_n":16,"min":65,"max":190,"target":"absent","response":"present","rt":1368,"correct":false,"confidence":-1},{"trial_n":17,"min":57,"max":198,"target":"absent","response":"absent","rt":1213,"correct":true,"confidence":-1},{"trial_n":18,"min":57,"max":198,"target":"present","response":"absent","rt":990,"correct":false,"confidence":-1},{"trial_n":19,"min":49,"max":206,"target":"present","response":"present","rt":869,"correct":true,"confidence":-1},{"trial_n":20,"min":49,"max":206,"target":"absent","response":"absent","rt":795,"correct":true,"confidence":-1},{"trial_n":21,"min":53,"max":202,"target":"present","response":"present","rt":1173,"correct":true,"confidence":4},{"trial_n":22,"min":53,"max":202,"target":"absent","response":"present","rt":978,"correct":false,"confidence":4},{"trial_n":23,"min":49,"max":206,"target":"present","response":"present","rt":1859,"correct":true,"confidence":2},{"trial_n":24,"min":49,"max":206,"target":"absent","response":"absent","rt":937.00000000001,"correct":true,"confidence":2},{"trial_n":25,"min":53,"max":202,"target":"absent","response":"present","rt":1339,"correct":false,"confidence":3},{"trial_n":26,"min":49,"max":206,"target":"present","response":"present","rt":904,"correct":true,"confidence":4},{"trial_n":27,"min":49,"max":206,"target":"absent","response":"absent","rt":995,"correct":true,"confidence":3},{"trial_n":28,"min":53,"max":202,"target":"present","response":"present","rt":1119,"correct":true,"confidence":4},{"trial_n":29,"min":53,"max":202,"target":"absent","response":"present","rt":1097,"correct":false,"confidence":3},{"trial_n":30,"min":49,"max":206,"target":"present","response":"present","rt":1472,"correct":true,"confidence":3},{"trial_n":31,"min":49,"max":206,"target":"absent","response":"absent","rt":872.99999999997,"correct":true,"confidence":2},{"trial_n":32,"min":51,"max":204,"target":"absent","response":"absent","rt":1322,"correct":true,"confidence":2},{"trial_n":33,"min":51,"max":204,"target":"present","response":"present","rt":1301,"correct":true,"confidence":3},{"trial_n":34,"min":53,"max":202,"target":"absent","response":"absent","rt":923,"correct":true,"confidence":3},{"trial_n":35,"min":53,"max":202,"target":"present","response":"present","rt":861.00000000003,"correct":true,"confidence":4},{"trial_n":36,"min":55,"max":200,"target":"present","response":"present","rt":1067,"correct":true,"confidence":4},{"trial_n":37,"min":55,"max":200,"target":"present","response":"present","rt":956.99999999997,"correct":true,"confidence":4},{"trial_n":38,"min":57,"max":198,"target":"absent","response":"absent","rt":1118,"correct":true,"confidence":2},{"trial_n":39,"min":57,"max":198,"target":"absent","response":"absent","rt":996,"correct":true,"confidence":3},{"trial_n":40,"min":59,"max":196,"target":"present","response":"present","rt":954,"correct":true,"confidence":4},{"trial_n":41,"min":59,"max":196,"target":"present","response":"present","rt":980.99999999997,"correct":true,"confidence":4},{"trial_n":42,"min":60,"max":195,"target":"present","response":"present","rt":846,"correct":true,"confidence":4},{"trial_n":43,"min":60,"max":195,"target":"absent","response":"absent","rt":1780,"correct":true,"confidence":3},{"trial_n":44,"min":61,"max":194,"target":"absent","response":"present","rt":1490,"correct":false,"confidence":3},{"trial_n":45,"min":60,"max":195,"target":"absent","response":"present","rt":1595,"correct":false,"confidence":3},{"trial_n":46,"min":59,"max":196,"target":"present","response":"present","rt":781,"correct":true,"confidence":4},{"trial_n":47,"min":59,"max":196,"target":"present","response":"absent","rt":2754,"correct":false,"confidence":2},{"trial_n":48,"min":58,"max":197,"target":"present","response":"present","rt":931.00000000003,"correct":true,"confidence":3},{"trial_n":49,"min":58,"max":197,"target":"absent","response":"absent","rt":1438,"correct":true,"confidence":3},{"trial_n":50,"min":59,"max":196,"target":"absent","response":"absent","rt":805,"correct":true,"confidence":3},{"trial_n":51,"min":59,"max":196,"target":"absent","response":"absent","rt":827,"correct":true,"confidence":3},{"trial_n":52,"min":60,"max":195,"target":"present","response":"present","rt":831,"correct":true,"confidence":4},{"trial_n":53,"min":60,"max":195,"target":"absent","response":"absent","rt":791.00000000003,"correct":true,"confidence":4},{"trial_n":54,"min":61,"max":194,"target":"present","response":"present","rt":917,"correct":true,"confidence":4},{"trial_n":55,"min":61,"max":194,"target":"absent","response":"absent","rt":773,"correct":true,"confidence":3},{"trial_n":56,"min":62,"max":193,"target":"present","response":"present","rt":768,"correct":true,"confidence":4},{"trial_n":57,"min":62,"max":193,"target":"present","response":"present","rt":803,"correct":true,"confidence":4},{"trial_n":58,"min":63,"max":192,"target":"present","response":"present","rt":4922,"correct":true,"confidence":2},{"trial_n":59,"min":63,"max":192,"target":"absent","response":"absent","rt":1185,"correct":true,"confidence":3},{"trial_n":60,"min":64,"max":191,"target":"absent","response":"absent","rt":792,"correct":true,"confidence":3},{"trial_n":61,"min":64,"max":191,"target":"present","response":"present","rt":784,"correct":true,"confidence":4},{"trial_n":62,"min":65,"max":190,"target":"present","response":"present","rt":722.99999999997,"correct":true,"confidence":4},{"trial_n":63,"min":65,"max":190,"target":"present","response":"absent","rt":1025,"correct":false,"confidence":3},{"trial_n":64,"min":64,"max":191,"target":"present","response":"present","rt":757,"correct":true,"confidence":4},{"trial_n":65,"min":64,"max":191,"target":"present","response":"present","rt":933,"correct":true,"confidence":4},{"trial_n":66,"min":65,"max":190,"target":"present","response":"present","rt":797,"correct":true,"confidence":3},{"trial_n":67,"min":65,"max":190,"target":"absent","response":"absent","rt":916,"correct":true,"confidence":3},{"trial_n":68,"min":66,"max":189,"target":"present","response":"present","rt":956,"correct":true,"confidence":3},{"trial_n":69,"min":66,"max":189,"target":"present","response":"present","rt":789.00000000003,"correct":true,"confidence":4},{"trial_n":70,"min":67,"max":188,"target":"absent","response":"absent","rt":947,"correct":true,"confidence":3},{"trial_n":71,"min":41,"max":214,"target":"present","response":"present","rt":5013,"correct":true,"confidence":-1},{"trial_n":72,"min":41,"max":214,"target":"present","response":"present","rt":1011.0000000001,"correct":true,"confidence":-1},{"trial_n":73,"min":57,"max":198,"target":"absent","response":"absent","rt":980,"correct":true,"confidence":-1},{"trial_n":74,"min":57,"max":198,"target":"absent","response":"absent","rt":891,"correct":true,"confidence":-1},{"trial_n":75,"min":73,"max":182,"target":"present","response":"present","rt":595,"correct":true,"confidence":-1},{"trial_n":76,"min":73,"max":182,"target":"absent","response":"absent","rt":1616,"correct":true,"confidence":-1},{"trial_n":77,"min":89,"max":166,"target":"absent","response":"absent","rt":1790,"correct":true,"confidence":-1},{"trial_n":78,"min":89,"max":166,"target":"present","response":"absent","rt":1308,"correct":false,"confidence":-1},{"trial_n":79,"min":73,"max":182,"target":"present","response":"present","rt":665.00000000006,"correct":true,"confidence":-1},{"trial_n":80,"min":73,"max":182,"target":"present","response":"absent","rt":2146,"correct":false,"confidence":-1},{"trial_n":81,"min":65,"max":190,"target":"absent","response":"absent","rt":1054.9999999999,"correct":true,"confidence":-1},{"trial_n":82,"min":65,"max":190,"target":"absent","response":"absent","rt":827,"correct":true,"confidence":-1},{"trial_n":83,"min":73,"max":182,"target":"absent","response":"absent","rt":914,"correct":true,"confidence":-1},{"trial_n":84,"min":73,"max":182,"target":"present","response":"present","rt":931,"correct":true,"confidence":-1},{"trial_n":85,"min":81,"max":174,"target":"absent","response":"absent","rt":785,"correct":true,"confidence":-1},{"trial_n":86,"min":81,"max":174,"target":"present","response":"absent","rt":827,"correct":false,"confidence":-1},{"trial_n":87,"min":73,"max":182,"target":"absent","response":"absent","rt":1325.9999999999,"correct":true,"confidence":-1},{"trial_n":88,"min":73,"max":182,"target":"absent","response":"absent","rt":1587,"correct":true,"confidence":-1},{"trial_n":89,"min":81,"max":174,"target":"present","response":"present","rt":915,"correct":true,"confidence":-1},{"trial_n":90,"min":81,"max":174,"target":"absent","response":"absent","rt":801,"correct":true,"confidence":-1},{"trial_n":91,"min":85,"max":170,"target":"absent","response":"absent","rt":908,"correct":true,"confidence":4},{"trial_n":92,"min":85,"max":170,"target":"present","response":"absent","rt":1080,"correct":false,"confidence":3},{"trial_n":93,"min":81,"max":174,"target":"absent","response":"present","rt":2800,"correct":false,"confidence":2},{"trial_n":94,"min":77,"max":178,"target":"absent","response":"absent","rt":847.00000000006,"correct":true,"confidence":3},{"trial_n":95,"min":77,"max":178,"target":"present","response":"absent","rt":713,"correct":false,"confidence":3},{"trial_n":96,"min":73,"max":182,"target":"present","response":"absent","rt":976,"correct":false,"confidence":3},{"trial_n":97,"min":69,"max":186,"target":"absent","response":"absent","rt":4509.0000000001,"correct":true,"confidence":3},{"trial_n":98,"min":69,"max":186,"target":"absent","response":"absent","rt":794,"correct":true,"confidence":4},{"trial_n":99,"min":73,"max":182,"target":"absent","response":"absent","rt":755,"correct":true,"confidence":4},{"trial_n":100,"min":73,"max":182,"target":"absent","response":"absent","rt":785,"correct":true,"confidence":4},{"trial_n":101,"min":75,"max":180,"target":"absent","response":"absent","rt":754,"correct":true,"confidence":3},{"trial_n":102,"min":75,"max":180,"target":"absent","response":"absent","rt":637.99999999994,"correct":true,"confidence":4},{"trial_n":103,"min":77,"max":178,"target":"present","response":"absent","rt":937,"correct":false,"confidence":4},{"trial_n":104,"min":75,"max":180,"target":"present","response":"present","rt":1056,"correct":true,"confidence":4},{"trial_n":105,"min":75,"max":180,"target":"present","response":"present","rt":807,"correct":true,"confidence":4},{"trial_n":106,"min":77,"max":178,"target":"present","response":"present","rt":1277,"correct":true,"confidence":3},{"trial_n":107,"min":77,"max":178,"target":"present","response":"absent","rt":4001,"correct":false,"confidence":2},{"trial_n":108,"min":75,"max":180,"target":"present","response":"present","rt":623,"correct":true,"confidence":4},{"trial_n":109,"min":75,"max":180,"target":"present","response":"present","rt":892,"correct":true,"confidence":4},{"trial_n":110,"min":77,"max":178,"target":"present","response":"present","rt":769,"correct":true,"confidence":4},{"trial_n":111,"min":77,"max":178,"target":"present","response":"present","rt":989,"correct":true,"confidence":3},{"trial_n":112,"min":78,"max":177,"target":"present","response":"present","rt":1126,"correct":true,"confidence":3},{"trial_n":113,"min":78,"max":177,"target":"present","response":"present","rt":689,"correct":true,"confidence":4},{"trial_n":114,"min":79,"max":176,"target":"absent","response":"absent","rt":1291,"correct":true,"confidence":3},{"trial_n":115,"min":79,"max":176,"target":"present","response":"absent","rt":897.00000000006,"correct":false,"confidence":3},{"trial_n":116,"min":78,"max":177,"target":"absent","response":"absent","rt":873.00000000006,"correct":true,"confidence":3},{"trial_n":117,"min":78,"max":177,"target":"absent","response":"absent","rt":1372,"correct":true,"confidence":3},{"trial_n":118,"min":79,"max":176,"target":"present","response":"present","rt":1024,"correct":true,"confidence":4},{"trial_n":119,"min":79,"max":176,"target":"present","response":"present","rt":785,"correct":true,"confidence":4},{"trial_n":120,"min":80,"max":175,"target":"present","response":"present","rt":963,"correct":true,"confidence":4},{"trial_n":121,"min":80,"max":175,"target":"absent","response":"absent","rt":1161,"correct":true,"confidence":4},{"trial_n":122,"min":81,"max":174,"target":"absent","response":"present","rt":930,"correct":false,"confidence":4},{"trial_n":123,"min":80,"max":175,"target":"present","response":"absent","rt":3242,"correct":false,"confidence":2},{"trial_n":124,"min":79,"max":176,"target":"present","response":"present","rt":865,"correct":true,"confidence":3},{"trial_n":125,"min":79,"max":176,"target":"absent","response":"present","rt":2516.0000000001,"correct":false,"confidence":3},{"trial_n":126,"min":78,"max":177,"target":"absent","response":"absent","rt":1067.9999999999,"correct":true,"confidence":3},{"trial_n":127,"min":78,"max":177,"target":"present","response":"present","rt":840,"correct":true,"confidence":4},{"trial_n":128,"min":79,"max":176,"target":"absent","response":"absent","rt":803.99999999994,"correct":true,"confidence":4},{"trial_n":129,"min":79,"max":176,"target":"present","response":"present","rt":2458,"correct":true,"confidence":1},{"trial_n":130,"min":80,"max":175,"target":"absent","response":"present","rt":889,"correct":false,"confidence":4},{"trial_n":131,"min":79,"max":176,"target":"absent","response":"present","rt":1122,"correct":false,"confidence":3},{"trial_n":132,"min":78,"max":177,"target":"present","response":"present","rt":678,"correct":true,"confidence":4},{"trial_n":133,"min":78,"max":177,"target":"present","response":"absent","rt":5330.0000000001,"correct":false,"confidence":2},{"trial_n":134,"min":77,"max":178,"target":"present","response":"present","rt":787,"correct":true,"confidence":4},{"trial_n":135,"min":77,"max":178,"target":"present","response":"absent","rt":2562,"correct":false,"confidence":1},{"trial_n":136,"min":76,"max":179,"target":"present","response":"present","rt":1064,"correct":true,"confidence":3},{"trial_n":137,"min":76,"max":179,"target":"absent","response":"present","rt":1998,"correct":false,"confidence":3},{"trial_n":138,"min":75,"max":180,"target":"absent","response":"present","rt":910,"correct":false,"confidence":4},{"trial_n":139,"min":74,"max":181,"target":"absent","response":"present","rt":1304,"correct":false,"confidence":3},{"trial_n":140,"min":73,"max":182,"target":"absent","response":"present","rt":979.00000000006,"correct":false,"confidence":3}]