[{"trial_n":1,"span":8,"encoder":"42657450","distractor":"42657490","target":"present","response":"present","rt":"3649.7000000477","correct":true,"confidence":-1},{"trial_n":2,"span":8,"encoder":"51203479","distractor":"52203479","target":"present","response":"present","rt":"1996.4000000954","correct":true,"confidence":-1},{"trial_n":3,"span":10,"encoder":"3677333529","distractor":"3607333529","target":"absent","response":"absent","rt":"2582.7999999523","correct":true,"confidence":-1},{"trial_n":4,"span":10,"encoder":"6630257694","distractor":"6630257634","target":"absent","response":"present","rt":"1547","correct":false,"confidence":-1},{"trial_n":5,"span":8,"encoder":"30636888","distractor":"30636883","target":"present","response":"present","rt":"1995.5","correct":true,"confidence":-1},{"trial_n":6,"span":8,"encoder":"69661682","distractor":"69661612","target":"present","response":"present","rt":"1042.1000001431","correct":true,"confidence":-1},{"trial_n":7,"span":10,"encoder":"4947406109","distractor":"4947406009","target":"absent","response":"present","rt":"2129.7999999523","correct":false,"confidence":-1},{"trial_n":8,"span":8,"encoder":"44587964","distractor":"44587974","target":"present","response":"absent","rt":"1259.2999999523","correct":false,"confidence":-1},{"trial_n":9,"span":6,"encoder":"209743","distractor":"409743","target":"absent","response":"absent","rt":"2407.2999999523","correct":true,"confidence":-1},{"trial_n":10,"span":6,"encoder":"436402","distractor":"436462","target":"present","response":"present","rt":"1236.4000000954","correct":true,"confidence":-1},{"trial_n":11,"span":8,"encoder":"01278066","distractor":"01278056","target":"present","response":"present","rt":"927.70000004768","correct":true,"confidence":-1},{"trial_n":12,"span":8,"encoder":"70821054","distractor":"76821054","target":"absent","response":"present","rt":"868.20000004768","correct":false,"confidence":-1},{"trial_n":13,"span":7,"encoder":"5418340","distractor":"5418940","target":"absent","response":"absent","rt":"954.89999985695","correct":true,"confidence":-1},{"trial_n":14,"span":7,"encoder":"1817688","distractor":"9817688","target":"present","response":"present","rt":"900.79999995232","correct":true,"confidence":-1},{"trial_n":15,"span":8,"encoder":"51284375","distractor":"51284975","target":"absent","response":"present","rt":"1020.2999999523","correct":false,"confidence":-1},{"trial_n":16,"span":7,"encoder":"4755029","distractor":"4755129","target":"present","response":"present","rt":"1551","correct":true,"confidence":-1},{"trial_n":17,"span":7,"encoder":"8462839","distractor":"8662839","target":"absent","response":"present","rt":"861.40000009537","correct":false,"confidence":-1},{"trial_n":18,"span":6,"encoder":"158413","distractor":"858413","target":"absent","response":"present","rt":"1485.1000001431","correct":false,"confidence":-1},{"trial_n":19,"span":5,"encoder":"55997","distractor":"35997","target":"present","response":"present","rt":"1136.2999999523","correct":true,"confidence":-1},{"trial_n":20,"span":5,"encoder":"13621","distractor":"11621","target":"present","response":"present","rt":"799.20000004768","correct":true,"confidence":-1},{"trial_n":21,"span":6,"encoder":"654666","distractor":"658666","target":"present","response":"present","rt":"558.40000009537","correct":true,"confidence":3},{"trial_n":22,"span":6,"encoder":"422229","distractor":"429229","target":"absent","response":"present","rt":"1247.9000000954","correct":false,"confidence":5},{"trial_n":23,"span":5,"encoder":"01049","distractor":"09049","target":"present","response":"present","rt":"1311.4000000954","correct":true,"confidence":5},{"trial_n":24,"span":5,"encoder":"98490","distractor":"98498","target":"absent","response":"absent","rt":"1983.0999999046","correct":true,"confidence":4},{"trial_n":25,"span":6,"encoder":"751041","distractor":"753041","target":"absent","response":"present","rt":"1674.9000000954","correct":false,"confidence":2},{"trial_n":26,"span":5,"encoder":"95395","distractor":"91395","target":"present","response":"present","rt":"1007.0999999046","correct":true,"confidence":3},{"trial_n":27,"span":5,"encoder":"22096","distractor":"22091","target":"present","response":"present","rt":"1448","correct":true,"confidence":4},{"trial_n":28,"span":6,"encoder":"655781","distractor":"695781","target":"absent","response":"absent","rt":"1706.7999999523","correct":true,"confidence":5},{"trial_n":29,"span":6,"encoder":"557688","distractor":"557681","target":"present","response":"absent","rt":"2519.9000000954","correct":false,"confidence":3},{"trial_n":30,"span":5,"encoder":"19185","distractor":"09185","target":"absent","response":"absent","rt":"1455.7999999523","correct":true,"confidence":2},{"trial_n":31,"span":5,"encoder":"75218","distractor":"75268","target":"present","response":"present","rt":"1220.1000001431","correct":true,"confidence":4},{"trial_n":32,"span":6,"encoder":"347955","distractor":"347965","target":"present","response":"absent","rt":"1595.2000000477","correct":false,"confidence":3},{"trial_n":33,"span":5,"encoder":"98632","distractor":"38632","target":"absent","response":"present","rt":"1628.9000000954","correct":false,"confidence":3},{"trial_n":34,"span":4,"encoder":"0488","distractor":"0489","target":"absent","response":"absent","rt":"1492.5","correct":true,"confidence":5},{"trial_n":35,"span":4,"encoder":"6088","distractor":"6028","target":"present","response":"present","rt":"1349.2999999523","correct":true,"confidence":5},{"trial_n":36,"span":5,"encoder":"52836","distractor":"58836","target":"absent","response":"absent","rt":"1792.5999999046","correct":true,"confidence":5},{"trial_n":37,"span":5,"encoder":"47007","distractor":"27007","target":"absent","response":"absent","rt":"1623.5999999046","correct":true,"confidence":5},{"trial_n":38,"span":6,"encoder":"877872","distractor":"877871","target":"absent","response":"absent","rt":"2181.4000000954","correct":true,"confidence":4},{"trial_n":39,"span":6,"encoder":"740437","distractor":"770437","target":"present","response":"present","rt":"2892.1000001431","correct":true,"confidence":3},{"trial_n":40,"span":7,"encoder":"1297128","distractor":"1497128","target":"present","response":"present","rt":"1819.2000000477","correct":true,"confidence":5},{"trial_n":41,"span":7,"encoder":"5914465","distractor":"5914485","target":"absent","response":"absent","rt":"2200.2000000477","correct":true,"confidence":5},{"trial_n":42,"span":8,"encoder":"56983535","distractor":"56993535","target":"present","response":"present","rt":"1446.5","correct":true,"confidence":3},{"trial_n":43,"span":8,"encoder":"55286123","distractor":"55286128","target":"present","response":"absent","rt":"2726.4000000954","correct":false,"confidence":2},{"trial_n":44,"span":7,"encoder":"2933936","distractor":"2433936","target":"absent","response":"absent","rt":"2116.3999998569","correct":true,"confidence":4},{"trial_n":45,"span":7,"encoder":"8356633","distractor":"8856633","target":"present","response":"absent","rt":"1603.7999999523","correct":false,"confidence":3},{"trial_n":46,"span":6,"encoder":"524288","distractor":"524281","target":"present","response":"present","rt":"1404.2999999523","correct":true,"confidence":5},{"trial_n":47,"span":6,"encoder":"426609","distractor":"126609","target":"absent","response":"absent","rt":"1703.6000001431","correct":true,"confidence":5},{"trial_n":48,"span":7,"encoder":"5027476","distractor":"5067476","target":"present","response":"absent","rt":"1287","correct":false,"confidence":2},{"trial_n":49,"span":6,"encoder":"498565","distractor":"498525","target":"absent","response":"absent","rt":"1873.3000001907","correct":true,"confidence":2},{"trial_n":50,"span":6,"encoder":"361279","distractor":"761279","target":"absent","response":"absent","rt":"1196.6000001431","correct":true,"confidence":3},{"trial_n":51,"span":7,"encoder":"8601926","distractor":"8701926","target":"present","response":"present","rt":"2263.2999999523","correct":true,"confidence":3},{"trial_n":52,"span":7,"encoder":"5698308","distractor":"8698308","target":"present","response":"absent","rt":"1533.3000001907","correct":false,"confidence":3},{"trial_n":53,"span":6,"encoder":"457726","distractor":"457796","target":"absent","response":"present","rt":"1264.8999998569","correct":false,"confidence":4},{"trial_n":54,"span":5,"encoder":"54331","distractor":"44331","target":"present","response":"present","rt":"1419","correct":true,"confidence":5},{"trial_n":55,"span":5,"encoder":"43200","distractor":"43100","target":"present","response":"present","rt":"1082.2999999523","correct":true,"confidence":5},{"trial_n":56,"span":6,"encoder":"357891","distractor":"356891","target":"present","response":"present","rt":"1530.2999999523","correct":true,"confidence":4},{"trial_n":57,"span":6,"encoder":"528205","distractor":"928205","target":"present","response":"present","rt":"1161.6999998093","correct":true,"confidence":4},{"trial_n":58,"span":7,"encoder":"2195510","distractor":"2195590","target":"present","response":"present","rt":"2725.2000000477","correct":true,"confidence":3},{"trial_n":59,"span":7,"encoder":"5704090","distractor":"5702090","target":"present","response":"present","rt":"2904.1000001431","correct":true,"confidence":3},{"trial_n":60,"span":8,"encoder":"67807789","distractor":"87807789","target":"absent","response":"absent","rt":"1691.5","correct":true,"confidence":3},{"trial_n":61,"span":8,"encoder":"10774764","distractor":"10714764","target":"absent","response":"present","rt":"1124.8000001907","correct":false,"confidence":4},{"trial_n":62,"span":7,"encoder":"3868181","distractor":"3863181","target":"absent","response":"present","rt":"1072.2000000477","correct":false,"confidence":2},{"trial_n":63,"span":6,"encoder":"697294","distractor":"697296","target":"absent","response":"absent","rt":"2156.2999999523","correct":true,"confidence":5},{"trial_n":64,"span":6,"encoder":"624238","distractor":"624236","target":"absent","response":"absent","rt":"1916.4000000954","correct":true,"confidence":5},{"trial_n":65,"span":7,"encoder":"8227144","distractor":"8220144","target":"present","response":"present","rt":"1677.7999999523","correct":true,"confidence":3},{"trial_n":66,"span":7,"encoder":"3525643","distractor":"3525673","target":"absent","response":"absent","rt":"3080.5","correct":true,"confidence":3},{"trial_n":67,"span":8,"encoder":"01594651","distractor":"01594656","target":"present","response":"present","rt":"1313.5999999046","correct":true,"confidence":3},{"trial_n":68,"span":8,"encoder":"03424704","distractor":"03424706","target":"absent","response":"present","rt":"1662.5","correct":false,"confidence":3},{"trial_n":69,"span":7,"encoder":"9066090","distractor":"9061090","target":"absent","response":"present","rt":"2220.5999999046","correct":false,"confidence":3},{"trial_n":70,"span":6,"encoder":"483249","distractor":"483239","target":"absent","response":"present","rt":"2218.4000000954","correct":false,"confidence":3},{"trial_n":71,"span":8,"encoder":"56944838","distractor":"06944838","target":"present","response":"absent","rt":"1962.8999998569","correct":false,"confidence":-1},{"trial_n":72,"span":7,"encoder":"7505866","distractor":"4505866","target":"present","response":"absent","rt":"1335.7000000477","correct":false,"confidence":-1},{"trial_n":73,"span":6,"encoder":"801546","distractor":"861546","target":"absent","response":"absent","rt":"1227.2000000477","correct":true,"confidence":-1},{"trial_n":74,"span":6,"encoder":"970928","distractor":"990928","target":"absent","response":"present","rt":"1146.5","correct":false,"confidence":-1},{"trial_n":75,"span":5,"encoder":"46735","distractor":"46733","target":"present","response":"present","rt":"1531.8999998569","correct":true,"confidence":-1},{"trial_n":76,"span":5,"encoder":"40628","distractor":"48628","target":"absent","response":"absent","rt":"1982.1999998093","correct":true,"confidence":-1},{"trial_n":77,"span":6,"encoder":"572336","distractor":"572376","target":"absent","response":"present","rt":"1614.7999999523","correct":false,"confidence":-1},{"trial_n":78,"span":5,"encoder":"12655","distractor":"12455","target":"present","response":"present","rt":"2301.4000000954","correct":true,"confidence":-1},{"trial_n":79,"span":5,"encoder":"93321","distractor":"93326","target":"present","response":"present","rt":"1428.2000000477","correct":true,"confidence":-1},{"trial_n":80,"span":6,"encoder":"380734","distractor":"384734","target":"absent","response":"absent","rt":"1360.9000000954","correct":true,"confidence":-1},{"trial_n":81,"span":6,"encoder":"902322","distractor":"905322","target":"present","response":"absent","rt":"2863.7000000477","correct":false,"confidence":-1},{"trial_n":82,"span":5,"encoder":"21970","distractor":"21870","target":"absent","response":"absent","rt":"5201.3000001907","correct":true,"confidence":-1},{"trial_n":83,"span":5,"encoder":"76572","distractor":"71572","target":"absent","response":"absent","rt":"2109.2000000477","correct":true,"confidence":-1},{"trial_n":84,"span":6,"encoder":"299893","distractor":"299899","target":"absent","response":"absent","rt":"1027.2999999523","correct":true,"confidence":-1},{"trial_n":85,"span":6,"encoder":"914364","distractor":"914360","target":"present","response":"present","rt":"1123","correct":true,"confidence":-1},{"trial_n":86,"span":7,"encoder":"7890279","distractor":"6890279","target":"present","response":"present","rt":"1471.5","correct":true,"confidence":-1},{"trial_n":87,"span":7,"encoder":"1772923","distractor":"1732923","target":"absent","response":"absent","rt":"2617.4000000954","correct":true,"confidence":-1},{"trial_n":88,"span":8,"encoder":"82278858","distractor":"87278858","target":"absent","response":"absent","rt":"2317.9000000954","correct":true,"confidence":-1},{"trial_n":89,"span":8,"encoder":"62233857","distractor":"65233857","target":"absent","response":"absent","rt":"1532.9000000954","correct":true,"confidence":-1},{"trial_n":90,"span":9,"encoder":"526751726","distractor":"526351726","target":"present","response":"absent","rt":"1979.7999999523","correct":false,"confidence":-1},{"trial_n":91,"span":8,"encoder":"08691211","distractor":"08691231","target":"present","response":"present","rt":"1610.2999999523","correct":true,"confidence":5},{"trial_n":92,"span":8,"encoder":"26169214","distractor":"26179214","target":"present","response":"present","rt":"1193.7000000477","correct":true,"confidence":3},{"trial_n":93,"span":9,"encoder":"053087325","distractor":"053087525","target":"absent","response":"absent","rt":"2092.5","correct":true,"confidence":3},{"trial_n":94,"span":9,"encoder":"744085654","distractor":"544085654","target":"present","response":"absent","rt":"1747.7999999523","correct":false,"confidence":3},{"trial_n":95,"span":8,"encoder":"97267848","distractor":"97167848","target":"absent","response":"absent","rt":"3249.7000000477","correct":true,"confidence":4},{"trial_n":96,"span":8,"encoder":"06019633","distractor":"06019033","target":"absent","response":"absent","rt":"2868","correct":true,"confidence":4},{"trial_n":97,"span":9,"encoder":"195005293","distractor":"195005295","target":"present","response":"absent","rt":"2846.7999999523","correct":false,"confidence":3},{"trial_n":98,"span":8,"encoder":"86198320","distractor":"86398320","target":"absent","response":"absent","rt":"4025.7000000477","correct":true,"confidence":3},{"trial_n":99,"span":8,"encoder":"15772963","distractor":"15772965","target":"present","response":"present","rt":"3468.8999998569","correct":true,"confidence":5},{"trial_n":100,"span":9,"encoder":"207453822","distractor":"007453822","target":"absent","response":"absent","rt":"3554.7999999523","correct":true,"confidence":4},{"trial_n":101,"span":9,"encoder":"886651977","distractor":"883651977","target":"absent","response":"absent","rt":"2805.5999999046","correct":true,"confidence":5},{"trial_n":102,"span":10,"encoder":"8307935169","distractor":"8307935069","target":"absent","response":"absent","rt":"841.70000004768","correct":true,"confidence":3},{"trial_n":103,"span":10,"encoder":"7279298441","distractor":"7274298441","target":"absent","response":"absent","rt":"3708.2999999523","correct":true,"confidence":2},{"trial_n":104,"span":11,"encoder":"56562225332","distractor":"56552225332","target":"absent","response":"present","rt":"1669.8999998569","correct":false,"confidence":3},{"trial_n":105,"span":10,"encoder":"8379920788","distractor":"8379930788","target":"present","response":"absent","rt":"2070.0999999046","correct":false,"confidence":3},{"trial_n":106,"span":9,"encoder":"984525008","distractor":"983525008","target":"present","response":"absent","rt":"2203.5999999046","correct":false,"confidence":4},{"trial_n":107,"span":8,"encoder":"28503762","distractor":"28503662","target":"absent","response":"present","rt":"3726","correct":false,"confidence":2},{"trial_n":108,"span":7,"encoder":"1451857","distractor":"1421857","target":"absent","response":"absent","rt":"4442.7000000477","correct":true,"confidence":4},{"trial_n":109,"span":7,"encoder":"2105788","distractor":"3105788","target":"present","response":"absent","rt":"3530.5","correct":false,"confidence":5},{"trial_n":110,"span":6,"encoder":"051541","distractor":"051561","target":"absent","response":"absent","rt":"2876.5999999046","correct":true,"confidence":4},{"trial_n":111,"span":6,"encoder":"903429","distractor":"903419","target":"absent","response":"present","rt":"2359.7000000477","correct":false,"confidence":3},{"trial_n":112,"span":5,"encoder":"11201","distractor":"11203","target":"present","response":"present","rt":"1887.7999999523","correct":true,"confidence":4},{"trial_n":113,"span":5,"encoder":"22894","distractor":"22694","target":"present","response":"present","rt":"2070.5999999046","correct":true,"confidence":5},{"trial_n":114,"span":6,"encoder":"359552","distractor":"359592","target":"present","response":"present","rt":"2565.5","correct":true,"confidence":5},{"trial_n":115,"span":6,"encoder":"179617","distractor":"169617","target":"absent","response":"present","rt":"2360.5999999046","correct":false,"confidence":2},{"trial_n":116,"span":5,"encoder":"69172","distractor":"65172","target":"absent","response":"absent","rt":"1912.2000000477","correct":true,"confidence":5},{"trial_n":117,"span":5,"encoder":"88116","distractor":"87116","target":"present","response":"present","rt":"1422.4000000954","correct":true,"confidence":5},{"trial_n":118,"span":6,"encoder":"100672","distractor":"100673","target":"present","response":"present","rt":"1745.4000000954","correct":true,"confidence":5},{"trial_n":119,"span":6,"encoder":"572583","distractor":"572503","target":"present","response":"present","rt":"2099.4000000954","correct":true,"confidence":5},{"trial_n":120,"span":7,"encoder":"7113401","distractor":"7113901","target":"present","response":"absent","rt":"1692.6999998093","correct":false,"confidence":4},{"trial_n":121,"span":6,"encoder":"390354","distractor":"390454","target":"absent","response":"present","rt":"1337.7999999523","correct":false,"confidence":4},{"trial_n":122,"span":5,"encoder":"38840","distractor":"98840","target":"absent","response":"absent","rt":"1326.7999999523","correct":true,"confidence":5},{"trial_n":123,"span":5,"encoder":"17761","distractor":"17791","target":"present","response":"present","rt":"2051.1000001431","correct":true,"confidence":5},{"trial_n":124,"span":6,"encoder":"166882","distractor":"166812","target":"present","response":"present","rt":"1216.1000001431","correct":true,"confidence":4},{"trial_n":125,"span":6,"encoder":"843489","distractor":"243489","target":"absent","response":"absent","rt":"1518.7000000477","correct":true,"confidence":3},{"trial_n":126,"span":7,"encoder":"9001875","distractor":"9001877","target":"present","response":"present","rt":"1771.5","correct":true,"confidence":3},{"trial_n":127,"span":7,"encoder":"3350312","distractor":"3350316","target":"present","response":"present","rt":"1672.5","correct":true,"confidence":3},{"trial_n":128,"span":8,"encoder":"02061921","distractor":"62061921","target":"absent","response":"present","rt":"1699.6000001431","correct":false,"confidence":3},{"trial_n":129,"span":7,"encoder":"0626871","distractor":"0676871","target":"present","response":"present","rt":"1265.7000000477","correct":true,"confidence":4},{"trial_n":130,"span":7,"encoder":"9970164","distractor":"9971164","target":"present","response":"present","rt":"1268.6999998093","correct":true,"confidence":3},{"trial_n":131,"span":8,"encoder":"11752658","distractor":"11752650","target":"absent","response":"absent","rt":"1213.8999998569","correct":true,"confidence":5},{"trial_n":132,"span":8,"encoder":"44692587","distractor":"44662587","target":"absent","response":"absent","rt":"1636.7999999523","correct":true,"confidence":5},{"trial_n":133,"span":9,"encoder":"999957035","distractor":"999958035","target":"present","response":"absent","rt":"2316.7999999523","correct":false,"confidence":3},{"trial_n":134,"span":8,"encoder":"55760569","distractor":"35760569","target":"present","response":"absent","rt":"1487.0999999046","correct":false,"confidence":3},{"trial_n":135,"span":7,"encoder":"4812715","distractor":"4812765","target":"absent","response":"absent","rt":"2562.9000000954","correct":true,"confidence":4},{"trial_n":136,"span":7,"encoder":"9224097","distractor":"9224057","target":"present","response":"present","rt":"1723.8999998569","correct":true,"confidence":5},{"trial_n":137,"span":8,"encoder":"91015462","distractor":"91015412","target":"present","response":"present","rt":"1482.8000001907","correct":true,"confidence":5},{"trial_n":138,"span":8,"encoder":"19234619","distractor":"15234619","target":"absent","response":"present","rt":"1739.7000000477","correct":false,"confidence":3},{"trial_n":139,"span":7,"encoder":"8580457","distractor":"8580257","target":"present","response":"present","rt":"2952.2999999523","correct":true,"confidence":3},{"trial_n":140,"span":7,"encoder":"6232319","distractor":"6232329","target":"present","response":"present","rt":"1670.7000000477","correct":true,"confidence":2}]