[{"trial_n":1,"min":25,"max":230,"target":"present","response":"present","rt":6297.0999999046,"correct":true,"confidence":-1},{"trial_n":2,"min":25,"max":230,"target":"present","response":"absent","rt":1347.7999999523,"correct":false,"confidence":-1},{"trial_n":3,"min":9,"max":246,"target":"absent","response":"present","rt":719.59999990463,"correct":false,"confidence":-1},{"trial_n":4,"min":0,"max":255,"target":"absent","response":"present","rt":398.69999980927,"correct":false,"confidence":-1},{"trial_n":5,"min":0,"max":255,"target":"present","response":"present","rt":816.80000019073,"correct":true,"confidence":-1},{"trial_n":6,"min":0,"max":255,"target":"present","response":"present","rt":280.20000004768,"correct":true,"confidence":-1},{"trial_n":7,"min":16,"max":239,"target":"absent","response":"absent","rt":297.40000009537,"correct":true,"confidence":-1},{"trial_n":8,"min":16,"max":239,"target":"absent","response":"absent","rt":363.5,"correct":true,"confidence":-1},{"trial_n":9,"min":32,"max":223,"target":"present","response":"present","rt":135.70000004768,"correct":true,"confidence":-1},{"trial_n":10,"min":32,"max":223,"target":"present","response":"absent","rt":83.5,"correct":false,"confidence":-1},{"trial_n":11,"min":24,"max":231,"target":"absent","response":"present","rt":1388.4000000954,"correct":false,"confidence":-1},{"trial_n":12,"min":16,"max":239,"target":"absent","response":"absent","rt":384.79999995232,"correct":true,"confidence":-1},{"trial_n":13,"min":16,"max":239,"target":"absent","response":"absent","rt":206.39999985695,"correct":true,"confidence":-1},{"trial_n":14,"min":24,"max":231,"target":"absent","response":"absent","rt":135.29999995232,"correct":true,"confidence":-1},{"trial_n":15,"min":24,"max":231,"target":"present","response":"present","rt":225.69999980927,"correct":true,"confidence":-1},{"trial_n":16,"min":32,"max":223,"target":"present","response":"present","rt":129.70000004768,"correct":true,"confidence":-1},{"trial_n":17,"min":32,"max":223,"target":"present","response":"absent","rt":99.799999952316,"correct":false,"confidence":-1},{"trial_n":18,"min":24,"max":231,"target":"present","response":"present","rt":169.70000004768,"correct":true,"confidence":-1},{"trial_n":19,"min":24,"max":231,"target":"present","response":"present","rt":186.20000004768,"correct":true,"confidence":-1},{"trial_n":20,"min":32,"max":223,"target":"absent","response":"absent","rt":221.29999995232,"correct":true,"confidence":-1},{"trial_n":21,"min":32,"max":223,"target":"present","response":"present","rt":598.80000019073,"correct":true,"confidence":5},{"trial_n":22,"min":36,"max":219,"target":"absent","response":"absent","rt":590.90000009537,"correct":true,"confidence":5},{"trial_n":23,"min":36,"max":219,"target":"absent","response":"absent","rt":689.5,"correct":true,"confidence":5},{"trial_n":24,"min":40,"max":215,"target":"absent","response":"absent","rt":726.79999995232,"correct":true,"confidence":5},{"trial_n":25,"min":40,"max":215,"target":"present","response":"present","rt":766,"correct":true,"confidence":5},{"trial_n":26,"min":44,"max":211,"target":"absent","response":"absent","rt":532.39999985695,"correct":true,"confidence":5},{"trial_n":27,"min":44,"max":211,"target":"present","response":"present","rt":553.20000004768,"correct":true,"confidence":5},{"trial_n":28,"min":48,"max":207,"target":"present","response":"present","rt":601.60000014305,"correct":true,"confidence":5},{"trial_n":29,"min":48,"max":207,"target":"present","response":"present","rt":495.70000004768,"correct":true,"confidence":5},{"trial_n":30,"min":52,"max":203,"target":"present","response":"present","rt":516,"correct":true,"confidence":5},{"trial_n":31,"min":52,"max":203,"target":"absent","response":"absent","rt":631.80000019073,"correct":true,"confidence":5},{"trial_n":32,"min":54,"max":201,"target":"present","response":"present","rt":639.90000009537,"correct":true,"confidence":5},{"trial_n":33,"min":54,"max":201,"target":"present","response":"present","rt":471.5,"correct":true,"confidence":5},{"trial_n":34,"min":56,"max":199,"target":"absent","response":"absent","rt":417.90000009537,"correct":true,"confidence":5},{"trial_n":35,"min":56,"max":199,"target":"present","response":"present","rt":575.69999980927,"correct":true,"confidence":5},{"trial_n":36,"min":58,"max":197,"target":"absent","response":"absent","rt":329.39999985695,"correct":true,"confidence":5},{"trial_n":37,"min":58,"max":197,"target":"absent","response":"absent","rt":307.70000004768,"correct":true,"confidence":5},{"trial_n":38,"min":60,"max":195,"target":"present","response":"present","rt":474.29999995232,"correct":true,"confidence":5},{"trial_n":39,"min":60,"max":195,"target":"absent","response":"absent","rt":390.69999980927,"correct":true,"confidence":5},{"trial_n":40,"min":62,"max":193,"target":"absent","response":"absent","rt":348.5,"correct":true,"confidence":5},{"trial_n":41,"min":62,"max":193,"target":"absent","response":"absent","rt":589,"correct":true,"confidence":5},{"trial_n":42,"min":63,"max":192,"target":"present","response":"present","rt":530.5,"correct":true,"confidence":5},{"trial_n":43,"min":63,"max":192,"target":"present","response":"present","rt":559.70000004768,"correct":true,"confidence":5},{"trial_n":44,"min":64,"max":191,"target":"present","response":"present","rt":425.39999985695,"correct":true,"confidence":5},{"trial_n":45,"min":64,"max":191,"target":"present","response":"present","rt":487.5,"correct":true,"confidence":5},{"trial_n":46,"min":65,"max":190,"target":"present","response":"present","rt":615.60000014305,"correct":true,"confidence":5},{"trial_n":47,"min":65,"max":190,"target":"absent","response":"absent","rt":454.19999980927,"correct":true,"confidence":5},{"trial_n":48,"min":66,"max":189,"target":"absent","response":"absent","rt":413.89999985695,"correct":true,"confidence":5},{"trial_n":49,"min":66,"max":189,"target":"absent","response":"absent","rt":390.09999990463,"correct":true,"confidence":5},{"trial_n":50,"min":67,"max":188,"target":"present","response":"present","rt":477.70000004768,"correct":true,"confidence":5},{"trial_n":51,"min":67,"max":188,"target":"present","response":"present","rt":910.90000009537,"correct":true,"confidence":5},{"trial_n":52,"min":68,"max":187,"target":"absent","response":"absent","rt":312.20000004768,"correct":true,"confidence":5},{"trial_n":53,"min":68,"max":187,"target":"absent","response":"absent","rt":247.09999990463,"correct":true,"confidence":5},{"trial_n":54,"min":69,"max":186,"target":"absent","response":"absent","rt":348.30000019073,"correct":true,"confidence":5},{"trial_n":55,"min":69,"max":186,"target":"absent","response":"absent","rt":286.79999995232,"correct":true,"confidence":5},{"trial_n":56,"min":70,"max":185,"target":"absent","response":"absent","rt":224,"correct":true,"confidence":5},{"trial_n":57,"min":70,"max":185,"target":"present","response":"present","rt":620.70000004768,"correct":true,"confidence":5},{"trial_n":58,"min":71,"max":184,"target":"absent","response":"absent","rt":427.70000004768,"correct":true,"confidence":5},{"trial_n":59,"min":71,"max":184,"target":"present","response":"present","rt":513.39999985695,"correct":true,"confidence":5},{"trial_n":60,"min":72,"max":183,"target":"present","response":"absent","rt":365.20000004768,"correct":false,"confidence":5},{"trial_n":61,"min":71,"max":184,"target":"absent","response":"absent","rt":1082.2999999523,"correct":true,"confidence":5},{"trial_n":62,"min":71,"max":184,"target":"present","response":"present","rt":673.5,"correct":true,"confidence":5},{"trial_n":63,"min":72,"max":183,"target":"absent","response":"absent","rt":389,"correct":true,"confidence":5},{"trial_n":64,"min":72,"max":183,"target":"absent","response":"absent","rt":353.70000004768,"correct":true,"confidence":5},{"trial_n":65,"min":73,"max":182,"target":"present","response":"absent","rt":268.40000009537,"correct":false,"confidence":5},{"trial_n":66,"min":72,"max":183,"target":"present","response":"present","rt":634.90000009537,"correct":true,"confidence":5},{"trial_n":67,"min":72,"max":183,"target":"present","response":"present","rt":830.90000009537,"correct":true,"confidence":5},{"trial_n":68,"min":73,"max":182,"target":"absent","response":"absent","rt":466.09999990463,"correct":true,"confidence":4},{"trial_n":69,"min":73,"max":182,"target":"present","response":"absent","rt":908.5,"correct":false,"confidence":2},{"trial_n":70,"min":72,"max":183,"target":"absent","response":"absent","rt":526.10000014305,"correct":true,"confidence":4},{"trial_n":71,"min":41,"max":214,"target":"present","response":"present","rt":6144.5,"correct":true,"confidence":-1},{"trial_n":72,"min":41,"max":214,"target":"present","response":"absent","rt":1732.7000000477,"correct":false,"confidence":-1},{"trial_n":73,"min":25,"max":230,"target":"absent","response":"absent","rt":1176.4000000954,"correct":true,"confidence":-1},{"trial_n":74,"min":25,"max":230,"target":"absent","response":"absent","rt":597.5,"correct":true,"confidence":-1},{"trial_n":75,"min":41,"max":214,"target":"present","response":"absent","rt":434.70000004768,"correct":false,"confidence":-1},{"trial_n":76,"min":25,"max":230,"target":"absent","response":"absent","rt":300.19999980927,"correct":true,"confidence":-1},{"trial_n":77,"min":25,"max":230,"target":"present","response":"present","rt":349.59999990463,"correct":true,"confidence":-1},{"trial_n":78,"min":41,"max":214,"target":"absent","response":"absent","rt":415,"correct":true,"confidence":-1},{"trial_n":79,"min":41,"max":214,"target":"present","response":"present","rt":263.79999995232,"correct":true,"confidence":-1},{"trial_n":80,"min":57,"max":198,"target":"absent","response":"present","rt":423.5,"correct":false,"confidence":-1},{"trial_n":81,"min":49,"max":206,"target":"present","response":"present","rt":436.90000009537,"correct":true,"confidence":-1},{"trial_n":82,"min":49,"max":206,"target":"present","response":"present","rt":373.09999990463,"correct":true,"confidence":-1},{"trial_n":83,"min":57,"max":198,"target":"absent","response":"present","rt":775.70000004768,"correct":false,"confidence":-1},{"trial_n":84,"min":49,"max":206,"target":"present","response":"present","rt":459.59999990463,"correct":true,"confidence":-1},{"trial_n":85,"min":49,"max":206,"target":"present","response":"present","rt":215.29999995232,"correct":true,"confidence":-1},{"trial_n":86,"min":57,"max":198,"target":"present","response":"present","rt":31.300000190735,"correct":true,"confidence":-1},{"trial_n":87,"min":57,"max":198,"target":"absent","response":"absent","rt":288.90000009537,"correct":true,"confidence":-1},{"trial_n":88,"min":65,"max":190,"target":"present","response":"present","rt":2126.2000000477,"correct":true,"confidence":-1},{"trial_n":89,"min":65,"max":190,"target":"present","response":"present","rt":711.5,"correct":true,"confidence":-1},{"trial_n":90,"min":73,"max":182,"target":"absent","response":"absent","rt":524.20000004768,"correct":true,"confidence":-1},{"trial_n":91,"min":73,"max":182,"target":"absent","response":"absent","rt":659.19999980927,"correct":true,"confidence":3},{"trial_n":92,"min":77,"max":178,"target":"absent","response":"present","rt":492.79999995232,"correct":false,"confidence":3},{"trial_n":93,"min":73,"max":182,"target":"absent","response":"absent","rt":484.29999995232,"correct":true,"confidence":4},{"trial_n":94,"min":73,"max":182,"target":"absent","response":"absent","rt":476.5,"correct":true,"confidence":4},{"trial_n":95,"min":77,"max":178,"target":"absent","response":"absent","rt":392.10000014305,"correct":true,"confidence":4},{"trial_n":96,"min":77,"max":178,"target":"present","response":"present","rt":107.70000004768,"correct":true,"confidence":4},{"trial_n":97,"min":81,"max":174,"target":"absent","response":"present","rt":1205.0999999046,"correct":false,"confidence":2},{"trial_n":98,"min":77,"max":178,"target":"present","response":"present","rt":364.19999980927,"correct":true,"confidence":5},{"trial_n":99,"min":77,"max":178,"target":"present","response":"present","rt":422.80000019073,"correct":true,"confidence":5},{"trial_n":100,"min":81,"max":174,"target":"present","response":"present","rt":349.10000014305,"correct":true,"confidence":5},{"trial_n":101,"min":81,"max":174,"target":"present","response":"present","rt":394.5,"correct":true,"confidence":5},{"trial_n":102,"min":83,"max":172,"target":"present","response":"present","rt":477.20000004768,"correct":true,"confidence":3},{"trial_n":103,"min":83,"max":172,"target":"present","response":"present","rt":332.70000004768,"correct":true,"confidence":3},{"trial_n":104,"min":85,"max":170,"target":"present","response":"present","rt":257.40000009537,"correct":true,"confidence":4},{"trial_n":105,"min":85,"max":170,"target":"absent","response":"present","rt":568.20000004768,"correct":false,"confidence":4},{"trial_n":106,"min":83,"max":172,"target":"present","response":"present","rt":325.30000019073,"correct":true,"confidence":4},{"trial_n":107,"min":83,"max":172,"target":"absent","response":"present","rt":345.59999990463,"correct":false,"confidence":4},{"trial_n":108,"min":81,"max":174,"target":"absent","response":"present","rt":375.90000009537,"correct":false,"confidence":3},{"trial_n":109,"min":79,"max":176,"target":"present","response":"present","rt":356.39999985695,"correct":true,"confidence":3},{"trial_n":110,"min":79,"max":176,"target":"absent","response":"absent","rt":571.70000004768,"correct":true,"confidence":5},{"trial_n":111,"min":80,"max":175,"target":"absent","response":"present","rt":326.39999985695,"correct":false,"confidence":5},{"trial_n":112,"min":79,"max":176,"target":"present","response":"present","rt":192.39999985695,"correct":true,"confidence":5},{"trial_n":113,"min":79,"max":176,"target":"present","response":"present","rt":343.70000004768,"correct":true,"confidence":5},{"trial_n":114,"min":80,"max":175,"target":"present","response":"present","rt":334.20000004768,"correct":true,"confidence":5},{"trial_n":115,"min":80,"max":175,"target":"absent","response":"absent","rt":619.79999995232,"correct":true,"confidence":5},{"trial_n":116,"min":81,"max":174,"target":"absent","response":"absent","rt":572.90000009537,"correct":true,"confidence":5},{"trial_n":117,"min":81,"max":174,"target":"absent","response":"absent","rt":513.19999980927,"correct":true,"confidence":5},{"trial_n":118,"min":82,"max":173,"target":"absent","response":"absent","rt":641.5,"correct":true,"confidence":5},{"trial_n":119,"min":82,"max":173,"target":"absent","response":"absent","rt":438.90000009537,"correct":true,"confidence":5},{"trial_n":120,"min":83,"max":172,"target":"present","response":"present","rt":348.09999990463,"correct":true,"confidence":4},{"trial_n":121,"min":83,"max":172,"target":"absent","response":"present","rt":824,"correct":false,"confidence":2},{"trial_n":122,"min":82,"max":173,"target":"absent","response":"absent","rt":532.40000009537,"correct":true,"confidence":2},{"trial_n":123,"min":82,"max":173,"target":"absent","response":"present","rt":712.29999995232,"correct":false,"confidence":3},{"trial_n":124,"min":81,"max":174,"target":"absent","response":"absent","rt":618.19999980927,"correct":true,"confidence":4},{"trial_n":125,"min":81,"max":174,"target":"absent","response":"absent","rt":744.20000004768,"correct":true,"confidence":3},{"trial_n":126,"min":82,"max":173,"target":"absent","response":"absent","rt":577,"correct":true,"confidence":3},{"trial_n":127,"min":82,"max":173,"target":"present","response":"present","rt":381.59999990463,"correct":true,"confidence":4},{"trial_n":128,"min":83,"max":172,"target":"absent","response":"absent","rt":495.59999990463,"correct":true,"confidence":5},{"trial_n":129,"min":83,"max":172,"target":"present","response":"present","rt":406.09999990463,"correct":true,"confidence":5},{"trial_n":130,"min":84,"max":171,"target":"present","response":"present","rt":298.39999985695,"correct":true,"confidence":5},{"trial_n":131,"min":84,"max":171,"target":"present","response":"present","rt":388.90000009537,"correct":true,"confidence":4},{"trial_n":132,"min":85,"max":170,"target":"present","response":"present","rt":332.19999980927,"correct":true,"confidence":4},{"trial_n":133,"min":85,"max":170,"target":"present","response":"present","rt":278.29999995232,"correct":true,"confidence":4},{"trial_n":134,"min":86,"max":169,"target":"absent","response":"present","rt":347.59999990463,"correct":false,"confidence":4},{"trial_n":135,"min":85,"max":170,"target":"present","response":"present","rt":256,"correct":true,"confidence":4},{"trial_n":136,"min":85,"max":170,"target":"absent","response":"absent","rt":461.29999995232,"correct":true,"confidence":4},{"trial_n":137,"min":86,"max":169,"target":"present","response":"present","rt":88.399999856949,"correct":true,"confidence":4},{"trial_n":138,"min":86,"max":169,"target":"present","response":"absent","rt":477.29999995232,"correct":false,"confidence":4},{"trial_n":139,"min":85,"max":170,"target":"absent","response":"absent","rt":486.10000014305,"correct":true,"confidence":4},{"trial_n":140,"min":85,"max":170,"target":"present","response":"absent","rt":340.69999980927,"correct":false,"confidence":4}]