[{"trial_n":1,"n_dots":4.25,"target":"right","response":"right","rt":5376,"correct":true,"confidence":-1},{"trial_n":2,"n_dots":4.25,"target":"right","response":"right","rt":766,"correct":true,"confidence":-1},{"trial_n":3,"n_dots":3.85,"target":"left","response":"right","rt":888,"correct":false,"confidence":-1},{"trial_n":4,"n_dots":4.25,"target":"left","response":"left","rt":670,"correct":true,"confidence":-1},{"trial_n":5,"n_dots":4.25,"target":"right","response":"right","rt":845,"correct":true,"confidence":-1},{"trial_n":6,"n_dots":3.85,"target":"right","response":"right","rt":944,"correct":true,"confidence":-1},{"trial_n":7,"n_dots":3.85,"target":"right","response":"left","rt":856,"correct":false,"confidence":-1},{"trial_n":8,"n_dots":4.05,"target":"right","response":"right","rt":667,"correct":true,"confidence":-1},{"trial_n":9,"n_dots":4.05,"target":"right","response":"right","rt":629,"correct":true,"confidence":-1},{"trial_n":10,"n_dots":3.85,"target":"right","response":"right","rt":704.99999999999,"correct":true,"confidence":-1},{"trial_n":11,"n_dots":3.85,"target":"right","response":"left","rt":549,"correct":false,"confidence":-1},{"trial_n":12,"n_dots":4.05,"target":"right","response":"right","rt":582.99999999999,"correct":true,"confidence":-1},{"trial_n":13,"n_dots":4.05,"target":"right","response":"left","rt":732.99999999999,"correct":false,"confidence":-1},{"trial_n":14,"n_dots":4.15,"target":"right","response":"left","rt":799.00000000001,"correct":false,"confidence":-1},{"trial_n":15,"n_dots":4.25,"target":"left","response":"left","rt":516,"correct":true,"confidence":-1},{"trial_n":16,"n_dots":4.25,"target":"right","response":"right","rt":1024,"correct":true,"confidence":-1},{"trial_n":17,"n_dots":4.15,"target":"left","response":"left","rt":636,"correct":true,"confidence":-1},{"trial_n":18,"n_dots":4.15,"target":"right","response":"right","rt":672,"correct":true,"confidence":-1},{"trial_n":19,"n_dots":4.05,"target":"left","response":"right","rt":1297,"correct":false,"confidence":-1},{"trial_n":20,"n_dots":4.15,"target":"right","response":"right","rt":1319,"correct":true,"confidence":-1},{"trial_n":21,"n_dots":4.15,"target":"left","response":"left","rt":520.99999999999,"correct":true,"confidence":3},{"trial_n":22,"n_dots":4.05,"target":"left","response":"left","rt":640,"correct":true,"confidence":3},{"trial_n":23,"n_dots":4.05,"target":"right","response":"right","rt":1196,"correct":true,"confidence":3},{"trial_n":24,"n_dots":3.95,"target":"left","response":"left","rt":674.00000000001,"correct":true,"confidence":4},{"trial_n":25,"n_dots":3.95,"target":"left","response":"left","rt":1430,"correct":true,"confidence":3},{"trial_n":26,"n_dots":3.85,"target":"right","response":"right","rt":1347,"correct":true,"confidence":3},{"trial_n":27,"n_dots":3.85,"target":"right","response":"right","rt":1502,"correct":true,"confidence":4},{"trial_n":28,"n_dots":3.75,"target":"right","response":"left","rt":542,"correct":false,"confidence":3},{"trial_n":29,"n_dots":3.85,"target":"left","response":"left","rt":716,"correct":true,"confidence":3},{"trial_n":30,"n_dots":3.85,"target":"left","response":"left","rt":520,"correct":true,"confidence":3},{"trial_n":31,"n_dots":3.75,"target":"left","response":"left","rt":1813,"correct":true,"confidence":2},{"trial_n":32,"n_dots":3.75,"target":"right","response":"left","rt":1467,"correct":false,"confidence":2},{"trial_n":33,"n_dots":3.85,"target":"left","response":"left","rt":522,"correct":true,"confidence":2},{"trial_n":34,"n_dots":3.85,"target":"right","response":"right","rt":1000,"correct":true,"confidence":2},{"trial_n":35,"n_dots":3.75,"target":"left","response":"left","rt":633.99999999997,"correct":true,"confidence":3},{"trial_n":36,"n_dots":3.75,"target":"left","response":"left","rt":1018,"correct":true,"confidence":2},{"trial_n":37,"n_dots":3.65,"target":"right","response":"left","rt":1247,"correct":false,"confidence":2},{"trial_n":38,"n_dots":3.75,"target":"left","response":"left","rt":702,"correct":true,"confidence":3},{"trial_n":39,"n_dots":3.75,"target":"left","response":"left","rt":757.99999999997,"correct":true,"confidence":3},{"trial_n":40,"n_dots":3.65,"target":"left","response":"left","rt":476,"correct":true,"confidence":3},{"trial_n":41,"n_dots":3.65,"target":"right","response":"right","rt":1012,"correct":true,"confidence":3},{"trial_n":42,"n_dots":3.55,"target":"left","response":"left","rt":512,"correct":true,"confidence":3},{"trial_n":43,"n_dots":3.55,"target":"left","response":"left","rt":608,"correct":true,"confidence":3},{"trial_n":44,"n_dots":3.45,"target":"right","response":"right","rt":1050,"correct":true,"confidence":2},{"trial_n":45,"n_dots":3.45,"target":"left","response":"left","rt":939,"correct":true,"confidence":3},{"trial_n":46,"n_dots":3.35,"target":"left","response":"left","rt":778,"correct":true,"confidence":3},{"trial_n":47,"n_dots":3.35,"target":"left","response":"right","rt":688.00000000003,"correct":false,"confidence":3},{"trial_n":48,"n_dots":3.45,"target":"left","response":"left","rt":995.00000000003,"correct":true,"confidence":3},{"trial_n":49,"n_dots":3.45,"target":"left","response":"right","rt":763,"correct":false,"confidence":3},{"trial_n":50,"n_dots":3.55,"target":"right","response":"right","rt":650,"correct":true,"confidence":3},{"trial_n":51,"n_dots":3.55,"target":"left","response":"left","rt":614,"correct":true,"confidence":3},{"trial_n":52,"n_dots":3.45,"target":"right","response":"right","rt":706,"correct":true,"confidence":3},{"trial_n":53,"n_dots":3.45,"target":"left","response":"left","rt":532,"correct":true,"confidence":3},{"trial_n":54,"n_dots":3.35,"target":"right","response":"right","rt":672,"correct":true,"confidence":3},{"trial_n":55,"n_dots":3.35,"target":"right","response":"right","rt":624,"correct":true,"confidence":3},{"trial_n":56,"n_dots":3.25,"target":"left","response":"left","rt":783,"correct":true,"confidence":2},{"trial_n":57,"n_dots":3.25,"target":"right","response":"left","rt":793,"correct":false,"confidence":2},{"trial_n":58,"n_dots":3.35,"target":"right","response":"right","rt":1187,"correct":true,"confidence":2},{"trial_n":59,"n_dots":3.35,"target":"left","response":"right","rt":1665,"correct":false,"confidence":2},{"trial_n":60,"n_dots":3.45,"target":"left","response":"right","rt":725.00000000003,"correct":false,"confidence":2},{"trial_n":61,"n_dots":3.55,"target":"right","response":"right","rt":698,"correct":true,"confidence":2},{"trial_n":62,"n_dots":3.55,"target":"left","response":"left","rt":424,"correct":true,"confidence":3},{"trial_n":63,"n_dots":3.45,"target":"left","response":"left","rt":753,"correct":true,"confidence":2},{"trial_n":64,"n_dots":3.45,"target":"right","response":"right","rt":697,"correct":true,"confidence":3},{"trial_n":65,"n_dots":3.35,"target":"right","response":"left","rt":1017,"correct":false,"confidence":2},{"trial_n":66,"n_dots":3.45,"target":"left","response":"right","rt":638.00000000006,"correct":false,"confidence":2},{"trial_n":67,"n_dots":3.55,"target":"right","response":"right","rt":621.99999999994,"correct":true,"confidence":3},{"trial_n":68,"n_dots":3.55,"target":"right","response":"right","rt":1262,"correct":true,"confidence":3},{"trial_n":69,"n_dots":3.45,"target":"left","response":"left","rt":624,"correct":true,"confidence":3},{"trial_n":70,"n_dots":3.45,"target":"left","response":"left","rt":515,"correct":true,"confidence":3},{"trial_n":71,"n_dots":3.35,"target":"left","response":"left","rt":837,"correct":true,"confidence":3},{"trial_n":72,"n_dots":3.35,"target":"left","response":"left","rt":1640.0000000001,"correct":true,"confidence":2},{"trial_n":73,"n_dots":3.25,"target":"right","response":"left","rt":634,"correct":false,"confidence":2},{"trial_n":74,"n_dots":3.35,"target":"left","response":"left","rt":574,"correct":true,"confidence":2},{"trial_n":75,"n_dots":3.35,"target":"right","response":"right","rt":736.99999999994,"correct":true,"confidence":2},{"trial_n":76,"n_dots":3.25,"target":"left","response":"left","rt":665,"correct":true,"confidence":2},{"trial_n":77,"n_dots":3.25,"target":"left","response":"left","rt":417.00000000006,"correct":true,"confidence":2},{"trial_n":78,"n_dots":3.15,"target":"right","response":"right","rt":645,"correct":true,"confidence":2},{"trial_n":79,"n_dots":3.15,"target":"right","response":"left","rt":750,"correct":false,"confidence":2},{"trial_n":80,"n_dots":3.25,"target":"right","response":"right","rt":728,"correct":true,"confidence":3},{"trial_n":81,"n_dots":3.25,"target":"right","response":"right","rt":1174,"correct":true,"confidence":3},{"trial_n":82,"n_dots":3.15,"target":"right","response":"right","rt":640,"correct":true,"confidence":3},{"trial_n":83,"n_dots":3.15,"target":"right","response":"right","rt":539,"correct":true,"confidence":3},{"trial_n":84,"n_dots":3.05,"target":"right","response":"right","rt":735.99999999994,"correct":true,"confidence":2},{"trial_n":85,"n_dots":3.05,"target":"right","response":"left","rt":931,"correct":false,"confidence":3},{"trial_n":86,"n_dots":3.15,"target":"right","response":"left","rt":1960,"correct":false,"confidence":2},{"trial_n":87,"n_dots":3.25,"target":"right","response":"right","rt":577,"correct":true,"confidence":3},{"trial_n":88,"n_dots":3.25,"target":"right","response":"right","rt":1430,"correct":true,"confidence":2},{"trial_n":89,"n_dots":3.15,"target":"left","response":"left","rt":1921,"correct":true,"confidence":2},{"trial_n":90,"n_dots":3.15,"target":"left","response":"left","rt":1349.9999999999,"correct":true,"confidence":2},{"trial_n":91,"n_dots":3.05,"target":"left","response":"right","rt":681,"correct":false,"confidence":3},{"trial_n":92,"n_dots":3.15,"target":"left","response":"left","rt":538,"correct":true,"confidence":3},{"trial_n":93,"n_dots":3.15,"target":"left","response":"left","rt":765,"correct":true,"confidence":3},{"trial_n":94,"n_dots":3.05,"target":"left","response":"left","rt":1276,"correct":true,"confidence":3},{"trial_n":95,"n_dots":3.05,"target":"left","response":"right","rt":1772,"correct":false,"confidence":3},{"trial_n":96,"n_dots":3.15,"target":"left","response":"left","rt":881,"correct":true,"confidence":2},{"trial_n":97,"n_dots":3.15,"target":"left","response":"right","rt":899,"correct":false,"confidence":2},{"trial_n":98,"n_dots":3.25,"target":"left","response":"left","rt":632.00000000006,"correct":true,"confidence":2},{"trial_n":99,"n_dots":3.25,"target":"left","response":"left","rt":152,"correct":true,"confidence":2},{"trial_n":100,"n_dots":3.15,"target":"right","response":"right","rt":595,"correct":true,"confidence":2},{"trial_n":101,"n_dots":3.15,"target":"right","response":"left","rt":530,"correct":false,"confidence":2},{"trial_n":102,"n_dots":3.25,"target":"left","response":"left","rt":351,"correct":true,"confidence":2},{"trial_n":103,"n_dots":3.25,"target":"left","response":"right","rt":560,"correct":false,"confidence":2},{"trial_n":104,"n_dots":3.35,"target":"right","response":"left","rt":350,"correct":false,"confidence":2},{"trial_n":105,"n_dots":3.45,"target":"right","response":"right","rt":281.00000000006,"correct":true,"confidence":3},{"trial_n":106,"n_dots":3.45,"target":"left","response":"left","rt":780,"correct":true,"confidence":2},{"trial_n":107,"n_dots":3.35,"target":"left","response":"left","rt":778,"correct":true,"confidence":2},{"trial_n":108,"n_dots":3.35,"target":"left","response":"left","rt":592,"correct":true,"confidence":2},{"trial_n":109,"n_dots":3.25,"target":"right","response":"right","rt":611,"correct":true,"confidence":3},{"trial_n":110,"n_dots":3.25,"target":"left","response":"left","rt":756,"correct":true,"confidence":2},{"trial_n":111,"n_dots":3.15,"target":"right","response":"right","rt":460,"correct":true,"confidence":3},{"trial_n":112,"n_dots":3.15,"target":"right","response":"right","rt":556.00000000006,"correct":true,"confidence":3},{"trial_n":113,"n_dots":3.05,"target":"right","response":"right","rt":256.99999999994,"correct":true,"confidence":3},{"trial_n":114,"n_dots":3.05,"target":"right","response":"right","rt":452,"correct":true,"confidence":3},{"trial_n":115,"n_dots":2.95,"target":"right","response":"right","rt":447,"correct":true,"confidence":2},{"trial_n":116,"n_dots":2.95,"target":"right","response":"left","rt":597.99999999994,"correct":false,"confidence":2},{"trial_n":117,"n_dots":3.05,"target":"left","response":"right","rt":459,"correct":false,"confidence":2},{"trial_n":118,"n_dots":3.15,"target":"left","response":"right","rt":747,"correct":false,"confidence":2},{"trial_n":119,"n_dots":3.25,"target":"left","response":"left","rt":522.00000000006,"correct":true,"confidence":2},{"trial_n":120,"n_dots":3.25,"target":"right","response":"right","rt":173,"correct":true,"confidence":2}]