[{"trial_n":1,"span":8,"encoder":"94073685","distractor":"94073689","target":"present","response":"present","rt":"3817.7000000477","correct":true,"confidence":-1},{"trial_n":2,"span":8,"encoder":"53241310","distractor":"53141310","target":"present","response":"present","rt":"2879.2000000477","correct":true,"confidence":-1},{"trial_n":3,"span":10,"encoder":"6478213572","distractor":"6478218572","target":"absent","response":"absent","rt":"3749.7999999523","correct":true,"confidence":-1},{"trial_n":4,"span":10,"encoder":"3306720833","distractor":"1306720833","target":"absent","response":"absent","rt":"1654.8999998569","correct":true,"confidence":-1},{"trial_n":5,"span":12,"encoder":"812882390285","distractor":"812882391285","target":"present","response":"present","rt":"1781.0999999046","correct":true,"confidence":-1},{"trial_n":6,"span":12,"encoder":"028407975751","distractor":"028417975751","target":"present","response":"present","rt":"2317.5","correct":true,"confidence":-1},{"trial_n":7,"span":14,"encoder":"95296282516217","distractor":"95296282514217","target":"present","response":"absent","rt":"1054.5999999046","correct":false,"confidence":-1},{"trial_n":8,"span":12,"encoder":"374801515706","distractor":"374801515906","target":"present","response":"absent","rt":"1551.3999998569","correct":false,"confidence":-1},{"trial_n":9,"span":10,"encoder":"9046908628","distractor":"9046903628","target":"absent","response":"present","rt":"783.30000019073","correct":false,"confidence":-1},{"trial_n":10,"span":8,"encoder":"76108579","distractor":"76108519","target":"present","response":"present","rt":"1622.7000000477","correct":true,"confidence":-1},{"trial_n":11,"span":8,"encoder":"61910653","distractor":"67910653","target":"present","response":"present","rt":"929.70000004768","correct":true,"confidence":-1},{"trial_n":12,"span":9,"encoder":"513390066","distractor":"513690066","target":"absent","response":"absent","rt":"3112.0999999046","correct":true,"confidence":-1},{"trial_n":13,"span":9,"encoder":"523765071","distractor":"523766071","target":"present","response":"present","rt":"1527.7000000477","correct":true,"confidence":-1},{"trial_n":14,"span":10,"encoder":"8767101862","distractor":"8767101162","target":"present","response":"absent","rt":"347.20000004768","correct":false,"confidence":-1},{"trial_n":15,"span":9,"encoder":"817828777","distractor":"817828787","target":"present","response":"present","rt":"789","correct":true,"confidence":-1},{"trial_n":16,"span":9,"encoder":"789698991","distractor":"089698991","target":"present","response":"absent","rt":"2680.3999998569","correct":false,"confidence":-1},{"trial_n":17,"span":8,"encoder":"85531530","distractor":"85531130","target":"present","response":"present","rt":"1567.2999999523","correct":true,"confidence":-1},{"trial_n":18,"span":8,"encoder":"19532577","distractor":"19132577","target":"absent","response":"absent","rt":"2569.8000001907","correct":true,"confidence":-1},{"trial_n":19,"span":9,"encoder":"266921011","distractor":"286921011","target":"absent","response":"absent","rt":"1380.2999999523","correct":true,"confidence":-1},{"trial_n":20,"span":9,"encoder":"994977861","distractor":"994973861","target":"absent","response":"absent","rt":"2633.9000000954","correct":true,"confidence":-1},{"trial_n":21,"span":10,"encoder":"8101489069","distractor":"8109489069","target":"absent","response":"absent","rt":"1127.7000000477","correct":true,"confidence":4},{"trial_n":22,"span":10,"encoder":"5102136027","distractor":"5902136027","target":"absent","response":"present","rt":"1262.5","correct":false,"confidence":3},{"trial_n":23,"span":9,"encoder":"051509840","distractor":"051507840","target":"present","response":"present","rt":"2858.7000000477","correct":true,"confidence":3},{"trial_n":24,"span":9,"encoder":"980383546","distractor":"180383546","target":"present","response":"present","rt":"2526.6000001431","correct":true,"confidence":1},{"trial_n":25,"span":10,"encoder":"2806753209","distractor":"2806753207","target":"absent","response":"present","rt":"2201.2999999523","correct":false,"confidence":3},{"trial_n":26,"span":9,"encoder":"182665472","distractor":"182667472","target":"absent","response":"absent","rt":"1360.4000000954","correct":true,"confidence":3},{"trial_n":27,"span":9,"encoder":"375477857","distractor":"375447857","target":"present","response":"present","rt":"2928.6000001431","correct":true,"confidence":3},{"trial_n":28,"span":10,"encoder":"5332122856","distractor":"5332122853","target":"absent","response":"present","rt":"2116.5999999046","correct":false,"confidence":4},{"trial_n":29,"span":9,"encoder":"519853823","distractor":"519813823","target":"absent","response":"present","rt":"2523.4000000954","correct":false,"confidence":1},{"trial_n":30,"span":8,"encoder":"14535340","distractor":"24535340","target":"present","response":"present","rt":"1804.2999999523","correct":true,"confidence":2},{"trial_n":31,"span":8,"encoder":"20420159","distractor":"20420157","target":"present","response":"present","rt":"2134.0999999046","correct":true,"confidence":3},{"trial_n":32,"span":9,"encoder":"166385217","distractor":"126385217","target":"absent","response":"absent","rt":"1911.2999999523","correct":true,"confidence":4},{"trial_n":33,"span":9,"encoder":"627053390","distractor":"627053290","target":"absent","response":"present","rt":"1439.5999999046","correct":false,"confidence":3},{"trial_n":34,"span":8,"encoder":"54076537","distractor":"54076577","target":"present","response":"present","rt":"3908.7999999523","correct":true,"confidence":1},{"trial_n":35,"span":8,"encoder":"31499096","distractor":"61499096","target":"present","response":"absent","rt":"1589.2000000477","correct":false,"confidence":1},{"trial_n":36,"span":7,"encoder":"0228547","distractor":"0228548","target":"absent","response":"present","rt":"1339.1000001431","correct":false,"confidence":4},{"trial_n":37,"span":6,"encoder":"518466","distractor":"578466","target":"absent","response":"absent","rt":"2971","correct":true,"confidence":3},{"trial_n":38,"span":6,"encoder":"040885","distractor":"040085","target":"present","response":"absent","rt":"1924.3000001907","correct":false,"confidence":3},{"trial_n":39,"span":5,"encoder":"72121","distractor":"72111","target":"absent","response":"absent","rt":"2024.8999998569","correct":true,"confidence":5},{"trial_n":40,"span":5,"encoder":"08839","distractor":"08836","target":"present","response":"present","rt":"1821.5999999046","correct":true,"confidence":5},{"trial_n":41,"span":6,"encoder":"061771","distractor":"069771","target":"absent","response":"absent","rt":"4215.9000000954","correct":true,"confidence":4},{"trial_n":42,"span":6,"encoder":"916168","distractor":"915168","target":"present","response":"absent","rt":"667","correct":false,"confidence":3},{"trial_n":43,"span":5,"encoder":"08675","distractor":"08672","target":"absent","response":"present","rt":"1656.7000000477","correct":false,"confidence":3},{"trial_n":44,"span":4,"encoder":"6139","distractor":"6130","target":"present","response":"present","rt":"2463.4000000954","correct":true,"confidence":3},{"trial_n":45,"span":4,"encoder":"4774","distractor":"4724","target":"absent","response":"absent","rt":"1439.7000000477","correct":true,"confidence":5},{"trial_n":46,"span":5,"encoder":"89364","distractor":"79364","target":"absent","response":"absent","rt":"2009.2999999523","correct":true,"confidence":5},{"trial_n":47,"span":5,"encoder":"76886","distractor":"74886","target":"absent","response":"present","rt":"1322.2999999523","correct":false,"confidence":5},{"trial_n":48,"span":4,"encoder":"8369","distractor":"8669","target":"absent","response":"absent","rt":"1864.5","correct":true,"confidence":5},{"trial_n":49,"span":4,"encoder":"8268","distractor":"0268","target":"present","response":"present","rt":"1946.7000000477","correct":true,"confidence":5},{"trial_n":50,"span":5,"encoder":"64697","distractor":"64617","target":"present","response":"present","rt":"1553","correct":true,"confidence":5},{"trial_n":51,"span":5,"encoder":"43797","distractor":"43697","target":"absent","response":"absent","rt":"2373.5","correct":true,"confidence":4},{"trial_n":52,"span":6,"encoder":"358430","distractor":"350430","target":"present","response":"present","rt":"6527.2000000477","correct":true,"confidence":5},{"trial_n":53,"span":6,"encoder":"922130","distractor":"922137","target":"present","response":"present","rt":"4041","correct":true,"confidence":4},{"trial_n":54,"span":7,"encoder":"1697697","distractor":"1696697","target":"present","response":"absent","rt":"2375.3999998569","correct":false,"confidence":3},{"trial_n":55,"span":6,"encoder":"727332","distractor":"827332","target":"absent","response":"absent","rt":"1384.7999999523","correct":true,"confidence":4},{"trial_n":56,"span":6,"encoder":"491974","distractor":"991974","target":"absent","response":"present","rt":"3174.7999999523","correct":false,"confidence":2},{"trial_n":57,"span":5,"encoder":"40639","distractor":"40631","target":"absent","response":"present","rt":"2818.6999998093","correct":false,"confidence":5},{"trial_n":58,"span":4,"encoder":"1979","distractor":"1972","target":"absent","response":"absent","rt":"3125.5","correct":true,"confidence":5},{"trial_n":59,"span":4,"encoder":"5193","distractor":"5293","target":"absent","response":"present","rt":"2499.7000000477","correct":false,"confidence":5},{"trial_n":60,"span":3,"encoder":"834","distractor":"814","target":"present","response":"present","rt":"2155.7999999523","correct":true,"confidence":5},{"trial_n":61,"span":3,"encoder":"707","distractor":"708","target":"present","response":"present","rt":"1900.2000000477","correct":true,"confidence":5},{"trial_n":62,"span":4,"encoder":"0028","distractor":"0628","target":"present","response":"present","rt":"879.5","correct":true,"confidence":5},{"trial_n":63,"span":4,"encoder":"9518","distractor":"8518","target":"absent","response":"absent","rt":"1632.5999999046","correct":true,"confidence":5},{"trial_n":64,"span":5,"encoder":"54133","distractor":"44133","target":"absent","response":"absent","rt":"1434.9000000954","correct":true,"confidence":5},{"trial_n":65,"span":5,"encoder":"00452","distractor":"50452","target":"present","response":"present","rt":"1293.4000000954","correct":true,"confidence":5},{"trial_n":66,"span":6,"encoder":"110836","distractor":"120836","target":"present","response":"present","rt":"1133.2000000477","correct":true,"confidence":5},{"trial_n":67,"span":6,"encoder":"228741","distractor":"278741","target":"absent","response":"absent","rt":"1976.5999999046","correct":true,"confidence":4},{"trial_n":68,"span":7,"encoder":"4158511","distractor":"4258511","target":"present","response":"present","rt":"2968","correct":true,"confidence":4},{"trial_n":69,"span":7,"encoder":"8574073","distractor":"8524073","target":"absent","response":"absent","rt":"1499.5","correct":true,"confidence":5},{"trial_n":70,"span":8,"encoder":"75474543","distractor":"75474343","target":"present","response":"absent","rt":"940.39999985695","correct":false,"confidence":3},{"trial_n":71,"span":8,"encoder":"20857444","distractor":"20357444","target":"present","response":"present","rt":"1180.7000000477","correct":true,"confidence":-1},{"trial_n":72,"span":8,"encoder":"49609537","distractor":"49605537","target":"present","response":"present","rt":"715.79999995232","correct":true,"confidence":-1},{"trial_n":73,"span":9,"encoder":"970663643","distractor":"870663643","target":"absent","response":"absent","rt":"1289.4000000954","correct":true,"confidence":-1},{"trial_n":74,"span":9,"encoder":"717385725","distractor":"711385725","target":"absent","response":"absent","rt":"1550.8999998569","correct":true,"confidence":-1},{"trial_n":75,"span":10,"encoder":"7276285160","distractor":"7276235160","target":"present","response":"absent","rt":"2575.7999999523","correct":false,"confidence":-1},{"trial_n":76,"span":9,"encoder":"745650360","distractor":"745650362","target":"present","response":"absent","rt":"2667","correct":false,"confidence":-1},{"trial_n":77,"span":8,"encoder":"01788025","distractor":"01788225","target":"absent","response":"present","rt":"390.39999985695","correct":false,"confidence":-1},{"trial_n":78,"span":7,"encoder":"0678810","distractor":"0678819","target":"absent","response":"absent","rt":"490","correct":true,"confidence":-1},{"trial_n":79,"span":7,"encoder":"9946557","distractor":"9846557","target":"absent","response":"absent","rt":"1483.3999998569","correct":true,"confidence":-1},{"trial_n":80,"span":8,"encoder":"47280505","distractor":"47290505","target":"present","response":"present","rt":"1861.6000001431","correct":true,"confidence":-1},{"trial_n":81,"span":8,"encoder":"66123399","distractor":"66123349","target":"absent","response":"present","rt":"1508.2000000477","correct":false,"confidence":-1},{"trial_n":82,"span":7,"encoder":"1333676","distractor":"1933676","target":"absent","response":"present","rt":"8489.7999999523","correct":false,"confidence":-1},{"trial_n":83,"span":6,"encoder":"254637","distractor":"254634","target":"absent","response":"absent","rt":"4786.3999998569","correct":true,"confidence":-1},{"trial_n":84,"span":6,"encoder":"374448","distractor":"354448","target":"absent","response":"present","rt":"1540.2000000477","correct":false,"confidence":-1},{"trial_n":85,"span":5,"encoder":"44951","distractor":"43951","target":"present","response":"absent","rt":"2136.9000000954","correct":false,"confidence":-1},{"trial_n":86,"span":4,"encoder":"8743","distractor":"1743","target":"absent","response":"present","rt":"846.89999985695","correct":false,"confidence":-1},{"trial_n":87,"span":3,"encoder":"045","distractor":"145","target":"present","response":"present","rt":"1354.3999998569","correct":true,"confidence":-1},{"trial_n":88,"span":3,"encoder":"957","distractor":"954","target":"present","response":"present","rt":"719.29999995232","correct":true,"confidence":-1},{"trial_n":89,"span":4,"encoder":"3703","distractor":"5703","target":"present","response":"present","rt":"587.59999990463","correct":true,"confidence":-1},{"trial_n":90,"span":4,"encoder":"8252","distractor":"8152","target":"absent","response":"absent","rt":"1332","correct":true,"confidence":-1},{"trial_n":91,"span":5,"encoder":"80444","distractor":"80449","target":"present","response":"present","rt":"2339.8999998569","correct":true,"confidence":4},{"trial_n":92,"span":5,"encoder":"05761","distractor":"55761","target":"present","response":"present","rt":"3204.7000000477","correct":true,"confidence":5},{"trial_n":93,"span":6,"encoder":"139560","distractor":"131560","target":"present","response":"present","rt":"4744.7000000477","correct":true,"confidence":5},{"trial_n":94,"span":6,"encoder":"508003","distractor":"508203","target":"present","response":"present","rt":"2610","correct":true,"confidence":5},{"trial_n":95,"span":7,"encoder":"1686811","distractor":"1386811","target":"present","response":"present","rt":"5063.2999999523","correct":true,"confidence":2},{"trial_n":96,"span":7,"encoder":"0421385","distractor":"1421385","target":"present","response":"present","rt":"3030.2000000477","correct":true,"confidence":5},{"trial_n":97,"span":8,"encoder":"69196067","distractor":"64196067","target":"present","response":"absent","rt":"2654.7000000477","correct":false,"confidence":1},{"trial_n":98,"span":7,"encoder":"6992704","distractor":"8992704","target":"present","response":"present","rt":"2245.7999999523","correct":true,"confidence":5},{"trial_n":99,"span":7,"encoder":"7392410","distractor":"0392410","target":"present","response":"present","rt":"2060.7999999523","correct":true,"confidence":5},{"trial_n":100,"span":8,"encoder":"76845385","distractor":"76845384","target":"present","response":"absent","rt":"3193.2000000477","correct":false,"confidence":1},{"trial_n":101,"span":7,"encoder":"9004312","distractor":"9024312","target":"present","response":"present","rt":"1650.3999998569","correct":true,"confidence":5},{"trial_n":102,"span":7,"encoder":"0983781","distractor":"0903781","target":"absent","response":"present","rt":"1387.4000000954","correct":false,"confidence":5},{"trial_n":103,"span":6,"encoder":"493256","distractor":"491256","target":"absent","response":"absent","rt":"1387","correct":true,"confidence":1},{"trial_n":104,"span":6,"encoder":"388288","distractor":"388988","target":"present","response":"present","rt":"311.80000019073","correct":true,"confidence":1},{"trial_n":105,"span":7,"encoder":"4192959","distractor":"4195959","target":"present","response":"present","rt":"2425.6000001431","correct":true,"confidence":5},{"trial_n":106,"span":7,"encoder":"2235829","distractor":"8235829","target":"present","response":"present","rt":"1264.2999999523","correct":true,"confidence":5},{"trial_n":107,"span":8,"encoder":"58878364","distractor":"58778364","target":"absent","response":"absent","rt":"4793.8999998569","correct":true,"confidence":5},{"trial_n":108,"span":8,"encoder":"76995677","distractor":"72995677","target":"present","response":"present","rt":"5810.8999998569","correct":true,"confidence":5},{"trial_n":109,"span":9,"encoder":"409879715","distractor":"409879215","target":"present","response":"present","rt":"994.89999985695","correct":true,"confidence":1},{"trial_n":110,"span":9,"encoder":"806362653","distractor":"006362653","target":"absent","response":"absent","rt":"374.5","correct":true,"confidence":1},{"trial_n":111,"span":10,"encoder":"3301018270","distractor":"3901018270","target":"absent","response":"absent","rt":"4155.5999999046","correct":true,"confidence":3},{"trial_n":112,"span":10,"encoder":"8780719277","distractor":"8780716277","target":"absent","response":"absent","rt":"1109.2999999523","correct":true,"confidence":1},{"trial_n":113,"span":11,"encoder":"63770390404","distractor":"63970390404","target":"present","response":"absent","rt":"1183","correct":false,"confidence":1},{"trial_n":114,"span":10,"encoder":"6671673185","distractor":"6671674185","target":"absent","response":"present","rt":"3591.0999999046","correct":false,"confidence":1},{"trial_n":115,"span":9,"encoder":"117786791","distractor":"217786791","target":"absent","response":"absent","rt":"2018.7999999523","correct":true,"confidence":5},{"trial_n":116,"span":9,"encoder":"661996501","distractor":"661990501","target":"absent","response":"absent","rt":"2879","correct":true,"confidence":5},{"trial_n":117,"span":10,"encoder":"8157524048","distractor":"8157524548","target":"present","response":"present","rt":"6045.1999998093","correct":true,"confidence":1},{"trial_n":118,"span":10,"encoder":"0312910277","distractor":"0362910277","target":"absent","response":"absent","rt":"2317.0999999046","correct":true,"confidence":1},{"trial_n":119,"span":11,"encoder":"39450092087","distractor":"39450062087","target":"absent","response":"absent","rt":"5309.2999999523","correct":true,"confidence":1},{"trial_n":120,"span":11,"encoder":"25183782453","distractor":"25173782453","target":"absent","response":"present","rt":"1203.6000001431","correct":false,"confidence":1},{"trial_n":121,"span":10,"encoder":"6475560460","distractor":"6475500460","target":"absent","response":"absent","rt":"3562.5999999046","correct":true,"confidence":5},{"trial_n":122,"span":10,"encoder":"3184431146","distractor":"3684431146","target":"present","response":"present","rt":"2231.2000000477","correct":true,"confidence":5},{"trial_n":123,"span":11,"encoder":"53104694336","distractor":"53104634336","target":"absent","response":"absent","rt":"543.69999980927","correct":true,"confidence":1},{"trial_n":124,"span":11,"encoder":"18245222285","distractor":"18245922285","target":"absent","response":"present","rt":"281.40000009537","correct":false,"confidence":2},{"trial_n":125,"span":10,"encoder":"5997683597","distractor":"5997688597","target":"absent","response":"present","rt":"4331.5999999046","correct":false,"confidence":1},{"trial_n":126,"span":9,"encoder":"724614142","distractor":"727614142","target":"absent","response":"absent","rt":"3032.1000001431","correct":true,"confidence":3},{"trial_n":127,"span":9,"encoder":"826587443","distractor":"026587443","target":"present","response":"present","rt":"2350.2000000477","correct":true,"confidence":5},{"trial_n":128,"span":10,"encoder":"4820309387","distractor":"3820309387","target":"present","response":"present","rt":"1888.5","correct":true,"confidence":5},{"trial_n":129,"span":10,"encoder":"9208734655","distractor":"9208738655","target":"absent","response":"absent","rt":"2104.5","correct":true,"confidence":1},{"trial_n":130,"span":11,"encoder":"97816936998","distractor":"97836936998","target":"absent","response":"absent","rt":"2293.7000000477","correct":true,"confidence":4},{"trial_n":131,"span":11,"encoder":"46240738505","distractor":"46240737505","target":"present","response":"present","rt":"2551.9000000954","correct":true,"confidence":1},{"trial_n":132,"span":12,"encoder":"078305685615","distractor":"078395685615","target":"present","response":"present","rt":"2789","correct":true,"confidence":4},{"trial_n":133,"span":12,"encoder":"934061507238","distractor":"938061507238","target":"absent","response":"absent","rt":"2633.4000000954","correct":true,"confidence":5},{"trial_n":134,"span":13,"encoder":"6119147722566","distractor":"6119147722516","target":"present","response":"present","rt":"1906.8999998569","correct":true,"confidence":1},{"trial_n":135,"span":13,"encoder":"2052931739225","distractor":"2052931739228","target":"absent","response":"present","rt":"1436.1000001431","correct":false,"confidence":1},{"trial_n":136,"span":12,"encoder":"160742781039","distractor":"160742781059","target":"present","response":"present","rt":"1995.8000001907","correct":true,"confidence":3},{"trial_n":137,"span":12,"encoder":"833716640782","distractor":"833716649782","target":"absent","response":"absent","rt":"2636.4000000954","correct":true,"confidence":2},{"trial_n":138,"span":13,"encoder":"2445985802092","distractor":"2440985802092","target":"absent","response":"absent","rt":"3251.2000000477","correct":true,"confidence":4},{"trial_n":139,"span":13,"encoder":"4748402854773","distractor":"5748402854773","target":"present","response":"absent","rt":"2007.0999999046","correct":false,"confidence":1},{"trial_n":140,"span":12,"encoder":"279776991824","distractor":"479776991824","target":"present","response":"present","rt":"3706.1999998093","correct":true,"confidence":4}]