[{"trial_n":1,"span":8,"encoder":"47514297","distractor":"47714297","target":"present","response":"present","rt":"5794","correct":true,"confidence":-1},{"trial_n":2,"span":8,"encoder":"08509730","distractor":"38509730","target":"present","response":"present","rt":"3803.3999998569","correct":true,"confidence":-1},{"trial_n":3,"span":10,"encoder":"8374720673","distractor":"8374720663","target":"absent","response":"absent","rt":"3715.0999999046","correct":true,"confidence":-1},{"trial_n":4,"span":10,"encoder":"4367466075","distractor":"4307466075","target":"absent","response":"present","rt":"5381.5999999046","correct":false,"confidence":-1},{"trial_n":5,"span":8,"encoder":"83826283","distractor":"63826283","target":"present","response":"present","rt":"1776.7000000477","correct":true,"confidence":-1},{"trial_n":6,"span":8,"encoder":"76256910","distractor":"76259910","target":"present","response":"absent","rt":"4501","correct":false,"confidence":-1},{"trial_n":7,"span":6,"encoder":"150786","distractor":"150787","target":"absent","response":"absent","rt":"1941","correct":true,"confidence":-1},{"trial_n":8,"span":6,"encoder":"692597","distractor":"692591","target":"absent","response":"present","rt":"5254.5","correct":false,"confidence":-1},{"trial_n":9,"span":4,"encoder":"8412","distractor":"8912","target":"absent","response":"present","rt":"3091.4000000954","correct":false,"confidence":-1},{"trial_n":10,"span":2,"encoder":"17","distractor":"11","target":"present","response":"present","rt":"1941.3999998569","correct":true,"confidence":-1},{"trial_n":11,"span":2,"encoder":"04","distractor":"44","target":"present","response":"present","rt":"1778.5","correct":true,"confidence":-1},{"trial_n":12,"span":3,"encoder":"409","distractor":"419","target":"absent","response":"absent","rt":"2886.5","correct":true,"confidence":-1},{"trial_n":13,"span":3,"encoder":"080","distractor":"050","target":"absent","response":"absent","rt":"1327.0999999046","correct":true,"confidence":-1},{"trial_n":14,"span":4,"encoder":"9314","distractor":"9374","target":"present","response":"present","rt":"1682.5999999046","correct":true,"confidence":-1},{"trial_n":15,"span":4,"encoder":"9887","distractor":"9487","target":"present","response":"present","rt":"1235.7999999523","correct":true,"confidence":-1},{"trial_n":16,"span":5,"encoder":"44021","distractor":"44091","target":"present","response":"present","rt":"1181.5","correct":true,"confidence":-1},{"trial_n":17,"span":5,"encoder":"45556","distractor":"45856","target":"absent","response":"absent","rt":"1573.4000000954","correct":true,"confidence":-1},{"trial_n":18,"span":6,"encoder":"909942","distractor":"909242","target":"present","response":"present","rt":"1608.7999999523","correct":true,"confidence":-1},{"trial_n":19,"span":6,"encoder":"677502","distractor":"677504","target":"present","response":"present","rt":"1763.6999998093","correct":true,"confidence":-1},{"trial_n":20,"span":7,"encoder":"1788924","distractor":"1788224","target":"present","response":"present","rt":"3312","correct":true,"confidence":-1},{"trial_n":21,"span":7,"encoder":"9654567","distractor":"9654367","target":"absent","response":"absent","rt":"9209.0999999046","correct":true,"confidence":3},{"trial_n":22,"span":8,"encoder":"83325641","distractor":"83305641","target":"absent","response":"present","rt":"2206.5","correct":false,"confidence":4},{"trial_n":23,"span":7,"encoder":"8033145","distractor":"8033141","target":"present","response":"present","rt":"1959.4000000954","correct":true,"confidence":5},{"trial_n":24,"span":7,"encoder":"4049880","distractor":"4049885","target":"present","response":"present","rt":"2350.8999998569","correct":true,"confidence":5},{"trial_n":25,"span":8,"encoder":"39659792","distractor":"39659712","target":"present","response":"present","rt":"2456.2000000477","correct":true,"confidence":4},{"trial_n":26,"span":8,"encoder":"45985021","distractor":"45985081","target":"present","response":"present","rt":"2254.6999998093","correct":true,"confidence":3},{"trial_n":27,"span":9,"encoder":"158125507","distractor":"158125207","target":"absent","response":"absent","rt":"2419","correct":true,"confidence":3},{"trial_n":28,"span":9,"encoder":"015990600","distractor":"016990600","target":"absent","response":"present","rt":"2923.7999999523","correct":false,"confidence":4},{"trial_n":29,"span":8,"encoder":"39575105","distractor":"39575102","target":"present","response":"absent","rt":"13778.900000095","correct":false,"confidence":2},{"trial_n":30,"span":7,"encoder":"8323895","distractor":"8323195","target":"present","response":"absent","rt":"3478.1999998093","correct":false,"confidence":3},{"trial_n":31,"span":6,"encoder":"902083","distractor":"902080","target":"present","response":"present","rt":"12087.799999952","correct":true,"confidence":5},{"trial_n":32,"span":6,"encoder":"616540","distractor":"616530","target":"absent","response":"absent","rt":"4504.5","correct":true,"confidence":2},{"trial_n":33,"span":7,"encoder":"5983783","distractor":"5283783","target":"absent","response":"absent","rt":"2850.2999999523","correct":true,"confidence":3},{"trial_n":34,"span":7,"encoder":"4542530","distractor":"4542730","target":"absent","response":"present","rt":"5242.7000000477","correct":false,"confidence":3},{"trial_n":35,"span":6,"encoder":"731128","distractor":"131128","target":"absent","response":"present","rt":"3083.7000000477","correct":false,"confidence":4},{"trial_n":36,"span":5,"encoder":"39162","distractor":"39102","target":"present","response":"present","rt":"3304","correct":true,"confidence":5},{"trial_n":37,"span":5,"encoder":"98159","distractor":"94159","target":"absent","response":"absent","rt":"2857.4000000954","correct":true,"confidence":3},{"trial_n":38,"span":6,"encoder":"655223","distractor":"655823","target":"present","response":"present","rt":"1696.7999999523","correct":true,"confidence":5},{"trial_n":39,"span":6,"encoder":"085188","distractor":"083188","target":"present","response":"present","rt":"1650.0999999046","correct":true,"confidence":4},{"trial_n":40,"span":7,"encoder":"8110782","distractor":"8810782","target":"absent","response":"absent","rt":"2487.5","correct":true,"confidence":4},{"trial_n":41,"span":7,"encoder":"9061750","distractor":"9066750","target":"absent","response":"absent","rt":"3768","correct":true,"confidence":2},{"trial_n":42,"span":8,"encoder":"30703697","distractor":"34703697","target":"absent","response":"absent","rt":"2279.2000000477","correct":true,"confidence":3},{"trial_n":43,"span":8,"encoder":"09774582","distractor":"29774582","target":"present","response":"present","rt":"2168.6000001431","correct":true,"confidence":5},{"trial_n":44,"span":9,"encoder":"609169295","distractor":"609149295","target":"absent","response":"present","rt":"3568","correct":false,"confidence":3},{"trial_n":45,"span":8,"encoder":"43153788","distractor":"46153788","target":"absent","response":"present","rt":"5575.2000000477","correct":false,"confidence":3},{"trial_n":46,"span":7,"encoder":"2721873","distractor":"2728873","target":"absent","response":"present","rt":"4699.5","correct":false,"confidence":2},{"trial_n":47,"span":6,"encoder":"257516","distractor":"257546","target":"absent","response":"absent","rt":"2231.4000000954","correct":true,"confidence":5},{"trial_n":48,"span":6,"encoder":"669151","distractor":"669651","target":"present","response":"present","rt":"1796.8999998569","correct":true,"confidence":5},{"trial_n":49,"span":7,"encoder":"2094047","distractor":"2094041","target":"present","response":"present","rt":"1680.0999999046","correct":true,"confidence":5},{"trial_n":50,"span":7,"encoder":"2561730","distractor":"2561930","target":"present","response":"present","rt":"1842.3000001907","correct":true,"confidence":5},{"trial_n":51,"span":8,"encoder":"77780641","distractor":"77784641","target":"absent","response":"absent","rt":"1572","correct":true,"confidence":5},{"trial_n":52,"span":8,"encoder":"65861011","distractor":"60861011","target":"present","response":"present","rt":"2258.5","correct":true,"confidence":4},{"trial_n":53,"span":9,"encoder":"203402993","distractor":"203402593","target":"present","response":"present","rt":"3207.2999999523","correct":true,"confidence":4},{"trial_n":54,"span":9,"encoder":"075879740","distractor":"075079740","target":"absent","response":"present","rt":"1857.2000000477","correct":false,"confidence":3},{"trial_n":55,"span":8,"encoder":"55770461","distractor":"55770441","target":"present","response":"present","rt":"1787.3999998569","correct":true,"confidence":4},{"trial_n":56,"span":8,"encoder":"08290874","distractor":"09290874","target":"absent","response":"present","rt":"1736.0999999046","correct":false,"confidence":4},{"trial_n":57,"span":7,"encoder":"8282065","distractor":"8282465","target":"present","response":"present","rt":"1631.8999998569","correct":true,"confidence":4},{"trial_n":58,"span":7,"encoder":"9956976","distractor":"9952976","target":"present","response":"present","rt":"1864.3999998569","correct":true,"confidence":4},{"trial_n":59,"span":8,"encoder":"63506340","distractor":"63506344","target":"present","response":"absent","rt":"1527.7000000477","correct":false,"confidence":4},{"trial_n":60,"span":7,"encoder":"7401075","distractor":"7401077","target":"absent","response":"absent","rt":"1441.6999998093","correct":true,"confidence":5},{"trial_n":61,"span":7,"encoder":"0040936","distractor":"0040536","target":"absent","response":"present","rt":"2397.9000000954","correct":false,"confidence":4},{"trial_n":62,"span":6,"encoder":"060065","distractor":"060565","target":"absent","response":"absent","rt":"15748.099999905","correct":true,"confidence":3},{"trial_n":63,"span":6,"encoder":"712161","distractor":"712061","target":"present","response":"present","rt":"1503.2000000477","correct":true,"confidence":4},{"trial_n":64,"span":7,"encoder":"0950385","distractor":"0970385","target":"present","response":"present","rt":"2122.5999999046","correct":true,"confidence":3},{"trial_n":65,"span":7,"encoder":"7605800","distractor":"2605800","target":"absent","response":"present","rt":"1527.2999999523","correct":false,"confidence":3},{"trial_n":66,"span":6,"encoder":"666848","distractor":"664848","target":"absent","response":"absent","rt":"2934.8999998569","correct":true,"confidence":4},{"trial_n":67,"span":6,"encoder":"967288","distractor":"947288","target":"absent","response":"present","rt":"1640.6000001431","correct":false,"confidence":3},{"trial_n":68,"span":5,"encoder":"48352","distractor":"48353","target":"present","response":"present","rt":"2772.0999999046","correct":true,"confidence":3},{"trial_n":69,"span":5,"encoder":"44981","distractor":"44987","target":"absent","response":"absent","rt":"1321.5","correct":true,"confidence":5},{"trial_n":70,"span":6,"encoder":"703454","distractor":"753454","target":"present","response":"present","rt":"1522","correct":true,"confidence":5},{"trial_n":71,"span":8,"encoder":"96863985","distractor":"96863915","target":"present","response":"present","rt":"3848","correct":true,"confidence":-1},{"trial_n":72,"span":8,"encoder":"03853077","distractor":"03893077","target":"present","response":"absent","rt":"4299.7000000477","correct":false,"confidence":-1},{"trial_n":73,"span":7,"encoder":"7512263","distractor":"7712263","target":"absent","response":"present","rt":"4514.5999999046","correct":false,"confidence":-1},{"trial_n":74,"span":6,"encoder":"760845","distractor":"260845","target":"absent","response":"absent","rt":"8014","correct":true,"confidence":-1},{"trial_n":75,"span":6,"encoder":"697586","distractor":"647586","target":"present","response":"present","rt":"2606.5","correct":true,"confidence":-1},{"trial_n":76,"span":7,"encoder":"7630663","distractor":"7630683","target":"absent","response":"absent","rt":"2061.5","correct":true,"confidence":-1},{"trial_n":77,"span":7,"encoder":"0705451","distractor":"0701451","target":"absent","response":"present","rt":"5676","correct":false,"confidence":-1},{"trial_n":78,"span":6,"encoder":"126244","distractor":"127244","target":"absent","response":"absent","rt":"3017","correct":true,"confidence":-1},{"trial_n":79,"span":6,"encoder":"308646","distractor":"308647","target":"absent","response":"present","rt":"5566.7999999523","correct":false,"confidence":-1},{"trial_n":80,"span":5,"encoder":"53725","distractor":"53724","target":"present","response":"present","rt":"2537.7000000477","correct":true,"confidence":-1},{"trial_n":81,"span":5,"encoder":"54926","distractor":"54976","target":"absent","response":"absent","rt":"8649.0999999046","correct":true,"confidence":-1},{"trial_n":82,"span":6,"encoder":"227971","distractor":"227901","target":"present","response":"present","rt":"2714.4000000954","correct":true,"confidence":-1},{"trial_n":83,"span":6,"encoder":"699144","distractor":"699124","target":"present","response":"present","rt":"2261","correct":true,"confidence":-1},{"trial_n":84,"span":7,"encoder":"3199932","distractor":"3199922","target":"present","response":"absent","rt":"3145.2000000477","correct":false,"confidence":-1},{"trial_n":85,"span":6,"encoder":"303981","distractor":"303961","target":"absent","response":"absent","rt":"1619.7999999523","correct":true,"confidence":-1},{"trial_n":86,"span":6,"encoder":"109795","distractor":"109725","target":"absent","response":"absent","rt":"4047.8999998569","correct":true,"confidence":-1},{"trial_n":87,"span":7,"encoder":"7301046","distractor":"7301045","target":"present","response":"present","rt":"1675.2999999523","correct":true,"confidence":-1},{"trial_n":88,"span":7,"encoder":"5648107","distractor":"5848107","target":"absent","response":"absent","rt":"8780.2999999523","correct":true,"confidence":-1},{"trial_n":89,"span":8,"encoder":"94350250","distractor":"94360250","target":"present","response":"absent","rt":"7969.8999998569","correct":false,"confidence":-1},{"trial_n":90,"span":7,"encoder":"4532732","distractor":"4532232","target":"present","response":"present","rt":"1846.0999999046","correct":true,"confidence":-1},{"trial_n":91,"span":7,"encoder":"4945986","distractor":"4925986","target":"present","response":"present","rt":"4761.9000000954","correct":true,"confidence":3},{"trial_n":92,"span":8,"encoder":"58905287","distractor":"58905284","target":"present","response":"present","rt":"6060.5","correct":true,"confidence":5},{"trial_n":93,"span":8,"encoder":"11794950","distractor":"11794850","target":"present","response":"present","rt":"3969.9000000954","correct":true,"confidence":4},{"trial_n":94,"span":9,"encoder":"080813509","distractor":"081813509","target":"present","response":"present","rt":"7728.2999999523","correct":true,"confidence":5},{"trial_n":95,"span":9,"encoder":"705375431","distractor":"905375431","target":"present","response":"present","rt":"6201.9000000954","correct":true,"confidence":4},{"trial_n":96,"span":10,"encoder":"1629838815","distractor":"1629838813","target":"present","response":"present","rt":"2555.0999999046","correct":true,"confidence":5},{"trial_n":97,"span":10,"encoder":"8699901063","distractor":"8699909063","target":"present","response":"absent","rt":"236514.19999981","correct":false,"confidence":2},{"trial_n":98,"span":9,"encoder":"673678137","distractor":"673679137","target":"present","response":"present","rt":"2707.3999998569","correct":true,"confidence":5},{"trial_n":99,"span":9,"encoder":"860516433","distractor":"860616433","target":"absent","response":"absent","rt":"5966.0999999046","correct":true,"confidence":3},{"trial_n":100,"span":10,"encoder":"6587480760","distractor":"6587480761","target":"present","response":"present","rt":"9333.7999999523","correct":true,"confidence":4},{"trial_n":101,"span":10,"encoder":"7804977954","distractor":"7804977354","target":"present","response":"present","rt":"2723.5","correct":true,"confidence":5},{"trial_n":102,"span":11,"encoder":"97572387625","distractor":"97572387925","target":"absent","response":"absent","rt":"5525.5999999046","correct":true,"confidence":4},{"trial_n":103,"span":11,"encoder":"20513689844","distractor":"20513688844","target":"present","response":"present","rt":"2807.0999999046","correct":true,"confidence":5},{"trial_n":104,"span":12,"encoder":"536158639858","distractor":"536158639853","target":"present","response":"present","rt":"2295.9000000954","correct":true,"confidence":5},{"trial_n":105,"span":12,"encoder":"103973678695","distractor":"103975678695","target":"absent","response":"present","rt":"12676.099999905","correct":false,"confidence":3},{"trial_n":106,"span":11,"encoder":"26638460536","distractor":"26638460236","target":"absent","response":"absent","rt":"1789.5999999046","correct":true,"confidence":5},{"trial_n":107,"span":11,"encoder":"80435980765","distractor":"80435980465","target":"present","response":"present","rt":"1664.0999999046","correct":true,"confidence":5},{"trial_n":108,"span":12,"encoder":"579395973441","distractor":"579695973441","target":"absent","response":"present","rt":"20666.799999952","correct":false,"confidence":2},{"trial_n":109,"span":11,"encoder":"22668114302","distractor":"22668114382","target":"present","response":"present","rt":"2391.7000000477","correct":true,"confidence":5},{"trial_n":110,"span":11,"encoder":"22630520380","distractor":"22730520380","target":"absent","response":"present","rt":"5353.2999999523","correct":false,"confidence":3},{"trial_n":111,"span":10,"encoder":"6683855951","distractor":"6683855955","target":"absent","response":"absent","rt":"1450.4000000954","correct":true,"confidence":5},{"trial_n":112,"span":10,"encoder":"2913304396","distractor":"2913306396","target":"absent","response":"absent","rt":"6295.6000001431","correct":true,"confidence":3},{"trial_n":113,"span":11,"encoder":"41303082001","distractor":"41303082011","target":"present","response":"absent","rt":"2268.5999999046","correct":false,"confidence":5},{"trial_n":114,"span":10,"encoder":"2230126653","distractor":"2230122653","target":"absent","response":"absent","rt":"2522.5","correct":true,"confidence":5},{"trial_n":115,"span":10,"encoder":"7679770269","distractor":"7678770269","target":"absent","response":"absent","rt":"4290.8000001907","correct":true,"confidence":4},{"trial_n":116,"span":11,"encoder":"73167034884","distractor":"73160034884","target":"absent","response":"present","rt":"10154.200000048","correct":false,"confidence":3},{"trial_n":117,"span":10,"encoder":"4449934771","distractor":"4449534771","target":"absent","response":"absent","rt":"3520.2000000477","correct":true,"confidence":4},{"trial_n":118,"span":10,"encoder":"7010559240","distractor":"7010559247","target":"present","response":"present","rt":"2578","correct":true,"confidence":5},{"trial_n":119,"span":11,"encoder":"93392927609","distractor":"93392957609","target":"absent","response":"absent","rt":"5786.2999999523","correct":true,"confidence":3},{"trial_n":120,"span":11,"encoder":"37075039540","distractor":"37075039240","target":"present","response":"absent","rt":"12925.299999952","correct":false,"confidence":2},{"trial_n":121,"span":10,"encoder":"7210077799","distractor":"7210777799","target":"absent","response":"present","rt":"4707.2999999523","correct":false,"confidence":3},{"trial_n":122,"span":9,"encoder":"373456274","distractor":"373456278","target":"absent","response":"absent","rt":"1864.4000000954","correct":true,"confidence":5},{"trial_n":123,"span":9,"encoder":"751600466","distractor":"753600466","target":"absent","response":"absent","rt":"8178","correct":true,"confidence":2},{"trial_n":124,"span":10,"encoder":"0585864118","distractor":"0585864148","target":"present","response":"present","rt":"2993.2999999523","correct":true,"confidence":5},{"trial_n":125,"span":10,"encoder":"8899415014","distractor":"8899115014","target":"absent","response":"absent","rt":"10668.599999905","correct":true,"confidence":5},{"trial_n":126,"span":11,"encoder":"50494365481","distractor":"50494665481","target":"absent","response":"present","rt":"6542.4000000954","correct":false,"confidence":2},{"trial_n":127,"span":10,"encoder":"5270096039","distractor":"5200096039","target":"absent","response":"absent","rt":"6563.5999999046","correct":true,"confidence":2},{"trial_n":128,"span":10,"encoder":"8652030621","distractor":"8852030621","target":"absent","response":"absent","rt":"11471.200000048","correct":true,"confidence":4},{"trial_n":129,"span":11,"encoder":"36715521369","distractor":"36715561369","target":"present","response":"present","rt":"3120.4000000954","correct":true,"confidence":5},{"trial_n":130,"span":11,"encoder":"30700991077","distractor":"10700991077","target":"present","response":"absent","rt":"4944.2000000477","correct":false,"confidence":4},{"trial_n":131,"span":10,"encoder":"2760964473","distractor":"2760960473","target":"present","response":"present","rt":"2181.7000000477","correct":true,"confidence":5},{"trial_n":132,"span":10,"encoder":"9102409505","distractor":"9102429505","target":"present","response":"present","rt":"7565.7999999523","correct":true,"confidence":5},{"trial_n":133,"span":11,"encoder":"80124939002","distractor":"80824939002","target":"present","response":"present","rt":"14972.400000095","correct":true,"confidence":2},{"trial_n":134,"span":11,"encoder":"12546192476","distractor":"12546192477","target":"absent","response":"absent","rt":"1227.5","correct":true,"confidence":5},{"trial_n":135,"span":12,"encoder":"830767724530","distractor":"830767726530","target":"present","response":"present","rt":"28369.5","correct":true,"confidence":1},{"trial_n":136,"span":12,"encoder":"847562724930","distractor":"844562724930","target":"absent","response":"absent","rt":"7265.5","correct":true,"confidence":2},{"trial_n":137,"span":13,"encoder":"5644982255232","distractor":"5644882255232","target":"present","response":"present","rt":"53281.900000095","correct":true,"confidence":2},{"trial_n":138,"span":13,"encoder":"3824227142881","distractor":"3824227149881","target":"absent","response":"present","rt":"7432.1999998093","correct":false,"confidence":2},{"trial_n":139,"span":12,"encoder":"454614852769","distractor":"454914852769","target":"present","response":"present","rt":"6760.7999999523","correct":true,"confidence":3},{"trial_n":140,"span":12,"encoder":"104949484993","distractor":"104949484973","target":"absent","response":"absent","rt":"1695.5","correct":true,"confidence":5}]