[{"trial_n":1,"n_dots":4.25,"target":"right","response":"left","rt":5733.3000001907,"correct":false,"confidence":-1},{"trial_n":2,"n_dots":4.25,"target":"left","response":"left","rt":780.39999985695,"correct":true,"confidence":-1},{"trial_n":3,"n_dots":4.25,"target":"left","response":"left","rt":613.20000004768,"correct":true,"confidence":-1},{"trial_n":4,"n_dots":3.85,"target":"right","response":"right","rt":286.5,"correct":true,"confidence":-1},{"trial_n":5,"n_dots":3.85,"target":"right","response":"right","rt":1044.3999998569,"correct":true,"confidence":-1},{"trial_n":6,"n_dots":3.45,"target":"left","response":"left","rt":158.90000009537,"correct":true,"confidence":-1},{"trial_n":7,"n_dots":3.45,"target":"right","response":"left","rt":270,"correct":false,"confidence":-1},{"trial_n":8,"n_dots":3.65,"target":"right","response":"right","rt":413.20000004768,"correct":true,"confidence":-1},{"trial_n":9,"n_dots":3.65,"target":"right","response":"left","rt":48.200000047684,"correct":false,"confidence":-1},{"trial_n":10,"n_dots":3.85,"target":"left","response":"left","rt":895.79999995232,"correct":true,"confidence":-1},{"trial_n":11,"n_dots":3.85,"target":"left","response":"left","rt":316.5,"correct":true,"confidence":-1},{"trial_n":12,"n_dots":3.65,"target":"left","response":"left","rt":159.79999995232,"correct":true,"confidence":-1},{"trial_n":13,"n_dots":3.65,"target":"left","response":"left","rt":586.79999995232,"correct":true,"confidence":-1},{"trial_n":14,"n_dots":3.55,"target":"left","response":"left","rt":385.10000014305,"correct":true,"confidence":-1},{"trial_n":15,"n_dots":3.55,"target":"left","response":"left","rt":276,"correct":true,"confidence":-1},{"trial_n":16,"n_dots":3.45,"target":"left","response":"left","rt":167.19999980927,"correct":true,"confidence":-1},{"trial_n":17,"n_dots":3.45,"target":"left","response":"left","rt":559.20000004768,"correct":true,"confidence":-1},{"trial_n":18,"n_dots":3.35,"target":"right","response":"left","rt":184.70000004768,"correct":false,"confidence":-1},{"trial_n":19,"n_dots":3.45,"target":"right","response":"left","rt":694.90000009537,"correct":false,"confidence":-1},{"trial_n":20,"n_dots":3.55,"target":"left","response":"right","rt":33,"correct":false,"confidence":-1},{"trial_n":21,"n_dots":3.65,"target":"left","response":"left","rt":1637,"correct":true,"confidence":5},{"trial_n":22,"n_dots":3.65,"target":"left","response":"right","rt":13278.799999952,"correct":false,"confidence":2},{"trial_n":23,"n_dots":3.75,"target":"right","response":"left","rt":1188.0999999046,"correct":false,"confidence":3},{"trial_n":24,"n_dots":3.85,"target":"right","response":"left","rt":1544.8000001907,"correct":false,"confidence":3},{"trial_n":25,"n_dots":3.95,"target":"left","response":"right","rt":852.70000004768,"correct":false,"confidence":4},{"trial_n":26,"n_dots":4.05,"target":"left","response":"left","rt":907.70000004768,"correct":true,"confidence":4},{"trial_n":27,"n_dots":4.05,"target":"right","response":"right","rt":516,"correct":true,"confidence":3},{"trial_n":28,"n_dots":3.95,"target":"left","response":"left","rt":499.90000009537,"correct":true,"confidence":4},{"trial_n":29,"n_dots":3.95,"target":"right","response":"right","rt":885.69999980927,"correct":true,"confidence":4},{"trial_n":30,"n_dots":3.85,"target":"right","response":"right","rt":534.90000009537,"correct":true,"confidence":3},{"trial_n":31,"n_dots":3.85,"target":"right","response":"right","rt":573.79999995232,"correct":true,"confidence":4},{"trial_n":32,"n_dots":3.75,"target":"left","response":"left","rt":493.90000009537,"correct":true,"confidence":4},{"trial_n":33,"n_dots":3.75,"target":"right","response":"right","rt":658,"correct":true,"confidence":4},{"trial_n":34,"n_dots":3.65,"target":"left","response":"left","rt":617.09999990463,"correct":true,"confidence":5},{"trial_n":35,"n_dots":3.65,"target":"right","response":"right","rt":483.20000004768,"correct":true,"confidence":4},{"trial_n":36,"n_dots":3.55,"target":"right","response":"right","rt":798.70000004768,"correct":true,"confidence":4},{"trial_n":37,"n_dots":3.55,"target":"left","response":"right","rt":227.40000009537,"correct":false,"confidence":4},{"trial_n":38,"n_dots":3.65,"target":"right","response":"right","rt":284.59999990463,"correct":true,"confidence":4},{"trial_n":39,"n_dots":3.65,"target":"right","response":"right","rt":193.09999990463,"correct":true,"confidence":4},{"trial_n":40,"n_dots":3.55,"target":"right","response":"left","rt":618,"correct":false,"confidence":3},{"trial_n":41,"n_dots":3.65,"target":"right","response":"left","rt":569,"correct":false,"confidence":4},{"trial_n":42,"n_dots":3.75,"target":"right","response":"right","rt":278.60000014305,"correct":true,"confidence":4},{"trial_n":43,"n_dots":3.75,"target":"right","response":"right","rt":53.099999904633,"correct":true,"confidence":4},{"trial_n":44,"n_dots":3.65,"target":"left","response":"left","rt":377.60000014305,"correct":true,"confidence":4},{"trial_n":45,"n_dots":3.65,"target":"right","response":"right","rt":204.5,"correct":true,"confidence":4},{"trial_n":46,"n_dots":3.55,"target":"left","response":"left","rt":337.59999990463,"correct":true,"confidence":4},{"trial_n":47,"n_dots":3.55,"target":"left","response":"right","rt":266.89999985695,"correct":false,"confidence":4},{"trial_n":48,"n_dots":3.65,"target":"right","response":"right","rt":64.699999809265,"correct":true,"confidence":4},{"trial_n":49,"n_dots":3.65,"target":"left","response":"right","rt":190.5,"correct":false,"confidence":4},{"trial_n":50,"n_dots":3.75,"target":"left","response":"right","rt":61.300000190735,"correct":false,"confidence":4},{"trial_n":51,"n_dots":3.85,"target":"right","response":"right","rt":209.89999985695,"correct":true,"confidence":4},{"trial_n":52,"n_dots":3.85,"target":"right","response":"left","rt":409.20000004768,"correct":false,"confidence":4},{"trial_n":53,"n_dots":3.95,"target":"right","response":"right","rt":125.20000004768,"correct":true,"confidence":4},{"trial_n":54,"n_dots":3.95,"target":"right","response":"right","rt":1426.1000001431,"correct":true,"confidence":3},{"trial_n":55,"n_dots":3.85,"target":"right","response":"right","rt":944.29999995232,"correct":true,"confidence":4},{"trial_n":56,"n_dots":3.85,"target":"right","response":"right","rt":517.70000004768,"correct":true,"confidence":5},{"trial_n":57,"n_dots":3.75,"target":"right","response":"right","rt":269.59999990463,"correct":true,"confidence":5},{"trial_n":58,"n_dots":3.75,"target":"left","response":"right","rt":338.90000009537,"correct":false,"confidence":5},{"trial_n":59,"n_dots":3.85,"target":"right","response":"right","rt":334.80000019073,"correct":true,"confidence":5},{"trial_n":60,"n_dots":3.85,"target":"left","response":"right","rt":256,"correct":false,"confidence":5},{"trial_n":61,"n_dots":3.95,"target":"left","response":"left","rt":380.80000019073,"correct":true,"confidence":5},{"trial_n":62,"n_dots":3.95,"target":"right","response":"right","rt":268.40000009537,"correct":true,"confidence":5},{"trial_n":63,"n_dots":3.85,"target":"right","response":"right","rt":412.59999990463,"correct":true,"confidence":5},{"trial_n":64,"n_dots":3.85,"target":"right","response":"right","rt":256.70000004768,"correct":true,"confidence":5},{"trial_n":65,"n_dots":3.75,"target":"left","response":"left","rt":721,"correct":true,"confidence":4},{"trial_n":66,"n_dots":3.75,"target":"left","response":"left","rt":396.90000009537,"correct":true,"confidence":5},{"trial_n":67,"n_dots":3.65,"target":"right","response":"right","rt":263.89999985695,"correct":true,"confidence":4},{"trial_n":68,"n_dots":3.65,"target":"left","response":"left","rt":347.70000004768,"correct":true,"confidence":5},{"trial_n":69,"n_dots":3.55,"target":"right","response":"left","rt":502.5,"correct":false,"confidence":5},{"trial_n":70,"n_dots":3.65,"target":"right","response":"right","rt":746.09999990463,"correct":true,"confidence":3},{"trial_n":71,"n_dots":3.65,"target":"left","response":"left","rt":377.80000019073,"correct":true,"confidence":4},{"trial_n":72,"n_dots":3.55,"target":"right","response":"right","rt":153.5,"correct":true,"confidence":4},{"trial_n":73,"n_dots":3.55,"target":"left","response":"right","rt":374.5,"correct":false,"confidence":4},{"trial_n":74,"n_dots":3.65,"target":"right","response":"right","rt":218.10000014305,"correct":true,"confidence":4},{"trial_n":75,"n_dots":3.65,"target":"right","response":"right","rt":167.90000009537,"correct":true,"confidence":4},{"trial_n":76,"n_dots":3.55,"target":"left","response":"right","rt":602.59999990463,"correct":false,"confidence":4},{"trial_n":77,"n_dots":3.65,"target":"right","response":"right","rt":140.39999985695,"correct":true,"confidence":4},{"trial_n":78,"n_dots":3.65,"target":"right","response":"right","rt":350,"correct":true,"confidence":4},{"trial_n":79,"n_dots":3.55,"target":"right","response":"right","rt":211.20000004768,"correct":true,"confidence":3},{"trial_n":80,"n_dots":3.55,"target":"left","response":"left","rt":612.59999990463,"correct":true,"confidence":4},{"trial_n":81,"n_dots":3.45,"target":"left","response":"left","rt":452.29999995232,"correct":true,"confidence":4},{"trial_n":82,"n_dots":3.45,"target":"right","response":"right","rt":324.59999990463,"correct":true,"confidence":4},{"trial_n":83,"n_dots":3.35,"target":"left","response":"left","rt":231.40000009537,"correct":true,"confidence":4},{"trial_n":84,"n_dots":3.35,"target":"left","response":"left","rt":251.29999995232,"correct":true,"confidence":4},{"trial_n":85,"n_dots":3.25,"target":"left","response":"left","rt":604.09999990463,"correct":true,"confidence":4},{"trial_n":86,"n_dots":3.25,"target":"right","response":"right","rt":214.70000004768,"correct":true,"confidence":4},{"trial_n":87,"n_dots":3.15,"target":"left","response":"right","rt":271.29999995232,"correct":false,"confidence":4},{"trial_n":88,"n_dots":3.25,"target":"left","response":"left","rt":201.79999995232,"correct":true,"confidence":4},{"trial_n":89,"n_dots":3.25,"target":"left","response":"left","rt":206.5,"correct":true,"confidence":4},{"trial_n":90,"n_dots":3.15,"target":"right","response":"left","rt":681.80000019073,"correct":false,"confidence":3},{"trial_n":91,"n_dots":3.25,"target":"left","response":"left","rt":3475.0999999046,"correct":true,"confidence":5},{"trial_n":92,"n_dots":3.25,"target":"left","response":"left","rt":382.90000009537,"correct":true,"confidence":3},{"trial_n":93,"n_dots":3.15,"target":"left","response":"left","rt":347.90000009537,"correct":true,"confidence":4},{"trial_n":94,"n_dots":3.15,"target":"left","response":"left","rt":298.60000014305,"correct":true,"confidence":4},{"trial_n":95,"n_dots":3.05,"target":"left","response":"left","rt":362.79999995232,"correct":true,"confidence":4},{"trial_n":96,"n_dots":3.05,"target":"right","response":"right","rt":289.89999985695,"correct":true,"confidence":4},{"trial_n":97,"n_dots":2.95,"target":"right","response":"right","rt":382.5,"correct":true,"confidence":4},{"trial_n":98,"n_dots":2.95,"target":"left","response":"left","rt":123.59999990463,"correct":true,"confidence":4},{"trial_n":99,"n_dots":2.85,"target":"left","response":"left","rt":326.29999995232,"correct":true,"confidence":4},{"trial_n":100,"n_dots":2.85,"target":"left","response":"left","rt":351.40000009537,"correct":true,"confidence":4},{"trial_n":101,"n_dots":2.75,"target":"right","response":"left","rt":346.70000004768,"correct":false,"confidence":4},{"trial_n":102,"n_dots":2.85,"target":"right","response":"right","rt":147.5,"correct":true,"confidence":5},{"trial_n":103,"n_dots":2.85,"target":"left","response":"left","rt":254.59999990463,"correct":true,"confidence":2},{"trial_n":104,"n_dots":2.75,"target":"left","response":"left","rt":263.10000014305,"correct":true,"confidence":4},{"trial_n":105,"n_dots":2.75,"target":"left","response":"left","rt":576.20000004768,"correct":true,"confidence":5},{"trial_n":106,"n_dots":2.65,"target":"left","response":"right","rt":464.90000009537,"correct":false,"confidence":4},{"trial_n":107,"n_dots":2.75,"target":"right","response":"right","rt":310.90000009537,"correct":true,"confidence":4},{"trial_n":108,"n_dots":2.75,"target":"right","response":"right","rt":340.90000009537,"correct":true,"confidence":4},{"trial_n":109,"n_dots":2.65,"target":"right","response":"left","rt":223.20000004768,"correct":false,"confidence":4},{"trial_n":110,"n_dots":2.75,"target":"right","response":"right","rt":146.59999990463,"correct":true,"confidence":4},{"trial_n":111,"n_dots":2.75,"target":"left","response":"right","rt":463.5,"correct":false,"confidence":4},{"trial_n":112,"n_dots":2.85,"target":"left","response":"left","rt":265.19999980927,"correct":true,"confidence":4},{"trial_n":113,"n_dots":2.85,"target":"right","response":"right","rt":587.29999995232,"correct":true,"confidence":4},{"trial_n":114,"n_dots":2.75,"target":"left","response":"left","rt":354.79999995232,"correct":true,"confidence":4},{"trial_n":115,"n_dots":2.75,"target":"left","response":"left","rt":772.70000004768,"correct":true,"confidence":4},{"trial_n":116,"n_dots":2.65,"target":"right","response":"left","rt":943.89999985695,"correct":false,"confidence":4},{"trial_n":117,"n_dots":2.75,"target":"left","response":"left","rt":397,"correct":true,"confidence":4},{"trial_n":118,"n_dots":2.75,"target":"left","response":"left","rt":558.69999980927,"correct":true,"confidence":4},{"trial_n":119,"n_dots":2.65,"target":"right","response":"left","rt":839.10000014305,"correct":false,"confidence":3},{"trial_n":120,"n_dots":2.75,"target":"right","response":"left","rt":308.70000004768,"correct":false,"confidence":3}]