[{"trial_n":1,"min":25,"max":230,"target":"present","response":"absent","rt":11576.5,"correct":false,"confidence":-1},{"trial_n":2,"min":25,"max":230,"target":"present","response":"present","rt":1127.2000000477,"correct":true,"confidence":-1},{"trial_n":3,"min":25,"max":230,"target":"absent","response":"absent","rt":945.09999990463,"correct":true,"confidence":-1},{"trial_n":4,"min":41,"max":214,"target":"absent","response":"absent","rt":1100.5999999046,"correct":true,"confidence":-1},{"trial_n":5,"min":41,"max":214,"target":"present","response":"present","rt":853.09999990463,"correct":true,"confidence":-1},{"trial_n":6,"min":57,"max":198,"target":"present","response":"present","rt":1105.7000000477,"correct":true,"confidence":-1},{"trial_n":7,"min":57,"max":198,"target":"present","response":"present","rt":661.80000019073,"correct":true,"confidence":-1},{"trial_n":8,"min":73,"max":182,"target":"absent","response":"absent","rt":1122,"correct":true,"confidence":-1},{"trial_n":9,"min":73,"max":182,"target":"present","response":"present","rt":954.10000014305,"correct":true,"confidence":-1},{"trial_n":10,"min":89,"max":166,"target":"present","response":"absent","rt":35535.299999952,"correct":false,"confidence":-1},{"trial_n":11,"min":81,"max":174,"target":"absent","response":"absent","rt":859.20000004768,"correct":true,"confidence":-1},{"trial_n":12,"min":81,"max":174,"target":"present","response":"absent","rt":560.90000009537,"correct":false,"confidence":-1},{"trial_n":13,"min":73,"max":182,"target":"absent","response":"absent","rt":1123.7000000477,"correct":true,"confidence":-1},{"trial_n":14,"min":73,"max":182,"target":"present","response":"present","rt":907.29999995232,"correct":true,"confidence":-1},{"trial_n":15,"min":81,"max":174,"target":"present","response":"absent","rt":3878.2000000477,"correct":false,"confidence":-1},{"trial_n":16,"min":73,"max":182,"target":"absent","response":"present","rt":1416.7999999523,"correct":false,"confidence":-1},{"trial_n":17,"min":65,"max":190,"target":"present","response":"present","rt":1242.5,"correct":true,"confidence":-1},{"trial_n":18,"min":65,"max":190,"target":"absent","response":"present","rt":1009.2000000477,"correct":false,"confidence":-1},{"trial_n":19,"min":57,"max":198,"target":"absent","response":"absent","rt":1153.2999999523,"correct":true,"confidence":-1},{"trial_n":20,"min":57,"max":198,"target":"present","response":"present","rt":1108.2999999523,"correct":true,"confidence":-1},{"trial_n":21,"min":61,"max":194,"target":"absent","response":"present","rt":1254.6999998093,"correct":false,"confidence":2},{"trial_n":22,"min":57,"max":198,"target":"absent","response":"absent","rt":2322.5,"correct":true,"confidence":2},{"trial_n":23,"min":57,"max":198,"target":"absent","response":"absent","rt":972.70000004768,"correct":true,"confidence":2},{"trial_n":24,"min":61,"max":194,"target":"absent","response":"absent","rt":1159.7999999523,"correct":true,"confidence":2},{"trial_n":25,"min":61,"max":194,"target":"absent","response":"absent","rt":1688.2000000477,"correct":true,"confidence":2},{"trial_n":26,"min":65,"max":190,"target":"present","response":"absent","rt":1050.7000000477,"correct":false,"confidence":3},{"trial_n":27,"min":61,"max":194,"target":"present","response":"present","rt":844.20000004768,"correct":true,"confidence":5},{"trial_n":28,"min":61,"max":194,"target":"absent","response":"absent","rt":1007.0999999046,"correct":true,"confidence":3},{"trial_n":29,"min":65,"max":190,"target":"absent","response":"present","rt":1176.4000000954,"correct":false,"confidence":2},{"trial_n":30,"min":61,"max":194,"target":"present","response":"present","rt":998.40000009537,"correct":true,"confidence":5},{"trial_n":31,"min":61,"max":194,"target":"absent","response":"absent","rt":1313.4000000954,"correct":true,"confidence":4},{"trial_n":32,"min":63,"max":192,"target":"present","response":"present","rt":1006.7999999523,"correct":true,"confidence":5},{"trial_n":33,"min":63,"max":192,"target":"present","response":"present","rt":735.5,"correct":true,"confidence":5},{"trial_n":34,"min":65,"max":190,"target":"present","response":"absent","rt":900.40000009537,"correct":false,"confidence":3},{"trial_n":35,"min":63,"max":192,"target":"absent","response":"absent","rt":990.20000004768,"correct":true,"confidence":3},{"trial_n":36,"min":63,"max":192,"target":"absent","response":"absent","rt":756.70000004768,"correct":true,"confidence":4},{"trial_n":37,"min":65,"max":190,"target":"absent","response":"absent","rt":2193.7999999523,"correct":true,"confidence":2},{"trial_n":38,"min":65,"max":190,"target":"present","response":"present","rt":911.19999980927,"correct":true,"confidence":5},{"trial_n":39,"min":67,"max":188,"target":"absent","response":"absent","rt":1285.5,"correct":true,"confidence":3},{"trial_n":40,"min":67,"max":188,"target":"absent","response":"absent","rt":718.5,"correct":true,"confidence":4},{"trial_n":41,"min":68,"max":187,"target":"present","response":"present","rt":932,"correct":true,"confidence":5},{"trial_n":42,"min":68,"max":187,"target":"present","response":"present","rt":1054.2000000477,"correct":true,"confidence":5},{"trial_n":43,"min":69,"max":186,"target":"present","response":"present","rt":697.09999990463,"correct":true,"confidence":5},{"trial_n":44,"min":69,"max":186,"target":"absent","response":"absent","rt":898.5,"correct":true,"confidence":4},{"trial_n":45,"min":70,"max":185,"target":"present","response":"present","rt":960.69999980927,"correct":true,"confidence":5},{"trial_n":46,"min":70,"max":185,"target":"present","response":"present","rt":1599.2000000477,"correct":true,"confidence":3},{"trial_n":47,"min":71,"max":184,"target":"present","response":"present","rt":627.29999995232,"correct":true,"confidence":5},{"trial_n":48,"min":71,"max":184,"target":"absent","response":"present","rt":1522.3000001907,"correct":false,"confidence":2},{"trial_n":49,"min":70,"max":185,"target":"present","response":"present","rt":705.59999990463,"correct":true,"confidence":5},{"trial_n":50,"min":70,"max":185,"target":"present","response":"present","rt":652.09999990463,"correct":true,"confidence":5},{"trial_n":51,"min":71,"max":184,"target":"absent","response":"absent","rt":1135.2000000477,"correct":true,"confidence":3},{"trial_n":52,"min":71,"max":184,"target":"present","response":"present","rt":776.79999995232,"correct":true,"confidence":5},{"trial_n":53,"min":72,"max":183,"target":"absent","response":"present","rt":990.5,"correct":false,"confidence":2},{"trial_n":54,"min":71,"max":184,"target":"present","response":"present","rt":622.59999990463,"correct":true,"confidence":5},{"trial_n":55,"min":71,"max":184,"target":"absent","response":"absent","rt":1122.6000001431,"correct":true,"confidence":3},{"trial_n":56,"min":72,"max":183,"target":"absent","response":"absent","rt":1100.2999999523,"correct":true,"confidence":2},{"trial_n":57,"min":72,"max":183,"target":"absent","response":"absent","rt":908.40000009537,"correct":true,"confidence":4},{"trial_n":58,"min":73,"max":182,"target":"present","response":"present","rt":1024.8999998569,"correct":true,"confidence":4},{"trial_n":59,"min":73,"max":182,"target":"absent","response":"absent","rt":961,"correct":true,"confidence":4},{"trial_n":60,"min":74,"max":181,"target":"present","response":"present","rt":618.10000014305,"correct":true,"confidence":5},{"trial_n":61,"min":74,"max":181,"target":"present","response":"present","rt":885,"correct":true,"confidence":5},{"trial_n":62,"min":75,"max":180,"target":"present","response":"present","rt":665.20000004768,"correct":true,"confidence":5},{"trial_n":63,"min":75,"max":180,"target":"absent","response":"absent","rt":851,"correct":true,"confidence":4},{"trial_n":64,"min":76,"max":179,"target":"absent","response":"present","rt":1216.6000001431,"correct":false,"confidence":2},{"trial_n":65,"min":75,"max":180,"target":"present","response":"present","rt":794.40000009537,"correct":true,"confidence":5},{"trial_n":66,"min":75,"max":180,"target":"present","response":"present","rt":1351.7000000477,"correct":true,"confidence":5},{"trial_n":67,"min":76,"max":179,"target":"absent","response":"present","rt":649.60000014305,"correct":false,"confidence":4},{"trial_n":68,"min":75,"max":180,"target":"present","response":"present","rt":944,"correct":true,"confidence":5},{"trial_n":69,"min":75,"max":180,"target":"absent","response":"present","rt":1135.4000000954,"correct":false,"confidence":5},{"trial_n":70,"min":74,"max":181,"target":"absent","response":"present","rt":1862.2000000477,"correct":false,"confidence":2},{"trial_n":71,"min":41,"max":214,"target":"present","response":"present","rt":1464.5,"correct":true,"confidence":-1},{"trial_n":72,"min":41,"max":214,"target":"present","response":"present","rt":501,"correct":true,"confidence":-1},{"trial_n":73,"min":57,"max":198,"target":"absent","response":"absent","rt":1103.9000000954,"correct":true,"confidence":-1},{"trial_n":74,"min":57,"max":198,"target":"absent","response":"absent","rt":1435.5999999046,"correct":true,"confidence":-1},{"trial_n":75,"min":73,"max":182,"target":"present","response":"present","rt":835.29999995232,"correct":true,"confidence":-1},{"trial_n":76,"min":73,"max":182,"target":"absent","response":"absent","rt":978.89999985695,"correct":true,"confidence":-1},{"trial_n":77,"min":89,"max":166,"target":"present","response":"present","rt":1067,"correct":true,"confidence":-1},{"trial_n":78,"min":89,"max":166,"target":"present","response":"present","rt":2150.9000000954,"correct":true,"confidence":-1},{"trial_n":79,"min":105,"max":150,"target":"present","response":"present","rt":676.20000004768,"correct":true,"confidence":-1},{"trial_n":80,"min":105,"max":150,"target":"absent","response":"present","rt":755.89999985695,"correct":false,"confidence":-1},{"trial_n":81,"min":97,"max":158,"target":"absent","response":"absent","rt":1184.2999999523,"correct":true,"confidence":-1},{"trial_n":82,"min":97,"max":158,"target":"absent","response":"present","rt":1107.9000000954,"correct":false,"confidence":-1},{"trial_n":83,"min":89,"max":166,"target":"present","response":"present","rt":550.79999995232,"correct":true,"confidence":-1},{"trial_n":84,"min":89,"max":166,"target":"present","response":"present","rt":546.5,"correct":true,"confidence":-1},{"trial_n":85,"min":97,"max":158,"target":"absent","response":"absent","rt":1920.1000001431,"correct":true,"confidence":-1},{"trial_n":86,"min":97,"max":158,"target":"present","response":"present","rt":1605,"correct":true,"confidence":-1},{"trial_n":87,"min":105,"max":150,"target":"present","response":"present","rt":14700.5,"correct":true,"confidence":-1},{"trial_n":88,"min":105,"max":150,"target":"present","response":"absent","rt":1229.0999999046,"correct":false,"confidence":-1},{"trial_n":89,"min":97,"max":158,"target":"absent","response":"present","rt":977.30000019073,"correct":false,"confidence":-1},{"trial_n":90,"min":89,"max":166,"target":"present","response":"present","rt":687.5,"correct":true,"confidence":-1},{"trial_n":91,"min":89,"max":166,"target":"present","response":"present","rt":1011.7999999523,"correct":true,"confidence":4},{"trial_n":92,"min":93,"max":162,"target":"present","response":"present","rt":944,"correct":true,"confidence":2},{"trial_n":93,"min":93,"max":162,"target":"present","response":"present","rt":766.5,"correct":true,"confidence":3},{"trial_n":94,"min":97,"max":158,"target":"present","response":"present","rt":711.69999980927,"correct":true,"confidence":3},{"trial_n":95,"min":97,"max":158,"target":"absent","response":"present","rt":1694.2999999523,"correct":false,"confidence":1},{"trial_n":96,"min":93,"max":162,"target":"present","response":"present","rt":965.09999990463,"correct":true,"confidence":1},{"trial_n":97,"min":93,"max":162,"target":"absent","response":"absent","rt":2568.3000001907,"correct":true,"confidence":2},{"trial_n":98,"min":97,"max":158,"target":"present","response":"present","rt":4387.0999999046,"correct":true,"confidence":2},{"trial_n":99,"min":97,"max":158,"target":"absent","response":"present","rt":928.40000009537,"correct":false,"confidence":2},{"trial_n":100,"min":93,"max":162,"target":"absent","response":"present","rt":1458.7000000477,"correct":false,"confidence":2},{"trial_n":101,"min":91,"max":164,"target":"absent","response":"present","rt":1808.2000000477,"correct":false,"confidence":1},{"trial_n":102,"min":89,"max":166,"target":"absent","response":"absent","rt":1256.5,"correct":true,"confidence":3},{"trial_n":103,"min":89,"max":166,"target":"absent","response":"present","rt":717.39999985695,"correct":false,"confidence":4},{"trial_n":104,"min":87,"max":168,"target":"present","response":"present","rt":839.09999990463,"correct":true,"confidence":3},{"trial_n":105,"min":87,"max":168,"target":"present","response":"present","rt":775.5,"correct":true,"confidence":3},{"trial_n":106,"min":89,"max":166,"target":"present","response":"present","rt":1521.8999998569,"correct":true,"confidence":2},{"trial_n":107,"min":89,"max":166,"target":"absent","response":"present","rt":2573,"correct":false,"confidence":1},{"trial_n":108,"min":87,"max":168,"target":"present","response":"present","rt":1022.9000000954,"correct":true,"confidence":5},{"trial_n":109,"min":87,"max":168,"target":"present","response":"present","rt":900.70000004768,"correct":true,"confidence":1},{"trial_n":110,"min":89,"max":166,"target":"absent","response":"absent","rt":3358.1000001431,"correct":true,"confidence":1},{"trial_n":111,"min":89,"max":166,"target":"absent","response":"present","rt":772,"correct":false,"confidence":3},{"trial_n":112,"min":88,"max":167,"target":"absent","response":"absent","rt":2521.2999999523,"correct":true,"confidence":1},{"trial_n":113,"min":88,"max":167,"target":"absent","response":"absent","rt":1500.5999999046,"correct":true,"confidence":3},{"trial_n":114,"min":89,"max":166,"target":"present","response":"present","rt":627.5,"correct":true,"confidence":5},{"trial_n":115,"min":89,"max":166,"target":"absent","response":"absent","rt":11258.799999952,"correct":true,"confidence":1},{"trial_n":116,"min":90,"max":165,"target":"present","response":"present","rt":885.70000004768,"correct":true,"confidence":3},{"trial_n":117,"min":90,"max":165,"target":"absent","response":"present","rt":807.5,"correct":false,"confidence":1},{"trial_n":118,"min":89,"max":166,"target":"absent","response":"absent","rt":1065,"correct":true,"confidence":4},{"trial_n":119,"min":89,"max":166,"target":"absent","response":"absent","rt":1749.3999998569,"correct":true,"confidence":1},{"trial_n":120,"min":90,"max":165,"target":"present","response":"present","rt":905.39999985695,"correct":true,"confidence":5},{"trial_n":121,"min":90,"max":165,"target":"present","response":"present","rt":888.90000009537,"correct":true,"confidence":3},{"trial_n":122,"min":91,"max":164,"target":"absent","response":"present","rt":691.40000009537,"correct":false,"confidence":2},{"trial_n":123,"min":90,"max":165,"target":"absent","response":"absent","rt":1279.5,"correct":true,"confidence":1},{"trial_n":124,"min":90,"max":165,"target":"present","response":"present","rt":833.29999995232,"correct":true,"confidence":3},{"trial_n":125,"min":91,"max":164,"target":"absent","response":"present","rt":931.20000004768,"correct":false,"confidence":1},{"trial_n":126,"min":90,"max":165,"target":"absent","response":"absent","rt":895,"correct":true,"confidence":2},{"trial_n":127,"min":90,"max":165,"target":"present","response":"present","rt":841.80000019073,"correct":true,"confidence":3},{"trial_n":128,"min":91,"max":164,"target":"present","response":"present","rt":1165.2000000477,"correct":true,"confidence":5},{"trial_n":129,"min":91,"max":164,"target":"absent","response":"absent","rt":72879.5,"correct":true,"confidence":1},{"trial_n":130,"min":92,"max":163,"target":"present","response":"present","rt":869.20000004768,"correct":true,"confidence":3},{"trial_n":131,"min":92,"max":163,"target":"absent","response":"present","rt":2215,"correct":false,"confidence":1},{"trial_n":132,"min":91,"max":164,"target":"absent","response":"present","rt":853.90000009537,"correct":false,"confidence":2},{"trial_n":133,"min":90,"max":165,"target":"present","response":"present","rt":831.5,"correct":true,"confidence":3},{"trial_n":134,"min":90,"max":165,"target":"present","response":"present","rt":915.5,"correct":true,"confidence":4},{"trial_n":135,"min":91,"max":164,"target":"present","response":"absent","rt":1134.6000001431,"correct":false,"confidence":1},{"trial_n":136,"min":90,"max":165,"target":"absent","response":"absent","rt":1788.2000000477,"correct":true,"confidence":3},{"trial_n":137,"min":90,"max":165,"target":"absent","response":"present","rt":2021.5,"correct":false,"confidence":1},{"trial_n":138,"min":89,"max":166,"target":"absent","response":"absent","rt":1240.5,"correct":true,"confidence":2},{"trial_n":139,"min":89,"max":166,"target":"present","response":"present","rt":637,"correct":true,"confidence":4},{"trial_n":140,"min":90,"max":165,"target":"present","response":"present","rt":651.79999995232,"correct":true,"confidence":4}]