[{"trial_n":1,"n_dots":4.25,"target":"left","response":"left","rt":379,"correct":true,"confidence":-1},{"trial_n":2,"n_dots":4.25,"target":"right","response":"right","rt":425,"correct":true,"confidence":-1},{"trial_n":3,"n_dots":3.85,"target":"left","response":"left","rt":258,"correct":true,"confidence":-1},{"trial_n":4,"n_dots":3.85,"target":"right","response":"right","rt":559.5,"correct":true,"confidence":-1},{"trial_n":5,"n_dots":3.45,"target":"left","response":"left","rt":284.60000014305,"correct":true,"confidence":-1},{"trial_n":6,"n_dots":3.45,"target":"right","response":"right","rt":251.90000009537,"correct":true,"confidence":-1},{"trial_n":7,"n_dots":3.05,"target":"left","response":"left","rt":112.09999990463,"correct":true,"confidence":-1},{"trial_n":8,"n_dots":3.05,"target":"left","response":"left","rt":552.39999985695,"correct":true,"confidence":-1},{"trial_n":9,"n_dots":2.85,"target":"left","response":"left","rt":158.79999995232,"correct":true,"confidence":-1},{"trial_n":10,"n_dots":2.85,"target":"left","response":"left","rt":425.29999995232,"correct":true,"confidence":-1},{"trial_n":11,"n_dots":2.65,"target":"right","response":"left","rt":366,"correct":false,"confidence":-1},{"trial_n":12,"n_dots":2.85,"target":"right","response":"right","rt":127.20000004768,"correct":true,"confidence":-1},{"trial_n":13,"n_dots":2.85,"target":"right","response":"left","rt":176.5,"correct":false,"confidence":-1},{"trial_n":14,"n_dots":2.95,"target":"left","response":"left","rt":190.70000004768,"correct":true,"confidence":-1},{"trial_n":15,"n_dots":2.95,"target":"right","response":"right","rt":344.89999985695,"correct":true,"confidence":-1},{"trial_n":16,"n_dots":2.85,"target":"left","response":"left","rt":304.5,"correct":true,"confidence":-1},{"trial_n":17,"n_dots":2.85,"target":"left","response":"left","rt":257.5,"correct":true,"confidence":-1},{"trial_n":18,"n_dots":2.75,"target":"right","response":"left","rt":934.29999995232,"correct":false,"confidence":-1},{"trial_n":19,"n_dots":2.85,"target":"left","response":"left","rt":94,"correct":true,"confidence":-1},{"trial_n":20,"n_dots":2.85,"target":"right","response":"right","rt":237.5,"correct":true,"confidence":-1},{"trial_n":21,"n_dots":2.75,"target":"right","response":"right","rt":483.79999995232,"correct":true,"confidence":3},{"trial_n":22,"n_dots":2.75,"target":"right","response":"left","rt":658.79999995232,"correct":false,"confidence":2},{"trial_n":23,"n_dots":2.85,"target":"right","response":"right","rt":317.60000014305,"correct":true,"confidence":3},{"trial_n":24,"n_dots":2.85,"target":"right","response":"right","rt":360.40000009537,"correct":true,"confidence":3},{"trial_n":25,"n_dots":2.75,"target":"right","response":"right","rt":341.29999995232,"correct":true,"confidence":3},{"trial_n":26,"n_dots":2.75,"target":"right","response":"right","rt":670.20000004768,"correct":true,"confidence":2},{"trial_n":27,"n_dots":2.65,"target":"right","response":"right","rt":616,"correct":true,"confidence":2},{"trial_n":28,"n_dots":2.65,"target":"left","response":"left","rt":165.20000004768,"correct":true,"confidence":4},{"trial_n":29,"n_dots":2.55,"target":"right","response":"right","rt":745.59999990463,"correct":true,"confidence":3},{"trial_n":30,"n_dots":2.55,"target":"left","response":"left","rt":536.80000019073,"correct":true,"confidence":2},{"trial_n":31,"n_dots":2.45,"target":"left","response":"left","rt":639.5,"correct":true,"confidence":2},{"trial_n":32,"n_dots":2.45,"target":"right","response":"right","rt":496.90000009537,"correct":true,"confidence":2},{"trial_n":33,"n_dots":2.35,"target":"right","response":"right","rt":505.59999990463,"correct":true,"confidence":4},{"trial_n":34,"n_dots":2.35,"target":"left","response":"left","rt":2105,"correct":true,"confidence":1},{"trial_n":35,"n_dots":2.25,"target":"right","response":"right","rt":718.79999995232,"correct":true,"confidence":2},{"trial_n":36,"n_dots":2.25,"target":"left","response":"right","rt":1167.7999999523,"correct":false,"confidence":1},{"trial_n":37,"n_dots":2.35,"target":"right","response":"right","rt":911.40000009537,"correct":true,"confidence":2},{"trial_n":38,"n_dots":2.35,"target":"left","response":"left","rt":1237.4000000954,"correct":true,"confidence":1},{"trial_n":39,"n_dots":2.25,"target":"right","response":"right","rt":723.20000004768,"correct":true,"confidence":1},{"trial_n":40,"n_dots":2.25,"target":"left","response":"left","rt":596.09999990463,"correct":true,"confidence":2},{"trial_n":41,"n_dots":2.15,"target":"right","response":"left","rt":1630.4000000954,"correct":false,"confidence":1},{"trial_n":42,"n_dots":2.25,"target":"left","response":"right","rt":476.29999995232,"correct":false,"confidence":1},{"trial_n":43,"n_dots":2.35,"target":"right","response":"left","rt":1698.5,"correct":false,"confidence":2},{"trial_n":44,"n_dots":2.45,"target":"left","response":"left","rt":879.79999995232,"correct":true,"confidence":3},{"trial_n":45,"n_dots":2.45,"target":"left","response":"left","rt":897.40000009537,"correct":true,"confidence":2},{"trial_n":46,"n_dots":2.35,"target":"right","response":"left","rt":1313.7999999523,"correct":false,"confidence":1},{"trial_n":47,"n_dots":2.45,"target":"right","response":"right","rt":684.09999990463,"correct":true,"confidence":3},{"trial_n":48,"n_dots":2.45,"target":"left","response":"left","rt":1048.2999999523,"correct":true,"confidence":1},{"trial_n":49,"n_dots":2.35,"target":"left","response":"left","rt":1055.5999999046,"correct":true,"confidence":1},{"trial_n":50,"n_dots":2.35,"target":"right","response":"left","rt":660.30000019073,"correct":false,"confidence":2},{"trial_n":51,"n_dots":2.45,"target":"right","response":"right","rt":3266.7999999523,"correct":true,"confidence":2},{"trial_n":52,"n_dots":2.45,"target":"left","response":"right","rt":1215.8999998569,"correct":false,"confidence":1},{"trial_n":53,"n_dots":2.55,"target":"left","response":"left","rt":789.70000004768,"correct":true,"confidence":3},{"trial_n":54,"n_dots":2.55,"target":"right","response":"right","rt":1167.5999999046,"correct":true,"confidence":1},{"trial_n":55,"n_dots":2.45,"target":"left","response":"left","rt":1005.5999999046,"correct":true,"confidence":2},{"trial_n":56,"n_dots":2.45,"target":"right","response":"left","rt":1262.7999999523,"correct":false,"confidence":1},{"trial_n":57,"n_dots":2.55,"target":"right","response":"right","rt":475.90000009537,"correct":true,"confidence":3},{"trial_n":58,"n_dots":2.55,"target":"right","response":"right","rt":2117.2000000477,"correct":true,"confidence":1},{"trial_n":59,"n_dots":2.45,"target":"right","response":"right","rt":844.70000004768,"correct":true,"confidence":2},{"trial_n":60,"n_dots":2.45,"target":"left","response":"left","rt":1091.2999999523,"correct":true,"confidence":2},{"trial_n":61,"n_dots":2.35,"target":"left","response":"right","rt":2910.2999999523,"correct":false,"confidence":1},{"trial_n":62,"n_dots":2.45,"target":"right","response":"right","rt":489.59999990463,"correct":true,"confidence":2},{"trial_n":63,"n_dots":2.45,"target":"left","response":"right","rt":857,"correct":false,"confidence":2},{"trial_n":64,"n_dots":2.55,"target":"right","response":"right","rt":478.89999985695,"correct":true,"confidence":2},{"trial_n":65,"n_dots":2.55,"target":"right","response":"right","rt":356.40000009537,"correct":true,"confidence":3},{"trial_n":66,"n_dots":2.45,"target":"right","response":"right","rt":1019.6999998093,"correct":true,"confidence":2},{"trial_n":67,"n_dots":2.45,"target":"left","response":"right","rt":1119,"correct":false,"confidence":1},{"trial_n":68,"n_dots":2.55,"target":"right","response":"right","rt":1162.5,"correct":true,"confidence":2},{"trial_n":69,"n_dots":2.55,"target":"right","response":"right","rt":2975.7000000477,"correct":true,"confidence":2},{"trial_n":70,"n_dots":2.45,"target":"left","response":"left","rt":974.10000014305,"correct":true,"confidence":2},{"trial_n":71,"n_dots":2.45,"target":"right","response":"right","rt":555.09999990463,"correct":true,"confidence":3},{"trial_n":72,"n_dots":2.35,"target":"right","response":"right","rt":1079.4000000954,"correct":true,"confidence":1},{"trial_n":73,"n_dots":2.35,"target":"right","response":"left","rt":2047.7000000477,"correct":false,"confidence":1},{"trial_n":74,"n_dots":2.45,"target":"right","response":"left","rt":783.60000014305,"correct":false,"confidence":2},{"trial_n":75,"n_dots":2.55,"target":"right","response":"left","rt":807.40000009537,"correct":false,"confidence":2},{"trial_n":76,"n_dots":2.65,"target":"left","response":"left","rt":385,"correct":true,"confidence":3},{"trial_n":77,"n_dots":2.65,"target":"left","response":"left","rt":643.09999990463,"correct":true,"confidence":2},{"trial_n":78,"n_dots":2.55,"target":"left","response":"left","rt":365.10000014305,"correct":true,"confidence":3},{"trial_n":79,"n_dots":2.55,"target":"left","response":"left","rt":399.70000004768,"correct":true,"confidence":3},{"trial_n":80,"n_dots":2.45,"target":"left","response":"left","rt":397.40000009537,"correct":true,"confidence":4},{"trial_n":81,"n_dots":2.45,"target":"right","response":"left","rt":444.20000004768,"correct":false,"confidence":2},{"trial_n":82,"n_dots":2.55,"target":"left","response":"left","rt":443.10000014305,"correct":true,"confidence":2},{"trial_n":83,"n_dots":2.55,"target":"left","response":"right","rt":712.40000009537,"correct":false,"confidence":2},{"trial_n":84,"n_dots":2.65,"target":"left","response":"left","rt":714,"correct":true,"confidence":2},{"trial_n":85,"n_dots":2.65,"target":"right","response":"right","rt":224.60000014305,"correct":true,"confidence":3},{"trial_n":86,"n_dots":2.55,"target":"left","response":"left","rt":449.59999990463,"correct":true,"confidence":3},{"trial_n":87,"n_dots":2.55,"target":"left","response":"left","rt":639.70000004768,"correct":true,"confidence":2},{"trial_n":88,"n_dots":2.45,"target":"right","response":"right","rt":260,"correct":true,"confidence":2},{"trial_n":89,"n_dots":2.45,"target":"right","response":"left","rt":1615.9000000954,"correct":false,"confidence":2},{"trial_n":90,"n_dots":2.55,"target":"right","response":"right","rt":1139.2000000477,"correct":true,"confidence":2},{"trial_n":91,"n_dots":2.55,"target":"left","response":"right","rt":720.5,"correct":false,"confidence":2},{"trial_n":92,"n_dots":2.65,"target":"right","response":"right","rt":1122,"correct":true,"confidence":1},{"trial_n":93,"n_dots":2.65,"target":"left","response":"left","rt":404.20000004768,"correct":true,"confidence":4},{"trial_n":94,"n_dots":2.55,"target":"left","response":"left","rt":369.10000014305,"correct":true,"confidence":3},{"trial_n":95,"n_dots":2.55,"target":"left","response":"left","rt":617.10000014305,"correct":true,"confidence":3},{"trial_n":96,"n_dots":2.45,"target":"left","response":"left","rt":439.59999990463,"correct":true,"confidence":3},{"trial_n":97,"n_dots":2.45,"target":"right","response":"right","rt":870.60000014305,"correct":true,"confidence":2},{"trial_n":98,"n_dots":2.35,"target":"right","response":"left","rt":597.59999990463,"correct":false,"confidence":2},{"trial_n":99,"n_dots":2.45,"target":"left","response":"left","rt":1280.5,"correct":true,"confidence":2},{"trial_n":100,"n_dots":2.45,"target":"left","response":"left","rt":387.69999980927,"correct":true,"confidence":4},{"trial_n":101,"n_dots":2.35,"target":"right","response":"left","rt":823.89999985695,"correct":false,"confidence":2},{"trial_n":102,"n_dots":2.45,"target":"right","response":"left","rt":338.69999980927,"correct":false,"confidence":3},{"trial_n":103,"n_dots":2.55,"target":"left","response":"left","rt":446,"correct":true,"confidence":2},{"trial_n":104,"n_dots":2.55,"target":"left","response":"left","rt":628.5,"correct":true,"confidence":2},{"trial_n":105,"n_dots":2.45,"target":"left","response":"right","rt":696.90000009537,"correct":false,"confidence":2},{"trial_n":106,"n_dots":2.55,"target":"left","response":"left","rt":691,"correct":true,"confidence":2},{"trial_n":107,"n_dots":2.55,"target":"left","response":"right","rt":605.20000004768,"correct":false,"confidence":2},{"trial_n":108,"n_dots":2.65,"target":"right","response":"left","rt":611.40000009537,"correct":false,"confidence":2},{"trial_n":109,"n_dots":2.75,"target":"left","response":"left","rt":705.70000004768,"correct":true,"confidence":3},{"trial_n":110,"n_dots":2.75,"target":"right","response":"right","rt":607.10000014305,"correct":true,"confidence":2},{"trial_n":111,"n_dots":2.65,"target":"right","response":"right","rt":2257.3999998569,"correct":true,"confidence":1},{"trial_n":112,"n_dots":2.65,"target":"left","response":"left","rt":350.90000009537,"correct":true,"confidence":4},{"trial_n":113,"n_dots":2.55,"target":"left","response":"left","rt":200.59999990463,"correct":true,"confidence":4},{"trial_n":114,"n_dots":2.55,"target":"left","response":"left","rt":674.70000004768,"correct":true,"confidence":2},{"trial_n":115,"n_dots":2.45,"target":"right","response":"right","rt":494,"correct":true,"confidence":2},{"trial_n":116,"n_dots":2.45,"target":"left","response":"right","rt":379.40000009537,"correct":false,"confidence":1},{"trial_n":117,"n_dots":2.55,"target":"left","response":"left","rt":307.89999985695,"correct":true,"confidence":1},{"trial_n":118,"n_dots":2.55,"target":"right","response":"right","rt":432.40000009537,"correct":true,"confidence":3},{"trial_n":119,"n_dots":2.45,"target":"left","response":"left","rt":403.70000004768,"correct":true,"confidence":3},{"trial_n":120,"n_dots":2.45,"target":"right","response":"right","rt":783.09999990463,"correct":true,"confidence":2}]