[{"trial_n":1,"min":25,"max":230,"target":"present","response":"present","rt":6753.0999999046,"correct":true,"confidence":-1},{"trial_n":2,"min":25,"max":230,"target":"present","response":"present","rt":435,"correct":true,"confidence":-1},{"trial_n":3,"min":41,"max":214,"target":"absent","response":"absent","rt":356.40000009537,"correct":true,"confidence":-1},{"trial_n":4,"min":41,"max":214,"target":"absent","response":"absent","rt":203.10000014305,"correct":true,"confidence":-1},{"trial_n":5,"min":57,"max":198,"target":"present","response":"present","rt":286.09999990463,"correct":true,"confidence":-1},{"trial_n":6,"min":57,"max":198,"target":"absent","response":"absent","rt":167.80000019073,"correct":true,"confidence":-1},{"trial_n":7,"min":73,"max":182,"target":"absent","response":"absent","rt":228.20000004768,"correct":true,"confidence":-1},{"trial_n":8,"min":73,"max":182,"target":"present","response":"present","rt":335.20000004768,"correct":true,"confidence":-1},{"trial_n":9,"min":89,"max":166,"target":"present","response":"present","rt":519.40000009537,"correct":true,"confidence":-1},{"trial_n":10,"min":89,"max":166,"target":"present","response":"absent","rt":678.5,"correct":false,"confidence":-1},{"trial_n":11,"min":81,"max":174,"target":"absent","response":"absent","rt":508.90000009537,"correct":true,"confidence":-1},{"trial_n":12,"min":81,"max":174,"target":"present","response":"present","rt":354,"correct":true,"confidence":-1},{"trial_n":13,"min":89,"max":166,"target":"present","response":"present","rt":389.70000004768,"correct":true,"confidence":-1},{"trial_n":14,"min":89,"max":166,"target":"absent","response":"absent","rt":599,"correct":true,"confidence":-1},{"trial_n":15,"min":97,"max":158,"target":"absent","response":"present","rt":569.30000019073,"correct":false,"confidence":-1},{"trial_n":16,"min":89,"max":166,"target":"present","response":"absent","rt":389.60000014305,"correct":false,"confidence":-1},{"trial_n":17,"min":81,"max":174,"target":"present","response":"present","rt":512.89999985695,"correct":true,"confidence":-1},{"trial_n":18,"min":81,"max":174,"target":"absent","response":"absent","rt":1595.2999999523,"correct":true,"confidence":-1},{"trial_n":19,"min":89,"max":166,"target":"absent","response":"absent","rt":476.40000009537,"correct":true,"confidence":-1},{"trial_n":20,"min":89,"max":166,"target":"absent","response":"absent","rt":393.29999995232,"correct":true,"confidence":-1},{"trial_n":21,"min":93,"max":162,"target":"present","response":"absent","rt":545.29999995232,"correct":false,"confidence":5},{"trial_n":22,"min":89,"max":166,"target":"present","response":"present","rt":1883.3999998569,"correct":true,"confidence":4},{"trial_n":23,"min":89,"max":166,"target":"absent","response":"absent","rt":1042.6000001431,"correct":true,"confidence":5},{"trial_n":24,"min":93,"max":162,"target":"absent","response":"present","rt":1132,"correct":false,"confidence":4},{"trial_n":25,"min":89,"max":166,"target":"absent","response":"absent","rt":1033.2999999523,"correct":true,"confidence":5},{"trial_n":26,"min":89,"max":166,"target":"present","response":"absent","rt":1265.2999999523,"correct":false,"confidence":5},{"trial_n":27,"min":85,"max":170,"target":"present","response":"absent","rt":958.5,"correct":false,"confidence":5},{"trial_n":28,"min":81,"max":174,"target":"present","response":"present","rt":1100.9000000954,"correct":true,"confidence":5},{"trial_n":29,"min":81,"max":174,"target":"absent","response":"absent","rt":855.89999985695,"correct":true,"confidence":4},{"trial_n":30,"min":85,"max":170,"target":"present","response":"present","rt":1979,"correct":true,"confidence":3},{"trial_n":31,"min":85,"max":170,"target":"absent","response":"absent","rt":858.40000009537,"correct":true,"confidence":3},{"trial_n":32,"min":87,"max":168,"target":"absent","response":"absent","rt":989.09999990463,"correct":true,"confidence":4},{"trial_n":33,"min":87,"max":168,"target":"present","response":"present","rt":951.5,"correct":true,"confidence":5},{"trial_n":34,"min":89,"max":166,"target":"absent","response":"present","rt":1081.7000000477,"correct":false,"confidence":4},{"trial_n":35,"min":87,"max":168,"target":"absent","response":"present","rt":991.70000004768,"correct":false,"confidence":3},{"trial_n":36,"min":85,"max":170,"target":"present","response":"present","rt":1265.2999999523,"correct":true,"confidence":5},{"trial_n":37,"min":85,"max":170,"target":"absent","response":"absent","rt":964.70000004768,"correct":true,"confidence":5},{"trial_n":38,"min":87,"max":168,"target":"absent","response":"present","rt":1038.7000000477,"correct":false,"confidence":4},{"trial_n":39,"min":85,"max":170,"target":"present","response":"present","rt":822.10000014305,"correct":true,"confidence":4},{"trial_n":40,"min":85,"max":170,"target":"present","response":"present","rt":936.09999990463,"correct":true,"confidence":5},{"trial_n":41,"min":86,"max":169,"target":"present","response":"present","rt":1290.5999999046,"correct":true,"confidence":4},{"trial_n":42,"min":86,"max":169,"target":"absent","response":"absent","rt":880.89999985695,"correct":true,"confidence":5},{"trial_n":43,"min":87,"max":168,"target":"present","response":"present","rt":1340.7000000477,"correct":true,"confidence":4},{"trial_n":44,"min":87,"max":168,"target":"present","response":"absent","rt":1017.8999998569,"correct":false,"confidence":4},{"trial_n":45,"min":86,"max":169,"target":"absent","response":"absent","rt":1073.5999999046,"correct":true,"confidence":4},{"trial_n":46,"min":86,"max":169,"target":"absent","response":"present","rt":905.60000014305,"correct":false,"confidence":5},{"trial_n":47,"min":85,"max":170,"target":"absent","response":"absent","rt":1006.9000000954,"correct":true,"confidence":5},{"trial_n":48,"min":85,"max":170,"target":"present","response":"absent","rt":861.60000014305,"correct":false,"confidence":5},{"trial_n":49,"min":84,"max":171,"target":"present","response":"present","rt":1082.1000001431,"correct":true,"confidence":5},{"trial_n":50,"min":84,"max":171,"target":"absent","response":"absent","rt":1076.5,"correct":true,"confidence":3},{"trial_n":51,"min":85,"max":170,"target":"present","response":"absent","rt":1301.5,"correct":false,"confidence":3},{"trial_n":52,"min":84,"max":171,"target":"absent","response":"absent","rt":848.40000009537,"correct":true,"confidence":3},{"trial_n":53,"min":84,"max":171,"target":"absent","response":"absent","rt":811.30000019073,"correct":true,"confidence":3},{"trial_n":54,"min":85,"max":170,"target":"present","response":"present","rt":1104,"correct":true,"confidence":4},{"trial_n":55,"min":85,"max":170,"target":"absent","response":"present","rt":1105.9000000954,"correct":false,"confidence":4},{"trial_n":56,"min":84,"max":171,"target":"present","response":"present","rt":927.09999990463,"correct":true,"confidence":4},{"trial_n":57,"min":84,"max":171,"target":"present","response":"present","rt":914.29999995232,"correct":true,"confidence":4},{"trial_n":58,"min":85,"max":170,"target":"present","response":"present","rt":913.39999985695,"correct":true,"confidence":5},{"trial_n":59,"min":85,"max":170,"target":"present","response":"present","rt":978,"correct":true,"confidence":5},{"trial_n":60,"min":86,"max":169,"target":"absent","response":"absent","rt":1272.2000000477,"correct":true,"confidence":4},{"trial_n":61,"min":86,"max":169,"target":"absent","response":"absent","rt":885.39999985695,"correct":true,"confidence":4},{"trial_n":62,"min":87,"max":168,"target":"present","response":"present","rt":977.70000004768,"correct":true,"confidence":5},{"trial_n":63,"min":87,"max":168,"target":"absent","response":"absent","rt":977,"correct":true,"confidence":4},{"trial_n":64,"min":88,"max":167,"target":"present","response":"present","rt":820.40000009537,"correct":true,"confidence":4},{"trial_n":65,"min":88,"max":167,"target":"present","response":"present","rt":1037.5,"correct":true,"confidence":4},{"trial_n":66,"min":89,"max":166,"target":"absent","response":"absent","rt":930.90000009537,"correct":true,"confidence":2},{"trial_n":67,"min":89,"max":166,"target":"absent","response":"absent","rt":1183.7000000477,"correct":true,"confidence":3},{"trial_n":68,"min":90,"max":165,"target":"present","response":"absent","rt":1349.0999999046,"correct":false,"confidence":3},{"trial_n":69,"min":89,"max":166,"target":"present","response":"present","rt":950.19999980927,"correct":true,"confidence":4},{"trial_n":70,"min":89,"max":166,"target":"absent","response":"present","rt":1152.7999999523,"correct":false,"confidence":3},{"trial_n":71,"min":41,"max":214,"target":"present","response":"present","rt":1467.1000001431,"correct":true,"confidence":-1},{"trial_n":72,"min":41,"max":214,"target":"present","response":"present","rt":507.40000009537,"correct":true,"confidence":-1},{"trial_n":73,"min":57,"max":198,"target":"absent","response":"absent","rt":206.30000019073,"correct":true,"confidence":-1},{"trial_n":74,"min":57,"max":198,"target":"absent","response":"absent","rt":236.80000019073,"correct":true,"confidence":-1},{"trial_n":75,"min":73,"max":182,"target":"present","response":"present","rt":353.09999990463,"correct":true,"confidence":-1},{"trial_n":76,"min":73,"max":182,"target":"absent","response":"absent","rt":497,"correct":true,"confidence":-1},{"trial_n":77,"min":89,"max":166,"target":"present","response":"present","rt":568.90000009537,"correct":true,"confidence":-1},{"trial_n":78,"min":89,"max":166,"target":"present","response":"present","rt":481.09999990463,"correct":true,"confidence":-1},{"trial_n":79,"min":105,"max":150,"target":"present","response":"present","rt":482.19999980927,"correct":true,"confidence":-1},{"trial_n":80,"min":105,"max":150,"target":"present","response":"present","rt":538.09999990463,"correct":true,"confidence":-1},{"trial_n":81,"min":113,"max":142,"target":"present","response":"present","rt":502.5,"correct":true,"confidence":-1},{"trial_n":82,"min":113,"max":142,"target":"absent","response":"present","rt":417.5,"correct":false,"confidence":-1},{"trial_n":83,"min":105,"max":150,"target":"absent","response":"absent","rt":484.5,"correct":true,"confidence":-1},{"trial_n":84,"min":105,"max":150,"target":"present","response":"present","rt":222.09999990463,"correct":true,"confidence":-1},{"trial_n":85,"min":113,"max":142,"target":"present","response":"present","rt":314.59999990463,"correct":true,"confidence":-1},{"trial_n":86,"min":113,"max":142,"target":"absent","response":"absent","rt":761.5,"correct":true,"confidence":-1},{"trial_n":87,"min":121,"max":134,"target":"absent","response":"present","rt":212.5,"correct":false,"confidence":-1},{"trial_n":88,"min":121,"max":134,"target":"absent","response":"absent","rt":625.79999995232,"correct":true,"confidence":-1},{"trial_n":89,"min":121,"max":134,"target":"absent","response":"absent","rt":643.20000004768,"correct":true,"confidence":-1},{"trial_n":90,"min":121,"max":134,"target":"absent","response":"present","rt":502.89999985695,"correct":false,"confidence":-1},{"trial_n":91,"min":117,"max":138,"target":"present","response":"present","rt":919.30000019073,"correct":true,"confidence":1},{"trial_n":92,"min":117,"max":138,"target":"absent","response":"absent","rt":1009.9000000954,"correct":true,"confidence":2},{"trial_n":93,"min":121,"max":134,"target":"present","response":"present","rt":783.90000009537,"correct":true,"confidence":1},{"trial_n":94,"min":121,"max":134,"target":"absent","response":"absent","rt":1886.6999998093,"correct":true,"confidence":2},{"trial_n":95,"min":125,"max":130,"target":"absent","response":"present","rt":935.10000014305,"correct":false,"confidence":3},{"trial_n":96,"min":125,"max":130,"target":"absent","response":"present","rt":831.29999995232,"correct":false,"confidence":4},{"trial_n":97,"min":125,"max":130,"target":"present","response":"absent","rt":2098.5,"correct":false,"confidence":5},{"trial_n":98,"min":125,"max":130,"target":"present","response":"absent","rt":910.59999990463,"correct":false,"confidence":5},{"trial_n":99,"min":125,"max":130,"target":"present","response":"absent","rt":1044.4000000954,"correct":false,"confidence":5},{"trial_n":100,"min":125,"max":130,"target":"present","response":"present","rt":1043.8000001907,"correct":true,"confidence":4},{"trial_n":101,"min":125,"max":130,"target":"present","response":"absent","rt":4028.0999999046,"correct":false,"confidence":4},{"trial_n":102,"min":125,"max":130,"target":"absent","response":"present","rt":962.59999990463,"correct":false,"confidence":4},{"trial_n":103,"min":125,"max":130,"target":"absent","response":"present","rt":1373,"correct":false,"confidence":5},{"trial_n":104,"min":125,"max":130,"target":"present","response":"absent","rt":756.10000014305,"correct":false,"confidence":4},{"trial_n":105,"min":125,"max":130,"target":"present","response":"absent","rt":1035.8999998569,"correct":false,"confidence":4},{"trial_n":106,"min":125,"max":130,"target":"absent","response":"present","rt":1010.5999999046,"correct":false,"confidence":4},{"trial_n":107,"min":125,"max":130,"target":"present","response":"absent","rt":809.10000014305,"correct":false,"confidence":5},{"trial_n":108,"min":125,"max":130,"target":"absent","response":"present","rt":1134.2999999523,"correct":false,"confidence":5},{"trial_n":109,"min":125,"max":130,"target":"absent","response":"present","rt":1284.9000000954,"correct":false,"confidence":5},{"trial_n":110,"min":125,"max":130,"target":"present","response":"absent","rt":917.90000009537,"correct":false,"confidence":5},{"trial_n":111,"min":124,"max":131,"target":"absent","response":"present","rt":764.59999990463,"correct":false,"confidence":2},{"trial_n":112,"min":123,"max":132,"target":"absent","response":"present","rt":580,"correct":false,"confidence":4},{"trial_n":113,"min":122,"max":133,"target":"absent","response":"present","rt":1315.1000001431,"correct":false,"confidence":4},{"trial_n":114,"min":121,"max":134,"target":"present","response":"absent","rt":773.70000004768,"correct":false,"confidence":5},{"trial_n":115,"min":120,"max":135,"target":"absent","response":"present","rt":920.10000014305,"correct":false,"confidence":4},{"trial_n":116,"min":119,"max":136,"target":"present","response":"absent","rt":2191.6999998093,"correct":false,"confidence":5},{"trial_n":117,"min":118,"max":137,"target":"present","response":"present","rt":843.5,"correct":true,"confidence":5},{"trial_n":118,"min":118,"max":137,"target":"present","response":"present","rt":1567.9000000954,"correct":true,"confidence":4},{"trial_n":119,"min":119,"max":136,"target":"absent","response":"present","rt":711.79999995232,"correct":false,"confidence":5},{"trial_n":120,"min":118,"max":137,"target":"absent","response":"present","rt":688.09999990463,"correct":false,"confidence":5},{"trial_n":121,"min":117,"max":138,"target":"present","response":"absent","rt":787,"correct":false,"confidence":5},{"trial_n":122,"min":116,"max":139,"target":"present","response":"absent","rt":1077.1000001431,"correct":false,"confidence":2},{"trial_n":123,"min":115,"max":140,"target":"present","response":"absent","rt":1616.7999999523,"correct":false,"confidence":3},{"trial_n":124,"min":114,"max":141,"target":"absent","response":"absent","rt":673.69999980927,"correct":true,"confidence":3},{"trial_n":125,"min":114,"max":141,"target":"absent","response":"absent","rt":715.70000004768,"correct":true,"confidence":3},{"trial_n":126,"min":115,"max":140,"target":"absent","response":"absent","rt":1022.8999998569,"correct":true,"confidence":3},{"trial_n":127,"min":115,"max":140,"target":"absent","response":"absent","rt":548,"correct":true,"confidence":2},{"trial_n":128,"min":116,"max":139,"target":"present","response":"absent","rt":394.20000004768,"correct":false,"confidence":1},{"trial_n":129,"min":115,"max":140,"target":"absent","response":"absent","rt":999.29999995232,"correct":true,"confidence":2},{"trial_n":130,"min":115,"max":140,"target":"present","response":"present","rt":1013.2999999523,"correct":true,"confidence":3},{"trial_n":131,"min":116,"max":139,"target":"absent","response":"present","rt":542.29999995232,"correct":false,"confidence":4},{"trial_n":132,"min":115,"max":140,"target":"absent","response":"present","rt":822,"correct":false,"confidence":4},{"trial_n":133,"min":114,"max":141,"target":"absent","response":"absent","rt":2240.3999998569,"correct":true,"confidence":4},{"trial_n":134,"min":114,"max":141,"target":"present","response":"present","rt":594.5,"correct":true,"confidence":4},{"trial_n":135,"min":115,"max":140,"target":"present","response":"absent","rt":1079.7999999523,"correct":false,"confidence":3},{"trial_n":136,"min":114,"max":141,"target":"present","response":"absent","rt":794.20000004768,"correct":false,"confidence":1},{"trial_n":137,"min":113,"max":142,"target":"present","response":"absent","rt":1155.8000001907,"correct":false,"confidence":3},{"trial_n":138,"min":112,"max":143,"target":"present","response":"present","rt":498.5,"correct":true,"confidence":3},{"trial_n":139,"min":112,"max":143,"target":"absent","response":"absent","rt":1204,"correct":true,"confidence":1},{"trial_n":140,"min":113,"max":142,"target":"present","response":"present","rt":1435.9000000954,"correct":true,"confidence":1}]