[{"trial_n":1,"span":8,"encoder":"69171303","distractor":"69131303","target":"present","response":"absent","rt":"6026","correct":false,"confidence":-1},{"trial_n":2,"span":6,"encoder":"654708","distractor":"654701","target":"present","response":"present","rt":"2601","correct":true,"confidence":-1},{"trial_n":3,"span":6,"encoder":"004645","distractor":"004145","target":"absent","response":"present","rt":"2111","correct":false,"confidence":-1},{"trial_n":4,"span":4,"encoder":"1181","distractor":"1781","target":"absent","response":"absent","rt":"1872","correct":true,"confidence":-1},{"trial_n":5,"span":4,"encoder":"3164","distractor":"3564","target":"present","response":"present","rt":"1386","correct":true,"confidence":-1},{"trial_n":6,"span":6,"encoder":"863015","distractor":"823015","target":"absent","response":"absent","rt":"2881","correct":true,"confidence":-1},{"trial_n":7,"span":6,"encoder":"369896","distractor":"269896","target":"present","response":"present","rt":"3417","correct":true,"confidence":-1},{"trial_n":8,"span":8,"encoder":"21159159","distractor":"21959159","target":"present","response":"present","rt":"3026","correct":true,"confidence":-1},{"trial_n":9,"span":8,"encoder":"26599856","distractor":"26599852","target":"absent","response":"present","rt":"3427","correct":false,"confidence":-1},{"trial_n":10,"span":6,"encoder":"192981","distractor":"172981","target":"present","response":"present","rt":"1848","correct":true,"confidence":-1},{"trial_n":11,"span":6,"encoder":"462664","distractor":"462564","target":"absent","response":"present","rt":"2397","correct":false,"confidence":-1},{"trial_n":12,"span":5,"encoder":"53807","distractor":"51807","target":"present","response":"present","rt":"1492","correct":true,"confidence":-1},{"trial_n":13,"span":5,"encoder":"36641","distractor":"32641","target":"present","response":"absent","rt":"2437","correct":false,"confidence":-1},{"trial_n":14,"span":4,"encoder":"2483","distractor":"2485","target":"absent","response":"absent","rt":"2168","correct":true,"confidence":-1},{"trial_n":15,"span":4,"encoder":"0819","distractor":"0814","target":"present","response":"present","rt":"1256","correct":true,"confidence":-1},{"trial_n":16,"span":5,"encoder":"64826","distractor":"64823","target":"absent","response":"absent","rt":"1423","correct":true,"confidence":-1},{"trial_n":17,"span":5,"encoder":"59327","distractor":"53327","target":"present","response":"present","rt":"1340","correct":true,"confidence":-1},{"trial_n":18,"span":6,"encoder":"884469","distractor":"884461","target":"absent","response":"absent","rt":"2206","correct":true,"confidence":-1},{"trial_n":19,"span":6,"encoder":"653219","distractor":"613219","target":"present","response":"present","rt":"1471","correct":true,"confidence":-1},{"trial_n":20,"span":7,"encoder":"6283406","distractor":"6283400","target":"absent","response":"absent","rt":"1734","correct":true,"confidence":-1},{"trial_n":21,"span":7,"encoder":"3263252","distractor":"3263254","target":"present","response":"present","rt":"3058","correct":true,"confidence":3},{"trial_n":22,"span":8,"encoder":"98266958","distractor":"48266958","target":"present","response":"absent","rt":"6351","correct":false,"confidence":2},{"trial_n":23,"span":7,"encoder":"7276813","distractor":"7270813","target":"present","response":"present","rt":"5494","correct":true,"confidence":2},{"trial_n":24,"span":7,"encoder":"8840417","distractor":"8849417","target":"present","response":"present","rt":"1955","correct":true,"confidence":4},{"trial_n":25,"span":8,"encoder":"19301857","distractor":"19701857","target":"present","response":"absent","rt":"2954","correct":false,"confidence":2},{"trial_n":26,"span":7,"encoder":"4210826","distractor":"4250826","target":"present","response":"present","rt":"1477","correct":true,"confidence":4},{"trial_n":27,"span":7,"encoder":"1882072","distractor":"1882572","target":"absent","response":"absent","rt":"3542","correct":true,"confidence":4},{"trial_n":28,"span":8,"encoder":"85703921","distractor":"25703921","target":"absent","response":"present","rt":"3380","correct":false,"confidence":2},{"trial_n":29,"span":7,"encoder":"4009255","distractor":"6009255","target":"absent","response":"absent","rt":"2547","correct":true,"confidence":4},{"trial_n":30,"span":7,"encoder":"2415620","distractor":"3415620","target":"absent","response":"absent","rt":"5094","correct":true,"confidence":3},{"trial_n":31,"span":8,"encoder":"82916345","distractor":"52916345","target":"present","response":"present","rt":"5174","correct":true,"confidence":4},{"trial_n":32,"span":8,"encoder":"59990552","distractor":"59590552","target":"absent","response":"absent","rt":"3540","correct":true,"confidence":4},{"trial_n":33,"span":9,"encoder":"041842159","distractor":"041842199","target":"present","response":"present","rt":"3174","correct":true,"confidence":3},{"trial_n":34,"span":9,"encoder":"464837497","distractor":"564837497","target":"present","response":"present","rt":"2135.0000000001","correct":true,"confidence":2},{"trial_n":35,"span":10,"encoder":"1259031531","distractor":"1259031731","target":"absent","response":"present","rt":"3943","correct":false,"confidence":2},{"trial_n":36,"span":9,"encoder":"759463706","distractor":"759463705","target":"present","response":"present","rt":"3248","correct":true,"confidence":3},{"trial_n":37,"span":9,"encoder":"316619423","distractor":"310619423","target":"absent","response":"absent","rt":"1662","correct":true,"confidence":3},{"trial_n":38,"span":10,"encoder":"7601054488","distractor":"7601044488","target":"absent","response":"absent","rt":"3050","correct":true,"confidence":3},{"trial_n":39,"span":10,"encoder":"0551188945","distractor":"0151188945","target":"absent","response":"absent","rt":"3071.0000000001","correct":true,"confidence":3},{"trial_n":40,"span":11,"encoder":"37632836465","distractor":"37632836464","target":"absent","response":"absent","rt":"1821","correct":true,"confidence":4},{"trial_n":41,"span":11,"encoder":"03285431844","distractor":"03385431844","target":"present","response":"absent","rt":"1816","correct":false,"confidence":3},{"trial_n":42,"span":10,"encoder":"7774240032","distractor":"7774280032","target":"present","response":"absent","rt":"5091","correct":false,"confidence":3},{"trial_n":43,"span":9,"encoder":"958485698","distractor":"958495698","target":"present","response":"absent","rt":"2321","correct":false,"confidence":1},{"trial_n":44,"span":8,"encoder":"42413525","distractor":"42412525","target":"absent","response":"present","rt":"1927","correct":false,"confidence":1},{"trial_n":45,"span":7,"encoder":"0166057","distractor":"0166457","target":"present","response":"present","rt":"2802.9999999999","correct":true,"confidence":2},{"trial_n":46,"span":7,"encoder":"5400505","distractor":"5400575","target":"absent","response":"absent","rt":"1941","correct":true,"confidence":4},{"trial_n":47,"span":8,"encoder":"86321280","distractor":"86321210","target":"present","response":"present","rt":"2027","correct":true,"confidence":2},{"trial_n":48,"span":8,"encoder":"98333566","distractor":"98330566","target":"present","response":"present","rt":"3492","correct":true,"confidence":3},{"trial_n":49,"span":9,"encoder":"780090918","distractor":"720090918","target":"present","response":"present","rt":"4688","correct":true,"confidence":3},{"trial_n":50,"span":9,"encoder":"117231319","distractor":"147231319","target":"absent","response":"present","rt":"1921","correct":false,"confidence":2},{"trial_n":51,"span":8,"encoder":"85246727","distractor":"85746727","target":"absent","response":"absent","rt":"2500.9999999999","correct":true,"confidence":3},{"trial_n":52,"span":8,"encoder":"17015502","distractor":"10015502","target":"absent","response":"absent","rt":"2497","correct":true,"confidence":3},{"trial_n":53,"span":9,"encoder":"123712358","distractor":"123712958","target":"present","response":"present","rt":"3645","correct":true,"confidence":3},{"trial_n":54,"span":9,"encoder":"570520794","distractor":"570560794","target":"absent","response":"absent","rt":"4061","correct":true,"confidence":3},{"trial_n":55,"span":10,"encoder":"1995016309","distractor":"1995018309","target":"present","response":"absent","rt":"2457.9999999999","correct":false,"confidence":1},{"trial_n":56,"span":9,"encoder":"806878041","distractor":"805878041","target":"absent","response":"present","rt":"2988","correct":false,"confidence":2},{"trial_n":57,"span":8,"encoder":"32588945","distractor":"32581945","target":"present","response":"present","rt":"7091.0000000001","correct":true,"confidence":3},{"trial_n":58,"span":8,"encoder":"33689859","distractor":"33689899","target":"present","response":"present","rt":"3640","correct":true,"confidence":2},{"trial_n":59,"span":9,"encoder":"567012988","distractor":"567072988","target":"absent","response":"present","rt":"3145","correct":false,"confidence":3},{"trial_n":60,"span":8,"encoder":"67374841","distractor":"67314841","target":"absent","response":"present","rt":"2583","correct":false,"confidence":3},{"trial_n":61,"span":7,"encoder":"9579638","distractor":"9279638","target":"absent","response":"present","rt":"1429","correct":false,"confidence":3},{"trial_n":62,"span":6,"encoder":"614767","distractor":"611767","target":"absent","response":"absent","rt":"1223","correct":true,"confidence":4},{"trial_n":63,"span":6,"encoder":"530267","distractor":"550267","target":"present","response":"present","rt":"1655","correct":true,"confidence":3},{"trial_n":64,"span":7,"encoder":"4533908","distractor":"4573908","target":"present","response":"present","rt":"2686","correct":true,"confidence":3},{"trial_n":65,"span":7,"encoder":"0716702","distractor":"0706702","target":"absent","response":"present","rt":"2800","correct":false,"confidence":2},{"trial_n":66,"span":6,"encoder":"639998","distractor":"649998","target":"present","response":"present","rt":"2090","correct":true,"confidence":3},{"trial_n":67,"span":6,"encoder":"169994","distractor":"769994","target":"absent","response":"absent","rt":"2296","correct":true,"confidence":2},{"trial_n":68,"span":7,"encoder":"8538394","distractor":"8538398","target":"absent","response":"absent","rt":"1517","correct":true,"confidence":3},{"trial_n":69,"span":7,"encoder":"0408697","distractor":"0408698","target":"absent","response":"absent","rt":"1575","correct":true,"confidence":4},{"trial_n":70,"span":8,"encoder":"70307927","distractor":"70307827","target":"present","response":"present","rt":"3619","correct":true,"confidence":3},{"trial_n":71,"span":8,"encoder":"89497414","distractor":"89497484","target":"present","response":"present","rt":"1726","correct":true,"confidence":-1},{"trial_n":72,"span":8,"encoder":"57291171","distractor":"57291131","target":"present","response":"present","rt":"3660","correct":true,"confidence":-1},{"trial_n":73,"span":9,"encoder":"953230211","distractor":"953232211","target":"absent","response":"absent","rt":"2837","correct":true,"confidence":-1},{"trial_n":74,"span":9,"encoder":"074580492","distractor":"074580491","target":"absent","response":"absent","rt":"1726","correct":true,"confidence":-1},{"trial_n":75,"span":10,"encoder":"0873234485","distractor":"1873234485","target":"present","response":"present","rt":"7388","correct":true,"confidence":-1},{"trial_n":76,"span":10,"encoder":"0170199351","distractor":"0870199351","target":"absent","response":"absent","rt":"2957.9999999999","correct":true,"confidence":-1},{"trial_n":77,"span":11,"encoder":"79597901842","distractor":"79597905842","target":"present","response":"present","rt":"2096","correct":true,"confidence":-1},{"trial_n":78,"span":11,"encoder":"71742763022","distractor":"71742703022","target":"present","response":"present","rt":"2213","correct":true,"confidence":-1},{"trial_n":79,"span":12,"encoder":"683945593807","distractor":"683945693807","target":"present","response":"present","rt":"5557","correct":true,"confidence":-1},{"trial_n":80,"span":12,"encoder":"777547390423","distractor":"777547390823","target":"absent","response":"absent","rt":"4702","correct":true,"confidence":-1},{"trial_n":81,"span":13,"encoder":"2995191103215","distractor":"2995111103215","target":"absent","response":"absent","rt":"5206","correct":true,"confidence":-1},{"trial_n":82,"span":13,"encoder":"7865659965819","distractor":"7265659965819","target":"absent","response":"present","rt":"5639.9999999999","correct":false,"confidence":-1},{"trial_n":83,"span":12,"encoder":"576984775174","distractor":"570984775174","target":"present","response":"present","rt":"7956","correct":true,"confidence":-1},{"trial_n":84,"span":12,"encoder":"142212597541","distractor":"142212597549","target":"absent","response":"absent","rt":"1726","correct":true,"confidence":-1},{"trial_n":85,"span":13,"encoder":"6249633193908","distractor":"6259633193908","target":"absent","response":"present","rt":"7555.0000000001","correct":false,"confidence":-1},{"trial_n":86,"span":12,"encoder":"474703612587","distractor":"474703612577","target":"absent","response":"present","rt":"2079","correct":false,"confidence":-1},{"trial_n":87,"span":11,"encoder":"70024019378","distractor":"70024019308","target":"present","response":"present","rt":"2308","correct":true,"confidence":-1},{"trial_n":88,"span":11,"encoder":"19598650369","distractor":"19598650368","target":"present","response":"present","rt":"8278","correct":true,"confidence":-1},{"trial_n":89,"span":12,"encoder":"147686993730","distractor":"147886993730","target":"present","response":"absent","rt":"3211.0000000001","correct":false,"confidence":-1},{"trial_n":90,"span":11,"encoder":"45145556035","distractor":"45145556034","target":"absent","response":"absent","rt":"11792","correct":true,"confidence":-1},{"trial_n":91,"span":11,"encoder":"51867475454","distractor":"51867475954","target":"present","response":"absent","rt":"6533","correct":false,"confidence":2},{"trial_n":92,"span":10,"encoder":"0638956274","distractor":"0648956274","target":"absent","response":"present","rt":"8151","correct":false,"confidence":3},{"trial_n":93,"span":9,"encoder":"248545668","distractor":"248543668","target":"absent","response":"absent","rt":"6212","correct":true,"confidence":2},{"trial_n":94,"span":9,"encoder":"866343412","distractor":"466343412","target":"absent","response":"present","rt":"9122","correct":false,"confidence":3},{"trial_n":95,"span":8,"encoder":"42793169","distractor":"42753169","target":"present","response":"present","rt":"5365.0000000001","correct":true,"confidence":2},{"trial_n":96,"span":8,"encoder":"94524962","distractor":"94574962","target":"present","response":"present","rt":"3672","correct":true,"confidence":2},{"trial_n":97,"span":9,"encoder":"177865611","distractor":"177565611","target":"present","response":"absent","rt":"3910","correct":false,"confidence":3},{"trial_n":98,"span":8,"encoder":"52236942","distractor":"55236942","target":"absent","response":"absent","rt":"8717.9999999999","correct":true,"confidence":3},{"trial_n":99,"span":8,"encoder":"25900460","distractor":"22900460","target":"absent","response":"absent","rt":"2829.0000000001","correct":true,"confidence":3},{"trial_n":100,"span":9,"encoder":"702553223","distractor":"602553223","target":"absent","response":"absent","rt":"4831","correct":true,"confidence":3},{"trial_n":101,"span":9,"encoder":"924402106","distractor":"724402106","target":"absent","response":"absent","rt":"2113","correct":true,"confidence":4},{"trial_n":102,"span":10,"encoder":"9316440716","distractor":"9216440716","target":"absent","response":"absent","rt":"3910","correct":true,"confidence":3},{"trial_n":103,"span":10,"encoder":"7384833233","distractor":"7384833933","target":"absent","response":"present","rt":"7332","correct":false,"confidence":2},{"trial_n":104,"span":9,"encoder":"973830533","distractor":"973838533","target":"absent","response":"present","rt":"6026.0000000001","correct":false,"confidence":2},{"trial_n":105,"span":8,"encoder":"20413157","distractor":"29413157","target":"present","response":"absent","rt":"3319","correct":false,"confidence":3},{"trial_n":106,"span":7,"encoder":"8259890","distractor":"8229890","target":"present","response":"absent","rt":"5059","correct":false,"confidence":3},{"trial_n":107,"span":6,"encoder":"196048","distractor":"196058","target":"absent","response":"absent","rt":"3077","correct":true,"confidence":4},{"trial_n":108,"span":6,"encoder":"613235","distractor":"613245","target":"present","response":"present","rt":"2051","correct":true,"confidence":4},{"trial_n":109,"span":7,"encoder":"3704971","distractor":"3764971","target":"present","response":"absent","rt":"3350","correct":false,"confidence":4},{"trial_n":110,"span":6,"encoder":"523397","distractor":"523347","target":"absent","response":"absent","rt":"5055","correct":true,"confidence":3},{"trial_n":111,"span":6,"encoder":"288114","distractor":"283114","target":"present","response":"present","rt":"2057.0000000002","correct":true,"confidence":4},{"trial_n":112,"span":7,"encoder":"2168174","distractor":"2668174","target":"present","response":"present","rt":"2884","correct":true,"confidence":2},{"trial_n":113,"span":7,"encoder":"6917139","distractor":"6917119","target":"present","response":"present","rt":"2300","correct":true,"confidence":4},{"trial_n":114,"span":8,"encoder":"81681892","distractor":"21681892","target":"absent","response":"absent","rt":"3650","correct":true,"confidence":2},{"trial_n":115,"span":8,"encoder":"85411473","distractor":"85111473","target":"absent","response":"absent","rt":"6047","correct":true,"confidence":2},{"trial_n":116,"span":9,"encoder":"272375626","distractor":"272375627","target":"present","response":"absent","rt":"2770","correct":false,"confidence":1},{"trial_n":117,"span":8,"encoder":"92531182","distractor":"92831182","target":"absent","response":"present","rt":"3318","correct":false,"confidence":3},{"trial_n":118,"span":7,"encoder":"0279207","distractor":"0779207","target":"absent","response":"absent","rt":"4266","correct":true,"confidence":3},{"trial_n":119,"span":7,"encoder":"0096256","distractor":"0096286","target":"absent","response":"present","rt":"3474","correct":false,"confidence":3},{"trial_n":120,"span":6,"encoder":"962861","distractor":"902861","target":"present","response":"absent","rt":"3421","correct":false,"confidence":1},{"trial_n":121,"span":5,"encoder":"24176","distractor":"34176","target":"present","response":"absent","rt":"1848","correct":false,"confidence":3},{"trial_n":122,"span":4,"encoder":"2848","distractor":"8848","target":"present","response":"present","rt":"2446.9999999998","correct":true,"confidence":2},{"trial_n":123,"span":4,"encoder":"5796","distractor":"5736","target":"absent","response":"absent","rt":"1285","correct":true,"confidence":5},{"trial_n":124,"span":5,"encoder":"41645","distractor":"43645","target":"present","response":"present","rt":"1952","correct":true,"confidence":3},{"trial_n":125,"span":5,"encoder":"89347","distractor":"82347","target":"present","response":"absent","rt":"37166","correct":false,"confidence":1},{"trial_n":126,"span":4,"encoder":"4290","distractor":"4490","target":"present","response":"present","rt":"2180","correct":true,"confidence":5},{"trial_n":127,"span":4,"encoder":"6882","distractor":"6888","target":"absent","response":"absent","rt":"1048","correct":true,"confidence":5},{"trial_n":128,"span":5,"encoder":"88441","distractor":"18441","target":"absent","response":"absent","rt":"1096","correct":true,"confidence":5},{"trial_n":129,"span":5,"encoder":"44234","distractor":"44235","target":"present","response":"present","rt":"1726","correct":true,"confidence":5},{"trial_n":130,"span":6,"encoder":"611950","distractor":"611990","target":"present","response":"present","rt":"1305.9999999998","correct":true,"confidence":4},{"trial_n":131,"span":6,"encoder":"819356","distractor":"816356","target":"present","response":"present","rt":"2925","correct":true,"confidence":4},{"trial_n":132,"span":7,"encoder":"3523792","distractor":"3223792","target":"absent","response":"present","rt":"3526","correct":false,"confidence":1},{"trial_n":133,"span":6,"encoder":"063470","distractor":"061470","target":"present","response":"present","rt":"3989","correct":true,"confidence":2},{"trial_n":134,"span":6,"encoder":"990472","distractor":"910472","target":"absent","response":"present","rt":"2755","correct":false,"confidence":1},{"trial_n":135,"span":5,"encoder":"26033","distractor":"26023","target":"present","response":"present","rt":"4977.0000000002","correct":true,"confidence":3},{"trial_n":136,"span":5,"encoder":"38336","distractor":"38936","target":"present","response":"present","rt":"2688","correct":true,"confidence":3},{"trial_n":137,"span":6,"encoder":"104419","distractor":"304419","target":"absent","response":"present","rt":"2135.9999999998","correct":false,"confidence":3},{"trial_n":138,"span":5,"encoder":"55760","distractor":"45760","target":"present","response":"present","rt":"2828","correct":true,"confidence":2},{"trial_n":139,"span":5,"encoder":"74711","distractor":"94711","target":"present","response":"present","rt":"1607.0000000002","correct":true,"confidence":5},{"trial_n":140,"span":6,"encoder":"179120","distractor":"179820","target":"absent","response":"present","rt":"5013.0000000002","correct":false,"confidence":2}]