[{"trial_n":1,"n_dots":4.25,"target":"left","response":"left","rt":7062.7000000477,"correct":true,"confidence":-1},{"trial_n":2,"n_dots":4.25,"target":"right","response":"right","rt":907.90000009537,"correct":true,"confidence":-1},{"trial_n":3,"n_dots":3.85,"target":"left","response":"right","rt":1071,"correct":false,"confidence":-1},{"trial_n":4,"n_dots":4.25,"target":"right","response":"right","rt":-0.099999904632568,"correct":true,"confidence":-1},{"trial_n":5,"n_dots":4.25,"target":"right","response":"right","rt":28.700000047684,"correct":true,"confidence":-1},{"trial_n":6,"n_dots":3.85,"target":"right","response":"right","rt":427,"correct":true,"confidence":-1},{"trial_n":7,"n_dots":3.85,"target":"left","response":"left","rt":714.09999990463,"correct":true,"confidence":-1},{"trial_n":8,"n_dots":3.65,"target":"right","response":"right","rt":613.60000014305,"correct":true,"confidence":-1},{"trial_n":9,"n_dots":3.65,"target":"left","response":"left","rt":608.10000014305,"correct":true,"confidence":-1},{"trial_n":10,"n_dots":3.45,"target":"right","response":"right","rt":-1.2000000476837,"correct":true,"confidence":-1},{"trial_n":11,"n_dots":3.45,"target":"left","response":"left","rt":1150.6999998093,"correct":true,"confidence":-1},{"trial_n":12,"n_dots":3.25,"target":"left","response":"left","rt":1148,"correct":true,"confidence":-1},{"trial_n":13,"n_dots":3.25,"target":"right","response":"right","rt":561.60000014305,"correct":true,"confidence":-1},{"trial_n":14,"n_dots":3.15,"target":"right","response":"right","rt":81.5,"correct":true,"confidence":-1},{"trial_n":15,"n_dots":3.15,"target":"right","response":"right","rt":223.79999995232,"correct":true,"confidence":-1},{"trial_n":16,"n_dots":3.05,"target":"left","response":"right","rt":648,"correct":false,"confidence":-1},{"trial_n":17,"n_dots":3.15,"target":"left","response":"left","rt":353.10000014305,"correct":true,"confidence":-1},{"trial_n":18,"n_dots":3.15,"target":"left","response":"left","rt":822.09999990463,"correct":true,"confidence":-1},{"trial_n":19,"n_dots":3.05,"target":"right","response":"left","rt":59.799999952316,"correct":false,"confidence":-1},{"trial_n":20,"n_dots":3.15,"target":"right","response":"right","rt":1483.7000000477,"correct":true,"confidence":-1},{"trial_n":21,"n_dots":3.15,"target":"right","response":"right","rt":3235.4000000954,"correct":true,"confidence":4},{"trial_n":22,"n_dots":3.05,"target":"left","response":"left","rt":573,"correct":true,"confidence":5},{"trial_n":23,"n_dots":3.05,"target":"right","response":"left","rt":483.19999980927,"correct":false,"confidence":4},{"trial_n":24,"n_dots":3.15,"target":"right","response":"right","rt":638.29999995232,"correct":true,"confidence":4},{"trial_n":25,"n_dots":3.15,"target":"left","response":"left","rt":501,"correct":true,"confidence":4},{"trial_n":26,"n_dots":3.05,"target":"left","response":"left","rt":480.39999985695,"correct":true,"confidence":3},{"trial_n":27,"n_dots":3.05,"target":"left","response":"right","rt":1042.1000001431,"correct":false,"confidence":4},{"trial_n":28,"n_dots":3.15,"target":"left","response":"left","rt":131.10000014305,"correct":true,"confidence":4},{"trial_n":29,"n_dots":3.15,"target":"left","response":"left","rt":1185.4000000954,"correct":true,"confidence":5},{"trial_n":30,"n_dots":3.05,"target":"right","response":"right","rt":187.80000019073,"correct":true,"confidence":4},{"trial_n":31,"n_dots":3.05,"target":"right","response":"right","rt":191.39999985695,"correct":true,"confidence":4},{"trial_n":32,"n_dots":2.95,"target":"right","response":"right","rt":364.70000004768,"correct":true,"confidence":3},{"trial_n":33,"n_dots":2.95,"target":"left","response":"left","rt":1159.7999999523,"correct":true,"confidence":5},{"trial_n":34,"n_dots":2.85,"target":"right","response":"right","rt":869.90000009537,"correct":true,"confidence":4},{"trial_n":35,"n_dots":2.85,"target":"left","response":"left","rt":801.5,"correct":true,"confidence":4},{"trial_n":36,"n_dots":2.75,"target":"right","response":"right","rt":988.29999995232,"correct":true,"confidence":4},{"trial_n":37,"n_dots":2.75,"target":"right","response":"right","rt":763.10000014305,"correct":true,"confidence":5},{"trial_n":38,"n_dots":2.65,"target":"left","response":"left","rt":741.90000009537,"correct":true,"confidence":3},{"trial_n":39,"n_dots":2.65,"target":"left","response":"right","rt":1793.4000000954,"correct":false,"confidence":4},{"trial_n":40,"n_dots":2.75,"target":"right","response":"left","rt":941.29999995232,"correct":false,"confidence":3},{"trial_n":41,"n_dots":2.85,"target":"left","response":"right","rt":950.70000004768,"correct":false,"confidence":4},{"trial_n":42,"n_dots":2.95,"target":"left","response":"left","rt":312.29999995232,"correct":true,"confidence":3},{"trial_n":43,"n_dots":2.95,"target":"right","response":"right","rt":699.90000009537,"correct":true,"confidence":4},{"trial_n":44,"n_dots":2.85,"target":"left","response":"left","rt":285.09999990463,"correct":true,"confidence":4},{"trial_n":45,"n_dots":2.85,"target":"left","response":"left","rt":451.70000004768,"correct":true,"confidence":5},{"trial_n":46,"n_dots":2.75,"target":"right","response":"right","rt":868,"correct":true,"confidence":4},{"trial_n":47,"n_dots":2.75,"target":"left","response":"right","rt":793.90000009537,"correct":false,"confidence":4},{"trial_n":48,"n_dots":2.85,"target":"left","response":"right","rt":1278.2000000477,"correct":false,"confidence":4},{"trial_n":49,"n_dots":2.95,"target":"left","response":"right","rt":1101.1000001431,"correct":false,"confidence":5},{"trial_n":50,"n_dots":3.05,"target":"left","response":"left","rt":523.09999990463,"correct":true,"confidence":5},{"trial_n":51,"n_dots":3.05,"target":"right","response":"right","rt":701.69999980927,"correct":true,"confidence":3},{"trial_n":52,"n_dots":2.95,"target":"left","response":"left","rt":1675,"correct":true,"confidence":3},{"trial_n":53,"n_dots":2.95,"target":"right","response":"right","rt":701.79999995232,"correct":true,"confidence":3},{"trial_n":54,"n_dots":2.85,"target":"right","response":"left","rt":1022.1000001431,"correct":false,"confidence":3},{"trial_n":55,"n_dots":2.95,"target":"right","response":"right","rt":761.70000004768,"correct":true,"confidence":3},{"trial_n":56,"n_dots":2.95,"target":"left","response":"left","rt":1021.7999999523,"correct":true,"confidence":3},{"trial_n":57,"n_dots":2.85,"target":"right","response":"left","rt":853.10000014305,"correct":false,"confidence":4},{"trial_n":58,"n_dots":2.95,"target":"right","response":"right","rt":6906.6999998093,"correct":true,"confidence":4},{"trial_n":59,"n_dots":2.95,"target":"right","response":"left","rt":593.5,"correct":false,"confidence":3},{"trial_n":60,"n_dots":3.05,"target":"right","response":"right","rt":1084.4000000954,"correct":true,"confidence":3},{"trial_n":61,"n_dots":3.05,"target":"left","response":"left","rt":863.29999995232,"correct":true,"confidence":4},{"trial_n":62,"n_dots":2.95,"target":"left","response":"right","rt":588,"correct":false,"confidence":4},{"trial_n":63,"n_dots":3.05,"target":"right","response":"right","rt":383.10000014305,"correct":true,"confidence":3},{"trial_n":64,"n_dots":3.05,"target":"left","response":"right","rt":515.70000004768,"correct":false,"confidence":4},{"trial_n":65,"n_dots":3.15,"target":"left","response":"right","rt":524.90000009537,"correct":false,"confidence":2},{"trial_n":66,"n_dots":3.25,"target":"right","response":"left","rt":700.20000004768,"correct":false,"confidence":2},{"trial_n":67,"n_dots":3.35,"target":"right","response":"right","rt":643.09999990463,"correct":true,"confidence":4},{"trial_n":68,"n_dots":3.35,"target":"right","response":"right","rt":508.59999990463,"correct":true,"confidence":4},{"trial_n":69,"n_dots":3.25,"target":"left","response":"right","rt":655.79999995232,"correct":false,"confidence":3},{"trial_n":70,"n_dots":3.35,"target":"left","response":"right","rt":1093.9000000954,"correct":false,"confidence":3},{"trial_n":71,"n_dots":3.45,"target":"right","response":"right","rt":738.89999985695,"correct":true,"confidence":4},{"trial_n":72,"n_dots":3.45,"target":"left","response":"left","rt":575.29999995232,"correct":true,"confidence":3},{"trial_n":73,"n_dots":3.35,"target":"right","response":"right","rt":790.60000014305,"correct":true,"confidence":3},{"trial_n":74,"n_dots":3.35,"target":"right","response":"right","rt":290.5,"correct":true,"confidence":4},{"trial_n":75,"n_dots":3.25,"target":"left","response":"left","rt":1716.9000000954,"correct":true,"confidence":3},{"trial_n":76,"n_dots":3.25,"target":"left","response":"right","rt":1473.7999999523,"correct":false,"confidence":4},{"trial_n":77,"n_dots":3.35,"target":"right","response":"right","rt":1194.5999999046,"correct":true,"confidence":3},{"trial_n":78,"n_dots":3.35,"target":"left","response":"left","rt":586.70000004768,"correct":true,"confidence":4},{"trial_n":79,"n_dots":3.25,"target":"left","response":"right","rt":1042.8000001907,"correct":false,"confidence":4},{"trial_n":80,"n_dots":3.35,"target":"right","response":"right","rt":584.40000009537,"correct":true,"confidence":3},{"trial_n":81,"n_dots":3.35,"target":"right","response":"right","rt":53,"correct":true,"confidence":4},{"trial_n":82,"n_dots":3.25,"target":"left","response":"left","rt":213.5,"correct":true,"confidence":4},{"trial_n":83,"n_dots":3.25,"target":"left","response":"right","rt":568.90000009537,"correct":false,"confidence":4},{"trial_n":84,"n_dots":3.35,"target":"left","response":"left","rt":1076,"correct":true,"confidence":2},{"trial_n":85,"n_dots":3.35,"target":"left","response":"right","rt":615.09999990463,"correct":false,"confidence":4},{"trial_n":86,"n_dots":3.45,"target":"right","response":"right","rt":459.89999985695,"correct":true,"confidence":4},{"trial_n":87,"n_dots":3.45,"target":"left","response":"left","rt":8.1000001430511,"correct":true,"confidence":4},{"trial_n":88,"n_dots":3.35,"target":"left","response":"left","rt":20.100000143051,"correct":true,"confidence":4},{"trial_n":89,"n_dots":3.35,"target":"right","response":"right","rt":36.900000095367,"correct":true,"confidence":4},{"trial_n":90,"n_dots":3.25,"target":"right","response":"right","rt":596.5,"correct":true,"confidence":4},{"trial_n":91,"n_dots":3.25,"target":"right","response":"right","rt":476.19999980927,"correct":true,"confidence":4},{"trial_n":92,"n_dots":3.15,"target":"left","response":"left","rt":660.30000019073,"correct":true,"confidence":4},{"trial_n":93,"n_dots":3.15,"target":"left","response":"left","rt":115.39999985695,"correct":true,"confidence":3},{"trial_n":94,"n_dots":3.05,"target":"left","response":"right","rt":947.59999990463,"correct":false,"confidence":3},{"trial_n":95,"n_dots":3.15,"target":"right","response":"right","rt":68.599999904633,"correct":true,"confidence":3},{"trial_n":96,"n_dots":3.15,"target":"right","response":"right","rt":149.70000004768,"correct":true,"confidence":3},{"trial_n":97,"n_dots":3.05,"target":"left","response":"left","rt":137,"correct":true,"confidence":3},{"trial_n":98,"n_dots":3.05,"target":"left","response":"right","rt":56.600000143051,"correct":false,"confidence":3},{"trial_n":99,"n_dots":3.15,"target":"left","response":"left","rt":410.5,"correct":true,"confidence":4},{"trial_n":100,"n_dots":3.15,"target":"left","response":"right","rt":2973.4000000954,"correct":false,"confidence":3},{"trial_n":101,"n_dots":3.25,"target":"left","response":"left","rt":217.79999995232,"correct":true,"confidence":4},{"trial_n":102,"n_dots":3.25,"target":"right","response":"right","rt":838.69999980927,"correct":true,"confidence":3},{"trial_n":103,"n_dots":3.15,"target":"right","response":"right","rt":177.89999985695,"correct":true,"confidence":4},{"trial_n":104,"n_dots":3.15,"target":"right","response":"left","rt":219.79999995232,"correct":false,"confidence":3},{"trial_n":105,"n_dots":3.25,"target":"right","response":"right","rt":1097.7999999523,"correct":true,"confidence":5},{"trial_n":106,"n_dots":3.25,"target":"left","response":"left","rt":103.20000004768,"correct":true,"confidence":4},{"trial_n":107,"n_dots":3.15,"target":"left","response":"left","rt":594.29999995232,"correct":true,"confidence":2},{"trial_n":108,"n_dots":3.15,"target":"right","response":"right","rt":272.10000014305,"correct":true,"confidence":4},{"trial_n":109,"n_dots":3.05,"target":"right","response":"right","rt":779.5,"correct":true,"confidence":4},{"trial_n":110,"n_dots":3.05,"target":"right","response":"left","rt":782.20000004768,"correct":false,"confidence":4},{"trial_n":111,"n_dots":3.15,"target":"right","response":"right","rt":865.60000014305,"correct":true,"confidence":5},{"trial_n":112,"n_dots":3.15,"target":"right","response":"right","rt":562.70000004768,"correct":true,"confidence":4},{"trial_n":113,"n_dots":3.05,"target":"left","response":"right","rt":944.20000004768,"correct":false,"confidence":4},{"trial_n":114,"n_dots":3.15,"target":"right","response":"right","rt":55.299999952316,"correct":true,"confidence":4},{"trial_n":115,"n_dots":3.15,"target":"left","response":"right","rt":258,"correct":false,"confidence":4},{"trial_n":116,"n_dots":3.25,"target":"right","response":"right","rt":880,"correct":true,"confidence":4},{"trial_n":117,"n_dots":3.25,"target":"left","response":"right","rt":158.40000009537,"correct":false,"confidence":5},{"trial_n":118,"n_dots":3.35,"target":"left","response":"right","rt":196.60000014305,"correct":false,"confidence":2},{"trial_n":119,"n_dots":3.45,"target":"right","response":"right","rt":418.79999995232,"correct":true,"confidence":5},{"trial_n":120,"n_dots":3.45,"target":"right","response":"right","rt":181.79999995232,"correct":true,"confidence":4}]