[{"trial_n":1,"span":8,"encoder":"96597464","distractor":"96597364","target":"present","response":"absent","rt":"15848.5","correct":false,"confidence":-1},{"trial_n":2,"span":6,"encoder":"835583","distractor":"815583","target":"present","response":"absent","rt":"2684.6000000238","correct":false,"confidence":-1},{"trial_n":3,"span":4,"encoder":"4612","distractor":"4312","target":"absent","response":"present","rt":"2619.5","correct":false,"confidence":-1},{"trial_n":4,"span":2,"encoder":"58","distractor":"54","target":"absent","response":"absent","rt":"1567.6000000238","correct":true,"confidence":-1},{"trial_n":5,"span":2,"encoder":"17","distractor":"37","target":"present","response":"present","rt":"1987","correct":true,"confidence":-1},{"trial_n":6,"span":4,"encoder":"3941","distractor":"2941","target":"present","response":"present","rt":"2873.6999999285","correct":true,"confidence":-1},{"trial_n":7,"span":4,"encoder":"4008","distractor":"4018","target":"absent","response":"absent","rt":"1758.6000000238","correct":true,"confidence":-1},{"trial_n":8,"span":6,"encoder":"958255","distractor":"958265","target":"present","response":"present","rt":"3485.1000000238","correct":true,"confidence":-1},{"trial_n":9,"span":6,"encoder":"464270","distractor":"064270","target":"absent","response":"absent","rt":"2030.7000000477","correct":true,"confidence":-1},{"trial_n":10,"span":8,"encoder":"83647258","distractor":"85647258","target":"absent","response":"present","rt":"3002","correct":false,"confidence":-1},{"trial_n":11,"span":6,"encoder":"808882","distractor":"808872","target":"present","response":"present","rt":"1643.5999999046","correct":true,"confidence":-1},{"trial_n":12,"span":6,"encoder":"721769","distractor":"721759","target":"absent","response":"absent","rt":"2578.1000000238","correct":true,"confidence":-1},{"trial_n":13,"span":7,"encoder":"0524270","distractor":"0524770","target":"present","response":"present","rt":"2623.7000000477","correct":true,"confidence":-1},{"trial_n":14,"span":7,"encoder":"8951881","distractor":"8957881","target":"absent","response":"absent","rt":"2916.7999999523","correct":true,"confidence":-1},{"trial_n":15,"span":8,"encoder":"19368615","distractor":"14368615","target":"absent","response":"present","rt":"3969.2000000477","correct":false,"confidence":-1},{"trial_n":16,"span":7,"encoder":"8666670","distractor":"8566670","target":"absent","response":"present","rt":"1282.8999999762","correct":false,"confidence":-1},{"trial_n":17,"span":6,"encoder":"115867","distractor":"615867","target":"present","response":"present","rt":"2290.7000000477","correct":true,"confidence":-1},{"trial_n":18,"span":6,"encoder":"958460","distractor":"058460","target":"present","response":"absent","rt":"2333.2999999523","correct":false,"confidence":-1},{"trial_n":19,"span":5,"encoder":"03663","distractor":"03664","target":"present","response":"present","rt":"2153.5","correct":true,"confidence":-1},{"trial_n":20,"span":5,"encoder":"27763","distractor":"27793","target":"present","response":"present","rt":"1769.7000000477","correct":true,"confidence":-1},{"trial_n":21,"span":6,"encoder":"504217","distractor":"504017","target":"present","response":"present","rt":"2074.7999999523","correct":true,"confidence":5},{"trial_n":22,"span":6,"encoder":"150927","distractor":"550927","target":"absent","response":"present","rt":"2116.7000000477","correct":false,"confidence":4},{"trial_n":23,"span":5,"encoder":"90741","distractor":"99741","target":"absent","response":"absent","rt":"1559.8999999762","correct":true,"confidence":5},{"trial_n":24,"span":5,"encoder":"03808","distractor":"03805","target":"present","response":"present","rt":"2517.6000000238","correct":true,"confidence":5},{"trial_n":25,"span":6,"encoder":"037938","distractor":"037948","target":"absent","response":"present","rt":"4564.7000000477","correct":false,"confidence":3},{"trial_n":26,"span":5,"encoder":"81959","distractor":"81957","target":"present","response":"present","rt":"1648","correct":true,"confidence":5},{"trial_n":27,"span":5,"encoder":"96094","distractor":"99094","target":"present","response":"present","rt":"1716.7999999523","correct":true,"confidence":5},{"trial_n":28,"span":6,"encoder":"175793","distractor":"179793","target":"present","response":"present","rt":"2506.5","correct":true,"confidence":5},{"trial_n":29,"span":6,"encoder":"691049","distractor":"191049","target":"absent","response":"absent","rt":"1677.1000000238","correct":true,"confidence":5},{"trial_n":30,"span":7,"encoder":"1660836","distractor":"1660436","target":"present","response":"present","rt":"2827.6000000238","correct":true,"confidence":4},{"trial_n":31,"span":7,"encoder":"7802571","distractor":"7802971","target":"absent","response":"present","rt":"4732.6000000238","correct":false,"confidence":5},{"trial_n":32,"span":6,"encoder":"529076","distractor":"569076","target":"present","response":"present","rt":"2404.2000000477","correct":true,"confidence":5},{"trial_n":33,"span":6,"encoder":"401809","distractor":"401609","target":"present","response":"present","rt":"2319.8999999762","correct":true,"confidence":5},{"trial_n":34,"span":7,"encoder":"5986226","distractor":"5986526","target":"absent","response":"absent","rt":"3156.5","correct":true,"confidence":2},{"trial_n":35,"span":7,"encoder":"1963322","distractor":"1903322","target":"absent","response":"absent","rt":"2012.7000000477","correct":true,"confidence":3},{"trial_n":36,"span":8,"encoder":"15458210","distractor":"65458210","target":"absent","response":"absent","rt":"2050.1999999285","correct":true,"confidence":5},{"trial_n":37,"span":8,"encoder":"57910170","distractor":"57910110","target":"present","response":"present","rt":"3454.8999999762","correct":true,"confidence":4},{"trial_n":38,"span":9,"encoder":"208347633","distractor":"008347633","target":"present","response":"present","rt":"3536","correct":true,"confidence":5},{"trial_n":39,"span":9,"encoder":"198304557","distractor":"198308557","target":"present","response":"present","rt":"4741.5999999046","correct":true,"confidence":5},{"trial_n":40,"span":10,"encoder":"2005460888","distractor":"4005460888","target":"absent","response":"absent","rt":"4330.2000000477","correct":true,"confidence":4},{"trial_n":41,"span":10,"encoder":"6930581224","distractor":"6130581224","target":"absent","response":"present","rt":"3880.1000000238","correct":false,"confidence":5},{"trial_n":42,"span":9,"encoder":"862002674","distractor":"862002670","target":"absent","response":"present","rt":"3596.1000000238","correct":false,"confidence":5},{"trial_n":43,"span":8,"encoder":"96381694","distractor":"96380694","target":"absent","response":"present","rt":"4258.1000000238","correct":false,"confidence":4},{"trial_n":44,"span":7,"encoder":"1878174","distractor":"1878144","target":"present","response":"present","rt":"2849.8999999762","correct":true,"confidence":5},{"trial_n":45,"span":7,"encoder":"8581235","distractor":"2581235","target":"absent","response":"absent","rt":"2214.0999999046","correct":true,"confidence":5},{"trial_n":46,"span":8,"encoder":"92899913","distractor":"92899013","target":"absent","response":"present","rt":"9842.8000000715","correct":false,"confidence":3},{"trial_n":47,"span":7,"encoder":"2817711","distractor":"2817719","target":"absent","response":"present","rt":"2432.4000000954","correct":false,"confidence":5},{"trial_n":48,"span":6,"encoder":"807802","distractor":"807002","target":"present","response":"present","rt":"1926.9000000954","correct":true,"confidence":5},{"trial_n":49,"span":6,"encoder":"993748","distractor":"493748","target":"absent","response":"absent","rt":"1964.3000000715","correct":true,"confidence":5},{"trial_n":50,"span":7,"encoder":"7233549","distractor":"7233541","target":"present","response":"present","rt":"1990.2000000477","correct":true,"confidence":5},{"trial_n":51,"span":7,"encoder":"8101197","distractor":"3101197","target":"present","response":"present","rt":"3912","correct":true,"confidence":5},{"trial_n":52,"span":8,"encoder":"32684136","distractor":"32684176","target":"present","response":"present","rt":"3850.8000000715","correct":true,"confidence":4},{"trial_n":53,"span":8,"encoder":"66121605","distractor":"66121625","target":"present","response":"present","rt":"3058.5","correct":true,"confidence":5},{"trial_n":54,"span":9,"encoder":"744150328","distractor":"744150028","target":"present","response":"present","rt":"3518.5","correct":true,"confidence":5},{"trial_n":55,"span":9,"encoder":"356187184","distractor":"856187184","target":"absent","response":"present","rt":"4413.8999999762","correct":false,"confidence":3},{"trial_n":56,"span":8,"encoder":"08803733","distractor":"08803753","target":"absent","response":"present","rt":"5302.7999999523","correct":false,"confidence":3},{"trial_n":57,"span":7,"encoder":"7048667","distractor":"7048687","target":"absent","response":"absent","rt":"4627.7999999523","correct":true,"confidence":5},{"trial_n":58,"span":7,"encoder":"7388952","distractor":"7388955","target":"present","response":"present","rt":"1917.8000000715","correct":true,"confidence":5},{"trial_n":59,"span":8,"encoder":"83386005","distractor":"83376005","target":"present","response":"present","rt":"3726.7999999523","correct":true,"confidence":5},{"trial_n":60,"span":8,"encoder":"62658371","distractor":"62657371","target":"absent","response":"present","rt":"6580.6000000238","correct":false,"confidence":5},{"trial_n":61,"span":7,"encoder":"5621754","distractor":"5623754","target":"present","response":"present","rt":"2811.1000000238","correct":true,"confidence":5},{"trial_n":62,"span":7,"encoder":"6588482","distractor":"4588482","target":"absent","response":"absent","rt":"2184","correct":true,"confidence":5},{"trial_n":63,"span":8,"encoder":"30203656","distractor":"10203656","target":"absent","response":"absent","rt":"2021.7000000477","correct":true,"confidence":5},{"trial_n":64,"span":8,"encoder":"45202660","distractor":"42202660","target":"absent","response":"absent","rt":"3524.7999999523","correct":true,"confidence":5},{"trial_n":65,"span":9,"encoder":"529423997","distractor":"529423797","target":"present","response":"present","rt":"3674.2999999523","correct":true,"confidence":4},{"trial_n":66,"span":9,"encoder":"089231946","distractor":"099231946","target":"present","response":"present","rt":"5963.1000000238","correct":true,"confidence":4},{"trial_n":67,"span":10,"encoder":"5748045474","distractor":"5742045474","target":"absent","response":"present","rt":"4851.5","correct":false,"confidence":4},{"trial_n":68,"span":9,"encoder":"022747966","distractor":"022747986","target":"present","response":"present","rt":"3476.5","correct":true,"confidence":5},{"trial_n":69,"span":9,"encoder":"930806999","distractor":"930806998","target":"present","response":"present","rt":"3939.5","correct":true,"confidence":5},{"trial_n":70,"span":10,"encoder":"3414115274","distractor":"3414115674","target":"absent","response":"present","rt":"4407.2000000477","correct":false,"confidence":5},{"trial_n":71,"span":8,"encoder":"56901211","distractor":"56901217","target":"present","response":"present","rt":"7342.4000000954","correct":true,"confidence":-1},{"trial_n":72,"span":8,"encoder":"12179108","distractor":"12179104","target":"present","response":"present","rt":"3732.7000000477","correct":true,"confidence":-1},{"trial_n":73,"span":9,"encoder":"190400041","distractor":"190400042","target":"absent","response":"absent","rt":"5714.2999999523","correct":true,"confidence":-1},{"trial_n":74,"span":9,"encoder":"509629998","distractor":"508629998","target":"absent","response":"absent","rt":"10034.299999952","correct":true,"confidence":-1},{"trial_n":75,"span":10,"encoder":"1084221740","distractor":"1084251740","target":"present","response":"present","rt":"7336.3000000715","correct":true,"confidence":-1},{"trial_n":76,"span":10,"encoder":"5185131080","distractor":"5185931080","target":"present","response":"present","rt":"3020.2000000477","correct":true,"confidence":-1},{"trial_n":77,"span":11,"encoder":"90321194900","distractor":"90324194900","target":"present","response":"present","rt":"6740.6000000238","correct":true,"confidence":-1},{"trial_n":78,"span":11,"encoder":"97309657002","distractor":"07309657002","target":"present","response":"present","rt":"4532.9000000954","correct":true,"confidence":-1},{"trial_n":79,"span":12,"encoder":"005986218027","distractor":"005986418027","target":"present","response":"present","rt":"8674.3999999762","correct":true,"confidence":-1},{"trial_n":80,"span":12,"encoder":"561571833491","distractor":"561571633491","target":"present","response":"absent","rt":"6711.2000000477","correct":false,"confidence":-1},{"trial_n":81,"span":11,"encoder":"05121582391","distractor":"05121582393","target":"present","response":"present","rt":"5541.5","correct":true,"confidence":-1},{"trial_n":82,"span":11,"encoder":"51645767416","distractor":"51645764416","target":"absent","response":"absent","rt":"13577.299999952","correct":true,"confidence":-1},{"trial_n":83,"span":12,"encoder":"179397008462","distractor":"109397008462","target":"present","response":"present","rt":"2204.3999999762","correct":true,"confidence":-1},{"trial_n":84,"span":12,"encoder":"301208088489","distractor":"301208088481","target":"absent","response":"present","rt":"6454.5","correct":false,"confidence":-1},{"trial_n":85,"span":11,"encoder":"75412317314","distractor":"65412317314","target":"present","response":"present","rt":"5601.6999999285","correct":true,"confidence":-1},{"trial_n":86,"span":11,"encoder":"98439667760","distractor":"98539667760","target":"present","response":"present","rt":"10117","correct":true,"confidence":-1},{"trial_n":87,"span":12,"encoder":"545667086785","distractor":"545667089785","target":"absent","response":"present","rt":"5860.6000000238","correct":false,"confidence":-1},{"trial_n":88,"span":11,"encoder":"19531774604","distractor":"19531774694","target":"absent","response":"absent","rt":"3797.7000000477","correct":true,"confidence":-1},{"trial_n":89,"span":11,"encoder":"68966956936","distractor":"68966952936","target":"absent","response":"absent","rt":"6239.7000000477","correct":true,"confidence":-1},{"trial_n":90,"span":12,"encoder":"385507622464","distractor":"385507622467","target":"absent","response":"absent","rt":"6502.5","correct":true,"confidence":-1},{"trial_n":91,"span":12,"encoder":"547825041915","distractor":"547825041315","target":"present","response":"present","rt":"12912.699999928","correct":true,"confidence":4},{"trial_n":92,"span":13,"encoder":"6001587877604","distractor":"6001587887604","target":"absent","response":"present","rt":"11357.299999952","correct":false,"confidence":4},{"trial_n":93,"span":12,"encoder":"737995957499","distractor":"737995057499","target":"absent","response":"absent","rt":"13594.399999976","correct":true,"confidence":5},{"trial_n":94,"span":12,"encoder":"632073943802","distractor":"632073143802","target":"present","response":"absent","rt":"3462.2000000477","correct":false,"confidence":1},{"trial_n":95,"span":11,"encoder":"03408786424","distractor":"03308786424","target":"absent","response":"absent","rt":"2829.6999999285","correct":true,"confidence":4},{"trial_n":96,"span":11,"encoder":"48626396393","distractor":"48686396393","target":"present","response":"absent","rt":"8449.7000000477","correct":false,"confidence":3},{"trial_n":97,"span":10,"encoder":"2386969879","distractor":"2386269879","target":"absent","response":"absent","rt":"8408.0999999046","correct":true,"confidence":5},{"trial_n":98,"span":10,"encoder":"7537206127","distractor":"7537206125","target":"present","response":"present","rt":"8861.2000000477","correct":true,"confidence":5},{"trial_n":99,"span":11,"encoder":"60574185121","distractor":"60574115121","target":"present","response":"present","rt":"10919","correct":true,"confidence":5},{"trial_n":100,"span":11,"encoder":"94464591571","distractor":"94464591471","target":"absent","response":"absent","rt":"10503.5","correct":true,"confidence":4},{"trial_n":101,"span":12,"encoder":"216381751214","distractor":"216381751714","target":"absent","response":"absent","rt":"6664.3999999762","correct":true,"confidence":2},{"trial_n":102,"span":12,"encoder":"612208900432","distractor":"612202900432","target":"absent","response":"present","rt":"130102.4000001","correct":false,"confidence":2},{"trial_n":103,"span":11,"encoder":"50222089256","distractor":"50222084256","target":"present","response":"present","rt":"6242.7999999523","correct":true,"confidence":5},{"trial_n":104,"span":11,"encoder":"05942375627","distractor":"05642375627","target":"absent","response":"present","rt":"12681.299999952","correct":false,"confidence":4},{"trial_n":105,"span":10,"encoder":"3255099578","distractor":"3255099598","target":"present","response":"present","rt":"3348","correct":true,"confidence":5},{"trial_n":106,"span":10,"encoder":"4346923614","distractor":"2346923614","target":"present","response":"absent","rt":"7898.1000000238","correct":false,"confidence":5},{"trial_n":107,"span":9,"encoder":"540647886","distractor":"540642886","target":"absent","response":"present","rt":"6349.2000000477","correct":false,"confidence":5},{"trial_n":108,"span":8,"encoder":"45417542","distractor":"45487542","target":"present","response":"present","rt":"9822.7000000477","correct":true,"confidence":5},{"trial_n":109,"span":8,"encoder":"52326200","distractor":"52326202","target":"present","response":"present","rt":"7697.5999999046","correct":true,"confidence":5},{"trial_n":110,"span":9,"encoder":"280672050","distractor":"290672050","target":"absent","response":"absent","rt":"2348.3000000715","correct":true,"confidence":5},{"trial_n":111,"span":9,"encoder":"134936068","distractor":"104936068","target":"present","response":"present","rt":"5223","correct":true,"confidence":5},{"trial_n":112,"span":10,"encoder":"1619491935","distractor":"1612491935","target":"absent","response":"absent","rt":"4846.6999999285","correct":true,"confidence":5},{"trial_n":113,"span":10,"encoder":"2352611149","distractor":"2352631149","target":"absent","response":"absent","rt":"4568.7999999523","correct":true,"confidence":5},{"trial_n":114,"span":11,"encoder":"75249051545","distractor":"75249251545","target":"absent","response":"present","rt":"12867.199999928","correct":false,"confidence":4},{"trial_n":115,"span":10,"encoder":"5524269970","distractor":"5024269970","target":"present","response":"present","rt":"5526","correct":true,"confidence":5},{"trial_n":116,"span":10,"encoder":"4610904799","distractor":"4610904739","target":"present","response":"present","rt":"4447.2999999523","correct":true,"confidence":5},{"trial_n":117,"span":11,"encoder":"49779223913","distractor":"49799223913","target":"present","response":"present","rt":"6660.3000000715","correct":true,"confidence":5},{"trial_n":118,"span":11,"encoder":"25684536904","distractor":"25784536904","target":"absent","response":"absent","rt":"2490.9000000954","correct":true,"confidence":5},{"trial_n":119,"span":12,"encoder":"347436493529","distractor":"347436491529","target":"absent","response":"absent","rt":"19301.899999976","correct":true,"confidence":4},{"trial_n":120,"span":12,"encoder":"117449987103","distractor":"157449987103","target":"present","response":"present","rt":"8810.5","correct":true,"confidence":5},{"trial_n":121,"span":13,"encoder":"1785811886601","distractor":"1785811886681","target":"present","response":"absent","rt":"9040.6999999285","correct":false,"confidence":5},{"trial_n":122,"span":12,"encoder":"578617031070","distractor":"578717031070","target":"absent","response":"absent","rt":"9246.8000000715","correct":true,"confidence":4},{"trial_n":123,"span":12,"encoder":"641108064729","distractor":"641408064729","target":"present","response":"absent","rt":"15707.399999976","correct":false,"confidence":4},{"trial_n":124,"span":11,"encoder":"85922654093","distractor":"81922654093","target":"present","response":"present","rt":"8477.2000000477","correct":true,"confidence":5},{"trial_n":125,"span":11,"encoder":"74939443416","distractor":"54939443416","target":"present","response":"present","rt":"14853.100000024","correct":true,"confidence":5},{"trial_n":126,"span":12,"encoder":"882709553486","distractor":"882709553480","target":"absent","response":"absent","rt":"5376.4000000954","correct":true,"confidence":5},{"trial_n":127,"span":12,"encoder":"014819418063","distractor":"004819418063","target":"absent","response":"absent","rt":"2675.3000000715","correct":true,"confidence":5},{"trial_n":128,"span":13,"encoder":"5244165021944","distractor":"4244165021944","target":"absent","response":"absent","rt":"6029.5","correct":true,"confidence":5},{"trial_n":129,"span":13,"encoder":"6474206041208","distractor":"6474206071208","target":"absent","response":"present","rt":"23897.799999952","correct":false,"confidence":3},{"trial_n":130,"span":12,"encoder":"884143556381","distractor":"884143556385","target":"absent","response":"present","rt":"5667.8999999762","correct":false,"confidence":4},{"trial_n":131,"span":11,"encoder":"17537443132","distractor":"17537443162","target":"absent","response":"absent","rt":"4317.1000000238","correct":true,"confidence":5},{"trial_n":132,"span":11,"encoder":"70178943783","distractor":"70178943713","target":"present","response":"absent","rt":"10252.199999928","correct":false,"confidence":5},{"trial_n":133,"span":10,"encoder":"2577994630","distractor":"2577894630","target":"present","response":"present","rt":"5049.2000000477","correct":true,"confidence":5},{"trial_n":134,"span":10,"encoder":"8208065594","distractor":"5208065594","target":"absent","response":"absent","rt":"3683.8999999762","correct":true,"confidence":5},{"trial_n":135,"span":11,"encoder":"81280007932","distractor":"71280007932","target":"absent","response":"absent","rt":"3770.1000000238","correct":true,"confidence":5},{"trial_n":136,"span":11,"encoder":"72293193649","distractor":"72293183649","target":"absent","response":"absent","rt":"6025.6000000238","correct":true,"confidence":4},{"trial_n":137,"span":12,"encoder":"163413475290","distractor":"163413475292","target":"present","response":"present","rt":"2868.7999999523","correct":true,"confidence":5},{"trial_n":138,"span":12,"encoder":"169855460107","distractor":"169455460107","target":"absent","response":"absent","rt":"13204","correct":true,"confidence":4},{"trial_n":139,"span":13,"encoder":"5680422190124","distractor":"5680422290124","target":"present","response":"absent","rt":"72682.199999928","correct":false,"confidence":1},{"trial_n":140,"span":12,"encoder":"548122760137","distractor":"538122760137","target":"present","response":"absent","rt":"6481.8999999762","correct":false,"confidence":4}]