[{"trial_n":1,"n_dots":4.25,"target":"left","response":"left","rt":5674,"correct":true,"confidence":-1},{"trial_n":2,"n_dots":4.25,"target":"right","response":"right","rt":824,"correct":true,"confidence":-1},{"trial_n":3,"n_dots":3.85,"target":"left","response":"right","rt":814,"correct":false,"confidence":-1},{"trial_n":4,"n_dots":4.25,"target":"right","response":"right","rt":681,"correct":true,"confidence":-1},{"trial_n":5,"n_dots":4.25,"target":"right","response":"right","rt":716,"correct":true,"confidence":-1},{"trial_n":6,"n_dots":3.85,"target":"left","response":"left","rt":537,"correct":true,"confidence":-1},{"trial_n":7,"n_dots":3.85,"target":"left","response":"right","rt":481,"correct":false,"confidence":-1},{"trial_n":8,"n_dots":4.05,"target":"left","response":"left","rt":616.00000000001,"correct":true,"confidence":-1},{"trial_n":9,"n_dots":4.05,"target":"left","response":"left","rt":796.99999999999,"correct":true,"confidence":-1},{"trial_n":10,"n_dots":3.85,"target":"left","response":"left","rt":683,"correct":true,"confidence":-1},{"trial_n":11,"n_dots":3.85,"target":"right","response":"left","rt":759,"correct":false,"confidence":-1},{"trial_n":12,"n_dots":4.05,"target":"left","response":"right","rt":676.99999999999,"correct":false,"confidence":-1},{"trial_n":13,"n_dots":4.15,"target":"right","response":"right","rt":565,"correct":true,"confidence":-1},{"trial_n":14,"n_dots":4.15,"target":"right","response":"left","rt":688,"correct":false,"confidence":-1},{"trial_n":15,"n_dots":4.25,"target":"left","response":"left","rt":491,"correct":true,"confidence":-1},{"trial_n":16,"n_dots":4.25,"target":"right","response":"right","rt":734,"correct":true,"confidence":-1},{"trial_n":17,"n_dots":4.15,"target":"right","response":"left","rt":975,"correct":false,"confidence":-1},{"trial_n":18,"n_dots":4.25,"target":"right","response":"right","rt":1468,"correct":true,"confidence":-1},{"trial_n":19,"n_dots":4.25,"target":"left","response":"left","rt":687,"correct":true,"confidence":-1},{"trial_n":20,"n_dots":4.15,"target":"right","response":"right","rt":626,"correct":true,"confidence":-1},{"trial_n":21,"n_dots":4.15,"target":"right","response":"right","rt":2310,"correct":true,"confidence":3},{"trial_n":22,"n_dots":4.05,"target":"left","response":"left","rt":640,"correct":true,"confidence":4},{"trial_n":23,"n_dots":4.05,"target":"left","response":"left","rt":725,"correct":true,"confidence":3},{"trial_n":24,"n_dots":3.95,"target":"right","response":"left","rt":1636,"correct":false,"confidence":2},{"trial_n":25,"n_dots":4.05,"target":"left","response":"left","rt":531,"correct":true,"confidence":4},{"trial_n":26,"n_dots":4.05,"target":"left","response":"left","rt":1225,"correct":true,"confidence":4},{"trial_n":27,"n_dots":3.95,"target":"left","response":"left","rt":1430,"correct":true,"confidence":2},{"trial_n":28,"n_dots":3.95,"target":"right","response":"right","rt":2712,"correct":true,"confidence":1},{"trial_n":29,"n_dots":3.85,"target":"left","response":"left","rt":748,"correct":true,"confidence":4},{"trial_n":30,"n_dots":3.85,"target":"left","response":"left","rt":383.00000000003,"correct":true,"confidence":4},{"trial_n":31,"n_dots":3.75,"target":"left","response":"left","rt":874,"correct":true,"confidence":4},{"trial_n":32,"n_dots":3.75,"target":"left","response":"left","rt":1406,"correct":true,"confidence":3},{"trial_n":33,"n_dots":3.65,"target":"left","response":"left","rt":997,"correct":true,"confidence":2},{"trial_n":34,"n_dots":3.65,"target":"right","response":"right","rt":1428,"correct":true,"confidence":2},{"trial_n":35,"n_dots":3.55,"target":"right","response":"left","rt":469.00000000003,"correct":false,"confidence":3},{"trial_n":36,"n_dots":3.65,"target":"right","response":"right","rt":1287,"correct":true,"confidence":4},{"trial_n":37,"n_dots":3.65,"target":"right","response":"right","rt":1187,"correct":true,"confidence":3},{"trial_n":38,"n_dots":3.55,"target":"right","response":"right","rt":946,"correct":true,"confidence":4},{"trial_n":39,"n_dots":3.55,"target":"right","response":"right","rt":1084,"correct":true,"confidence":2},{"trial_n":40,"n_dots":3.45,"target":"right","response":"right","rt":1021,"correct":true,"confidence":4},{"trial_n":41,"n_dots":3.45,"target":"left","response":"left","rt":453,"correct":true,"confidence":4},{"trial_n":42,"n_dots":3.35,"target":"left","response":"right","rt":724,"correct":false,"confidence":2},{"trial_n":43,"n_dots":3.45,"target":"right","response":"right","rt":1096,"correct":true,"confidence":2},{"trial_n":44,"n_dots":3.45,"target":"left","response":"left","rt":450,"correct":true,"confidence":4},{"trial_n":45,"n_dots":3.35,"target":"right","response":"right","rt":1090.0000000001,"correct":true,"confidence":3},{"trial_n":46,"n_dots":3.35,"target":"left","response":"left","rt":340,"correct":true,"confidence":3},{"trial_n":47,"n_dots":3.25,"target":"right","response":"left","rt":472,"correct":false,"confidence":2},{"trial_n":48,"n_dots":3.35,"target":"left","response":"left","rt":397,"correct":true,"confidence":4},{"trial_n":49,"n_dots":3.35,"target":"right","response":"left","rt":269,"correct":false,"confidence":4},{"trial_n":50,"n_dots":3.45,"target":"right","response":"right","rt":867,"correct":true,"confidence":4},{"trial_n":51,"n_dots":3.45,"target":"left","response":"left","rt":1084,"correct":true,"confidence":1},{"trial_n":52,"n_dots":3.35,"target":"left","response":"left","rt":495,"correct":true,"confidence":4},{"trial_n":53,"n_dots":3.35,"target":"left","response":"left","rt":853.99999999994,"correct":true,"confidence":1},{"trial_n":54,"n_dots":3.25,"target":"right","response":"left","rt":751,"correct":false,"confidence":2},{"trial_n":55,"n_dots":3.35,"target":"left","response":"left","rt":499.00000000006,"correct":true,"confidence":2},{"trial_n":56,"n_dots":3.35,"target":"left","response":"left","rt":307,"correct":true,"confidence":4},{"trial_n":57,"n_dots":3.25,"target":"right","response":"left","rt":614,"correct":false,"confidence":3},{"trial_n":58,"n_dots":3.35,"target":"right","response":"left","rt":393,"correct":false,"confidence":5},{"trial_n":59,"n_dots":3.45,"target":"left","response":"left","rt":518,"correct":true,"confidence":5},{"trial_n":60,"n_dots":3.45,"target":"left","response":"left","rt":452,"correct":true,"confidence":4},{"trial_n":61,"n_dots":3.35,"target":"right","response":"left","rt":1526,"correct":false,"confidence":3},{"trial_n":62,"n_dots":3.45,"target":"left","response":"left","rt":373,"correct":true,"confidence":4},{"trial_n":63,"n_dots":3.45,"target":"right","response":"left","rt":715.00000000006,"correct":false,"confidence":3},{"trial_n":64,"n_dots":3.55,"target":"left","response":"left","rt":263.99999999994,"correct":true,"confidence":4},{"trial_n":65,"n_dots":3.55,"target":"right","response":"right","rt":765,"correct":true,"confidence":4},{"trial_n":66,"n_dots":3.45,"target":"left","response":"right","rt":1943.0000000001,"correct":false,"confidence":1},{"trial_n":67,"n_dots":3.55,"target":"left","response":"left","rt":297.00000000006,"correct":true,"confidence":4},{"trial_n":68,"n_dots":3.55,"target":"left","response":"left","rt":227.00000000006,"correct":true,"confidence":5},{"trial_n":69,"n_dots":3.45,"target":"left","response":"left","rt":1075.0000000001,"correct":true,"confidence":5},{"trial_n":70,"n_dots":3.45,"target":"left","response":"left","rt":407,"correct":true,"confidence":5},{"trial_n":71,"n_dots":3.35,"target":"right","response":"left","rt":755,"correct":false,"confidence":2},{"trial_n":72,"n_dots":3.45,"target":"right","response":"left","rt":230.99999999994,"correct":false,"confidence":3},{"trial_n":73,"n_dots":3.55,"target":"right","response":"left","rt":491.99999999994,"correct":false,"confidence":4},{"trial_n":74,"n_dots":3.65,"target":"left","response":"left","rt":237.00000000006,"correct":true,"confidence":5},{"trial_n":75,"n_dots":3.65,"target":"right","response":"left","rt":379,"correct":false,"confidence":4},{"trial_n":76,"n_dots":3.75,"target":"left","response":"left","rt":874,"correct":true,"confidence":5},{"trial_n":77,"n_dots":3.75,"target":"right","response":"left","rt":537.00000000006,"correct":false,"confidence":2},{"trial_n":78,"n_dots":3.85,"target":"left","response":"left","rt":888,"correct":true,"confidence":3},{"trial_n":79,"n_dots":3.85,"target":"right","response":"left","rt":753,"correct":false,"confidence":2},{"trial_n":80,"n_dots":3.95,"target":"right","response":"right","rt":1779,"correct":true,"confidence":3},{"trial_n":81,"n_dots":3.95,"target":"left","response":"left","rt":819,"correct":true,"confidence":2},{"trial_n":82,"n_dots":3.85,"target":"left","response":"left","rt":60,"correct":true,"confidence":3},{"trial_n":83,"n_dots":3.85,"target":"left","response":"left","rt":558,"correct":true,"confidence":4},{"trial_n":84,"n_dots":3.75,"target":"right","response":"right","rt":323,"correct":true,"confidence":2},{"trial_n":85,"n_dots":3.75,"target":"right","response":"left","rt":515,"correct":false,"confidence":4},{"trial_n":86,"n_dots":3.85,"target":"right","response":"right","rt":385,"correct":true,"confidence":3},{"trial_n":87,"n_dots":3.85,"target":"left","response":"left","rt":134,"correct":true,"confidence":4},{"trial_n":88,"n_dots":3.75,"target":"right","response":"right","rt":393.00000000012,"correct":true,"confidence":3},{"trial_n":89,"n_dots":3.75,"target":"right","response":"right","rt":515,"correct":true,"confidence":3},{"trial_n":90,"n_dots":3.65,"target":"right","response":"right","rt":65,"correct":true,"confidence":2},{"trial_n":91,"n_dots":3.65,"target":"right","response":"left","rt":529,"correct":false,"confidence":3},{"trial_n":92,"n_dots":3.75,"target":"left","response":"left","rt":368,"correct":true,"confidence":4},{"trial_n":93,"n_dots":3.75,"target":"right","response":"left","rt":320,"correct":false,"confidence":3},{"trial_n":94,"n_dots":3.85,"target":"right","response":"left","rt":738,"correct":false,"confidence":4},{"trial_n":95,"n_dots":3.95,"target":"right","response":"left","rt":905,"correct":false,"confidence":1},{"trial_n":96,"n_dots":4.05,"target":"left","response":"left","rt":157.99999999988,"correct":true,"confidence":4},{"trial_n":97,"n_dots":4.05,"target":"left","response":"left","rt":40,"correct":true,"confidence":3},{"trial_n":98,"n_dots":3.95,"target":"right","response":"right","rt":559,"correct":true,"confidence":3},{"trial_n":99,"n_dots":3.95,"target":"left","response":"left","rt":325,"correct":true,"confidence":2},{"trial_n":100,"n_dots":3.85,"target":"right","response":"left","rt":245.00000000012,"correct":false,"confidence":1},{"trial_n":101,"n_dots":3.95,"target":"right","response":"right","rt":493.99999999988,"correct":true,"confidence":2},{"trial_n":102,"n_dots":3.95,"target":"right","response":"left","rt":328,"correct":false,"confidence":2},{"trial_n":103,"n_dots":4.05,"target":"left","response":"left","rt":681.00000000012,"correct":true,"confidence":4},{"trial_n":104,"n_dots":4.05,"target":"left","response":"left","rt":11,"correct":true,"confidence":4},{"trial_n":105,"n_dots":3.95,"target":"left","response":"left","rt":515,"correct":true,"confidence":5},{"trial_n":106,"n_dots":3.95,"target":"left","response":"left","rt":460,"correct":true,"confidence":4},{"trial_n":107,"n_dots":3.85,"target":"right","response":"left","rt":272,"correct":false,"confidence":4},{"trial_n":108,"n_dots":3.95,"target":"right","response":"left","rt":227,"correct":false,"confidence":3},{"trial_n":109,"n_dots":4.05,"target":"left","response":"left","rt":488,"correct":true,"confidence":5},{"trial_n":110,"n_dots":4.05,"target":"left","response":"left","rt":673.99999999988,"correct":true,"confidence":4},{"trial_n":111,"n_dots":3.95,"target":"right","response":"right","rt":429,"correct":true,"confidence":4},{"trial_n":112,"n_dots":3.95,"target":"left","response":"left","rt":280.99999999988,"correct":true,"confidence":4},{"trial_n":113,"n_dots":3.85,"target":"right","response":"right","rt":487,"correct":true,"confidence":3},{"trial_n":114,"n_dots":3.85,"target":"right","response":"right","rt":446,"correct":true,"confidence":3},{"trial_n":115,"n_dots":3.75,"target":"right","response":"right","rt":441,"correct":true,"confidence":2},{"trial_n":116,"n_dots":3.75,"target":"left","response":"left","rt":475,"correct":true,"confidence":3},{"trial_n":117,"n_dots":3.65,"target":"right","response":"right","rt":295,"correct":true,"confidence":3},{"trial_n":118,"n_dots":3.65,"target":"right","response":"right","rt":119,"correct":true,"confidence":2},{"trial_n":119,"n_dots":3.55,"target":"left","response":"left","rt":366,"correct":true,"confidence":3},{"trial_n":120,"n_dots":3.55,"target":"left","response":"left","rt":523,"correct":true,"confidence":2}]