[{"trial_n":1,"min":25,"max":230,"target":"present","response":"present","rt":6516,"correct":true,"confidence":-1},{"trial_n":2,"min":25,"max":230,"target":"present","response":"absent","rt":4197,"correct":false,"confidence":-1},{"trial_n":3,"min":9,"max":246,"target":"absent","response":"present","rt":5736,"correct":false,"confidence":-1},{"trial_n":4,"min":0,"max":255,"target":"absent","response":"absent","rt":733,"correct":true,"confidence":-1},{"trial_n":5,"min":0,"max":255,"target":"present","response":"absent","rt":698,"correct":false,"confidence":-1},{"trial_n":6,"min":0,"max":255,"target":"absent","response":"absent","rt":633,"correct":true,"confidence":-1},{"trial_n":7,"min":0,"max":255,"target":"absent","response":"absent","rt":689,"correct":true,"confidence":-1},{"trial_n":8,"min":16,"max":239,"target":"present","response":"present","rt":1049,"correct":true,"confidence":-1},{"trial_n":9,"min":16,"max":239,"target":"absent","response":"absent","rt":544,"correct":true,"confidence":-1},{"trial_n":10,"min":32,"max":223,"target":"present","response":"present","rt":618,"correct":true,"confidence":-1},{"trial_n":11,"min":32,"max":223,"target":"present","response":"present","rt":629,"correct":true,"confidence":-1},{"trial_n":12,"min":40,"max":215,"target":"absent","response":"absent","rt":564,"correct":true,"confidence":-1},{"trial_n":13,"min":40,"max":215,"target":"absent","response":"absent","rt":519,"correct":true,"confidence":-1},{"trial_n":14,"min":48,"max":207,"target":"present","response":"absent","rt":698,"correct":false,"confidence":-1},{"trial_n":15,"min":40,"max":215,"target":"absent","response":"absent","rt":403,"correct":true,"confidence":-1},{"trial_n":16,"min":40,"max":215,"target":"absent","response":"absent","rt":661,"correct":true,"confidence":-1},{"trial_n":17,"min":48,"max":207,"target":"present","response":"present","rt":523,"correct":true,"confidence":-1},{"trial_n":18,"min":48,"max":207,"target":"present","response":"absent","rt":693,"correct":false,"confidence":-1},{"trial_n":19,"min":40,"max":215,"target":"absent","response":"absent","rt":729,"correct":true,"confidence":-1},{"trial_n":20,"min":40,"max":215,"target":"absent","response":"absent","rt":591,"correct":true,"confidence":-1},{"trial_n":21,"min":44,"max":211,"target":"present","response":"present","rt":1740,"correct":true,"confidence":3},{"trial_n":22,"min":44,"max":211,"target":"absent","response":"absent","rt":959,"correct":true,"confidence":2},{"trial_n":23,"min":48,"max":207,"target":"present","response":"absent","rt":1129,"correct":false,"confidence":3},{"trial_n":24,"min":44,"max":211,"target":"absent","response":"absent","rt":1154,"correct":true,"confidence":3},{"trial_n":25,"min":44,"max":211,"target":"absent","response":"present","rt":1196,"correct":false,"confidence":2},{"trial_n":26,"min":40,"max":215,"target":"absent","response":"absent","rt":1311,"correct":true,"confidence":2},{"trial_n":27,"min":40,"max":215,"target":"absent","response":"absent","rt":1026,"correct":true,"confidence":3},{"trial_n":28,"min":44,"max":211,"target":"absent","response":"present","rt":1181,"correct":false,"confidence":1},{"trial_n":29,"min":40,"max":215,"target":"absent","response":"absent","rt":1092,"correct":true,"confidence":2},{"trial_n":30,"min":40,"max":215,"target":"absent","response":"present","rt":2175,"correct":false,"confidence":3},{"trial_n":31,"min":38,"max":217,"target":"present","response":"absent","rt":2149.9999999999,"correct":false,"confidence":2},{"trial_n":32,"min":36,"max":219,"target":"present","response":"present","rt":1032,"correct":true,"confidence":3},{"trial_n":33,"min":36,"max":219,"target":"present","response":"absent","rt":1085,"correct":false,"confidence":2},{"trial_n":34,"min":34,"max":221,"target":"absent","response":"absent","rt":954,"correct":true,"confidence":2},{"trial_n":35,"min":34,"max":221,"target":"present","response":"absent","rt":1297.0000000001,"correct":false,"confidence":2},{"trial_n":36,"min":32,"max":223,"target":"present","response":"present","rt":1371,"correct":true,"confidence":4},{"trial_n":37,"min":32,"max":223,"target":"present","response":"present","rt":1492,"correct":true,"confidence":4},{"trial_n":38,"min":34,"max":221,"target":"absent","response":"absent","rt":1346,"correct":true,"confidence":4},{"trial_n":39,"min":34,"max":221,"target":"present","response":"present","rt":882,"correct":true,"confidence":3},{"trial_n":40,"min":36,"max":219,"target":"present","response":"absent","rt":1054,"correct":false,"confidence":2},{"trial_n":41,"min":35,"max":220,"target":"present","response":"present","rt":1838,"correct":true,"confidence":2},{"trial_n":42,"min":35,"max":220,"target":"present","response":"present","rt":1296,"correct":true,"confidence":4},{"trial_n":43,"min":36,"max":219,"target":"present","response":"present","rt":4278,"correct":true,"confidence":4},{"trial_n":44,"min":36,"max":219,"target":"absent","response":"absent","rt":846,"correct":true,"confidence":3},{"trial_n":45,"min":37,"max":218,"target":"absent","response":"absent","rt":1018,"correct":true,"confidence":2},{"trial_n":46,"min":37,"max":218,"target":"present","response":"present","rt":987,"correct":true,"confidence":4},{"trial_n":47,"min":38,"max":217,"target":"present","response":"present","rt":1003,"correct":true,"confidence":4},{"trial_n":48,"min":38,"max":217,"target":"absent","response":"absent","rt":1043,"correct":true,"confidence":3},{"trial_n":49,"min":39,"max":216,"target":"present","response":"absent","rt":979.00000000012,"correct":false,"confidence":2},{"trial_n":50,"min":38,"max":217,"target":"present","response":"present","rt":1942,"correct":true,"confidence":3},{"trial_n":51,"min":38,"max":217,"target":"present","response":"absent","rt":1337,"correct":false,"confidence":3},{"trial_n":52,"min":37,"max":218,"target":"absent","response":"absent","rt":891,"correct":true,"confidence":4},{"trial_n":53,"min":37,"max":218,"target":"absent","response":"absent","rt":835,"correct":true,"confidence":4},{"trial_n":54,"min":38,"max":217,"target":"present","response":"present","rt":1136,"correct":true,"confidence":3},{"trial_n":55,"min":38,"max":217,"target":"present","response":"present","rt":1192,"correct":true,"confidence":4},{"trial_n":56,"min":39,"max":216,"target":"absent","response":"absent","rt":1055,"correct":true,"confidence":5},{"trial_n":57,"min":39,"max":216,"target":"present","response":"present","rt":966,"correct":true,"confidence":4},{"trial_n":58,"min":40,"max":215,"target":"absent","response":"absent","rt":1192.9999999999,"correct":true,"confidence":4},{"trial_n":59,"min":40,"max":215,"target":"absent","response":"absent","rt":869,"correct":true,"confidence":3},{"trial_n":60,"min":41,"max":214,"target":"present","response":"present","rt":1332,"correct":true,"confidence":4},{"trial_n":61,"min":41,"max":214,"target":"absent","response":"absent","rt":891.99999999988,"correct":true,"confidence":4},{"trial_n":62,"min":42,"max":213,"target":"absent","response":"absent","rt":762.00000000012,"correct":true,"confidence":3},{"trial_n":63,"min":42,"max":213,"target":"present","response":"present","rt":1365,"correct":true,"confidence":5},{"trial_n":64,"min":43,"max":212,"target":"present","response":"present","rt":1007,"correct":true,"confidence":5},{"trial_n":65,"min":43,"max":212,"target":"present","response":"present","rt":991,"correct":true,"confidence":5},{"trial_n":66,"min":44,"max":211,"target":"present","response":"present","rt":1284,"correct":true,"confidence":3},{"trial_n":67,"min":44,"max":211,"target":"absent","response":"absent","rt":942.00000000012,"correct":true,"confidence":4},{"trial_n":68,"min":45,"max":210,"target":"absent","response":"absent","rt":722.99999999988,"correct":true,"confidence":3},{"trial_n":69,"min":45,"max":210,"target":"absent","response":"absent","rt":811,"correct":true,"confidence":4},{"trial_n":70,"min":46,"max":209,"target":"present","response":"present","rt":1032.0000000001,"correct":true,"confidence":2},{"trial_n":71,"min":41,"max":214,"target":"present","response":"present","rt":4860,"correct":true,"confidence":-1},{"trial_n":72,"min":41,"max":214,"target":"present","response":"present","rt":2784,"correct":true,"confidence":-1},{"trial_n":73,"min":57,"max":198,"target":"absent","response":"absent","rt":1261,"correct":true,"confidence":-1},{"trial_n":74,"min":57,"max":198,"target":"absent","response":"absent","rt":764,"correct":true,"confidence":-1},{"trial_n":75,"min":73,"max":182,"target":"present","response":"absent","rt":1073,"correct":false,"confidence":-1},{"trial_n":76,"min":57,"max":198,"target":"absent","response":"absent","rt":771,"correct":true,"confidence":-1},{"trial_n":77,"min":57,"max":198,"target":"present","response":"absent","rt":1170,"correct":false,"confidence":-1},{"trial_n":78,"min":41,"max":214,"target":"absent","response":"present","rt":926,"correct":false,"confidence":-1},{"trial_n":79,"min":25,"max":230,"target":"present","response":"absent","rt":1108,"correct":false,"confidence":-1},{"trial_n":80,"min":9,"max":246,"target":"absent","response":"present","rt":1011,"correct":false,"confidence":-1},{"trial_n":81,"min":1,"max":254,"target":"present","response":"present","rt":1215.0000000001,"correct":true,"confidence":-1},{"trial_n":82,"min":1,"max":254,"target":"absent","response":"absent","rt":1687,"correct":true,"confidence":-1},{"trial_n":83,"min":9,"max":246,"target":"present","response":"present","rt":1012.0000000001,"correct":true,"confidence":-1},{"trial_n":84,"min":9,"max":246,"target":"absent","response":"absent","rt":1709,"correct":true,"confidence":-1},{"trial_n":85,"min":17,"max":238,"target":"present","response":"present","rt":989.99999999988,"correct":true,"confidence":-1},{"trial_n":86,"min":17,"max":238,"target":"present","response":"present","rt":1752.9999999999,"correct":true,"confidence":-1},{"trial_n":87,"min":25,"max":230,"target":"absent","response":"absent","rt":1198,"correct":true,"confidence":-1},{"trial_n":88,"min":25,"max":230,"target":"absent","response":"absent","rt":849.00000000012,"correct":true,"confidence":-1},{"trial_n":89,"min":33,"max":222,"target":"absent","response":"absent","rt":788.00000000012,"correct":true,"confidence":-1},{"trial_n":90,"min":33,"max":222,"target":"present","response":"present","rt":714.99999999988,"correct":true,"confidence":-1},{"trial_n":91,"min":37,"max":218,"target":"absent","response":"absent","rt":869,"correct":true,"confidence":3},{"trial_n":92,"min":37,"max":218,"target":"present","response":"present","rt":942,"correct":true,"confidence":4},{"trial_n":93,"min":41,"max":214,"target":"present","response":"present","rt":1058.9999999999,"correct":true,"confidence":2},{"trial_n":94,"min":41,"max":214,"target":"absent","response":"absent","rt":1019,"correct":true,"confidence":2},{"trial_n":95,"min":45,"max":210,"target":"absent","response":"absent","rt":978,"correct":true,"confidence":4},{"trial_n":96,"min":45,"max":210,"target":"present","response":"present","rt":837.99999999988,"correct":true,"confidence":3},{"trial_n":97,"min":49,"max":206,"target":"absent","response":"absent","rt":902,"correct":true,"confidence":3},{"trial_n":98,"min":49,"max":206,"target":"present","response":"present","rt":1335,"correct":true,"confidence":1},{"trial_n":99,"min":53,"max":202,"target":"absent","response":"absent","rt":968.00000000012,"correct":true,"confidence":3},{"trial_n":100,"min":53,"max":202,"target":"present","response":"present","rt":1107,"correct":true,"confidence":4},{"trial_n":101,"min":55,"max":200,"target":"present","response":"present","rt":1313.9999999998,"correct":true,"confidence":3},{"trial_n":102,"min":55,"max":200,"target":"present","response":"present","rt":1064.0000000002,"correct":true,"confidence":2},{"trial_n":103,"min":57,"max":198,"target":"present","response":"present","rt":668,"correct":true,"confidence":4},{"trial_n":104,"min":57,"max":198,"target":"absent","response":"absent","rt":939,"correct":true,"confidence":3},{"trial_n":105,"min":59,"max":196,"target":"absent","response":"absent","rt":870,"correct":true,"confidence":4},{"trial_n":106,"min":59,"max":196,"target":"present","response":"present","rt":1165,"correct":true,"confidence":3},{"trial_n":107,"min":61,"max":194,"target":"present","response":"present","rt":875,"correct":true,"confidence":2},{"trial_n":108,"min":61,"max":194,"target":"present","response":"present","rt":761,"correct":true,"confidence":4},{"trial_n":109,"min":63,"max":192,"target":"absent","response":"present","rt":1005,"correct":false,"confidence":4},{"trial_n":110,"min":61,"max":194,"target":"absent","response":"present","rt":1185,"correct":false,"confidence":1},{"trial_n":111,"min":60,"max":195,"target":"absent","response":"present","rt":1064,"correct":false,"confidence":3},{"trial_n":112,"min":59,"max":196,"target":"present","response":"present","rt":654,"correct":true,"confidence":3},{"trial_n":113,"min":59,"max":196,"target":"present","response":"present","rt":834,"correct":true,"confidence":4},{"trial_n":114,"min":60,"max":195,"target":"absent","response":"absent","rt":1255.9999999998,"correct":true,"confidence":4},{"trial_n":115,"min":60,"max":195,"target":"present","response":"present","rt":1069,"correct":true,"confidence":3},{"trial_n":116,"min":61,"max":194,"target":"present","response":"present","rt":625,"correct":true,"confidence":4},{"trial_n":117,"min":61,"max":194,"target":"present","response":"present","rt":770,"correct":true,"confidence":4},{"trial_n":118,"min":62,"max":193,"target":"absent","response":"absent","rt":914,"correct":true,"confidence":5},{"trial_n":119,"min":62,"max":193,"target":"absent","response":"present","rt":1292,"correct":false,"confidence":2},{"trial_n":120,"min":61,"max":194,"target":"present","response":"present","rt":909,"correct":true,"confidence":2},{"trial_n":121,"min":61,"max":194,"target":"absent","response":"absent","rt":1362,"correct":true,"confidence":2},{"trial_n":122,"min":62,"max":193,"target":"absent","response":"absent","rt":1006,"correct":true,"confidence":3},{"trial_n":123,"min":62,"max":193,"target":"present","response":"present","rt":821,"correct":true,"confidence":3},{"trial_n":124,"min":63,"max":192,"target":"present","response":"present","rt":741.99999999977,"correct":true,"confidence":2},{"trial_n":125,"min":63,"max":192,"target":"absent","response":"absent","rt":1000,"correct":true,"confidence":2},{"trial_n":126,"min":64,"max":191,"target":"present","response":"present","rt":935,"correct":true,"confidence":1},{"trial_n":127,"min":64,"max":191,"target":"absent","response":"absent","rt":902.99999999977,"correct":true,"confidence":4},{"trial_n":128,"min":65,"max":190,"target":"absent","response":"present","rt":1244,"correct":false,"confidence":1},{"trial_n":129,"min":64,"max":191,"target":"absent","response":"present","rt":1050,"correct":false,"confidence":1},{"trial_n":130,"min":63,"max":192,"target":"absent","response":"absent","rt":1612,"correct":true,"confidence":3},{"trial_n":131,"min":63,"max":192,"target":"absent","response":"absent","rt":916,"correct":true,"confidence":1},{"trial_n":132,"min":64,"max":191,"target":"absent","response":"absent","rt":974,"correct":true,"confidence":3},{"trial_n":133,"min":64,"max":191,"target":"present","response":"present","rt":1393.0000000002,"correct":true,"confidence":2},{"trial_n":134,"min":65,"max":190,"target":"present","response":"present","rt":1003,"correct":true,"confidence":3},{"trial_n":135,"min":65,"max":190,"target":"absent","response":"present","rt":1339,"correct":false,"confidence":3},{"trial_n":136,"min":64,"max":191,"target":"present","response":"absent","rt":1368,"correct":false,"confidence":1},{"trial_n":137,"min":63,"max":192,"target":"present","response":"present","rt":945,"correct":true,"confidence":2},{"trial_n":138,"min":63,"max":192,"target":"present","response":"present","rt":1075,"correct":true,"confidence":3},{"trial_n":139,"min":64,"max":191,"target":"absent","response":"absent","rt":1054,"correct":true,"confidence":4},{"trial_n":140,"min":64,"max":191,"target":"present","response":"present","rt":1002,"correct":true,"confidence":3}]