[{"trial_n":1,"n_dots":4.25,"target":"right","response":"right","rt":3014,"correct":true,"confidence":-1},{"trial_n":2,"n_dots":4.25,"target":"right","response":"right","rt":222,"correct":true,"confidence":-1},{"trial_n":3,"n_dots":3.85,"target":"right","response":"right","rt":408,"correct":true,"confidence":-1},{"trial_n":4,"n_dots":3.85,"target":"right","response":"right","rt":329,"correct":true,"confidence":-1},{"trial_n":5,"n_dots":3.45,"target":"left","response":"left","rt":346,"correct":true,"confidence":-1},{"trial_n":6,"n_dots":3.45,"target":"left","response":"left","rt":282.00000000001,"correct":true,"confidence":-1},{"trial_n":7,"n_dots":3.05,"target":"left","response":"left","rt":280,"correct":true,"confidence":-1},{"trial_n":8,"n_dots":3.05,"target":"right","response":"right","rt":581,"correct":true,"confidence":-1},{"trial_n":9,"n_dots":2.85,"target":"right","response":"right","rt":377.00000000001,"correct":true,"confidence":-1},{"trial_n":10,"n_dots":2.85,"target":"right","response":"right","rt":306,"correct":true,"confidence":-1},{"trial_n":11,"n_dots":2.65,"target":"left","response":"left","rt":444,"correct":true,"confidence":-1},{"trial_n":12,"n_dots":2.65,"target":"right","response":"right","rt":473,"correct":true,"confidence":-1},{"trial_n":13,"n_dots":2.55,"target":"left","response":"right","rt":328,"correct":false,"confidence":-1},{"trial_n":14,"n_dots":2.65,"target":"left","response":"left","rt":320,"correct":true,"confidence":-1},{"trial_n":15,"n_dots":2.65,"target":"right","response":"left","rt":578,"correct":false,"confidence":-1},{"trial_n":16,"n_dots":2.75,"target":"right","response":"right","rt":487,"correct":true,"confidence":-1},{"trial_n":17,"n_dots":2.75,"target":"left","response":"left","rt":335,"correct":true,"confidence":-1},{"trial_n":18,"n_dots":2.65,"target":"right","response":"right","rt":458,"correct":true,"confidence":-1},{"trial_n":19,"n_dots":2.65,"target":"right","response":"right","rt":608,"correct":true,"confidence":-1},{"trial_n":20,"n_dots":2.55,"target":"right","response":"right","rt":394,"correct":true,"confidence":-1},{"trial_n":21,"n_dots":2.55,"target":"left","response":"right","rt":761,"correct":false,"confidence":2},{"trial_n":22,"n_dots":2.65,"target":"left","response":"left","rt":2222,"correct":true,"confidence":2},{"trial_n":23,"n_dots":2.65,"target":"right","response":"left","rt":1017,"correct":false,"confidence":3},{"trial_n":24,"n_dots":2.75,"target":"right","response":"left","rt":1424,"correct":false,"confidence":2},{"trial_n":25,"n_dots":2.85,"target":"right","response":"right","rt":536,"correct":true,"confidence":3},{"trial_n":26,"n_dots":2.85,"target":"right","response":"right","rt":912,"correct":true,"confidence":3},{"trial_n":27,"n_dots":2.75,"target":"left","response":"left","rt":506.00000000001,"correct":true,"confidence":4},{"trial_n":28,"n_dots":2.75,"target":"right","response":"left","rt":1009,"correct":false,"confidence":2},{"trial_n":29,"n_dots":2.85,"target":"left","response":"left","rt":573,"correct":true,"confidence":3},{"trial_n":30,"n_dots":2.85,"target":"right","response":"right","rt":1741,"correct":true,"confidence":2},{"trial_n":31,"n_dots":2.75,"target":"left","response":"left","rt":538.99999999999,"correct":true,"confidence":4},{"trial_n":32,"n_dots":2.75,"target":"right","response":"right","rt":553,"correct":true,"confidence":3},{"trial_n":33,"n_dots":2.65,"target":"right","response":"left","rt":1385,"correct":false,"confidence":2},{"trial_n":34,"n_dots":2.75,"target":"right","response":"right","rt":377.99999999997,"correct":true,"confidence":4},{"trial_n":35,"n_dots":2.75,"target":"right","response":"right","rt":621,"correct":true,"confidence":2},{"trial_n":36,"n_dots":2.65,"target":"right","response":"right","rt":424.99999999997,"correct":true,"confidence":4},{"trial_n":37,"n_dots":2.65,"target":"right","response":"right","rt":881,"correct":true,"confidence":2},{"trial_n":38,"n_dots":2.55,"target":"left","response":"left","rt":1316,"correct":true,"confidence":1},{"trial_n":39,"n_dots":2.55,"target":"left","response":"left","rt":1161,"correct":true,"confidence":2},{"trial_n":40,"n_dots":2.45,"target":"left","response":"right","rt":678,"correct":false,"confidence":5},{"trial_n":41,"n_dots":2.55,"target":"right","response":"right","rt":334,"correct":true,"confidence":3},{"trial_n":42,"n_dots":2.55,"target":"left","response":"right","rt":3219,"correct":false,"confidence":2},{"trial_n":43,"n_dots":2.65,"target":"left","response":"left","rt":1022.9999999999,"correct":true,"confidence":4},{"trial_n":44,"n_dots":2.65,"target":"right","response":"right","rt":591,"correct":true,"confidence":4},{"trial_n":45,"n_dots":2.55,"target":"right","response":"left","rt":899,"correct":false,"confidence":3},{"trial_n":46,"n_dots":2.65,"target":"left","response":"left","rt":789,"correct":true,"confidence":2},{"trial_n":47,"n_dots":2.65,"target":"left","response":"right","rt":906,"correct":false,"confidence":1},{"trial_n":48,"n_dots":2.75,"target":"left","response":"left","rt":1537,"correct":true,"confidence":1},{"trial_n":49,"n_dots":2.75,"target":"left","response":"right","rt":822,"correct":false,"confidence":1},{"trial_n":50,"n_dots":2.85,"target":"left","response":"left","rt":1446.0000000001,"correct":true,"confidence":2},{"trial_n":51,"n_dots":2.85,"target":"right","response":"right","rt":593.00000000006,"correct":true,"confidence":3},{"trial_n":52,"n_dots":2.75,"target":"left","response":"right","rt":425.99999999994,"correct":false,"confidence":4},{"trial_n":53,"n_dots":2.85,"target":"left","response":"left","rt":789,"correct":true,"confidence":4},{"trial_n":54,"n_dots":2.85,"target":"left","response":"left","rt":659,"correct":true,"confidence":4},{"trial_n":55,"n_dots":2.75,"target":"left","response":"right","rt":1243,"correct":false,"confidence":1},{"trial_n":56,"n_dots":2.85,"target":"right","response":"right","rt":470,"correct":true,"confidence":4},{"trial_n":57,"n_dots":2.85,"target":"left","response":"left","rt":850,"correct":true,"confidence":3},{"trial_n":58,"n_dots":2.75,"target":"left","response":"left","rt":373.00000000006,"correct":true,"confidence":5},{"trial_n":59,"n_dots":2.75,"target":"right","response":"right","rt":749.00000000006,"correct":true,"confidence":4},{"trial_n":60,"n_dots":2.65,"target":"right","response":"right","rt":1017,"correct":true,"confidence":2},{"trial_n":61,"n_dots":2.65,"target":"right","response":"right","rt":737,"correct":true,"confidence":5},{"trial_n":62,"n_dots":2.55,"target":"right","response":"right","rt":778,"correct":true,"confidence":4},{"trial_n":63,"n_dots":2.55,"target":"right","response":"right","rt":720,"correct":true,"confidence":2},{"trial_n":64,"n_dots":2.45,"target":"left","response":"left","rt":1190,"correct":true,"confidence":1},{"trial_n":65,"n_dots":2.45,"target":"left","response":"left","rt":791,"correct":true,"confidence":1},{"trial_n":66,"n_dots":2.35,"target":"left","response":"right","rt":857,"correct":false,"confidence":1},{"trial_n":67,"n_dots":2.45,"target":"right","response":"left","rt":556,"correct":false,"confidence":2},{"trial_n":68,"n_dots":2.55,"target":"left","response":"right","rt":547,"correct":false,"confidence":1},{"trial_n":69,"n_dots":2.65,"target":"left","response":"right","rt":585,"correct":false,"confidence":3},{"trial_n":70,"n_dots":2.75,"target":"right","response":"right","rt":694.00000000006,"correct":true,"confidence":3},{"trial_n":71,"n_dots":2.75,"target":"right","response":"right","rt":488.00000000006,"correct":true,"confidence":3},{"trial_n":72,"n_dots":2.65,"target":"left","response":"right","rt":902,"correct":false,"confidence":2},{"trial_n":73,"n_dots":2.75,"target":"right","response":"right","rt":818,"correct":true,"confidence":3},{"trial_n":74,"n_dots":2.75,"target":"right","response":"right","rt":356.99999999994,"correct":true,"confidence":4},{"trial_n":75,"n_dots":2.65,"target":"left","response":"left","rt":1344,"correct":true,"confidence":2},{"trial_n":76,"n_dots":2.65,"target":"right","response":"right","rt":734.00000000006,"correct":true,"confidence":5},{"trial_n":77,"n_dots":2.55,"target":"left","response":"right","rt":563,"correct":false,"confidence":4},{"trial_n":78,"n_dots":2.65,"target":"right","response":"right","rt":752.99999999994,"correct":true,"confidence":4},{"trial_n":79,"n_dots":2.65,"target":"right","response":"right","rt":377,"correct":true,"confidence":5},{"trial_n":80,"n_dots":2.55,"target":"left","response":"right","rt":727,"correct":false,"confidence":3},{"trial_n":81,"n_dots":2.65,"target":"left","response":"left","rt":516,"correct":true,"confidence":4},{"trial_n":82,"n_dots":2.65,"target":"right","response":"right","rt":661,"correct":true,"confidence":4},{"trial_n":83,"n_dots":2.55,"target":"right","response":"right","rt":1356,"correct":true,"confidence":2},{"trial_n":84,"n_dots":2.55,"target":"left","response":"left","rt":603,"correct":true,"confidence":5},{"trial_n":85,"n_dots":2.45,"target":"right","response":"right","rt":537,"correct":true,"confidence":4},{"trial_n":86,"n_dots":2.45,"target":"right","response":"right","rt":593.00000000006,"correct":true,"confidence":3},{"trial_n":87,"n_dots":2.35,"target":"right","response":"right","rt":348,"correct":true,"confidence":3},{"trial_n":88,"n_dots":2.35,"target":"left","response":"left","rt":601.99999999994,"correct":true,"confidence":1},{"trial_n":89,"n_dots":2.25,"target":"left","response":"right","rt":260,"correct":false,"confidence":1},{"trial_n":90,"n_dots":2.35,"target":"left","response":"right","rt":359,"correct":false,"confidence":4},{"trial_n":91,"n_dots":2.45,"target":"right","response":"right","rt":411,"correct":true,"confidence":4},{"trial_n":92,"n_dots":2.45,"target":"right","response":"right","rt":923,"correct":true,"confidence":2},{"trial_n":93,"n_dots":2.35,"target":"left","response":"right","rt":648,"correct":false,"confidence":1},{"trial_n":94,"n_dots":2.45,"target":"right","response":"right","rt":835,"correct":true,"confidence":1},{"trial_n":95,"n_dots":2.45,"target":"left","response":"right","rt":790,"correct":false,"confidence":2},{"trial_n":96,"n_dots":2.55,"target":"right","response":"right","rt":1175,"correct":true,"confidence":1},{"trial_n":97,"n_dots":2.55,"target":"left","response":"left","rt":715.00000000006,"correct":true,"confidence":4},{"trial_n":98,"n_dots":2.45,"target":"left","response":"left","rt":602,"correct":true,"confidence":3},{"trial_n":99,"n_dots":2.45,"target":"left","response":"left","rt":793.99999999994,"correct":true,"confidence":4},{"trial_n":100,"n_dots":2.35,"target":"left","response":"left","rt":615,"correct":true,"confidence":4},{"trial_n":101,"n_dots":2.35,"target":"left","response":"left","rt":698,"correct":true,"confidence":2},{"trial_n":102,"n_dots":2.25,"target":"left","response":"left","rt":549,"correct":true,"confidence":1},{"trial_n":103,"n_dots":2.25,"target":"left","response":"left","rt":517,"correct":true,"confidence":3},{"trial_n":104,"n_dots":2.15,"target":"left","response":"left","rt":629,"correct":true,"confidence":2},{"trial_n":105,"n_dots":2.15,"target":"right","response":"right","rt":617,"correct":true,"confidence":1},{"trial_n":106,"n_dots":2.05,"target":"left","response":"left","rt":969,"correct":true,"confidence":1},{"trial_n":107,"n_dots":2.05,"target":"right","response":"right","rt":475.00000000006,"correct":true,"confidence":3},{"trial_n":108,"n_dots":1.95,"target":"right","response":"right","rt":778.00000000006,"correct":true,"confidence":1},{"trial_n":109,"n_dots":1.95,"target":"right","response":"right","rt":538,"correct":true,"confidence":2},{"trial_n":110,"n_dots":1.85,"target":"left","response":"left","rt":653,"correct":true,"confidence":3},{"trial_n":111,"n_dots":1.85,"target":"right","response":"left","rt":509,"correct":false,"confidence":3},{"trial_n":112,"n_dots":1.95,"target":"left","response":"left","rt":529,"correct":true,"confidence":3},{"trial_n":113,"n_dots":1.95,"target":"left","response":"left","rt":368,"correct":true,"confidence":4},{"trial_n":114,"n_dots":1.85,"target":"left","response":"left","rt":1721,"correct":true,"confidence":2},{"trial_n":115,"n_dots":1.85,"target":"right","response":"right","rt":419,"correct":true,"confidence":2},{"trial_n":116,"n_dots":1.75,"target":"left","response":"right","rt":336,"correct":false,"confidence":2},{"trial_n":117,"n_dots":1.85,"target":"left","response":"left","rt":307.99999999988,"correct":true,"confidence":3},{"trial_n":118,"n_dots":1.85,"target":"right","response":"right","rt":1071,"correct":true,"confidence":1},{"trial_n":119,"n_dots":1.75,"target":"right","response":"left","rt":468,"correct":false,"confidence":3},{"trial_n":120,"n_dots":1.85,"target":"left","response":"right","rt":463,"correct":false,"confidence":3}]