[{"trial_n":1,"span":8,"encoder":"24895834","distractor":"24890834","target":"present","response":"present","rt":"6390.2999999998","correct":true,"confidence":-1},{"trial_n":2,"span":8,"encoder":"34712348","distractor":"34702348","target":"present","response":"absent","rt":"1473.9000000004","correct":false,"confidence":-1},{"trial_n":3,"span":6,"encoder":"869965","distractor":"869963","target":"absent","response":"absent","rt":"1788.1000000006","correct":true,"confidence":-1},{"trial_n":4,"span":6,"encoder":"231947","distractor":"231940","target":"absent","response":"absent","rt":"3092.2999999998","correct":true,"confidence":-1},{"trial_n":5,"span":8,"encoder":"57672088","distractor":"87672088","target":"present","response":"present","rt":"2534.5","correct":true,"confidence":-1},{"trial_n":6,"span":8,"encoder":"02584800","distractor":"02984800","target":"absent","response":"present","rt":"1281.0999999996","correct":false,"confidence":-1},{"trial_n":7,"span":6,"encoder":"084462","distractor":"088462","target":"present","response":"present","rt":"1293.3999999994","correct":true,"confidence":-1},{"trial_n":8,"span":6,"encoder":"781241","distractor":"781245","target":"absent","response":"absent","rt":"2889.5","correct":true,"confidence":-1},{"trial_n":9,"span":8,"encoder":"99899559","distractor":"92899559","target":"present","response":"present","rt":"2500.4000000004","correct":true,"confidence":-1},{"trial_n":10,"span":8,"encoder":"90585598","distractor":"90585998","target":"absent","response":"present","rt":"1416.0999999996","correct":false,"confidence":-1},{"trial_n":11,"span":6,"encoder":"144689","distractor":"544689","target":"absent","response":"absent","rt":"1632.4000000004","correct":true,"confidence":-1},{"trial_n":12,"span":6,"encoder":"391230","distractor":"991230","target":"absent","response":"present","rt":"731.79999999981","correct":false,"confidence":-1},{"trial_n":13,"span":5,"encoder":"28346","distractor":"22346","target":"present","response":"present","rt":"716","correct":true,"confidence":-1},{"trial_n":14,"span":5,"encoder":"17326","distractor":"17321","target":"absent","response":"present","rt":"1241.2999999998","correct":false,"confidence":-1},{"trial_n":15,"span":4,"encoder":"7238","distractor":"6238","target":"present","response":"absent","rt":"983.70000000019","correct":false,"confidence":-1},{"trial_n":16,"span":3,"encoder":"025","distractor":"065","target":"present","response":"present","rt":"2078.7999999998","correct":true,"confidence":-1},{"trial_n":17,"span":3,"encoder":"414","distractor":"410","target":"absent","response":"absent","rt":"1437.5","correct":true,"confidence":-1},{"trial_n":18,"span":4,"encoder":"3075","distractor":"3070","target":"absent","response":"absent","rt":"1092.2000000002","correct":true,"confidence":-1},{"trial_n":19,"span":4,"encoder":"7583","distractor":"7483","target":"present","response":"present","rt":"948.20000000019","correct":true,"confidence":-1},{"trial_n":20,"span":5,"encoder":"78538","distractor":"78537","target":"present","response":"present","rt":"584.29999999981","correct":true,"confidence":-1},{"trial_n":21,"span":5,"encoder":"23882","distractor":"53882","target":"absent","response":"absent","rt":"2387.8999999994","correct":true,"confidence":3},{"trial_n":22,"span":6,"encoder":"179446","distractor":"179441","target":"absent","response":"absent","rt":"1305.8000000007","correct":true,"confidence":4},{"trial_n":23,"span":6,"encoder":"386457","distractor":"386453","target":"absent","response":"absent","rt":"4002.5","correct":true,"confidence":2},{"trial_n":24,"span":7,"encoder":"6561147","distractor":"6461147","target":"absent","response":"present","rt":"1857","correct":false,"confidence":4},{"trial_n":25,"span":6,"encoder":"489617","distractor":"489417","target":"absent","response":"present","rt":"2515.6000000006","correct":false,"confidence":3},{"trial_n":26,"span":5,"encoder":"36952","distractor":"36972","target":"absent","response":"absent","rt":"2677.7000000002","correct":true,"confidence":4},{"trial_n":27,"span":5,"encoder":"79715","distractor":"79765","target":"present","response":"absent","rt":"2317.5","correct":false,"confidence":2},{"trial_n":28,"span":4,"encoder":"1792","distractor":"1772","target":"present","response":"present","rt":"1628.1000000006","correct":true,"confidence":3},{"trial_n":29,"span":4,"encoder":"7601","distractor":"7607","target":"absent","response":"absent","rt":"2214.0999999996","correct":true,"confidence":4},{"trial_n":30,"span":5,"encoder":"29568","distractor":"89568","target":"present","response":"present","rt":"2612.2000000002","correct":true,"confidence":3},{"trial_n":31,"span":5,"encoder":"17895","distractor":"37895","target":"absent","response":"absent","rt":"1852.1999999993","correct":true,"confidence":4},{"trial_n":32,"span":6,"encoder":"935096","distractor":"925096","target":"present","response":"present","rt":"2043.1999999993","correct":true,"confidence":3},{"trial_n":33,"span":6,"encoder":"624731","distractor":"624331","target":"present","response":"present","rt":"3487.1000000006","correct":true,"confidence":3},{"trial_n":34,"span":7,"encoder":"7345681","distractor":"7375681","target":"present","response":"present","rt":"3272.8999999994","correct":true,"confidence":3},{"trial_n":35,"span":7,"encoder":"3629006","distractor":"3629036","target":"present","response":"present","rt":"2718.7999999998","correct":true,"confidence":2},{"trial_n":36,"span":8,"encoder":"40128118","distractor":"40128148","target":"absent","response":"present","rt":"2413","correct":false,"confidence":3},{"trial_n":37,"span":7,"encoder":"8869098","distractor":"8863098","target":"absent","response":"absent","rt":"3740.8000000007","correct":true,"confidence":3},{"trial_n":38,"span":7,"encoder":"3743398","distractor":"3743397","target":"present","response":"present","rt":"4439","correct":true,"confidence":2},{"trial_n":39,"span":8,"encoder":"10626264","distractor":"10626266","target":"absent","response":"absent","rt":"5124.8999999994","correct":true,"confidence":4},{"trial_n":40,"span":8,"encoder":"00285252","distractor":"00285352","target":"absent","response":"present","rt":"2602.5","correct":false,"confidence":3},{"trial_n":41,"span":7,"encoder":"6145305","distractor":"6145300","target":"present","response":"present","rt":"3292.5","correct":true,"confidence":3},{"trial_n":42,"span":7,"encoder":"8044071","distractor":"8044011","target":"present","response":"present","rt":"1817.7999999998","correct":true,"confidence":3},{"trial_n":43,"span":8,"encoder":"48136174","distractor":"18136174","target":"absent","response":"absent","rt":"4531.4000000004","correct":true,"confidence":3},{"trial_n":44,"span":8,"encoder":"01079367","distractor":"03079367","target":"absent","response":"present","rt":"4921.9000000004","correct":false,"confidence":3},{"trial_n":45,"span":7,"encoder":"5642466","distractor":"5742466","target":"present","response":"present","rt":"2264.7000000002","correct":true,"confidence":3},{"trial_n":46,"span":7,"encoder":"5422803","distractor":"5422873","target":"present","response":"present","rt":"5205.7999999998","correct":true,"confidence":2},{"trial_n":47,"span":8,"encoder":"78511342","distractor":"78501342","target":"present","response":"present","rt":"2458.0999999996","correct":true,"confidence":3},{"trial_n":48,"span":8,"encoder":"77664301","distractor":"77664361","target":"absent","response":"present","rt":"2766","correct":false,"confidence":3},{"trial_n":49,"span":7,"encoder":"7958990","distractor":"7978990","target":"absent","response":"absent","rt":"2640.8000000007","correct":true,"confidence":4},{"trial_n":50,"span":7,"encoder":"5271319","distractor":"5271318","target":"absent","response":"absent","rt":"2840.3000000007","correct":true,"confidence":4},{"trial_n":51,"span":8,"encoder":"62207299","distractor":"52207299","target":"present","response":"present","rt":"2243.7999999998","correct":true,"confidence":3},{"trial_n":52,"span":8,"encoder":"37663183","distractor":"37662183","target":"absent","response":"present","rt":"3546.4000000004","correct":false,"confidence":3},{"trial_n":53,"span":7,"encoder":"2421639","distractor":"2421629","target":"present","response":"present","rt":"2545.2000000002","correct":true,"confidence":3},{"trial_n":54,"span":7,"encoder":"9277802","distractor":"9277402","target":"present","response":"present","rt":"2638.9000000004","correct":true,"confidence":3},{"trial_n":55,"span":8,"encoder":"20555453","distractor":"20550453","target":"present","response":"present","rt":"3353.2000000002","correct":true,"confidence":3},{"trial_n":56,"span":8,"encoder":"59275399","distractor":"55275399","target":"present","response":"present","rt":"3212.9000000004","correct":true,"confidence":3},{"trial_n":57,"span":9,"encoder":"896971977","distractor":"806971977","target":"absent","response":"absent","rt":"2921","correct":true,"confidence":2},{"trial_n":58,"span":9,"encoder":"106737655","distractor":"106736655","target":"absent","response":"absent","rt":"6675.9000000004","correct":true,"confidence":2},{"trial_n":59,"span":10,"encoder":"4947237210","distractor":"4947233210","target":"present","response":"absent","rt":"4129.4000000004","correct":false,"confidence":1},{"trial_n":60,"span":9,"encoder":"034425291","distractor":"034425299","target":"present","response":"present","rt":"2395.7000000002","correct":true,"confidence":2},{"trial_n":61,"span":9,"encoder":"568944328","distractor":"568984328","target":"present","response":"present","rt":"3068.6000000006","correct":true,"confidence":3},{"trial_n":62,"span":10,"encoder":"5285514989","distractor":"5287514989","target":"absent","response":"present","rt":"3644.1000000006","correct":false,"confidence":2},{"trial_n":63,"span":9,"encoder":"123040946","distractor":"123640946","target":"present","response":"absent","rt":"2341.3999999994","correct":false,"confidence":2},{"trial_n":64,"span":8,"encoder":"95638455","distractor":"95608455","target":"present","response":"present","rt":"3990.7000000002","correct":true,"confidence":1},{"trial_n":65,"span":8,"encoder":"25933049","distractor":"25993049","target":"absent","response":"absent","rt":"3752.3999999994","correct":true,"confidence":3},{"trial_n":66,"span":9,"encoder":"685292001","distractor":"681292001","target":"present","response":"absent","rt":"4916.9000000004","correct":false,"confidence":3},{"trial_n":67,"span":8,"encoder":"60669522","distractor":"63669522","target":"present","response":"present","rt":"2976.9000000004","correct":true,"confidence":3},{"trial_n":68,"span":8,"encoder":"48236679","distractor":"42236679","target":"absent","response":"present","rt":"2861.7999999998","correct":false,"confidence":3},{"trial_n":69,"span":7,"encoder":"4445424","distractor":"4445924","target":"present","response":"absent","rt":"3242.7000000002","correct":false,"confidence":2},{"trial_n":70,"span":6,"encoder":"362157","distractor":"862157","target":"absent","response":"present","rt":"3426.1000000006","correct":false,"confidence":3},{"trial_n":71,"span":8,"encoder":"75197462","distractor":"75197402","target":"present","response":"present","rt":"2223.7999999998","correct":true,"confidence":-1},{"trial_n":72,"span":8,"encoder":"37020238","distractor":"33020238","target":"present","response":"absent","rt":"1530.9000000004","correct":false,"confidence":-1},{"trial_n":73,"span":7,"encoder":"5869887","distractor":"5899887","target":"absent","response":"absent","rt":"1939.7000000002","correct":true,"confidence":-1},{"trial_n":74,"span":7,"encoder":"6226064","distractor":"6026064","target":"absent","response":"absent","rt":"1595.5","correct":true,"confidence":-1},{"trial_n":75,"span":8,"encoder":"56031558","distractor":"56031554","target":"present","response":"present","rt":"2747.4000000004","correct":true,"confidence":-1},{"trial_n":76,"span":8,"encoder":"96914454","distractor":"96914414","target":"absent","response":"absent","rt":"4207.5999999996","correct":true,"confidence":-1},{"trial_n":77,"span":9,"encoder":"553554301","distractor":"753554301","target":"absent","response":"present","rt":"3718.3999999994","correct":false,"confidence":-1},{"trial_n":78,"span":8,"encoder":"75700235","distractor":"75700255","target":"present","response":"present","rt":"1796.6999999993","correct":true,"confidence":-1},{"trial_n":79,"span":8,"encoder":"24032102","distractor":"24022102","target":"present","response":"present","rt":"2259.2000000002","correct":true,"confidence":-1},{"trial_n":80,"span":9,"encoder":"661243322","distractor":"661240322","target":"present","response":"present","rt":"5035.7000000002","correct":true,"confidence":-1},{"trial_n":81,"span":9,"encoder":"188492723","distractor":"188492023","target":"absent","response":"present","rt":"1419.5999999996","correct":false,"confidence":-1},{"trial_n":82,"span":8,"encoder":"45630277","distractor":"45630577","target":"present","response":"absent","rt":"1435.9000000004","correct":false,"confidence":-1},{"trial_n":83,"span":7,"encoder":"4026700","distractor":"4026707","target":"present","response":"present","rt":"1773.7999999998","correct":true,"confidence":-1},{"trial_n":84,"span":7,"encoder":"9058043","distractor":"9051043","target":"present","response":"present","rt":"2919.9000000004","correct":true,"confidence":-1},{"trial_n":85,"span":8,"encoder":"60093419","distractor":"60093519","target":"absent","response":"absent","rt":"2002","correct":true,"confidence":-1},{"trial_n":86,"span":8,"encoder":"42071048","distractor":"40071048","target":"absent","response":"absent","rt":"2602.1999999993","correct":true,"confidence":-1},{"trial_n":87,"span":9,"encoder":"298649577","distractor":"998649577","target":"present","response":"absent","rt":"1434.5","correct":false,"confidence":-1},{"trial_n":88,"span":8,"encoder":"28014896","distractor":"28064896","target":"present","response":"absent","rt":"1624.8999999994","correct":false,"confidence":-1},{"trial_n":89,"span":7,"encoder":"1529131","distractor":"1524131","target":"absent","response":"absent","rt":"1881.6000000006","correct":true,"confidence":-1},{"trial_n":90,"span":7,"encoder":"0633828","distractor":"0533828","target":"present","response":"present","rt":"3284.4000000004","correct":true,"confidence":-1},{"trial_n":91,"span":8,"encoder":"24127915","distractor":"24127918","target":"present","response":"present","rt":"931.60000000056","correct":true,"confidence":3},{"trial_n":92,"span":8,"encoder":"52193367","distractor":"52199367","target":"present","response":"present","rt":"2802.5999999996","correct":true,"confidence":3},{"trial_n":93,"span":9,"encoder":"235390436","distractor":"235390434","target":"present","response":"present","rt":"2845.5","correct":true,"confidence":2},{"trial_n":94,"span":9,"encoder":"610061063","distractor":"610661063","target":"absent","response":"absent","rt":"3089.7999999998","correct":true,"confidence":3},{"trial_n":95,"span":10,"encoder":"3899279052","distractor":"3899274052","target":"absent","response":"absent","rt":"4088.5","correct":true,"confidence":3},{"trial_n":96,"span":10,"encoder":"5075049123","distractor":"5775049123","target":"absent","response":"absent","rt":"3605.2000000002","correct":true,"confidence":3},{"trial_n":97,"span":11,"encoder":"36086510415","distractor":"38086510415","target":"present","response":"present","rt":"5055.0999999996","correct":true,"confidence":4},{"trial_n":98,"span":11,"encoder":"16249781498","distractor":"16249381498","target":"absent","response":"present","rt":"4008.2999999998","correct":false,"confidence":1},{"trial_n":99,"span":10,"encoder":"6780202259","distractor":"6780202257","target":"present","response":"present","rt":"1877.8000000007","correct":true,"confidence":5},{"trial_n":100,"span":10,"encoder":"1368623536","distractor":"1361623536","target":"present","response":"absent","rt":"5268.3999999994","correct":false,"confidence":1},{"trial_n":101,"span":9,"encoder":"083814599","distractor":"083814579","target":"absent","response":"absent","rt":"3592.8000000007","correct":true,"confidence":3},{"trial_n":102,"span":9,"encoder":"626482661","distractor":"726482661","target":"absent","response":"absent","rt":"3921.7000000002","correct":true,"confidence":3},{"trial_n":103,"span":10,"encoder":"2176878303","distractor":"2176678303","target":"absent","response":"absent","rt":"3836.0999999996","correct":true,"confidence":1},{"trial_n":104,"span":10,"encoder":"0357275137","distractor":"0357275147","target":"present","response":"absent","rt":"6969","correct":false,"confidence":1},{"trial_n":105,"span":9,"encoder":"328654141","distractor":"328654841","target":"present","response":"present","rt":"3206.9000000004","correct":true,"confidence":4},{"trial_n":106,"span":9,"encoder":"271659561","distractor":"171659561","target":"present","response":"present","rt":"5347","correct":true,"confidence":1},{"trial_n":107,"span":10,"encoder":"1064854863","distractor":"1034854863","target":"absent","response":"absent","rt":"3499.5999999996","correct":true,"confidence":1},{"trial_n":108,"span":10,"encoder":"9541779869","distractor":"7541779869","target":"present","response":"present","rt":"6325.5","correct":true,"confidence":3},{"trial_n":109,"span":11,"encoder":"49493347973","distractor":"49493347970","target":"absent","response":"present","rt":"5211.9000000004","correct":false,"confidence":2},{"trial_n":110,"span":10,"encoder":"1474104514","distractor":"1474104914","target":"absent","response":"absent","rt":"2163.0999999996","correct":true,"confidence":1},{"trial_n":111,"span":10,"encoder":"4401461638","distractor":"4401461618","target":"absent","response":"absent","rt":"5445.7999999998","correct":true,"confidence":1},{"trial_n":112,"span":11,"encoder":"65432521004","distractor":"65435521004","target":"absent","response":"absent","rt":"4511.5","correct":true,"confidence":3},{"trial_n":113,"span":11,"encoder":"16089054177","distractor":"14089054177","target":"present","response":"present","rt":"3718.5","correct":true,"confidence":1},{"trial_n":114,"span":12,"encoder":"114431606783","distractor":"114431606703","target":"absent","response":"absent","rt":"4156.4000000004","correct":true,"confidence":1},{"trial_n":115,"span":12,"encoder":"358832578330","distractor":"357832578330","target":"absent","response":"absent","rt":"4087.4000000004","correct":true,"confidence":1},{"trial_n":116,"span":13,"encoder":"9512695196241","distractor":"9512695896241","target":"absent","response":"absent","rt":"3346.8999999994","correct":true,"confidence":1},{"trial_n":117,"span":13,"encoder":"7321901226505","distractor":"7321901226565","target":"absent","response":"absent","rt":"2742.2999999998","correct":true,"confidence":4},{"trial_n":118,"span":14,"encoder":"77344016330953","distractor":"77344016330923","target":"absent","response":"absent","rt":"2532","correct":true,"confidence":3},{"trial_n":119,"span":14,"encoder":"25889503695241","distractor":"25889503695221","target":"present","response":"present","rt":"3349.6999999993","correct":true,"confidence":3},{"trial_n":120,"span":15,"encoder":"038056070896479","distractor":"038056020896479","target":"absent","response":"present","rt":"6058.4000000004","correct":false,"confidence":1},{"trial_n":121,"span":14,"encoder":"67968551543642","distractor":"67968557543642","target":"present","response":"present","rt":"3022","correct":true,"confidence":1},{"trial_n":122,"span":14,"encoder":"35550399561959","distractor":"35550399501959","target":"present","response":"present","rt":"6852.8999999994","correct":true,"confidence":1},{"trial_n":123,"span":15,"encoder":"995287662560243","distractor":"995287661560243","target":"absent","response":"absent","rt":"2602.9000000004","correct":true,"confidence":1},{"trial_n":124,"span":15,"encoder":"598601447093240","distractor":"591601447093240","target":"present","response":"present","rt":"5670.1999999993","correct":true,"confidence":3},{"trial_n":125,"span":16,"encoder":"1636298913533112","distractor":"1626298913533112","target":"present","response":"present","rt":"7451.2999999998","correct":true,"confidence":2},{"trial_n":126,"span":16,"encoder":"2742012292588759","distractor":"2742012272588759","target":"present","response":"present","rt":"4225.4000000004","correct":true,"confidence":1},{"trial_n":127,"span":17,"encoder":"33470102434418375","distractor":"33470102474418375","target":"absent","response":"absent","rt":"3968.7999999998","correct":true,"confidence":1},{"trial_n":128,"span":17,"encoder":"44484899053838077","distractor":"44484899053038077","target":"present","response":"present","rt":"3490.3999999994","correct":true,"confidence":1},{"trial_n":129,"span":18,"encoder":"162439060702377534","distractor":"162439960702377534","target":"absent","response":"present","rt":"4711.4000000004","correct":false,"confidence":1},{"trial_n":130,"span":17,"encoder":"43646815534305172","distractor":"43646815234305172","target":"present","response":"present","rt":"2651.3999999994","correct":true,"confidence":1},{"trial_n":131,"span":17,"encoder":"89268521629029941","distractor":"89268521629929941","target":"absent","response":"present","rt":"3381.2000000002","correct":false,"confidence":1},{"trial_n":132,"span":16,"encoder":"0158376874398522","distractor":"0158376878398522","target":"absent","response":"absent","rt":"1657.5","correct":true,"confidence":1},{"trial_n":133,"span":16,"encoder":"5263881624633504","distractor":"5263881625633504","target":"absent","response":"present","rt":"2896.2000000002","correct":false,"confidence":1},{"trial_n":134,"span":15,"encoder":"538224599235629","distractor":"568224599235629","target":"present","response":"absent","rt":"3407.2000000002","correct":false,"confidence":1},{"trial_n":135,"span":14,"encoder":"58425316890857","distractor":"58425316860857","target":"present","response":"absent","rt":"4691.4000000004","correct":false,"confidence":1},{"trial_n":136,"span":13,"encoder":"2738659539281","distractor":"2738659519281","target":"absent","response":"present","rt":"5046.5999999996","correct":false,"confidence":1},{"trial_n":137,"span":12,"encoder":"003407415667","distractor":"003497415667","target":"present","response":"absent","rt":"2284.1000000006","correct":false,"confidence":1},{"trial_n":138,"span":11,"encoder":"46045229347","distractor":"46044229347","target":"present","response":"absent","rt":"5486","correct":false,"confidence":1},{"trial_n":139,"span":10,"encoder":"5377043525","distractor":"5377843525","target":"absent","response":"absent","rt":"5714.7000000002","correct":true,"confidence":2},{"trial_n":140,"span":10,"encoder":"3627144283","distractor":"3227144283","target":"present","response":"present","rt":"3324.7999999998","correct":true,"confidence":3}]