[{"trial_n":1,"min":25,"max":230,"target":"present","response":"absent","rt":11805,"correct":false,"confidence":-1},{"trial_n":2,"min":25,"max":230,"target":"present","response":"present","rt":669.19999999972,"correct":true,"confidence":-1},{"trial_n":3,"min":25,"max":230,"target":"absent","response":"absent","rt":455.80000000028,"correct":true,"confidence":-1},{"trial_n":4,"min":41,"max":214,"target":"absent","response":"absent","rt":470.60000000009,"correct":true,"confidence":-1},{"trial_n":5,"min":41,"max":214,"target":"present","response":"present","rt":406.89999999991,"correct":true,"confidence":-1},{"trial_n":6,"min":57,"max":198,"target":"present","response":"absent","rt":1038.5,"correct":false,"confidence":-1},{"trial_n":7,"min":41,"max":214,"target":"absent","response":"absent","rt":586,"correct":true,"confidence":-1},{"trial_n":8,"min":41,"max":214,"target":"absent","response":"absent","rt":514.10000000009,"correct":true,"confidence":-1},{"trial_n":9,"min":57,"max":198,"target":"present","response":"present","rt":582.80000000028,"correct":true,"confidence":-1},{"trial_n":10,"min":57,"max":198,"target":"absent","response":"absent","rt":449.89999999991,"correct":true,"confidence":-1},{"trial_n":11,"min":65,"max":190,"target":"present","response":"absent","rt":735.19999999972,"correct":false,"confidence":-1},{"trial_n":12,"min":57,"max":198,"target":"absent","response":"absent","rt":513.79999999981,"correct":true,"confidence":-1},{"trial_n":13,"min":57,"max":198,"target":"present","response":"present","rt":404.70000000019,"correct":true,"confidence":-1},{"trial_n":14,"min":65,"max":190,"target":"absent","response":"absent","rt":687.80000000028,"correct":true,"confidence":-1},{"trial_n":15,"min":65,"max":190,"target":"absent","response":"absent","rt":433.80000000028,"correct":true,"confidence":-1},{"trial_n":16,"min":73,"max":182,"target":"absent","response":"absent","rt":366,"correct":true,"confidence":-1},{"trial_n":17,"min":73,"max":182,"target":"present","response":"present","rt":524.80000000028,"correct":true,"confidence":-1},{"trial_n":18,"min":81,"max":174,"target":"absent","response":"absent","rt":558.70000000019,"correct":true,"confidence":-1},{"trial_n":19,"min":81,"max":174,"target":"absent","response":"present","rt":746.39999999991,"correct":false,"confidence":-1},{"trial_n":20,"min":73,"max":182,"target":"present","response":"absent","rt":484.5,"correct":false,"confidence":-1},{"trial_n":21,"min":69,"max":186,"target":"absent","response":"absent","rt":463.5,"correct":true,"confidence":3},{"trial_n":22,"min":69,"max":186,"target":"present","response":"present","rt":1579.1999999997,"correct":true,"confidence":3},{"trial_n":23,"min":73,"max":182,"target":"present","response":"present","rt":602.19999999972,"correct":true,"confidence":4},{"trial_n":24,"min":73,"max":182,"target":"absent","response":"absent","rt":1612.5,"correct":true,"confidence":2},{"trial_n":25,"min":77,"max":178,"target":"absent","response":"absent","rt":814.10000000009,"correct":true,"confidence":2},{"trial_n":26,"min":77,"max":178,"target":"absent","response":"absent","rt":863.10000000009,"correct":true,"confidence":2},{"trial_n":27,"min":81,"max":174,"target":"absent","response":"absent","rt":457.5,"correct":true,"confidence":3},{"trial_n":28,"min":81,"max":174,"target":"absent","response":"absent","rt":482.80000000028,"correct":true,"confidence":3},{"trial_n":29,"min":85,"max":170,"target":"present","response":"present","rt":509,"correct":true,"confidence":3},{"trial_n":30,"min":85,"max":170,"target":"absent","response":"absent","rt":348.5,"correct":true,"confidence":3},{"trial_n":31,"min":87,"max":168,"target":"absent","response":"absent","rt":2560.3999999999,"correct":true,"confidence":2},{"trial_n":32,"min":87,"max":168,"target":"present","response":"absent","rt":910.30000000028,"correct":false,"confidence":2},{"trial_n":33,"min":85,"max":170,"target":"present","response":"absent","rt":518.60000000009,"correct":false,"confidence":2},{"trial_n":34,"min":83,"max":172,"target":"present","response":"present","rt":921.5,"correct":true,"confidence":2},{"trial_n":35,"min":83,"max":172,"target":"absent","response":"absent","rt":426.10000000009,"correct":true,"confidence":2},{"trial_n":36,"min":85,"max":170,"target":"present","response":"absent","rt":567.39999999991,"correct":false,"confidence":2},{"trial_n":37,"min":83,"max":172,"target":"present","response":"absent","rt":423.39999999991,"correct":false,"confidence":2},{"trial_n":38,"min":81,"max":174,"target":"absent","response":"present","rt":580.69999999972,"correct":false,"confidence":3},{"trial_n":39,"min":79,"max":176,"target":"present","response":"present","rt":773.90000000037,"correct":true,"confidence":2},{"trial_n":40,"min":79,"max":176,"target":"absent","response":"absent","rt":589.69999999972,"correct":true,"confidence":2},{"trial_n":41,"min":80,"max":175,"target":"present","response":"present","rt":2036.3999999999,"correct":true,"confidence":4},{"trial_n":42,"min":80,"max":175,"target":"absent","response":"absent","rt":534,"correct":true,"confidence":2},{"trial_n":43,"min":81,"max":174,"target":"present","response":"present","rt":396.5,"correct":true,"confidence":3},{"trial_n":44,"min":81,"max":174,"target":"present","response":"present","rt":372,"correct":true,"confidence":3},{"trial_n":45,"min":82,"max":173,"target":"present","response":"present","rt":368,"correct":true,"confidence":4},{"trial_n":46,"min":82,"max":173,"target":"present","response":"absent","rt":380.60000000009,"correct":false,"confidence":3},{"trial_n":47,"min":81,"max":174,"target":"present","response":"present","rt":283.29999999981,"correct":true,"confidence":3},{"trial_n":48,"min":81,"max":174,"target":"absent","response":"absent","rt":394.39999999991,"correct":true,"confidence":2},{"trial_n":49,"min":82,"max":173,"target":"present","response":"present","rt":759.19999999972,"correct":true,"confidence":2},{"trial_n":50,"min":82,"max":173,"target":"present","response":"present","rt":624.29999999981,"correct":true,"confidence":2},{"trial_n":51,"min":83,"max":172,"target":"absent","response":"absent","rt":494.89999999991,"correct":true,"confidence":3},{"trial_n":52,"min":83,"max":172,"target":"absent","response":"absent","rt":375.19999999972,"correct":true,"confidence":2},{"trial_n":53,"min":84,"max":171,"target":"present","response":"present","rt":304.40000000037,"correct":true,"confidence":4},{"trial_n":54,"min":84,"max":171,"target":"absent","response":"absent","rt":379.89999999991,"correct":true,"confidence":3},{"trial_n":55,"min":85,"max":170,"target":"absent","response":"absent","rt":371,"correct":true,"confidence":3},{"trial_n":56,"min":85,"max":170,"target":"absent","response":"absent","rt":387,"correct":true,"confidence":3},{"trial_n":57,"min":86,"max":169,"target":"absent","response":"absent","rt":479.10000000009,"correct":true,"confidence":2},{"trial_n":58,"min":86,"max":169,"target":"present","response":"present","rt":482.89999999991,"correct":true,"confidence":4},{"trial_n":59,"min":87,"max":168,"target":"present","response":"present","rt":269.90000000037,"correct":true,"confidence":4},{"trial_n":60,"min":87,"max":168,"target":"present","response":"absent","rt":634.69999999972,"correct":false,"confidence":2},{"trial_n":61,"min":86,"max":169,"target":"absent","response":"absent","rt":937.29999999981,"correct":true,"confidence":2},{"trial_n":62,"min":86,"max":169,"target":"absent","response":"absent","rt":375.89999999991,"correct":true,"confidence":2},{"trial_n":63,"min":87,"max":168,"target":"present","response":"present","rt":356.79999999981,"correct":true,"confidence":3},{"trial_n":64,"min":87,"max":168,"target":"absent","response":"absent","rt":403.59999999963,"correct":true,"confidence":2},{"trial_n":65,"min":88,"max":167,"target":"present","response":"present","rt":498.60000000009,"correct":true,"confidence":3},{"trial_n":66,"min":88,"max":167,"target":"present","response":"present","rt":462.20000000019,"correct":true,"confidence":3},{"trial_n":67,"min":89,"max":166,"target":"present","response":"present","rt":426.19999999972,"correct":true,"confidence":2},{"trial_n":68,"min":89,"max":166,"target":"present","response":"present","rt":227.70000000019,"correct":true,"confidence":3},{"trial_n":69,"min":90,"max":165,"target":"present","response":"present","rt":924.30000000028,"correct":true,"confidence":2},{"trial_n":70,"min":90,"max":165,"target":"absent","response":"present","rt":241.5,"correct":false,"confidence":3},{"trial_n":71,"min":41,"max":214,"target":"present","response":"present","rt":5548.0999999996,"correct":true,"confidence":-1},{"trial_n":72,"min":41,"max":214,"target":"present","response":"present","rt":1783.2999999998,"correct":true,"confidence":-1},{"trial_n":73,"min":57,"max":198,"target":"absent","response":"absent","rt":1427.1000000001,"correct":true,"confidence":-1},{"trial_n":74,"min":57,"max":198,"target":"absent","response":"absent","rt":1272.6999999997,"correct":true,"confidence":-1},{"trial_n":75,"min":73,"max":182,"target":"present","response":"present","rt":1209,"correct":true,"confidence":-1},{"trial_n":76,"min":73,"max":182,"target":"absent","response":"absent","rt":2561,"correct":true,"confidence":-1},{"trial_n":77,"min":89,"max":166,"target":"present","response":"present","rt":1305.2999999998,"correct":true,"confidence":-1},{"trial_n":78,"min":89,"max":166,"target":"present","response":"present","rt":1278.6000000001,"correct":true,"confidence":-1},{"trial_n":79,"min":105,"max":150,"target":"present","response":"absent","rt":1544.5999999996,"correct":false,"confidence":-1},{"trial_n":80,"min":89,"max":166,"target":"present","response":"present","rt":1180.1000000001,"correct":true,"confidence":-1},{"trial_n":81,"min":89,"max":166,"target":"present","response":"present","rt":933,"correct":true,"confidence":-1},{"trial_n":82,"min":97,"max":158,"target":"present","response":"absent","rt":1650.6999999997,"correct":false,"confidence":-1},{"trial_n":83,"min":89,"max":166,"target":"present","response":"present","rt":1372.8999999999,"correct":true,"confidence":-1},{"trial_n":84,"min":89,"max":166,"target":"absent","response":"present","rt":922.09999999963,"correct":false,"confidence":-1},{"trial_n":85,"min":81,"max":174,"target":"absent","response":"absent","rt":1190.8000000003,"correct":true,"confidence":-1},{"trial_n":86,"min":81,"max":174,"target":"absent","response":"absent","rt":704.70000000019,"correct":true,"confidence":-1},{"trial_n":87,"min":89,"max":166,"target":"present","response":"absent","rt":705,"correct":false,"confidence":-1},{"trial_n":88,"min":81,"max":174,"target":"present","response":"present","rt":1207.3000000003,"correct":true,"confidence":-1},{"trial_n":89,"min":81,"max":174,"target":"absent","response":"absent","rt":1276.6000000001,"correct":true,"confidence":-1},{"trial_n":90,"min":89,"max":166,"target":"present","response":"present","rt":1559.1000000001,"correct":true,"confidence":-1},{"trial_n":91,"min":89,"max":166,"target":"absent","response":"absent","rt":2043.8000000003,"correct":true,"confidence":3},{"trial_n":92,"min":93,"max":162,"target":"absent","response":"absent","rt":1221.7000000002,"correct":true,"confidence":3},{"trial_n":93,"min":93,"max":162,"target":"present","response":"present","rt":1212.6000000001,"correct":true,"confidence":1},{"trial_n":94,"min":97,"max":158,"target":"present","response":"absent","rt":1129.6000000001,"correct":false,"confidence":3},{"trial_n":95,"min":93,"max":162,"target":"present","response":"present","rt":1110.1000000001,"correct":true,"confidence":1},{"trial_n":96,"min":93,"max":162,"target":"absent","response":"present","rt":1510.6999999997,"correct":false,"confidence":2},{"trial_n":97,"min":89,"max":166,"target":"present","response":"present","rt":1096.7999999998,"correct":true,"confidence":3},{"trial_n":98,"min":89,"max":166,"target":"absent","response":"present","rt":1518.7999999998,"correct":false,"confidence":2},{"trial_n":99,"min":85,"max":170,"target":"absent","response":"present","rt":1670.3000000003,"correct":false,"confidence":1},{"trial_n":100,"min":81,"max":174,"target":"absent","response":"absent","rt":1073.5999999996,"correct":true,"confidence":2},{"trial_n":101,"min":81,"max":174,"target":"present","response":"present","rt":935.19999999972,"correct":true,"confidence":4},{"trial_n":102,"min":83,"max":172,"target":"absent","response":"present","rt":1206.6999999997,"correct":false,"confidence":2},{"trial_n":103,"min":81,"max":174,"target":"absent","response":"absent","rt":1578.7000000002,"correct":true,"confidence":3},{"trial_n":104,"min":81,"max":174,"target":"absent","response":"present","rt":1729.7999999998,"correct":false,"confidence":2},{"trial_n":105,"min":79,"max":176,"target":"absent","response":"present","rt":2083.7000000002,"correct":false,"confidence":3},{"trial_n":106,"min":77,"max":178,"target":"absent","response":"present","rt":1554,"correct":false,"confidence":2},{"trial_n":107,"min":75,"max":180,"target":"absent","response":"present","rt":1385.8999999999,"correct":false,"confidence":3},{"trial_n":108,"min":73,"max":182,"target":"present","response":"present","rt":1374.6000000001,"correct":true,"confidence":4},{"trial_n":109,"min":73,"max":182,"target":"present","response":"present","rt":1388.5,"correct":true,"confidence":3},{"trial_n":110,"min":75,"max":180,"target":"absent","response":"present","rt":1069.5999999996,"correct":false,"confidence":1},{"trial_n":111,"min":74,"max":181,"target":"present","response":"present","rt":975.39999999991,"correct":true,"confidence":5},{"trial_n":112,"min":74,"max":181,"target":"present","response":"present","rt":944.69999999972,"correct":true,"confidence":5},{"trial_n":113,"min":75,"max":180,"target":"absent","response":"absent","rt":1966.9000000004,"correct":true,"confidence":3},{"trial_n":114,"min":75,"max":180,"target":"absent","response":"absent","rt":1471.6999999997,"correct":true,"confidence":2},{"trial_n":115,"min":76,"max":179,"target":"absent","response":"present","rt":1318.2000000002,"correct":false,"confidence":1},{"trial_n":116,"min":75,"max":180,"target":"present","response":"present","rt":905.39999999991,"correct":true,"confidence":3},{"trial_n":117,"min":75,"max":180,"target":"present","response":"absent","rt":2680.3999999999,"correct":false,"confidence":3},{"trial_n":118,"min":74,"max":181,"target":"present","response":"present","rt":989.29999999981,"correct":true,"confidence":3},{"trial_n":119,"min":74,"max":181,"target":"absent","response":"present","rt":1294.2999999998,"correct":false,"confidence":2},{"trial_n":120,"min":73,"max":182,"target":"absent","response":"present","rt":1210.8999999999,"correct":false,"confidence":3},{"trial_n":121,"min":72,"max":183,"target":"present","response":"present","rt":859.29999999981,"correct":true,"confidence":3},{"trial_n":122,"min":72,"max":183,"target":"present","response":"present","rt":877.60000000009,"correct":true,"confidence":4},{"trial_n":123,"min":73,"max":182,"target":"present","response":"present","rt":1453.8000000003,"correct":true,"confidence":2},{"trial_n":124,"min":73,"max":182,"target":"absent","response":"absent","rt":1426.6999999997,"correct":true,"confidence":2},{"trial_n":125,"min":74,"max":181,"target":"absent","response":"absent","rt":1451.2000000002,"correct":true,"confidence":5},{"trial_n":126,"min":74,"max":181,"target":"absent","response":"present","rt":1235.7999999998,"correct":false,"confidence":2},{"trial_n":127,"min":73,"max":182,"target":"absent","response":"present","rt":1215.7999999998,"correct":false,"confidence":1},{"trial_n":128,"min":72,"max":183,"target":"absent","response":"present","rt":1301.8999999999,"correct":false,"confidence":1},{"trial_n":129,"min":71,"max":184,"target":"present","response":"present","rt":960.40000000037,"correct":true,"confidence":4},{"trial_n":130,"min":71,"max":184,"target":"absent","response":"present","rt":1351,"correct":false,"confidence":1},{"trial_n":131,"min":70,"max":185,"target":"present","response":"present","rt":922.5,"correct":true,"confidence":5},{"trial_n":132,"min":70,"max":185,"target":"present","response":"present","rt":947.29999999981,"correct":true,"confidence":5},{"trial_n":133,"min":71,"max":184,"target":"absent","response":"present","rt":1212.2999999998,"correct":false,"confidence":3},{"trial_n":134,"min":70,"max":185,"target":"absent","response":"absent","rt":1458.1999999997,"correct":true,"confidence":4},{"trial_n":135,"min":70,"max":185,"target":"present","response":"present","rt":1030.3000000003,"correct":true,"confidence":4},{"trial_n":136,"min":71,"max":184,"target":"present","response":"present","rt":1188.2000000002,"correct":true,"confidence":4},{"trial_n":137,"min":71,"max":184,"target":"present","response":"present","rt":1166.3999999999,"correct":true,"confidence":4},{"trial_n":138,"min":72,"max":183,"target":"present","response":"present","rt":1663.1000000001,"correct":true,"confidence":4},{"trial_n":139,"min":72,"max":183,"target":"present","response":"present","rt":1209.7999999998,"correct":true,"confidence":4},{"trial_n":140,"min":73,"max":182,"target":"absent","response":"absent","rt":1654.3999999999,"correct":true,"confidence":2}]