[{"trial_n":1,"span":8,"encoder":"65525791","distractor":"61525791","target":"present","response":"present","rt":"12160","correct":true,"confidence":-1},{"trial_n":2,"span":8,"encoder":"78966129","distractor":"78926129","target":"present","response":"absent","rt":"3120","correct":false,"confidence":-1},{"trial_n":3,"span":6,"encoder":"575636","distractor":"565636","target":"absent","response":"absent","rt":"1890","correct":true,"confidence":-1},{"trial_n":4,"span":6,"encoder":"231097","distractor":"231077","target":"absent","response":"absent","rt":"2383","correct":true,"confidence":-1},{"trial_n":5,"span":8,"encoder":"80394410","distractor":"80194410","target":"present","response":"present","rt":"1393","correct":true,"confidence":-1},{"trial_n":6,"span":8,"encoder":"74078927","distractor":"74098927","target":"present","response":"present","rt":"1589","correct":true,"confidence":-1},{"trial_n":7,"span":10,"encoder":"7240241148","distractor":"7240241147","target":"present","response":"absent","rt":"350.00000000001","correct":false,"confidence":-1},{"trial_n":8,"span":8,"encoder":"87438351","distractor":"87431351","target":"present","response":"present","rt":"509","correct":true,"confidence":-1},{"trial_n":9,"span":8,"encoder":"65665138","distractor":"65665128","target":"present","response":"present","rt":"524.00000000001","correct":true,"confidence":-1},{"trial_n":10,"span":10,"encoder":"4387792018","distractor":"4387752018","target":"present","response":"present","rt":"735","correct":true,"confidence":-1},{"trial_n":11,"span":10,"encoder":"8039451260","distractor":"8039411260","target":"absent","response":"absent","rt":"702","correct":true,"confidence":-1},{"trial_n":12,"span":11,"encoder":"18600880189","distractor":"18500880189","target":"present","response":"present","rt":"1082","correct":true,"confidence":-1},{"trial_n":13,"span":11,"encoder":"58979859639","distractor":"58979859632","target":"present","response":"absent","rt":"1384","correct":false,"confidence":-1},{"trial_n":14,"span":10,"encoder":"3182085392","distractor":"3112085392","target":"present","response":"present","rt":"545","correct":true,"confidence":-1},{"trial_n":15,"span":10,"encoder":"0911568908","distractor":"0911468908","target":"absent","response":"absent","rt":"900.00000000003","correct":true,"confidence":-1},{"trial_n":16,"span":11,"encoder":"71766665017","distractor":"71766675017","target":"absent","response":"present","rt":"717","correct":false,"confidence":-1},{"trial_n":17,"span":10,"encoder":"4780696694","distractor":"4780896694","target":"absent","response":"present","rt":"641","correct":false,"confidence":-1},{"trial_n":18,"span":9,"encoder":"653598158","distractor":"653598154","target":"absent","response":"absent","rt":"1065","correct":true,"confidence":-1},{"trial_n":19,"span":9,"encoder":"392660062","distractor":"312660062","target":"absent","response":"present","rt":"834","correct":false,"confidence":-1},{"trial_n":20,"span":8,"encoder":"08601530","distractor":"08401530","target":"absent","response":"absent","rt":"775","correct":true,"confidence":-1},{"trial_n":21,"span":8,"encoder":"65905935","distractor":"65405935","target":"absent","response":"absent","rt":"1565","correct":true,"confidence":5},{"trial_n":22,"span":9,"encoder":"467182651","distractor":"467182650","target":"present","response":"present","rt":"3377","correct":true,"confidence":3},{"trial_n":23,"span":9,"encoder":"317950693","distractor":"317952693","target":"present","response":"present","rt":"6340","correct":true,"confidence":4},{"trial_n":24,"span":10,"encoder":"0975396854","distractor":"0905396854","target":"absent","response":"absent","rt":"2303","correct":true,"confidence":4},{"trial_n":25,"span":10,"encoder":"8699799122","distractor":"8699499122","target":"present","response":"present","rt":"2789","correct":true,"confidence":4},{"trial_n":26,"span":11,"encoder":"76553959431","distractor":"76553959481","target":"absent","response":"absent","rt":"4370","correct":true,"confidence":4},{"trial_n":27,"span":11,"encoder":"61274300966","distractor":"61274300906","target":"present","response":"present","rt":"2610","correct":true,"confidence":4},{"trial_n":28,"span":12,"encoder":"008059209081","distractor":"008059209091","target":"present","response":"present","rt":"3085","correct":true,"confidence":3},{"trial_n":29,"span":12,"encoder":"054879804841","distractor":"054079804841","target":"present","response":"present","rt":"2022.0000000001","correct":true,"confidence":4},{"trial_n":30,"span":13,"encoder":"3832699530240","distractor":"3837699530240","target":"absent","response":"absent","rt":"2206","correct":true,"confidence":5},{"trial_n":31,"span":13,"encoder":"2104357184853","distractor":"2204357184853","target":"absent","response":"absent","rt":"1349","correct":true,"confidence":1},{"trial_n":32,"span":14,"encoder":"48634672993296","distractor":"48634672996296","target":"absent","response":"present","rt":"4298","correct":false,"confidence":3},{"trial_n":33,"span":13,"encoder":"2695205905154","distractor":"2695205905954","target":"absent","response":"present","rt":"7977","correct":false,"confidence":3},{"trial_n":34,"span":12,"encoder":"913386059335","distractor":"913386059935","target":"present","response":"present","rt":"4473","correct":true,"confidence":4},{"trial_n":35,"span":12,"encoder":"565631711294","distractor":"565331711294","target":"present","response":"present","rt":"3358","correct":true,"confidence":2},{"trial_n":36,"span":13,"encoder":"9705999235171","distractor":"9701999235171","target":"present","response":"present","rt":"4414","correct":true,"confidence":3},{"trial_n":37,"span":13,"encoder":"0883230391027","distractor":"0883270391027","target":"absent","response":"absent","rt":"3775","correct":true,"confidence":4},{"trial_n":38,"span":14,"encoder":"29767163014362","distractor":"29787163014362","target":"present","response":"absent","rt":"5201","correct":false,"confidence":2},{"trial_n":39,"span":13,"encoder":"0080885930888","distractor":"0780885930888","target":"absent","response":"absent","rt":"3601","correct":true,"confidence":3},{"trial_n":40,"span":13,"encoder":"8639520673568","distractor":"8639520673508","target":"absent","response":"present","rt":"2887","correct":false,"confidence":4},{"trial_n":41,"span":12,"encoder":"784974045535","distractor":"784994045535","target":"absent","response":"absent","rt":"7420","correct":true,"confidence":3},{"trial_n":42,"span":12,"encoder":"738178409813","distractor":"738178409413","target":"absent","response":"absent","rt":"33232","correct":true,"confidence":3},{"trial_n":43,"span":13,"encoder":"3790137648077","distractor":"3790137642077","target":"present","response":"present","rt":"14865","correct":true,"confidence":1},{"trial_n":44,"span":13,"encoder":"8367271446057","distractor":"8366271446057","target":"absent","response":"absent","rt":"3882.9999999999","correct":true,"confidence":4},{"trial_n":45,"span":14,"encoder":"55060220435412","distractor":"85060220435412","target":"absent","response":"absent","rt":"3849","correct":true,"confidence":4},{"trial_n":46,"span":14,"encoder":"95420072841108","distractor":"95420772841108","target":"absent","response":"absent","rt":"1769","correct":true,"confidence":1},{"trial_n":47,"span":15,"encoder":"648004344700957","distractor":"643004344700957","target":"present","response":"present","rt":"1808","correct":true,"confidence":3},{"trial_n":48,"span":15,"encoder":"743948453231714","distractor":"743948456231714","target":"absent","response":"present","rt":"2913","correct":false,"confidence":3},{"trial_n":49,"span":14,"encoder":"59612075283761","distractor":"59612076283761","target":"present","response":"present","rt":"2379.0000000001","correct":true,"confidence":1},{"trial_n":50,"span":14,"encoder":"69412072851566","distractor":"69416072851566","target":"absent","response":"absent","rt":"7914.9999999998","correct":true,"confidence":2},{"trial_n":51,"span":15,"encoder":"620193448173602","distractor":"620193048173602","target":"absent","response":"present","rt":"3034","correct":false,"confidence":4},{"trial_n":52,"span":14,"encoder":"21266426155729","distractor":"21266426155799","target":"absent","response":"absent","rt":"6423","correct":true,"confidence":4},{"trial_n":53,"span":14,"encoder":"21181700161802","distractor":"21181700161702","target":"absent","response":"present","rt":"2438.0000000002","correct":false,"confidence":3},{"trial_n":54,"span":13,"encoder":"3539293605482","distractor":"3539293605485","target":"absent","response":"present","rt":"2810.9999999998","correct":false,"confidence":4},{"trial_n":55,"span":12,"encoder":"702240137188","distractor":"702200137188","target":"absent","response":"absent","rt":"3625","correct":true,"confidence":5},{"trial_n":56,"span":12,"encoder":"225930137867","distractor":"625930137867","target":"absent","response":"absent","rt":"783","correct":true,"confidence":1},{"trial_n":57,"span":13,"encoder":"7131476239104","distractor":"7131476236104","target":"present","response":"absent","rt":"7385","correct":false,"confidence":2},{"trial_n":58,"span":12,"encoder":"557044983030","distractor":"557044987030","target":"present","response":"absent","rt":"5840","correct":false,"confidence":2},{"trial_n":59,"span":11,"encoder":"57274711728","distractor":"57274011728","target":"present","response":"present","rt":"4055.9999999998","correct":true,"confidence":4},{"trial_n":60,"span":11,"encoder":"64276079148","distractor":"64276079188","target":"present","response":"present","rt":"4256","correct":true,"confidence":3},{"trial_n":61,"span":12,"encoder":"419309690127","distractor":"419309698127","target":"present","response":"present","rt":"3858","correct":true,"confidence":3},{"trial_n":62,"span":12,"encoder":"872028392960","distractor":"872028392963","target":"present","response":"present","rt":"5550","correct":true,"confidence":4},{"trial_n":63,"span":13,"encoder":"6022011387847","distractor":"6022031387847","target":"present","response":"present","rt":"3560","correct":true,"confidence":2},{"trial_n":64,"span":13,"encoder":"5376405660773","distractor":"5376475660773","target":"absent","response":"present","rt":"2257","correct":false,"confidence":3},{"trial_n":65,"span":12,"encoder":"297523395866","distractor":"997523395866","target":"present","response":"present","rt":"1716","correct":true,"confidence":3},{"trial_n":66,"span":12,"encoder":"588720174216","distractor":"588420174216","target":"absent","response":"present","rt":"3200.0000000002","correct":false,"confidence":3},{"trial_n":67,"span":11,"encoder":"45343141623","distractor":"45343141653","target":"present","response":"present","rt":"2837","correct":true,"confidence":4},{"trial_n":68,"span":11,"encoder":"49133508780","distractor":"49113508780","target":"present","response":"absent","rt":"4731","correct":false,"confidence":3},{"trial_n":69,"span":10,"encoder":"5950019977","distractor":"5910019977","target":"present","response":"present","rt":"3278","correct":true,"confidence":3},{"trial_n":70,"span":10,"encoder":"5042087689","distractor":"5042787689","target":"present","response":"present","rt":"2033","correct":true,"confidence":3},{"trial_n":71,"span":8,"encoder":"17896690","distractor":"17896697","target":"present","response":"present","rt":"4944.9999999998","correct":true,"confidence":-1},{"trial_n":72,"span":8,"encoder":"18351943","distractor":"18359943","target":"present","response":"present","rt":"3353.9999999998","correct":true,"confidence":-1},{"trial_n":73,"span":9,"encoder":"539895879","distractor":"569895879","target":"absent","response":"absent","rt":"1274","correct":true,"confidence":-1},{"trial_n":74,"span":9,"encoder":"604175989","distractor":"694175989","target":"absent","response":"present","rt":"1067","correct":false,"confidence":-1},{"trial_n":75,"span":8,"encoder":"47704526","distractor":"97704526","target":"present","response":"present","rt":"2343","correct":true,"confidence":-1},{"trial_n":76,"span":8,"encoder":"16524592","distractor":"16824592","target":"present","response":"present","rt":"4434.0000000002","correct":true,"confidence":-1},{"trial_n":77,"span":9,"encoder":"716384512","distractor":"712384512","target":"absent","response":"absent","rt":"2387.9999999998","correct":true,"confidence":-1},{"trial_n":78,"span":9,"encoder":"037857517","distractor":"067857517","target":"present","response":"absent","rt":"3449","correct":false,"confidence":-1},{"trial_n":79,"span":8,"encoder":"75087833","distractor":"75087834","target":"absent","response":"present","rt":"2374","correct":false,"confidence":-1},{"trial_n":80,"span":7,"encoder":"9110226","distractor":"9710226","target":"present","response":"absent","rt":"526","correct":false,"confidence":-1},{"trial_n":81,"span":6,"encoder":"458086","distractor":"458085","target":"present","response":"absent","rt":"341.99999999977","correct":false,"confidence":-1},{"trial_n":82,"span":5,"encoder":"96365","distractor":"96665","target":"absent","response":"present","rt":"457.00000000023","correct":false,"confidence":-1},{"trial_n":83,"span":4,"encoder":"9097","distractor":"9094","target":"absent","response":"absent","rt":"687.99999999977","correct":true,"confidence":-1},{"trial_n":84,"span":4,"encoder":"5447","distractor":"5347","target":"present","response":"present","rt":"1054","correct":true,"confidence":-1},{"trial_n":85,"span":5,"encoder":"33475","distractor":"36475","target":"present","response":"present","rt":"1480.0000000002","correct":true,"confidence":-1},{"trial_n":86,"span":5,"encoder":"58193","distractor":"58103","target":"present","response":"present","rt":"2434.0000000002","correct":true,"confidence":-1},{"trial_n":87,"span":6,"encoder":"322191","distractor":"322111","target":"present","response":"present","rt":"1102","correct":true,"confidence":-1},{"trial_n":88,"span":6,"encoder":"412088","distractor":"412058","target":"present","response":"present","rt":"1391","correct":true,"confidence":-1},{"trial_n":89,"span":7,"encoder":"0401023","distractor":"0501023","target":"present","response":"present","rt":"1386","correct":true,"confidence":-1},{"trial_n":90,"span":7,"encoder":"2282574","distractor":"2282571","target":"present","response":"present","rt":"1876.9999999998","correct":true,"confidence":-1},{"trial_n":91,"span":8,"encoder":"44738939","distractor":"44739939","target":"absent","response":"absent","rt":"3392","correct":true,"confidence":5},{"trial_n":92,"span":8,"encoder":"18832118","distractor":"18832112","target":"absent","response":"absent","rt":"6296","correct":true,"confidence":4},{"trial_n":93,"span":9,"encoder":"032307679","distractor":"132307679","target":"absent","response":"absent","rt":"1391.0000000002","correct":true,"confidence":4},{"trial_n":94,"span":9,"encoder":"585292039","distractor":"585202039","target":"absent","response":"present","rt":"8372","correct":false,"confidence":3},{"trial_n":95,"span":8,"encoder":"70621901","distractor":"70621101","target":"absent","response":"absent","rt":"2288","correct":true,"confidence":5},{"trial_n":96,"span":8,"encoder":"98176387","distractor":"96176387","target":"absent","response":"absent","rt":"2584.0000000002","correct":true,"confidence":4},{"trial_n":97,"span":9,"encoder":"848136494","distractor":"848536494","target":"absent","response":"absent","rt":"3107.0000000002","correct":true,"confidence":4},{"trial_n":98,"span":9,"encoder":"892180776","distractor":"896180776","target":"absent","response":"absent","rt":"2597","correct":true,"confidence":4},{"trial_n":99,"span":10,"encoder":"7585628419","distractor":"7585628417","target":"present","response":"absent","rt":"6063","correct":false,"confidence":5},{"trial_n":100,"span":9,"encoder":"222149785","distractor":"222148785","target":"absent","response":"absent","rt":"3850.0000000002","correct":true,"confidence":3},{"trial_n":101,"span":9,"encoder":"880734522","distractor":"880754522","target":"present","response":"absent","rt":"5643.0000000002","correct":false,"confidence":2},{"trial_n":102,"span":8,"encoder":"83627763","distractor":"83623763","target":"absent","response":"absent","rt":"9016.0000000002","correct":true,"confidence":2},{"trial_n":103,"span":8,"encoder":"60574769","distractor":"60504769","target":"present","response":"present","rt":"2236.9999999995","correct":true,"confidence":3},{"trial_n":104,"span":9,"encoder":"396342162","distractor":"196342162","target":"absent","response":"absent","rt":"2638.0000000005","correct":true,"confidence":4},{"trial_n":105,"span":9,"encoder":"676134667","distractor":"696134667","target":"absent","response":"absent","rt":"1749.0000000002","correct":true,"confidence":5},{"trial_n":106,"span":10,"encoder":"0827417823","distractor":"0827417822","target":"absent","response":"absent","rt":"10025","correct":true,"confidence":4},{"trial_n":107,"span":10,"encoder":"5728806970","distractor":"3728806970","target":"present","response":"present","rt":"11716","correct":true,"confidence":2},{"trial_n":108,"span":11,"encoder":"48008071992","distractor":"48008071392","target":"absent","response":"absent","rt":"2941","correct":true,"confidence":5},{"trial_n":109,"span":11,"encoder":"11682275249","distractor":"11682245249","target":"present","response":"present","rt":"5501","correct":true,"confidence":4},{"trial_n":110,"span":12,"encoder":"976757218975","distractor":"976756218975","target":"present","response":"present","rt":"14990","correct":true,"confidence":2},{"trial_n":111,"span":12,"encoder":"401482361177","distractor":"401402361177","target":"present","response":"present","rt":"3593","correct":true,"confidence":3},{"trial_n":112,"span":13,"encoder":"5435112832922","distractor":"5438112832922","target":"present","response":"absent","rt":"4348.9999999995","correct":false,"confidence":3},{"trial_n":113,"span":12,"encoder":"134311641809","distractor":"134311647809","target":"absent","response":"absent","rt":"3087","correct":true,"confidence":5},{"trial_n":114,"span":12,"encoder":"621567244023","distractor":"621527244023","target":"absent","response":"present","rt":"8432","correct":false,"confidence":1},{"trial_n":115,"span":11,"encoder":"72901426525","distractor":"72901421525","target":"present","response":"absent","rt":"4942","correct":false,"confidence":1},{"trial_n":116,"span":10,"encoder":"9020062960","distractor":"9020092960","target":"absent","response":"absent","rt":"6646","correct":true,"confidence":3},{"trial_n":117,"span":10,"encoder":"1689424173","distractor":"1609424173","target":"present","response":"present","rt":"4092","correct":true,"confidence":1},{"trial_n":118,"span":11,"encoder":"57210511467","distractor":"57210591467","target":"absent","response":"present","rt":"3529","correct":false,"confidence":1},{"trial_n":119,"span":10,"encoder":"8416817152","distractor":"8416817159","target":"present","response":"present","rt":"9491","correct":true,"confidence":1},{"trial_n":120,"span":10,"encoder":"5212227871","distractor":"5212227821","target":"present","response":"absent","rt":"11910","correct":false,"confidence":3},{"trial_n":121,"span":9,"encoder":"890329632","distractor":"290329632","target":"absent","response":"absent","rt":"4481","correct":true,"confidence":4},{"trial_n":122,"span":9,"encoder":"447378775","distractor":"447371775","target":"absent","response":"absent","rt":"4038","correct":true,"confidence":5},{"trial_n":123,"span":10,"encoder":"2176807936","distractor":"2176827936","target":"present","response":"present","rt":"2579","correct":true,"confidence":5},{"trial_n":124,"span":10,"encoder":"4417308032","distractor":"4417308052","target":"present","response":"present","rt":"6382","correct":true,"confidence":5},{"trial_n":125,"span":11,"encoder":"31834784014","distractor":"31834788014","target":"absent","response":"absent","rt":"19920","correct":true,"confidence":2},{"trial_n":126,"span":11,"encoder":"07102412331","distractor":"07102412332","target":"absent","response":"present","rt":"23782","correct":false,"confidence":2},{"trial_n":127,"span":10,"encoder":"9467330905","distractor":"9467530905","target":"present","response":"present","rt":"7726","correct":true,"confidence":3},{"trial_n":128,"span":10,"encoder":"8751898582","distractor":"8711898582","target":"absent","response":"absent","rt":"6445","correct":true,"confidence":4},{"trial_n":129,"span":11,"encoder":"06982608821","distractor":"06982608221","target":"present","response":"absent","rt":"2701","correct":false,"confidence":5},{"trial_n":130,"span":10,"encoder":"2320501878","distractor":"2320501278","target":"present","response":"present","rt":"3189.9999999995","correct":true,"confidence":5},{"trial_n":131,"span":10,"encoder":"2890514440","distractor":"2390514440","target":"present","response":"present","rt":"3382","correct":true,"confidence":3},{"trial_n":132,"span":11,"encoder":"42380291215","distractor":"42380299215","target":"absent","response":"absent","rt":"5745.9999999995","correct":true,"confidence":4},{"trial_n":133,"span":11,"encoder":"16900429131","distractor":"16908429131","target":"absent","response":"absent","rt":"4480","correct":true,"confidence":5},{"trial_n":134,"span":12,"encoder":"899785513105","distractor":"899785513405","target":"present","response":"present","rt":"11667","correct":true,"confidence":2},{"trial_n":135,"span":12,"encoder":"761456703973","distractor":"761453703973","target":"present","response":"present","rt":"7818","correct":true,"confidence":2},{"trial_n":136,"span":13,"encoder":"7303841600724","distractor":"7303881600724","target":"present","response":"present","rt":"13463","correct":true,"confidence":3},{"trial_n":137,"span":13,"encoder":"8146667276744","distractor":"8146667246744","target":"absent","response":"absent","rt":"4485","correct":true,"confidence":2},{"trial_n":138,"span":14,"encoder":"18414446486510","distractor":"18404446486510","target":"absent","response":"absent","rt":"8078","correct":true,"confidence":3},{"trial_n":139,"span":14,"encoder":"48758381556382","distractor":"48758381556782","target":"absent","response":"absent","rt":"17325","correct":true,"confidence":1},{"trial_n":140,"span":15,"encoder":"141208403745468","distractor":"641208403745468","target":"present","response":"present","rt":"3780","correct":true,"confidence":1}]