[{"trial_n":1,"n_dots":4.25,"target":"left","response":"left","rt":6152,"correct":true,"confidence":-1},{"trial_n":2,"n_dots":4.25,"target":"left","response":"left","rt":686,"correct":true,"confidence":-1},{"trial_n":3,"n_dots":3.85,"target":"left","response":"left","rt":622.30000000028,"correct":true,"confidence":-1},{"trial_n":4,"n_dots":3.85,"target":"right","response":"right","rt":369.5,"correct":true,"confidence":-1},{"trial_n":5,"n_dots":3.45,"target":"right","response":"left","rt":735.70000000019,"correct":false,"confidence":-1},{"trial_n":6,"n_dots":3.85,"target":"right","response":"right","rt":469.39999999991,"correct":true,"confidence":-1},{"trial_n":7,"n_dots":3.85,"target":"right","response":"left","rt":458.20000000019,"correct":false,"confidence":-1},{"trial_n":8,"n_dots":4.05,"target":"left","response":"left","rt":336.10000000009,"correct":true,"confidence":-1},{"trial_n":9,"n_dots":4.05,"target":"right","response":"left","rt":362.39999999991,"correct":false,"confidence":-1},{"trial_n":10,"n_dots":4.25,"target":"left","response":"left","rt":249.69999999972,"correct":true,"confidence":-1},{"trial_n":11,"n_dots":4.25,"target":"right","response":"left","rt":471,"correct":false,"confidence":-1},{"trial_n":12,"n_dots":4.45,"target":"right","response":"right","rt":280.5,"correct":true,"confidence":-1},{"trial_n":13,"n_dots":4.45,"target":"right","response":"right","rt":484,"correct":true,"confidence":-1},{"trial_n":14,"n_dots":4.35,"target":"left","response":"left","rt":159.60000000009,"correct":true,"confidence":-1},{"trial_n":15,"n_dots":4.35,"target":"left","response":"left","rt":295.89999999991,"correct":true,"confidence":-1},{"trial_n":16,"n_dots":4.25,"target":"right","response":"right","rt":312.89999999991,"correct":true,"confidence":-1},{"trial_n":17,"n_dots":4.25,"target":"left","response":"left","rt":480,"correct":true,"confidence":-1},{"trial_n":18,"n_dots":4.15,"target":"right","response":"right","rt":100.89999999991,"correct":true,"confidence":-1},{"trial_n":19,"n_dots":4.15,"target":"right","response":"right","rt":124.39999999991,"correct":true,"confidence":-1},{"trial_n":20,"n_dots":4.05,"target":"left","response":"left","rt":32.599999999627,"correct":true,"confidence":-1},{"trial_n":21,"n_dots":4.05,"target":"left","response":"left","rt":3707.6000000001,"correct":true,"confidence":2},{"trial_n":22,"n_dots":3.95,"target":"left","response":"left","rt":298.89999999991,"correct":true,"confidence":3},{"trial_n":23,"n_dots":3.95,"target":"right","response":"right","rt":126,"correct":true,"confidence":3},{"trial_n":24,"n_dots":3.85,"target":"right","response":"left","rt":1063.3999999999,"correct":false,"confidence":2},{"trial_n":25,"n_dots":3.95,"target":"left","response":"left","rt":2.6000000000931,"correct":true,"confidence":3},{"trial_n":26,"n_dots":3.95,"target":"right","response":"right","rt":68.5,"correct":true,"confidence":3},{"trial_n":27,"n_dots":3.85,"target":"right","response":"right","rt":304.60000000009,"correct":true,"confidence":2},{"trial_n":28,"n_dots":3.85,"target":"left","response":"left","rt":299.69999999972,"correct":true,"confidence":3},{"trial_n":29,"n_dots":3.75,"target":"right","response":"right","rt":107.60000000009,"correct":true,"confidence":3},{"trial_n":30,"n_dots":3.75,"target":"right","response":"right","rt":247.89999999991,"correct":true,"confidence":2},{"trial_n":31,"n_dots":3.65,"target":"left","response":"left","rt":291.89999999991,"correct":true,"confidence":3},{"trial_n":32,"n_dots":3.65,"target":"right","response":"right","rt":551.70000000019,"correct":true,"confidence":2},{"trial_n":33,"n_dots":3.55,"target":"left","response":"left","rt":269.5,"correct":true,"confidence":3},{"trial_n":34,"n_dots":3.55,"target":"right","response":"right","rt":353.70000000019,"correct":true,"confidence":3},{"trial_n":35,"n_dots":3.45,"target":"right","response":"right","rt":275.39999999991,"correct":true,"confidence":2},{"trial_n":36,"n_dots":3.45,"target":"right","response":"left","rt":531,"correct":false,"confidence":1},{"trial_n":37,"n_dots":3.55,"target":"left","response":"right","rt":455.89999999991,"correct":false,"confidence":1},{"trial_n":38,"n_dots":3.65,"target":"left","response":"left","rt":270.79999999981,"correct":true,"confidence":2},{"trial_n":39,"n_dots":3.65,"target":"left","response":"left","rt":2837.1000000001,"correct":true,"confidence":3},{"trial_n":40,"n_dots":3.55,"target":"right","response":"right","rt":512.20000000019,"correct":true,"confidence":2},{"trial_n":41,"n_dots":3.55,"target":"right","response":"right","rt":159.19999999972,"correct":true,"confidence":3},{"trial_n":42,"n_dots":3.45,"target":"right","response":"right","rt":1568.3999999999,"correct":true,"confidence":1},{"trial_n":43,"n_dots":3.45,"target":"left","response":"left","rt":338,"correct":true,"confidence":3},{"trial_n":44,"n_dots":3.35,"target":"left","response":"left","rt":149.60000000009,"correct":true,"confidence":2},{"trial_n":45,"n_dots":3.35,"target":"left","response":"left","rt":78.899999999907,"correct":true,"confidence":2},{"trial_n":46,"n_dots":3.25,"target":"right","response":"right","rt":228.39999999991,"correct":true,"confidence":2},{"trial_n":47,"n_dots":3.25,"target":"right","response":"right","rt":252.39999999991,"correct":true,"confidence":3},{"trial_n":48,"n_dots":3.15,"target":"left","response":"left","rt":40.899999999907,"correct":true,"confidence":2},{"trial_n":49,"n_dots":3.15,"target":"right","response":"left","rt":319,"correct":false,"confidence":2},{"trial_n":50,"n_dots":3.25,"target":"right","response":"right","rt":2602.6999999997,"correct":true,"confidence":1},{"trial_n":51,"n_dots":3.25,"target":"right","response":"right","rt":258.5,"correct":true,"confidence":1},{"trial_n":52,"n_dots":3.15,"target":"left","response":"left","rt":620.70000000019,"correct":true,"confidence":1},{"trial_n":53,"n_dots":3.15,"target":"left","response":"left","rt":273.80000000028,"correct":true,"confidence":2},{"trial_n":54,"n_dots":3.05,"target":"left","response":"left","rt":767.39999999991,"correct":true,"confidence":3},{"trial_n":55,"n_dots":3.05,"target":"left","response":"left","rt":13.300000000279,"correct":true,"confidence":2},{"trial_n":56,"n_dots":2.95,"target":"right","response":"right","rt":249.70000000019,"correct":true,"confidence":2},{"trial_n":57,"n_dots":2.95,"target":"right","response":"left","rt":966.39999999991,"correct":false,"confidence":1},{"trial_n":58,"n_dots":3.05,"target":"left","response":"left","rt":380.09999999963,"correct":true,"confidence":3},{"trial_n":59,"n_dots":3.05,"target":"left","response":"left","rt":433.30000000028,"correct":true,"confidence":2},{"trial_n":60,"n_dots":2.95,"target":"left","response":"left","rt":2468.5,"correct":true,"confidence":3},{"trial_n":61,"n_dots":2.95,"target":"left","response":"left","rt":352.80000000028,"correct":true,"confidence":3},{"trial_n":62,"n_dots":2.85,"target":"right","response":"left","rt":2428.8999999999,"correct":false,"confidence":2},{"trial_n":63,"n_dots":2.95,"target":"right","response":"left","rt":988.90000000037,"correct":false,"confidence":2},{"trial_n":64,"n_dots":3.05,"target":"left","response":"left","rt":271.19999999972,"correct":true,"confidence":2},{"trial_n":65,"n_dots":3.05,"target":"right","response":"left","rt":326.10000000009,"correct":false,"confidence":2},{"trial_n":66,"n_dots":3.15,"target":"left","response":"left","rt":203.19999999972,"correct":true,"confidence":2},{"trial_n":67,"n_dots":3.15,"target":"right","response":"right","rt":1615.7999999998,"correct":true,"confidence":3},{"trial_n":68,"n_dots":3.05,"target":"left","response":"left","rt":337.29999999981,"correct":true,"confidence":3},{"trial_n":69,"n_dots":3.05,"target":"left","response":"left","rt":1124.0999999996,"correct":true,"confidence":3},{"trial_n":70,"n_dots":2.95,"target":"right","response":"left","rt":1350.7000000002,"correct":false,"confidence":2},{"trial_n":71,"n_dots":3.05,"target":"right","response":"right","rt":447.19999999972,"correct":true,"confidence":3},{"trial_n":72,"n_dots":3.05,"target":"right","response":"left","rt":211.5,"correct":false,"confidence":1},{"trial_n":73,"n_dots":3.15,"target":"right","response":"right","rt":1140.2999999998,"correct":true,"confidence":3},{"trial_n":74,"n_dots":3.15,"target":"left","response":"left","rt":598.89999999991,"correct":true,"confidence":3},{"trial_n":75,"n_dots":3.05,"target":"right","response":"left","rt":717.60000000009,"correct":false,"confidence":1},{"trial_n":76,"n_dots":3.15,"target":"left","response":"left","rt":605.20000000019,"correct":true,"confidence":3},{"trial_n":77,"n_dots":3.15,"target":"right","response":"right","rt":266.79999999981,"correct":true,"confidence":2},{"trial_n":78,"n_dots":3.05,"target":"left","response":"left","rt":581.30000000028,"correct":true,"confidence":1},{"trial_n":79,"n_dots":3.05,"target":"left","response":"left","rt":564.19999999972,"correct":true,"confidence":1},{"trial_n":80,"n_dots":2.95,"target":"right","response":"right","rt":832.10000000009,"correct":true,"confidence":2},{"trial_n":81,"n_dots":2.95,"target":"right","response":"right","rt":842.70000000019,"correct":true,"confidence":3},{"trial_n":82,"n_dots":2.85,"target":"left","response":"left","rt":391.30000000028,"correct":true,"confidence":2},{"trial_n":83,"n_dots":2.85,"target":"left","response":"right","rt":1151.8999999999,"correct":false,"confidence":2},{"trial_n":84,"n_dots":2.95,"target":"left","response":"left","rt":1994,"correct":true,"confidence":1},{"trial_n":85,"n_dots":2.95,"target":"left","response":"right","rt":2807.6999999997,"correct":false,"confidence":3},{"trial_n":86,"n_dots":3.05,"target":"right","response":"right","rt":250.59999999963,"correct":true,"confidence":3},{"trial_n":87,"n_dots":3.05,"target":"left","response":"left","rt":6.8999999999069,"correct":true,"confidence":3},{"trial_n":88,"n_dots":2.95,"target":"left","response":"left","rt":5170.7999999998,"correct":true,"confidence":2},{"trial_n":89,"n_dots":2.95,"target":"left","response":"right","rt":17.700000000186,"correct":false,"confidence":2},{"trial_n":90,"n_dots":3.05,"target":"left","response":"left","rt":260.5,"correct":true,"confidence":2},{"trial_n":91,"n_dots":3.05,"target":"left","response":"left","rt":341.70000000019,"correct":true,"confidence":1},{"trial_n":92,"n_dots":2.95,"target":"right","response":"right","rt":606.29999999981,"correct":true,"confidence":1},{"trial_n":93,"n_dots":2.95,"target":"left","response":"left","rt":1951.7000000002,"correct":true,"confidence":2},{"trial_n":94,"n_dots":2.85,"target":"left","response":"left","rt":811.39999999991,"correct":true,"confidence":1},{"trial_n":95,"n_dots":2.85,"target":"right","response":"right","rt":641.39999999991,"correct":true,"confidence":3},{"trial_n":96,"n_dots":2.75,"target":"left","response":"left","rt":518.69999999972,"correct":true,"confidence":1},{"trial_n":97,"n_dots":2.75,"target":"left","response":"right","rt":1050.3999999999,"correct":false,"confidence":1},{"trial_n":98,"n_dots":2.85,"target":"right","response":"right","rt":891.10000000009,"correct":true,"confidence":2},{"trial_n":99,"n_dots":2.85,"target":"left","response":"left","rt":552.20000000019,"correct":true,"confidence":1},{"trial_n":100,"n_dots":2.75,"target":"left","response":"left","rt":210.70000000019,"correct":true,"confidence":1},{"trial_n":101,"n_dots":2.75,"target":"left","response":"left","rt":527.5,"correct":true,"confidence":3},{"trial_n":102,"n_dots":2.65,"target":"right","response":"right","rt":11.899999999907,"correct":true,"confidence":2},{"trial_n":103,"n_dots":2.65,"target":"right","response":"left","rt":1565.2000000002,"correct":false,"confidence":2},{"trial_n":104,"n_dots":2.75,"target":"right","response":"right","rt":1840.5,"correct":true,"confidence":3},{"trial_n":105,"n_dots":2.75,"target":"right","response":"left","rt":1926.7999999998,"correct":false,"confidence":1},{"trial_n":106,"n_dots":2.85,"target":"right","response":"right","rt":180.60000000009,"correct":true,"confidence":2},{"trial_n":107,"n_dots":2.85,"target":"left","response":"right","rt":306.39999999991,"correct":false,"confidence":1},{"trial_n":108,"n_dots":2.95,"target":"right","response":"right","rt":1166.5,"correct":true,"confidence":2},{"trial_n":109,"n_dots":2.95,"target":"left","response":"left","rt":463.5,"correct":true,"confidence":2},{"trial_n":110,"n_dots":2.85,"target":"right","response":"right","rt":243.60000000009,"correct":true,"confidence":2},{"trial_n":111,"n_dots":2.85,"target":"right","response":"right","rt":92.5,"correct":true,"confidence":3},{"trial_n":112,"n_dots":2.75,"target":"right","response":"left","rt":542.30000000028,"correct":false,"confidence":3},{"trial_n":113,"n_dots":2.85,"target":"left","response":"left","rt":275.80000000028,"correct":true,"confidence":2},{"trial_n":114,"n_dots":2.85,"target":"left","response":"right","rt":468.5,"correct":false,"confidence":2},{"trial_n":115,"n_dots":2.95,"target":"left","response":"left","rt":145.69999999972,"correct":true,"confidence":1},{"trial_n":116,"n_dots":2.95,"target":"right","response":"right","rt":2726.6999999997,"correct":true,"confidence":2},{"trial_n":117,"n_dots":2.85,"target":"right","response":"right","rt":397.79999999981,"correct":true,"confidence":2},{"trial_n":118,"n_dots":2.85,"target":"right","response":"right","rt":151.70000000019,"correct":true,"confidence":2},{"trial_n":119,"n_dots":2.75,"target":"right","response":"right","rt":778.39999999991,"correct":true,"confidence":2},{"trial_n":120,"n_dots":2.75,"target":"left","response":"right","rt":386.5,"correct":false,"confidence":1}]