[{"trial_n":1,"span":8,"encoder":"51088338","distractor":"51086338","target":"present","response":"absent","rt":"4137","correct":false,"confidence":-1},{"trial_n":2,"span":6,"encoder":"478423","distractor":"478323","target":"present","response":"present","rt":"2990","correct":true,"confidence":-1},{"trial_n":3,"span":6,"encoder":"549525","distractor":"549565","target":"absent","response":"absent","rt":"3712","correct":true,"confidence":-1},{"trial_n":4,"span":8,"encoder":"37128362","distractor":"37128366","target":"absent","response":"absent","rt":"3793","correct":true,"confidence":-1},{"trial_n":5,"span":8,"encoder":"25310912","distractor":"25510912","target":"present","response":"absent","rt":"21983","correct":false,"confidence":-1},{"trial_n":6,"span":6,"encoder":"241043","distractor":"241041","target":"absent","response":"absent","rt":"3160","correct":true,"confidence":-1},{"trial_n":7,"span":6,"encoder":"498369","distractor":"428369","target":"present","response":"present","rt":"3094","correct":true,"confidence":-1},{"trial_n":8,"span":8,"encoder":"53038092","distractor":"57038092","target":"absent","response":"present","rt":"3215","correct":false,"confidence":-1},{"trial_n":9,"span":6,"encoder":"279548","distractor":"219548","target":"absent","response":"absent","rt":"2515","correct":true,"confidence":-1},{"trial_n":10,"span":6,"encoder":"122495","distractor":"722495","target":"absent","response":"present","rt":"2298","correct":false,"confidence":-1},{"trial_n":11,"span":4,"encoder":"1168","distractor":"1148","target":"absent","response":"absent","rt":"3689","correct":true,"confidence":-1},{"trial_n":12,"span":4,"encoder":"1333","distractor":"1383","target":"present","response":"present","rt":"17042","correct":true,"confidence":-1},{"trial_n":13,"span":5,"encoder":"97455","distractor":"27455","target":"present","response":"present","rt":"3288","correct":true,"confidence":-1},{"trial_n":14,"span":5,"encoder":"50674","distractor":"70674","target":"present","response":"present","rt":"2282","correct":true,"confidence":-1},{"trial_n":15,"span":6,"encoder":"428294","distractor":"428254","target":"present","response":"absent","rt":"3037","correct":false,"confidence":-1},{"trial_n":16,"span":5,"encoder":"41932","distractor":"41938","target":"present","response":"absent","rt":"2488","correct":false,"confidence":-1},{"trial_n":17,"span":4,"encoder":"4138","distractor":"4738","target":"absent","response":"absent","rt":"1590","correct":true,"confidence":-1},{"trial_n":18,"span":4,"encoder":"8155","distractor":"8153","target":"absent","response":"present","rt":"2421","correct":false,"confidence":-1},{"trial_n":19,"span":3,"encoder":"646","distractor":"640","target":"absent","response":"absent","rt":"2477","correct":true,"confidence":-1},{"trial_n":20,"span":3,"encoder":"502","distractor":"542","target":"absent","response":"absent","rt":"2010","correct":true,"confidence":-1},{"trial_n":21,"span":4,"encoder":"0979","distractor":"0679","target":"present","response":"present","rt":"2547","correct":true,"confidence":4},{"trial_n":22,"span":4,"encoder":"1721","distractor":"5721","target":"present","response":"present","rt":"2168","correct":true,"confidence":5},{"trial_n":23,"span":5,"encoder":"35280","distractor":"35281","target":"absent","response":"absent","rt":"2815","correct":true,"confidence":4},{"trial_n":24,"span":5,"encoder":"80457","distractor":"90457","target":"absent","response":"absent","rt":"3276.0000000001","correct":true,"confidence":4},{"trial_n":25,"span":6,"encoder":"123337","distractor":"723337","target":"absent","response":"present","rt":"3008","correct":false,"confidence":4},{"trial_n":26,"span":5,"encoder":"37655","distractor":"37255","target":"present","response":"present","rt":"3269","correct":true,"confidence":3},{"trial_n":27,"span":5,"encoder":"83767","distractor":"83762","target":"absent","response":"absent","rt":"3465","correct":true,"confidence":4},{"trial_n":28,"span":6,"encoder":"942261","distractor":"942281","target":"present","response":"present","rt":"2488","correct":true,"confidence":3},{"trial_n":29,"span":6,"encoder":"098827","distractor":"098823","target":"present","response":"present","rt":"2321.9999999999","correct":true,"confidence":3},{"trial_n":30,"span":7,"encoder":"5721255","distractor":"5721254","target":"present","response":"absent","rt":"3740","correct":false,"confidence":2},{"trial_n":31,"span":6,"encoder":"356400","distractor":"656400","target":"absent","response":"absent","rt":"1942.0000000001","correct":true,"confidence":5},{"trial_n":32,"span":6,"encoder":"600077","distractor":"600177","target":"absent","response":"absent","rt":"3045","correct":true,"confidence":5},{"trial_n":33,"span":7,"encoder":"8221329","distractor":"8421329","target":"present","response":"present","rt":"2798","correct":true,"confidence":4},{"trial_n":34,"span":7,"encoder":"6780945","distractor":"6780935","target":"present","response":"absent","rt":"3456","correct":false,"confidence":2},{"trial_n":35,"span":6,"encoder":"368908","distractor":"968908","target":"absent","response":"absent","rt":"3121","correct":true,"confidence":3},{"trial_n":36,"span":6,"encoder":"537209","distractor":"537205","target":"present","response":"present","rt":"2706","correct":true,"confidence":4},{"trial_n":37,"span":7,"encoder":"7235651","distractor":"7035651","target":"present","response":"absent","rt":"6511.0000000001","correct":false,"confidence":2},{"trial_n":38,"span":6,"encoder":"281878","distractor":"285878","target":"present","response":"present","rt":"2912","correct":true,"confidence":2},{"trial_n":39,"span":6,"encoder":"956221","distractor":"926221","target":"present","response":"absent","rt":"8085","correct":false,"confidence":1},{"trial_n":40,"span":5,"encoder":"58503","distractor":"53503","target":"present","response":"present","rt":"2749","correct":true,"confidence":4},{"trial_n":41,"span":5,"encoder":"06049","distractor":"05049","target":"absent","response":"absent","rt":"2526","correct":true,"confidence":4},{"trial_n":42,"span":6,"encoder":"697780","distractor":"697750","target":"present","response":"present","rt":"2756","correct":true,"confidence":4},{"trial_n":43,"span":6,"encoder":"122723","distractor":"922723","target":"present","response":"present","rt":"2214.9999999999","correct":true,"confidence":4},{"trial_n":44,"span":7,"encoder":"7072801","distractor":"7078801","target":"present","response":"absent","rt":"2734","correct":false,"confidence":2},{"trial_n":45,"span":6,"encoder":"044594","distractor":"044394","target":"absent","response":"absent","rt":"2529","correct":true,"confidence":1},{"trial_n":46,"span":6,"encoder":"068804","distractor":"065804","target":"absent","response":"absent","rt":"2209.9999999999","correct":true,"confidence":4},{"trial_n":47,"span":7,"encoder":"2110266","distractor":"2180266","target":"absent","response":"present","rt":"3685.0000000001","correct":false,"confidence":3},{"trial_n":48,"span":6,"encoder":"772210","distractor":"774210","target":"present","response":"present","rt":"1867","correct":true,"confidence":4},{"trial_n":49,"span":6,"encoder":"618974","distractor":"618994","target":"present","response":"absent","rt":"2758","correct":false,"confidence":3},{"trial_n":50,"span":5,"encoder":"28992","distractor":"23992","target":"present","response":"present","rt":"2808","correct":true,"confidence":4},{"trial_n":51,"span":5,"encoder":"71289","distractor":"41289","target":"absent","response":"absent","rt":"2449","correct":true,"confidence":4},{"trial_n":52,"span":6,"encoder":"775758","distractor":"875758","target":"absent","response":"absent","rt":"2825","correct":true,"confidence":4},{"trial_n":53,"span":6,"encoder":"393348","distractor":"393341","target":"absent","response":"absent","rt":"3225.0000000001","correct":true,"confidence":4},{"trial_n":54,"span":7,"encoder":"3201981","distractor":"3701981","target":"absent","response":"absent","rt":"2380.9999999999","correct":true,"confidence":3},{"trial_n":55,"span":7,"encoder":"1409024","distractor":"1309024","target":"absent","response":"absent","rt":"2884","correct":true,"confidence":1},{"trial_n":56,"span":8,"encoder":"99257670","distractor":"99257870","target":"present","response":"present","rt":"4766.0000000001","correct":true,"confidence":2},{"trial_n":57,"span":8,"encoder":"31179945","distractor":"31179949","target":"absent","response":"present","rt":"3507","correct":false,"confidence":1},{"trial_n":58,"span":7,"encoder":"4064857","distractor":"4064852","target":"absent","response":"absent","rt":"3376","correct":true,"confidence":3},{"trial_n":59,"span":7,"encoder":"4563363","distractor":"4562363","target":"present","response":"absent","rt":"1985","correct":false,"confidence":2},{"trial_n":60,"span":6,"encoder":"320254","distractor":"320256","target":"present","response":"present","rt":"2083","correct":true,"confidence":3},{"trial_n":61,"span":6,"encoder":"637255","distractor":"637555","target":"present","response":"present","rt":"2566","correct":true,"confidence":3},{"trial_n":62,"span":7,"encoder":"0218322","distractor":"0211322","target":"absent","response":"absent","rt":"2519","correct":true,"confidence":2},{"trial_n":63,"span":7,"encoder":"0469994","distractor":"0869994","target":"absent","response":"absent","rt":"2590.9999999999","correct":true,"confidence":3},{"trial_n":64,"span":8,"encoder":"95182191","distractor":"95180191","target":"absent","response":"absent","rt":"2966","correct":true,"confidence":1},{"trial_n":65,"span":8,"encoder":"98295320","distractor":"98295340","target":"absent","response":"absent","rt":"3750","correct":true,"confidence":4},{"trial_n":66,"span":9,"encoder":"819727462","distractor":"899727462","target":"absent","response":"present","rt":"1747","correct":false,"confidence":1},{"trial_n":67,"span":8,"encoder":"32419661","distractor":"32019661","target":"present","response":"absent","rt":"2679.0000000001","correct":false,"confidence":2},{"trial_n":68,"span":7,"encoder":"1353207","distractor":"1383207","target":"present","response":"absent","rt":"2781","correct":false,"confidence":2},{"trial_n":69,"span":6,"encoder":"759746","distractor":"759741","target":"present","response":"present","rt":"2836","correct":true,"confidence":5},{"trial_n":70,"span":6,"encoder":"015380","distractor":"015680","target":"present","response":"present","rt":"2558","correct":true,"confidence":5},{"trial_n":71,"span":8,"encoder":"93127187","distractor":"93127188","target":"present","response":"present","rt":"11419","correct":true,"confidence":-1},{"trial_n":72,"span":8,"encoder":"50001541","distractor":"50001521","target":"present","response":"present","rt":"2379","correct":true,"confidence":-1},{"trial_n":73,"span":9,"encoder":"368227047","distractor":"368227067","target":"absent","response":"absent","rt":"3405.0000000001","correct":true,"confidence":-1},{"trial_n":74,"span":9,"encoder":"509552009","distractor":"549552009","target":"absent","response":"present","rt":"6760.0000000001","correct":false,"confidence":-1},{"trial_n":75,"span":8,"encoder":"58021784","distractor":"58021782","target":"present","response":"absent","rt":"1188","correct":false,"confidence":-1},{"trial_n":76,"span":7,"encoder":"6437405","distractor":"6432405","target":"present","response":"present","rt":"837","correct":true,"confidence":-1},{"trial_n":77,"span":7,"encoder":"6645078","distractor":"6644078","target":"present","response":"absent","rt":"899","correct":false,"confidence":-1},{"trial_n":78,"span":6,"encoder":"440040","distractor":"440080","target":"absent","response":"present","rt":"521","correct":false,"confidence":-1},{"trial_n":79,"span":5,"encoder":"40338","distractor":"40318","target":"absent","response":"absent","rt":"1353","correct":true,"confidence":-1},{"trial_n":80,"span":5,"encoder":"80489","distractor":"82489","target":"present","response":"present","rt":"3544","correct":true,"confidence":-1},{"trial_n":81,"span":6,"encoder":"504009","distractor":"504069","target":"absent","response":"absent","rt":"1809","correct":true,"confidence":-1},{"trial_n":82,"span":6,"encoder":"993498","distractor":"994498","target":"present","response":"absent","rt":"1363.9999999999","correct":false,"confidence":-1},{"trial_n":83,"span":5,"encoder":"81360","distractor":"81364","target":"absent","response":"absent","rt":"1507","correct":true,"confidence":-1},{"trial_n":84,"span":5,"encoder":"44309","distractor":"14309","target":"absent","response":"present","rt":"7198","correct":false,"confidence":-1},{"trial_n":85,"span":4,"encoder":"0679","distractor":"0779","target":"present","response":"absent","rt":"1437","correct":false,"confidence":-1},{"trial_n":86,"span":3,"encoder":"438","distractor":"428","target":"present","response":"present","rt":"1850","correct":true,"confidence":-1},{"trial_n":87,"span":3,"encoder":"302","distractor":"202","target":"present","response":"present","rt":"1711.0000000001","correct":true,"confidence":-1},{"trial_n":88,"span":4,"encoder":"1287","distractor":"1297","target":"present","response":"present","rt":"1611","correct":true,"confidence":-1},{"trial_n":89,"span":4,"encoder":"3478","distractor":"3474","target":"present","response":"present","rt":"3245","correct":true,"confidence":-1},{"trial_n":90,"span":5,"encoder":"02082","distractor":"72082","target":"absent","response":"absent","rt":"3045","correct":true,"confidence":-1},{"trial_n":91,"span":5,"encoder":"28767","distractor":"28707","target":"present","response":"present","rt":"2969","correct":true,"confidence":3},{"trial_n":92,"span":6,"encoder":"780759","distractor":"780659","target":"present","response":"present","rt":"5513","correct":true,"confidence":3},{"trial_n":93,"span":6,"encoder":"607637","distractor":"605637","target":"present","response":"present","rt":"1986","correct":true,"confidence":5},{"trial_n":94,"span":7,"encoder":"4385522","distractor":"4385022","target":"present","response":"present","rt":"4900","correct":true,"confidence":4},{"trial_n":95,"span":7,"encoder":"0877091","distractor":"0877791","target":"present","response":"present","rt":"4993.0000000001","correct":true,"confidence":4},{"trial_n":96,"span":8,"encoder":"30435001","distractor":"30435000","target":"absent","response":"absent","rt":"2256.0000000001","correct":true,"confidence":5},{"trial_n":97,"span":8,"encoder":"53616542","distractor":"53616540","target":"absent","response":"absent","rt":"2045","correct":true,"confidence":5},{"trial_n":98,"span":9,"encoder":"504148217","distractor":"509148217","target":"absent","response":"absent","rt":"7142","correct":true,"confidence":3},{"trial_n":99,"span":9,"encoder":"645519131","distractor":"745519131","target":"absent","response":"absent","rt":"5473","correct":true,"confidence":2},{"trial_n":100,"span":10,"encoder":"8609590397","distractor":"8609390397","target":"present","response":"absent","rt":"4661","correct":false,"confidence":1},{"trial_n":101,"span":9,"encoder":"932945928","distractor":"932145928","target":"present","response":"absent","rt":"5179","correct":false,"confidence":3},{"trial_n":102,"span":8,"encoder":"41624077","distractor":"41629077","target":"absent","response":"present","rt":"5526.0000000002","correct":false,"confidence":1},{"trial_n":103,"span":7,"encoder":"9775013","distractor":"9772013","target":"present","response":"present","rt":"3943","correct":true,"confidence":3},{"trial_n":104,"span":7,"encoder":"5865069","distractor":"5865029","target":"present","response":"present","rt":"4984","correct":true,"confidence":3},{"trial_n":105,"span":8,"encoder":"42985761","distractor":"42485761","target":"absent","response":"absent","rt":"4344","correct":true,"confidence":1},{"trial_n":106,"span":8,"encoder":"90837998","distractor":"90837398","target":"present","response":"absent","rt":"2949","correct":false,"confidence":1},{"trial_n":107,"span":7,"encoder":"0902222","distractor":"0602222","target":"absent","response":"absent","rt":"1906","correct":true,"confidence":5},{"trial_n":108,"span":7,"encoder":"4723530","distractor":"4773530","target":"absent","response":"present","rt":"4881.9999999998","correct":false,"confidence":3},{"trial_n":109,"span":6,"encoder":"665222","distractor":"661222","target":"present","response":"present","rt":"3125.9999999998","correct":true,"confidence":5},{"trial_n":110,"span":6,"encoder":"292569","distractor":"291569","target":"absent","response":"present","rt":"4742","correct":false,"confidence":3},{"trial_n":111,"span":5,"encoder":"62059","distractor":"92059","target":"present","response":"present","rt":"3618","correct":true,"confidence":5},{"trial_n":112,"span":5,"encoder":"08839","distractor":"08809","target":"absent","response":"absent","rt":"2500","correct":true,"confidence":5},{"trial_n":113,"span":6,"encoder":"681352","distractor":"611352","target":"absent","response":"absent","rt":"6676","correct":true,"confidence":4},{"trial_n":114,"span":6,"encoder":"573533","distractor":"573534","target":"present","response":"present","rt":"2920.0000000002","correct":true,"confidence":5},{"trial_n":115,"span":7,"encoder":"8942844","distractor":"8242844","target":"absent","response":"absent","rt":"4231","correct":true,"confidence":5},{"trial_n":116,"span":7,"encoder":"2088396","distractor":"2089396","target":"present","response":"absent","rt":"3183.0000000002","correct":false,"confidence":4},{"trial_n":117,"span":6,"encoder":"293617","distractor":"293657","target":"absent","response":"absent","rt":"4937.9999999998","correct":true,"confidence":4},{"trial_n":118,"span":6,"encoder":"743842","distractor":"743892","target":"absent","response":"absent","rt":"2729","correct":true,"confidence":5},{"trial_n":119,"span":7,"encoder":"7314926","distractor":"7314927","target":"present","response":"present","rt":"2375","correct":true,"confidence":5},{"trial_n":120,"span":7,"encoder":"8337087","distractor":"0337087","target":"absent","response":"absent","rt":"6404","correct":true,"confidence":4},{"trial_n":121,"span":8,"encoder":"43673096","distractor":"43673090","target":"absent","response":"absent","rt":"1721","correct":true,"confidence":5},{"trial_n":122,"span":8,"encoder":"64930563","distractor":"64230563","target":"present","response":"present","rt":"6453.9999999998","correct":true,"confidence":2},{"trial_n":123,"span":9,"encoder":"963254443","distractor":"963284443","target":"absent","response":"absent","rt":"3229","correct":true,"confidence":1},{"trial_n":124,"span":9,"encoder":"504841435","distractor":"504841035","target":"present","response":"absent","rt":"6229","correct":false,"confidence":1},{"trial_n":125,"span":8,"encoder":"20005623","distractor":"20005723","target":"present","response":"present","rt":"2942","correct":true,"confidence":2},{"trial_n":126,"span":8,"encoder":"64103743","distractor":"64103744","target":"absent","response":"absent","rt":"1755","correct":true,"confidence":4},{"trial_n":127,"span":9,"encoder":"094209931","distractor":"094209531","target":"absent","response":"absent","rt":"2848","correct":true,"confidence":4},{"trial_n":128,"span":9,"encoder":"376909534","distractor":"376009534","target":"present","response":"absent","rt":"4906","correct":false,"confidence":3},{"trial_n":129,"span":8,"encoder":"20435010","distractor":"20235010","target":"absent","response":"present","rt":"4038","correct":false,"confidence":1},{"trial_n":130,"span":7,"encoder":"1485502","distractor":"1485542","target":"present","response":"present","rt":"2406","correct":true,"confidence":5},{"trial_n":131,"span":7,"encoder":"7245123","distractor":"7145123","target":"absent","response":"absent","rt":"2788","correct":true,"confidence":2},{"trial_n":132,"span":8,"encoder":"45597073","distractor":"45597093","target":"present","response":"present","rt":"2375","correct":true,"confidence":5},{"trial_n":133,"span":8,"encoder":"96180442","distractor":"96180472","target":"absent","response":"absent","rt":"1792.9999999998","correct":true,"confidence":4},{"trial_n":134,"span":9,"encoder":"308790734","distractor":"108790734","target":"absent","response":"absent","rt":"5493","correct":true,"confidence":1},{"trial_n":135,"span":9,"encoder":"900171503","distractor":"900071503","target":"present","response":"present","rt":"2883","correct":true,"confidence":4},{"trial_n":136,"span":10,"encoder":"7227363380","distractor":"7227303380","target":"absent","response":"present","rt":"5127","correct":false,"confidence":1},{"trial_n":137,"span":9,"encoder":"561384713","distractor":"561384712","target":"present","response":"present","rt":"3295","correct":true,"confidence":4},{"trial_n":138,"span":9,"encoder":"540917412","distractor":"540917417","target":"absent","response":"absent","rt":"1709.9999999998","correct":true,"confidence":4},{"trial_n":139,"span":10,"encoder":"2945307480","distractor":"2945307483","target":"absent","response":"absent","rt":"1777","correct":true,"confidence":5},{"trial_n":140,"span":10,"encoder":"5370984393","distractor":"5340984393","target":"present","response":"absent","rt":"2773","correct":false,"confidence":3}]