[{"trial_n":1,"n_dots":4.25,"target":"left","response":"left","rt":8779.7999999523,"correct":true,"confidence":-1},{"trial_n":2,"n_dots":4.25,"target":"right","response":"right","rt":942.39999997616,"correct":true,"confidence":-1},{"trial_n":3,"n_dots":3.85,"target":"right","response":"left","rt":548.89999997616,"correct":false,"confidence":-1},{"trial_n":4,"n_dots":4.25,"target":"left","response":"left","rt":578.39999997616,"correct":true,"confidence":-1},{"trial_n":5,"n_dots":4.25,"target":"right","response":"right","rt":447.60000002384,"correct":true,"confidence":-1},{"trial_n":6,"n_dots":3.85,"target":"left","response":"right","rt":698.80000007153,"correct":false,"confidence":-1},{"trial_n":7,"n_dots":4.25,"target":"right","response":"left","rt":1091.7000000477,"correct":false,"confidence":-1},{"trial_n":8,"n_dots":4.45,"target":"right","response":"right","rt":629,"correct":true,"confidence":-1},{"trial_n":9,"n_dots":4.45,"target":"right","response":"right","rt":435.79999995232,"correct":true,"confidence":-1},{"trial_n":10,"n_dots":4.25,"target":"right","response":"right","rt":539.19999992847,"correct":true,"confidence":-1},{"trial_n":11,"n_dots":4.25,"target":"right","response":"left","rt":519.5,"correct":false,"confidence":-1},{"trial_n":12,"n_dots":4.45,"target":"right","response":"right","rt":474.20000004768,"correct":true,"confidence":-1},{"trial_n":13,"n_dots":4.45,"target":"left","response":"left","rt":392.39999997616,"correct":true,"confidence":-1},{"trial_n":14,"n_dots":4.35,"target":"right","response":"right","rt":564.5,"correct":true,"confidence":-1},{"trial_n":15,"n_dots":4.35,"target":"left","response":"right","rt":1262.6000000238,"correct":false,"confidence":-1},{"trial_n":16,"n_dots":4.45,"target":"right","response":"right","rt":384.10000002384,"correct":true,"confidence":-1},{"trial_n":17,"n_dots":4.45,"target":"right","response":"right","rt":555.09999990463,"correct":true,"confidence":-1},{"trial_n":18,"n_dots":4.35,"target":"right","response":"right","rt":657.69999992847,"correct":true,"confidence":-1},{"trial_n":19,"n_dots":4.35,"target":"left","response":"left","rt":482.60000002384,"correct":true,"confidence":-1},{"trial_n":20,"n_dots":4.25,"target":"left","response":"left","rt":675.89999997616,"correct":true,"confidence":-1},{"trial_n":21,"n_dots":4.25,"target":"right","response":"right","rt":415.5,"correct":true,"confidence":5},{"trial_n":22,"n_dots":4.15,"target":"left","response":"right","rt":1032.5,"correct":false,"confidence":3},{"trial_n":23,"n_dots":4.25,"target":"left","response":"left","rt":1438.2999999523,"correct":true,"confidence":4},{"trial_n":24,"n_dots":4.25,"target":"left","response":"left","rt":774.89999997616,"correct":true,"confidence":5},{"trial_n":25,"n_dots":4.15,"target":"right","response":"right","rt":417.29999995232,"correct":true,"confidence":5},{"trial_n":26,"n_dots":4.15,"target":"right","response":"right","rt":912,"correct":true,"confidence":4},{"trial_n":27,"n_dots":4.05,"target":"right","response":"right","rt":589.69999992847,"correct":true,"confidence":5},{"trial_n":28,"n_dots":4.05,"target":"left","response":"left","rt":525.39999997616,"correct":true,"confidence":3},{"trial_n":29,"n_dots":3.95,"target":"left","response":"left","rt":725.10000002384,"correct":true,"confidence":4},{"trial_n":30,"n_dots":3.95,"target":"left","response":"right","rt":1122.2999999523,"correct":false,"confidence":5},{"trial_n":31,"n_dots":4.05,"target":"left","response":"right","rt":668.10000002384,"correct":false,"confidence":2},{"trial_n":32,"n_dots":4.15,"target":"left","response":"left","rt":773.89999997616,"correct":true,"confidence":5},{"trial_n":33,"n_dots":4.15,"target":"right","response":"left","rt":668.39999997616,"correct":false,"confidence":4},{"trial_n":34,"n_dots":4.25,"target":"left","response":"left","rt":1212.6000000238,"correct":true,"confidence":5},{"trial_n":35,"n_dots":4.25,"target":"right","response":"right","rt":585.10000002384,"correct":true,"confidence":5},{"trial_n":36,"n_dots":4.15,"target":"right","response":"right","rt":1281.1000000238,"correct":true,"confidence":5},{"trial_n":37,"n_dots":4.15,"target":"left","response":"left","rt":813.80000007153,"correct":true,"confidence":5},{"trial_n":38,"n_dots":4.05,"target":"left","response":"right","rt":682.89999997616,"correct":false,"confidence":4},{"trial_n":39,"n_dots":4.15,"target":"left","response":"left","rt":548.10000002384,"correct":true,"confidence":5},{"trial_n":40,"n_dots":4.15,"target":"right","response":"right","rt":299.79999995232,"correct":true,"confidence":5},{"trial_n":41,"n_dots":4.05,"target":"left","response":"left","rt":754.39999997616,"correct":true,"confidence":4},{"trial_n":42,"n_dots":4.05,"target":"left","response":"right","rt":702.10000002384,"correct":false,"confidence":4},{"trial_n":43,"n_dots":4.15,"target":"right","response":"right","rt":182.90000009537,"correct":true,"confidence":5},{"trial_n":44,"n_dots":4.15,"target":"left","response":"left","rt":496.90000009537,"correct":true,"confidence":5},{"trial_n":45,"n_dots":4.05,"target":"left","response":"left","rt":571.59999990463,"correct":true,"confidence":5},{"trial_n":46,"n_dots":4.05,"target":"left","response":"left","rt":749.20000004768,"correct":true,"confidence":5},{"trial_n":47,"n_dots":3.95,"target":"right","response":"right","rt":907.29999995232,"correct":true,"confidence":5},{"trial_n":48,"n_dots":3.95,"target":"right","response":"right","rt":559.5,"correct":true,"confidence":5},{"trial_n":49,"n_dots":3.85,"target":"left","response":"left","rt":233.5,"correct":true,"confidence":5},{"trial_n":50,"n_dots":3.85,"target":"left","response":"left","rt":372.20000004768,"correct":true,"confidence":5},{"trial_n":51,"n_dots":3.75,"target":"left","response":"left","rt":785.59999990463,"correct":true,"confidence":5},{"trial_n":52,"n_dots":3.75,"target":"right","response":"right","rt":725.59999990463,"correct":true,"confidence":5},{"trial_n":53,"n_dots":3.65,"target":"left","response":"left","rt":186.89999997616,"correct":true,"confidence":5},{"trial_n":54,"n_dots":3.65,"target":"right","response":"right","rt":308.70000004768,"correct":true,"confidence":5},{"trial_n":55,"n_dots":3.55,"target":"right","response":"right","rt":504.39999997616,"correct":true,"confidence":5},{"trial_n":56,"n_dots":3.55,"target":"right","response":"right","rt":687.10000002384,"correct":true,"confidence":4},{"trial_n":57,"n_dots":3.45,"target":"right","response":"right","rt":1137.5,"correct":true,"confidence":3},{"trial_n":58,"n_dots":3.45,"target":"left","response":"left","rt":333.79999995232,"correct":true,"confidence":4},{"trial_n":59,"n_dots":3.35,"target":"right","response":"right","rt":605.89999997616,"correct":true,"confidence":5},{"trial_n":60,"n_dots":3.35,"target":"left","response":"left","rt":79.100000023842,"correct":true,"confidence":5},{"trial_n":61,"n_dots":3.25,"target":"right","response":"right","rt":435.5,"correct":true,"confidence":5},{"trial_n":62,"n_dots":3.25,"target":"right","response":"right","rt":559.89999997616,"correct":true,"confidence":5},{"trial_n":63,"n_dots":3.15,"target":"left","response":"left","rt":261.89999997616,"correct":true,"confidence":5},{"trial_n":64,"n_dots":3.15,"target":"right","response":"right","rt":664.60000002384,"correct":true,"confidence":5},{"trial_n":65,"n_dots":3.05,"target":"right","response":"left","rt":887.90000009537,"correct":false,"confidence":4},{"trial_n":66,"n_dots":3.15,"target":"right","response":"right","rt":359.80000007153,"correct":true,"confidence":5},{"trial_n":67,"n_dots":3.15,"target":"right","response":"right","rt":431.89999997616,"correct":true,"confidence":5},{"trial_n":68,"n_dots":3.05,"target":"left","response":"left","rt":498.20000004768,"correct":true,"confidence":5},{"trial_n":69,"n_dots":3.05,"target":"left","response":"left","rt":377.39999997616,"correct":true,"confidence":5},{"trial_n":70,"n_dots":2.95,"target":"left","response":"left","rt":676.60000002384,"correct":true,"confidence":3},{"trial_n":71,"n_dots":2.95,"target":"left","response":"right","rt":1045.1000000238,"correct":false,"confidence":2},{"trial_n":72,"n_dots":3.05,"target":"left","response":"right","rt":988.20000004768,"correct":false,"confidence":3},{"trial_n":73,"n_dots":3.15,"target":"right","response":"right","rt":558.90000009537,"correct":true,"confidence":5},{"trial_n":74,"n_dots":3.15,"target":"right","response":"right","rt":388.20000004768,"correct":true,"confidence":5},{"trial_n":75,"n_dots":3.05,"target":"right","response":"right","rt":799.80000007153,"correct":true,"confidence":5},{"trial_n":76,"n_dots":3.05,"target":"left","response":"left","rt":449.70000004768,"correct":true,"confidence":3},{"trial_n":77,"n_dots":2.95,"target":"right","response":"right","rt":978.30000007153,"correct":true,"confidence":3},{"trial_n":78,"n_dots":2.95,"target":"right","response":"right","rt":596.39999997616,"correct":true,"confidence":5},{"trial_n":79,"n_dots":2.85,"target":"right","response":"right","rt":1263.6000000238,"correct":true,"confidence":4},{"trial_n":80,"n_dots":2.85,"target":"right","response":"right","rt":875.79999995232,"correct":true,"confidence":5},{"trial_n":81,"n_dots":2.75,"target":"right","response":"right","rt":689.59999990463,"correct":true,"confidence":5},{"trial_n":82,"n_dots":2.75,"target":"left","response":"left","rt":394.60000002384,"correct":true,"confidence":5},{"trial_n":83,"n_dots":2.65,"target":"left","response":"left","rt":326.5,"correct":true,"confidence":5},{"trial_n":84,"n_dots":2.65,"target":"right","response":"left","rt":575.29999995232,"correct":false,"confidence":5},{"trial_n":85,"n_dots":2.75,"target":"left","response":"left","rt":1529.7000000477,"correct":true,"confidence":3},{"trial_n":86,"n_dots":2.75,"target":"right","response":"right","rt":499.89999997616,"correct":true,"confidence":5},{"trial_n":87,"n_dots":2.65,"target":"right","response":"right","rt":1465.1999999285,"correct":true,"confidence":4},{"trial_n":88,"n_dots":2.65,"target":"left","response":"left","rt":295.5,"correct":true,"confidence":5},{"trial_n":89,"n_dots":2.55,"target":"left","response":"left","rt":391.30000007153,"correct":true,"confidence":5},{"trial_n":90,"n_dots":2.55,"target":"left","response":"left","rt":229.89999997616,"correct":true,"confidence":5},{"trial_n":91,"n_dots":2.45,"target":"right","response":"right","rt":749.70000004768,"correct":true,"confidence":5},{"trial_n":92,"n_dots":2.45,"target":"right","response":"right","rt":306.29999995232,"correct":true,"confidence":5},{"trial_n":93,"n_dots":2.35,"target":"left","response":"right","rt":874.10000002384,"correct":false,"confidence":4},{"trial_n":94,"n_dots":2.45,"target":"left","response":"right","rt":623.29999995232,"correct":false,"confidence":5},{"trial_n":95,"n_dots":2.55,"target":"right","response":"right","rt":661.69999992847,"correct":true,"confidence":5},{"trial_n":96,"n_dots":2.55,"target":"left","response":"left","rt":257.79999995232,"correct":true,"confidence":5},{"trial_n":97,"n_dots":2.45,"target":"left","response":"left","rt":315.29999995232,"correct":true,"confidence":5},{"trial_n":98,"n_dots":2.45,"target":"right","response":"left","rt":656.5,"correct":false,"confidence":5},{"trial_n":99,"n_dots":2.55,"target":"left","response":"right","rt":1707.1000000238,"correct":false,"confidence":5},{"trial_n":100,"n_dots":2.65,"target":"left","response":"left","rt":586.90000009537,"correct":true,"confidence":5},{"trial_n":101,"n_dots":2.65,"target":"right","response":"right","rt":401.5,"correct":true,"confidence":5},{"trial_n":102,"n_dots":2.55,"target":"left","response":"left","rt":480.70000004768,"correct":true,"confidence":4},{"trial_n":103,"n_dots":2.55,"target":"left","response":"right","rt":474.10000002384,"correct":false,"confidence":5},{"trial_n":104,"n_dots":2.65,"target":"right","response":"right","rt":647.80000007153,"correct":true,"confidence":5},{"trial_n":105,"n_dots":2.65,"target":"right","response":"right","rt":876.30000007153,"correct":true,"confidence":3},{"trial_n":106,"n_dots":2.55,"target":"right","response":"right","rt":1683.3999999762,"correct":true,"confidence":4},{"trial_n":107,"n_dots":2.55,"target":"left","response":"right","rt":971.80000007153,"correct":false,"confidence":4},{"trial_n":108,"n_dots":2.65,"target":"right","response":"right","rt":1721.3999999762,"correct":true,"confidence":5},{"trial_n":109,"n_dots":2.65,"target":"right","response":"left","rt":1131.5,"correct":false,"confidence":3},{"trial_n":110,"n_dots":2.75,"target":"left","response":"right","rt":563.89999997616,"correct":false,"confidence":5},{"trial_n":111,"n_dots":2.85,"target":"right","response":"right","rt":778.5,"correct":true,"confidence":4},{"trial_n":112,"n_dots":2.85,"target":"left","response":"left","rt":780.10000002384,"correct":true,"confidence":5},{"trial_n":113,"n_dots":2.75,"target":"left","response":"left","rt":988.70000004768,"correct":true,"confidence":4},{"trial_n":114,"n_dots":2.75,"target":"left","response":"left","rt":1129.8999999762,"correct":true,"confidence":5},{"trial_n":115,"n_dots":2.65,"target":"left","response":"right","rt":455.89999997616,"correct":false,"confidence":4},{"trial_n":116,"n_dots":2.75,"target":"left","response":"left","rt":796.40000009537,"correct":true,"confidence":4},{"trial_n":117,"n_dots":2.75,"target":"left","response":"left","rt":967.89999997616,"correct":true,"confidence":5},{"trial_n":118,"n_dots":2.65,"target":"right","response":"left","rt":844.10000002384,"correct":false,"confidence":5},{"trial_n":119,"n_dots":2.75,"target":"left","response":"left","rt":545.70000004768,"correct":true,"confidence":5},{"trial_n":120,"n_dots":2.75,"target":"right","response":"left","rt":652,"correct":false,"confidence":5}]