[{"trial_n":1,"min":25,"max":230,"target":"present","response":"present","rt":8689.2000000477,"correct":true,"confidence":-1},{"trial_n":2,"min":25,"max":230,"target":"present","response":"present","rt":4097.1999999285,"correct":true,"confidence":-1},{"trial_n":3,"min":41,"max":214,"target":"absent","response":"absent","rt":569.80000007153,"correct":true,"confidence":-1},{"trial_n":4,"min":41,"max":214,"target":"absent","response":"absent","rt":490.59999990463,"correct":true,"confidence":-1},{"trial_n":5,"min":57,"max":198,"target":"present","response":"present","rt":331.60000002384,"correct":true,"confidence":-1},{"trial_n":6,"min":57,"max":198,"target":"absent","response":"absent","rt":436.09999990463,"correct":true,"confidence":-1},{"trial_n":7,"min":73,"max":182,"target":"absent","response":"absent","rt":422.5,"correct":true,"confidence":-1},{"trial_n":8,"min":73,"max":182,"target":"present","response":"present","rt":445.90000009537,"correct":true,"confidence":-1},{"trial_n":9,"min":89,"max":166,"target":"present","response":"present","rt":502,"correct":true,"confidence":-1},{"trial_n":10,"min":89,"max":166,"target":"present","response":"present","rt":478.10000002384,"correct":true,"confidence":-1},{"trial_n":11,"min":97,"max":158,"target":"present","response":"present","rt":716.29999995232,"correct":true,"confidence":-1},{"trial_n":12,"min":97,"max":158,"target":"present","response":"present","rt":392.70000004768,"correct":true,"confidence":-1},{"trial_n":13,"min":105,"max":150,"target":"absent","response":"absent","rt":449.89999997616,"correct":true,"confidence":-1},{"trial_n":14,"min":105,"max":150,"target":"absent","response":"absent","rt":453.90000009537,"correct":true,"confidence":-1},{"trial_n":15,"min":113,"max":142,"target":"present","response":"absent","rt":382.5,"correct":false,"confidence":-1},{"trial_n":16,"min":105,"max":150,"target":"present","response":"present","rt":467.89999997616,"correct":true,"confidence":-1},{"trial_n":17,"min":105,"max":150,"target":"absent","response":"present","rt":590.70000004768,"correct":false,"confidence":-1},{"trial_n":18,"min":97,"max":158,"target":"absent","response":"absent","rt":452.5,"correct":true,"confidence":-1},{"trial_n":19,"min":97,"max":158,"target":"present","response":"absent","rt":465.79999995232,"correct":false,"confidence":-1},{"trial_n":20,"min":89,"max":166,"target":"absent","response":"absent","rt":838,"correct":true,"confidence":-1},{"trial_n":21,"min":89,"max":166,"target":"absent","response":"absent","rt":435.79999995232,"correct":true,"confidence":3},{"trial_n":22,"min":93,"max":162,"target":"absent","response":"absent","rt":822.19999992847,"correct":true,"confidence":5},{"trial_n":23,"min":93,"max":162,"target":"absent","response":"absent","rt":562.60000002384,"correct":true,"confidence":5},{"trial_n":24,"min":97,"max":158,"target":"absent","response":"absent","rt":1119.5,"correct":true,"confidence":5},{"trial_n":25,"min":97,"max":158,"target":"absent","response":"present","rt":1473.2000000477,"correct":false,"confidence":3},{"trial_n":26,"min":93,"max":162,"target":"present","response":"absent","rt":1638.1999999285,"correct":false,"confidence":5},{"trial_n":27,"min":89,"max":166,"target":"present","response":"absent","rt":834.20000004768,"correct":false,"confidence":5},{"trial_n":28,"min":85,"max":170,"target":"present","response":"present","rt":929.70000004768,"correct":true,"confidence":4},{"trial_n":29,"min":85,"max":170,"target":"absent","response":"absent","rt":763.60000002384,"correct":true,"confidence":4},{"trial_n":30,"min":89,"max":166,"target":"present","response":"absent","rt":1305.1000000238,"correct":false,"confidence":5},{"trial_n":31,"min":87,"max":168,"target":"present","response":"present","rt":851.20000004768,"correct":true,"confidence":4},{"trial_n":32,"min":87,"max":168,"target":"present","response":"present","rt":927.29999995232,"correct":true,"confidence":5},{"trial_n":33,"min":89,"max":166,"target":"absent","response":"absent","rt":1030.3999999762,"correct":true,"confidence":5},{"trial_n":34,"min":89,"max":166,"target":"absent","response":"present","rt":960,"correct":false,"confidence":5},{"trial_n":35,"min":87,"max":168,"target":"absent","response":"present","rt":722.19999992847,"correct":false,"confidence":5},{"trial_n":36,"min":85,"max":170,"target":"absent","response":"absent","rt":1092.4000000954,"correct":true,"confidence":3},{"trial_n":37,"min":85,"max":170,"target":"present","response":"present","rt":928,"correct":true,"confidence":5},{"trial_n":38,"min":87,"max":168,"target":"present","response":"present","rt":663.69999992847,"correct":true,"confidence":5},{"trial_n":39,"min":87,"max":168,"target":"absent","response":"present","rt":948.89999997616,"correct":false,"confidence":5},{"trial_n":40,"min":85,"max":170,"target":"absent","response":"present","rt":776.10000002384,"correct":false,"confidence":5},{"trial_n":41,"min":84,"max":171,"target":"present","response":"present","rt":713.39999997616,"correct":true,"confidence":5},{"trial_n":42,"min":84,"max":171,"target":"present","response":"present","rt":619.90000009537,"correct":true,"confidence":5},{"trial_n":43,"min":85,"max":170,"target":"absent","response":"present","rt":740.79999995232,"correct":false,"confidence":5},{"trial_n":44,"min":84,"max":171,"target":"absent","response":"absent","rt":759.89999997616,"correct":true,"confidence":4},{"trial_n":45,"min":84,"max":171,"target":"present","response":"present","rt":1409.6000000238,"correct":true,"confidence":5},{"trial_n":46,"min":85,"max":170,"target":"absent","response":"present","rt":624.80000007153,"correct":false,"confidence":3},{"trial_n":47,"min":84,"max":171,"target":"present","response":"present","rt":564.5,"correct":true,"confidence":5},{"trial_n":48,"min":84,"max":171,"target":"present","response":"present","rt":724,"correct":true,"confidence":5},{"trial_n":49,"min":85,"max":170,"target":"present","response":"present","rt":522.79999995232,"correct":true,"confidence":5},{"trial_n":50,"min":85,"max":170,"target":"present","response":"present","rt":481.5,"correct":true,"confidence":4},{"trial_n":51,"min":86,"max":169,"target":"present","response":"present","rt":909.70000004768,"correct":true,"confidence":5},{"trial_n":52,"min":86,"max":169,"target":"absent","response":"present","rt":578.89999997616,"correct":false,"confidence":5},{"trial_n":53,"min":85,"max":170,"target":"present","response":"present","rt":496.39999997616,"correct":true,"confidence":4},{"trial_n":54,"min":85,"max":170,"target":"absent","response":"present","rt":468.89999997616,"correct":false,"confidence":5},{"trial_n":55,"min":84,"max":171,"target":"absent","response":"absent","rt":709.29999995232,"correct":true,"confidence":4},{"trial_n":56,"min":84,"max":171,"target":"absent","response":"present","rt":410.5,"correct":false,"confidence":4},{"trial_n":57,"min":83,"max":172,"target":"absent","response":"present","rt":514.5,"correct":false,"confidence":5},{"trial_n":58,"min":82,"max":173,"target":"absent","response":"present","rt":605,"correct":false,"confidence":2},{"trial_n":59,"min":81,"max":174,"target":"absent","response":"absent","rt":910.29999995232,"correct":true,"confidence":4},{"trial_n":60,"min":81,"max":174,"target":"absent","response":"absent","rt":1134.5,"correct":true,"confidence":5},{"trial_n":61,"min":82,"max":173,"target":"present","response":"present","rt":614.20000004768,"correct":true,"confidence":5},{"trial_n":62,"min":82,"max":173,"target":"absent","response":"present","rt":879.29999995232,"correct":false,"confidence":5},{"trial_n":63,"min":81,"max":174,"target":"present","response":"present","rt":1795.3999999762,"correct":true,"confidence":5},{"trial_n":64,"min":81,"max":174,"target":"absent","response":"absent","rt":778.20000004768,"correct":true,"confidence":5},{"trial_n":65,"min":82,"max":173,"target":"present","response":"absent","rt":1149.3000000715,"correct":false,"confidence":3},{"trial_n":66,"min":81,"max":174,"target":"present","response":"present","rt":734.29999995232,"correct":true,"confidence":5},{"trial_n":67,"min":81,"max":174,"target":"present","response":"present","rt":1316.2999999523,"correct":true,"confidence":5},{"trial_n":68,"min":82,"max":173,"target":"present","response":"present","rt":797,"correct":true,"confidence":5},{"trial_n":69,"min":82,"max":173,"target":"present","response":"present","rt":899.80000007153,"correct":true,"confidence":5},{"trial_n":70,"min":83,"max":172,"target":"present","response":"present","rt":847.39999997616,"correct":true,"confidence":5},{"trial_n":71,"min":41,"max":214,"target":"present","response":"present","rt":1360.7000000477,"correct":true,"confidence":-1},{"trial_n":72,"min":41,"max":214,"target":"present","response":"present","rt":697.39999997616,"correct":true,"confidence":-1},{"trial_n":73,"min":57,"max":198,"target":"absent","response":"absent","rt":731.69999992847,"correct":true,"confidence":-1},{"trial_n":74,"min":57,"max":198,"target":"absent","response":"absent","rt":501.79999995232,"correct":true,"confidence":-1},{"trial_n":75,"min":73,"max":182,"target":"present","response":"present","rt":429,"correct":true,"confidence":-1},{"trial_n":76,"min":73,"max":182,"target":"absent","response":"absent","rt":841.89999997616,"correct":true,"confidence":-1},{"trial_n":77,"min":89,"max":166,"target":"present","response":"present","rt":385.39999997616,"correct":true,"confidence":-1},{"trial_n":78,"min":89,"max":166,"target":"absent","response":"present","rt":1017.1000000238,"correct":false,"confidence":-1},{"trial_n":79,"min":73,"max":182,"target":"present","response":"present","rt":696.89999997616,"correct":true,"confidence":-1},{"trial_n":80,"min":73,"max":182,"target":"present","response":"present","rt":569.29999995232,"correct":true,"confidence":-1},{"trial_n":81,"min":81,"max":174,"target":"present","response":"present","rt":450.89999997616,"correct":true,"confidence":-1},{"trial_n":82,"min":81,"max":174,"target":"absent","response":"absent","rt":624.70000004768,"correct":true,"confidence":-1},{"trial_n":83,"min":89,"max":166,"target":"present","response":"present","rt":396.20000004768,"correct":true,"confidence":-1},{"trial_n":84,"min":89,"max":166,"target":"present","response":"present","rt":722.60000002384,"correct":true,"confidence":-1},{"trial_n":85,"min":97,"max":158,"target":"present","response":"present","rt":729.79999995232,"correct":true,"confidence":-1},{"trial_n":86,"min":97,"max":158,"target":"present","response":"absent","rt":510.70000004768,"correct":false,"confidence":-1},{"trial_n":87,"min":89,"max":166,"target":"absent","response":"present","rt":393,"correct":false,"confidence":-1},{"trial_n":88,"min":81,"max":174,"target":"absent","response":"absent","rt":837.59999990463,"correct":true,"confidence":-1},{"trial_n":89,"min":81,"max":174,"target":"present","response":"present","rt":429,"correct":true,"confidence":-1},{"trial_n":90,"min":89,"max":166,"target":"present","response":"present","rt":459.60000002384,"correct":true,"confidence":-1},{"trial_n":91,"min":89,"max":166,"target":"absent","response":"absent","rt":955,"correct":true,"confidence":1},{"trial_n":92,"min":93,"max":162,"target":"present","response":"present","rt":346,"correct":true,"confidence":5},{"trial_n":93,"min":93,"max":162,"target":"absent","response":"present","rt":804.5,"correct":false,"confidence":5},{"trial_n":94,"min":89,"max":166,"target":"absent","response":"absent","rt":636.29999995232,"correct":true,"confidence":5},{"trial_n":95,"min":89,"max":166,"target":"absent","response":"absent","rt":1413,"correct":true,"confidence":4},{"trial_n":96,"min":93,"max":162,"target":"absent","response":"absent","rt":1292.6000000238,"correct":true,"confidence":4},{"trial_n":97,"min":93,"max":162,"target":"absent","response":"absent","rt":855.29999995232,"correct":true,"confidence":5},{"trial_n":98,"min":97,"max":158,"target":"present","response":"present","rt":727,"correct":true,"confidence":5},{"trial_n":99,"min":97,"max":158,"target":"absent","response":"absent","rt":1618,"correct":true,"confidence":3},{"trial_n":100,"min":101,"max":154,"target":"absent","response":"present","rt":521.59999990463,"correct":false,"confidence":4},{"trial_n":101,"min":99,"max":156,"target":"present","response":"present","rt":648.79999995232,"correct":true,"confidence":4},{"trial_n":102,"min":99,"max":156,"target":"present","response":"absent","rt":494.60000002384,"correct":false,"confidence":3},{"trial_n":103,"min":97,"max":158,"target":"absent","response":"present","rt":605.09999990463,"correct":false,"confidence":3},{"trial_n":104,"min":95,"max":160,"target":"absent","response":"present","rt":405.30000007153,"correct":false,"confidence":5},{"trial_n":105,"min":93,"max":162,"target":"absent","response":"absent","rt":1307.2000000477,"correct":true,"confidence":2},{"trial_n":106,"min":93,"max":162,"target":"absent","response":"present","rt":389.10000002384,"correct":false,"confidence":4},{"trial_n":107,"min":91,"max":164,"target":"present","response":"present","rt":2739.2000000477,"correct":true,"confidence":1},{"trial_n":108,"min":91,"max":164,"target":"present","response":"present","rt":939.5,"correct":true,"confidence":5},{"trial_n":109,"min":93,"max":162,"target":"absent","response":"absent","rt":1601.3000000715,"correct":true,"confidence":4},{"trial_n":110,"min":93,"max":162,"target":"absent","response":"present","rt":751,"correct":false,"confidence":5},{"trial_n":111,"min":92,"max":163,"target":"absent","response":"present","rt":975,"correct":false,"confidence":5},{"trial_n":112,"min":91,"max":164,"target":"present","response":"present","rt":672.10000002384,"correct":true,"confidence":5},{"trial_n":113,"min":91,"max":164,"target":"absent","response":"present","rt":532.20000004768,"correct":false,"confidence":4},{"trial_n":114,"min":90,"max":165,"target":"absent","response":"present","rt":817.20000004768,"correct":false,"confidence":4},{"trial_n":115,"min":89,"max":166,"target":"absent","response":"absent","rt":453,"correct":true,"confidence":4},{"trial_n":116,"min":89,"max":166,"target":"present","response":"present","rt":391.59999990463,"correct":true,"confidence":5},{"trial_n":117,"min":90,"max":165,"target":"present","response":"absent","rt":1693.6000000238,"correct":false,"confidence":1},{"trial_n":118,"min":89,"max":166,"target":"absent","response":"present","rt":1283.3999999762,"correct":false,"confidence":5},{"trial_n":119,"min":88,"max":167,"target":"absent","response":"present","rt":535.89999997616,"correct":false,"confidence":5},{"trial_n":120,"min":87,"max":168,"target":"present","response":"absent","rt":1092.1999999285,"correct":false,"confidence":3},{"trial_n":121,"min":86,"max":169,"target":"absent","response":"absent","rt":907.70000004768,"correct":true,"confidence":5},{"trial_n":122,"min":86,"max":169,"target":"present","response":"present","rt":652.20000004768,"correct":true,"confidence":5},{"trial_n":123,"min":87,"max":168,"target":"absent","response":"absent","rt":468.20000004768,"correct":true,"confidence":5},{"trial_n":124,"min":87,"max":168,"target":"present","response":"present","rt":1352.6999999285,"correct":true,"confidence":4},{"trial_n":125,"min":88,"max":167,"target":"absent","response":"absent","rt":605.39999997616,"correct":true,"confidence":5},{"trial_n":126,"min":88,"max":167,"target":"present","response":"present","rt":517.89999997616,"correct":true,"confidence":5},{"trial_n":127,"min":89,"max":166,"target":"present","response":"present","rt":301.10000002384,"correct":true,"confidence":5},{"trial_n":128,"min":89,"max":166,"target":"absent","response":"absent","rt":425.90000009537,"correct":true,"confidence":5},{"trial_n":129,"min":90,"max":165,"target":"absent","response":"present","rt":1421.6000000238,"correct":false,"confidence":3},{"trial_n":130,"min":89,"max":166,"target":"present","response":"present","rt":600.19999992847,"correct":true,"confidence":5},{"trial_n":131,"min":89,"max":166,"target":"present","response":"present","rt":464.59999990463,"correct":true,"confidence":5},{"trial_n":132,"min":90,"max":165,"target":"present","response":"absent","rt":561.10000002384,"correct":false,"confidence":5},{"trial_n":133,"min":89,"max":166,"target":"absent","response":"present","rt":771,"correct":false,"confidence":2},{"trial_n":134,"min":88,"max":167,"target":"absent","response":"absent","rt":1018.8000000715,"correct":true,"confidence":4},{"trial_n":135,"min":88,"max":167,"target":"present","response":"present","rt":416.10000002384,"correct":true,"confidence":5},{"trial_n":136,"min":89,"max":166,"target":"present","response":"present","rt":293,"correct":true,"confidence":5},{"trial_n":137,"min":89,"max":166,"target":"present","response":"present","rt":557.29999995232,"correct":true,"confidence":5},{"trial_n":138,"min":90,"max":165,"target":"present","response":"present","rt":630,"correct":true,"confidence":5},{"trial_n":139,"min":90,"max":165,"target":"present","response":"present","rt":336.90000009537,"correct":true,"confidence":5},{"trial_n":140,"min":91,"max":164,"target":"present","response":"absent","rt":479.89999997616,"correct":false,"confidence":4}]