[{"trial_n":1,"min":25,"max":230,"target":"present","response":"present","rt":4649,"correct":true,"confidence":-1},{"trial_n":2,"min":25,"max":230,"target":"present","response":"present","rt":1869,"correct":true,"confidence":-1},{"trial_n":3,"min":41,"max":214,"target":"absent","response":"absent","rt":841,"correct":true,"confidence":-1},{"trial_n":4,"min":41,"max":214,"target":"absent","response":"absent","rt":330,"correct":true,"confidence":-1},{"trial_n":5,"min":57,"max":198,"target":"present","response":"present","rt":178,"correct":true,"confidence":-1},{"trial_n":6,"min":57,"max":198,"target":"absent","response":"absent","rt":222,"correct":true,"confidence":-1},{"trial_n":7,"min":73,"max":182,"target":"absent","response":"absent","rt":61,"correct":true,"confidence":-1},{"trial_n":8,"min":73,"max":182,"target":"absent","response":"absent","rt":34,"correct":true,"confidence":-1},{"trial_n":9,"min":89,"max":166,"target":"absent","response":"absent","rt":262,"correct":true,"confidence":-1},{"trial_n":10,"min":89,"max":166,"target":"present","response":"absent","rt":361,"correct":false,"confidence":-1},{"trial_n":11,"min":81,"max":174,"target":"present","response":"present","rt":335,"correct":true,"confidence":-1},{"trial_n":12,"min":81,"max":174,"target":"present","response":"absent","rt":279,"correct":false,"confidence":-1},{"trial_n":13,"min":73,"max":182,"target":"absent","response":"present","rt":280,"correct":false,"confidence":-1},{"trial_n":14,"min":65,"max":190,"target":"present","response":"present","rt":774,"correct":true,"confidence":-1},{"trial_n":15,"min":65,"max":190,"target":"present","response":"present","rt":567,"correct":true,"confidence":-1},{"trial_n":16,"min":73,"max":182,"target":"present","response":"present","rt":298,"correct":true,"confidence":-1},{"trial_n":17,"min":73,"max":182,"target":"present","response":"present","rt":364,"correct":true,"confidence":-1},{"trial_n":18,"min":81,"max":174,"target":"absent","response":"absent","rt":360,"correct":true,"confidence":-1},{"trial_n":19,"min":81,"max":174,"target":"absent","response":"absent","rt":352,"correct":true,"confidence":-1},{"trial_n":20,"min":89,"max":166,"target":"absent","response":"present","rt":377,"correct":false,"confidence":-1},{"trial_n":21,"min":85,"max":170,"target":"present","response":"present","rt":382.99999999999,"correct":true,"confidence":3},{"trial_n":22,"min":85,"max":170,"target":"present","response":"present","rt":465,"correct":true,"confidence":5},{"trial_n":23,"min":89,"max":166,"target":"absent","response":"present","rt":1131,"correct":false,"confidence":2},{"trial_n":24,"min":85,"max":170,"target":"present","response":"present","rt":2662,"correct":true,"confidence":1},{"trial_n":25,"min":85,"max":170,"target":"present","response":"absent","rt":338,"correct":false,"confidence":4},{"trial_n":26,"min":81,"max":174,"target":"present","response":"present","rt":779,"correct":true,"confidence":2},{"trial_n":27,"min":81,"max":174,"target":"absent","response":"absent","rt":371,"correct":true,"confidence":5},{"trial_n":28,"min":85,"max":170,"target":"present","response":"present","rt":391.00000000001,"correct":true,"confidence":3},{"trial_n":29,"min":85,"max":170,"target":"absent","response":"absent","rt":1032,"correct":true,"confidence":4},{"trial_n":30,"min":89,"max":166,"target":"absent","response":"absent","rt":390,"correct":true,"confidence":4},{"trial_n":31,"min":89,"max":166,"target":"absent","response":"absent","rt":449,"correct":true,"confidence":5},{"trial_n":32,"min":91,"max":164,"target":"present","response":"absent","rt":549.00000000001,"correct":false,"confidence":5},{"trial_n":33,"min":89,"max":166,"target":"absent","response":"absent","rt":731,"correct":true,"confidence":5},{"trial_n":34,"min":89,"max":166,"target":"present","response":"absent","rt":1124,"correct":false,"confidence":5},{"trial_n":35,"min":87,"max":168,"target":"present","response":"present","rt":329,"correct":true,"confidence":3},{"trial_n":36,"min":87,"max":168,"target":"absent","response":"absent","rt":590,"correct":true,"confidence":4},{"trial_n":37,"min":89,"max":166,"target":"absent","response":"absent","rt":682.00000000001,"correct":true,"confidence":4},{"trial_n":38,"min":89,"max":166,"target":"absent","response":"absent","rt":523,"correct":true,"confidence":4},{"trial_n":39,"min":91,"max":164,"target":"absent","response":"absent","rt":1446,"correct":true,"confidence":4},{"trial_n":40,"min":91,"max":164,"target":"present","response":"present","rt":321,"correct":true,"confidence":3},{"trial_n":41,"min":92,"max":163,"target":"absent","response":"absent","rt":747,"correct":true,"confidence":3},{"trial_n":42,"min":92,"max":163,"target":"absent","response":"absent","rt":330,"correct":true,"confidence":4},{"trial_n":43,"min":93,"max":162,"target":"absent","response":"absent","rt":1143,"correct":true,"confidence":4},{"trial_n":44,"min":93,"max":162,"target":"present","response":"present","rt":312,"correct":true,"confidence":3},{"trial_n":45,"min":94,"max":161,"target":"absent","response":"absent","rt":1109,"correct":true,"confidence":4},{"trial_n":46,"min":94,"max":161,"target":"absent","response":"present","rt":690,"correct":false,"confidence":3},{"trial_n":47,"min":93,"max":162,"target":"absent","response":"absent","rt":336,"correct":true,"confidence":3},{"trial_n":48,"min":93,"max":162,"target":"absent","response":"absent","rt":389,"correct":true,"confidence":4},{"trial_n":49,"min":94,"max":161,"target":"present","response":"absent","rt":784,"correct":false,"confidence":4},{"trial_n":50,"min":93,"max":162,"target":"present","response":"absent","rt":1348,"correct":false,"confidence":4},{"trial_n":51,"min":92,"max":163,"target":"present","response":"present","rt":1243,"correct":true,"confidence":2},{"trial_n":52,"min":92,"max":163,"target":"absent","response":"absent","rt":619,"correct":true,"confidence":4},{"trial_n":53,"min":93,"max":162,"target":"present","response":"present","rt":1062,"correct":true,"confidence":3},{"trial_n":54,"min":93,"max":162,"target":"absent","response":"absent","rt":726.99999999997,"correct":true,"confidence":4},{"trial_n":55,"min":94,"max":161,"target":"present","response":"present","rt":775,"correct":true,"confidence":2},{"trial_n":56,"min":94,"max":161,"target":"present","response":"present","rt":855,"correct":true,"confidence":3},{"trial_n":57,"min":95,"max":160,"target":"present","response":"absent","rt":914.00000000003,"correct":false,"confidence":2},{"trial_n":58,"min":94,"max":161,"target":"absent","response":"absent","rt":851,"correct":true,"confidence":5},{"trial_n":59,"min":94,"max":161,"target":"present","response":"present","rt":1564,"correct":true,"confidence":4},{"trial_n":60,"min":95,"max":160,"target":"absent","response":"absent","rt":489,"correct":true,"confidence":3},{"trial_n":61,"min":95,"max":160,"target":"absent","response":"present","rt":2665,"correct":false,"confidence":1},{"trial_n":62,"min":94,"max":161,"target":"absent","response":"absent","rt":544,"correct":true,"confidence":4},{"trial_n":63,"min":94,"max":161,"target":"present","response":"present","rt":774,"correct":true,"confidence":3},{"trial_n":64,"min":95,"max":160,"target":"absent","response":"present","rt":869,"correct":false,"confidence":3},{"trial_n":65,"min":94,"max":161,"target":"present","response":"absent","rt":572,"correct":false,"confidence":4},{"trial_n":66,"min":93,"max":162,"target":"present","response":"absent","rt":993,"correct":false,"confidence":4},{"trial_n":67,"min":92,"max":163,"target":"present","response":"present","rt":818,"correct":true,"confidence":2},{"trial_n":68,"min":92,"max":163,"target":"present","response":"absent","rt":3347,"correct":false,"confidence":1},{"trial_n":69,"min":91,"max":164,"target":"present","response":"present","rt":611.00000000003,"correct":true,"confidence":5},{"trial_n":70,"min":91,"max":164,"target":"present","response":"present","rt":1324,"correct":true,"confidence":3},{"trial_n":71,"min":41,"max":214,"target":"present","response":"present","rt":1502,"correct":true,"confidence":-1},{"trial_n":72,"min":41,"max":214,"target":"present","response":"present","rt":269.99999999997,"correct":true,"confidence":-1},{"trial_n":73,"min":57,"max":198,"target":"absent","response":"absent","rt":284,"correct":true,"confidence":-1},{"trial_n":74,"min":57,"max":198,"target":"absent","response":"absent","rt":277,"correct":true,"confidence":-1},{"trial_n":75,"min":73,"max":182,"target":"present","response":"present","rt":208,"correct":true,"confidence":-1},{"trial_n":76,"min":73,"max":182,"target":"present","response":"present","rt":280,"correct":true,"confidence":-1},{"trial_n":77,"min":89,"max":166,"target":"present","response":"present","rt":284.00000000003,"correct":true,"confidence":-1},{"trial_n":78,"min":89,"max":166,"target":"absent","response":"absent","rt":453.99999999997,"correct":true,"confidence":-1},{"trial_n":79,"min":105,"max":150,"target":"present","response":"present","rt":303,"correct":true,"confidence":-1},{"trial_n":80,"min":105,"max":150,"target":"present","response":"present","rt":435.99999999997,"correct":true,"confidence":-1},{"trial_n":81,"min":113,"max":142,"target":"present","response":"absent","rt":409,"correct":false,"confidence":-1},{"trial_n":82,"min":105,"max":150,"target":"present","response":"absent","rt":416,"correct":false,"confidence":-1},{"trial_n":83,"min":97,"max":158,"target":"absent","response":"present","rt":498.99999999994,"correct":false,"confidence":-1},{"trial_n":84,"min":89,"max":166,"target":"present","response":"present","rt":294,"correct":true,"confidence":-1},{"trial_n":85,"min":89,"max":166,"target":"present","response":"present","rt":325,"correct":true,"confidence":-1},{"trial_n":86,"min":97,"max":158,"target":"absent","response":"present","rt":287,"correct":false,"confidence":-1},{"trial_n":87,"min":89,"max":166,"target":"absent","response":"absent","rt":369,"correct":true,"confidence":-1},{"trial_n":88,"min":89,"max":166,"target":"absent","response":"absent","rt":281,"correct":true,"confidence":-1},{"trial_n":89,"min":97,"max":158,"target":"present","response":"present","rt":216,"correct":true,"confidence":-1},{"trial_n":90,"min":97,"max":158,"target":"absent","response":"present","rt":261,"correct":false,"confidence":-1},{"trial_n":91,"min":93,"max":162,"target":"absent","response":"absent","rt":1166,"correct":true,"confidence":1},{"trial_n":92,"min":93,"max":162,"target":"absent","response":"present","rt":1895,"correct":false,"confidence":1},{"trial_n":93,"min":89,"max":166,"target":"present","response":"present","rt":2903,"correct":true,"confidence":1},{"trial_n":94,"min":89,"max":166,"target":"absent","response":"present","rt":700,"correct":false,"confidence":2},{"trial_n":95,"min":85,"max":170,"target":"absent","response":"absent","rt":1032,"correct":true,"confidence":1},{"trial_n":96,"min":85,"max":170,"target":"absent","response":"present","rt":530,"correct":false,"confidence":1},{"trial_n":97,"min":81,"max":174,"target":"present","response":"present","rt":390,"correct":true,"confidence":1},{"trial_n":98,"min":81,"max":174,"target":"present","response":"present","rt":369,"correct":true,"confidence":3},{"trial_n":99,"min":85,"max":170,"target":"absent","response":"present","rt":1867,"correct":false,"confidence":1},{"trial_n":100,"min":81,"max":174,"target":"present","response":"present","rt":294,"correct":true,"confidence":4},{"trial_n":101,"min":81,"max":174,"target":"absent","response":"absent","rt":618.99999999994,"correct":true,"confidence":2},{"trial_n":102,"min":83,"max":172,"target":"present","response":"present","rt":292.99999999994,"correct":true,"confidence":4},{"trial_n":103,"min":83,"max":172,"target":"absent","response":"absent","rt":908,"correct":true,"confidence":3},{"trial_n":104,"min":85,"max":170,"target":"present","response":"absent","rt":2152,"correct":false,"confidence":3},{"trial_n":105,"min":83,"max":172,"target":"absent","response":"absent","rt":1112,"correct":true,"confidence":4},{"trial_n":106,"min":83,"max":172,"target":"absent","response":"absent","rt":526,"correct":true,"confidence":3},{"trial_n":107,"min":85,"max":170,"target":"present","response":"present","rt":378,"correct":true,"confidence":4},{"trial_n":108,"min":85,"max":170,"target":"absent","response":"present","rt":475,"correct":false,"confidence":2},{"trial_n":109,"min":83,"max":172,"target":"absent","response":"absent","rt":516,"correct":true,"confidence":4},{"trial_n":110,"min":83,"max":172,"target":"absent","response":"present","rt":880,"correct":false,"confidence":1},{"trial_n":111,"min":82,"max":173,"target":"present","response":"present","rt":511,"correct":true,"confidence":5},{"trial_n":112,"min":82,"max":173,"target":"absent","response":"absent","rt":1159,"correct":true,"confidence":3},{"trial_n":113,"min":83,"max":172,"target":"present","response":"present","rt":302,"correct":true,"confidence":5},{"trial_n":114,"min":83,"max":172,"target":"present","response":"present","rt":814,"correct":true,"confidence":5},{"trial_n":115,"min":84,"max":171,"target":"absent","response":"absent","rt":1076,"correct":true,"confidence":1},{"trial_n":116,"min":84,"max":171,"target":"absent","response":"absent","rt":1277,"correct":true,"confidence":3},{"trial_n":117,"min":85,"max":170,"target":"present","response":"present","rt":311,"correct":true,"confidence":5},{"trial_n":118,"min":85,"max":170,"target":"absent","response":"absent","rt":935,"correct":true,"confidence":2},{"trial_n":119,"min":86,"max":169,"target":"absent","response":"absent","rt":1341.9999999999,"correct":true,"confidence":4},{"trial_n":120,"min":86,"max":169,"target":"present","response":"present","rt":1152,"correct":true,"confidence":5},{"trial_n":121,"min":87,"max":168,"target":"absent","response":"absent","rt":699,"correct":true,"confidence":5},{"trial_n":122,"min":87,"max":168,"target":"present","response":"absent","rt":1335,"correct":false,"confidence":1},{"trial_n":123,"min":86,"max":169,"target":"present","response":"present","rt":635.99999999994,"correct":true,"confidence":4},{"trial_n":124,"min":86,"max":169,"target":"present","response":"present","rt":969,"correct":true,"confidence":1},{"trial_n":125,"min":87,"max":168,"target":"present","response":"present","rt":923,"correct":true,"confidence":3},{"trial_n":126,"min":87,"max":168,"target":"present","response":"present","rt":557.00000000006,"correct":true,"confidence":4},{"trial_n":127,"min":88,"max":167,"target":"absent","response":"present","rt":750,"correct":false,"confidence":1},{"trial_n":128,"min":87,"max":168,"target":"present","response":"present","rt":753.00000000006,"correct":true,"confidence":4},{"trial_n":129,"min":87,"max":168,"target":"absent","response":"absent","rt":918,"correct":true,"confidence":3},{"trial_n":130,"min":88,"max":167,"target":"present","response":"present","rt":637,"correct":true,"confidence":3},{"trial_n":131,"min":88,"max":167,"target":"absent","response":"present","rt":1036.9999999999,"correct":false,"confidence":1},{"trial_n":132,"min":87,"max":168,"target":"absent","response":"absent","rt":1411,"correct":true,"confidence":1},{"trial_n":133,"min":87,"max":168,"target":"absent","response":"absent","rt":1036,"correct":true,"confidence":2},{"trial_n":134,"min":88,"max":167,"target":"present","response":"present","rt":945.99999999994,"correct":true,"confidence":1},{"trial_n":135,"min":88,"max":167,"target":"present","response":"present","rt":494,"correct":true,"confidence":2},{"trial_n":136,"min":89,"max":166,"target":"absent","response":"absent","rt":1387.0000000001,"correct":true,"confidence":1},{"trial_n":137,"min":89,"max":166,"target":"present","response":"present","rt":878,"correct":true,"confidence":1},{"trial_n":138,"min":90,"max":165,"target":"present","response":"present","rt":802,"correct":true,"confidence":3},{"trial_n":139,"min":90,"max":165,"target":"absent","response":"present","rt":856,"correct":false,"confidence":1},{"trial_n":140,"min":89,"max":166,"target":"present","response":"absent","rt":410,"correct":false,"confidence":1}]