[{"trial_n":1,"min":25,"max":230,"target":"present","response":"absent","rt":6720.3000000715,"correct":false,"confidence":-1},{"trial_n":2,"min":25,"max":230,"target":"present","response":"present","rt":2277.7000000477,"correct":true,"confidence":-1},{"trial_n":3,"min":25,"max":230,"target":"absent","response":"absent","rt":486.29999995232,"correct":true,"confidence":-1},{"trial_n":4,"min":41,"max":214,"target":"absent","response":"absent","rt":386.89999997616,"correct":true,"confidence":-1},{"trial_n":5,"min":41,"max":214,"target":"present","response":"present","rt":249,"correct":true,"confidence":-1},{"trial_n":6,"min":57,"max":198,"target":"present","response":"present","rt":262.89999997616,"correct":true,"confidence":-1},{"trial_n":7,"min":57,"max":198,"target":"present","response":"absent","rt":170.19999992847,"correct":false,"confidence":-1},{"trial_n":8,"min":41,"max":214,"target":"absent","response":"absent","rt":548.80000007153,"correct":true,"confidence":-1},{"trial_n":9,"min":41,"max":214,"target":"absent","response":"absent","rt":427.60000002384,"correct":true,"confidence":-1},{"trial_n":10,"min":57,"max":198,"target":"absent","response":"absent","rt":385.80000007153,"correct":true,"confidence":-1},{"trial_n":11,"min":57,"max":198,"target":"present","response":"present","rt":313,"correct":true,"confidence":-1},{"trial_n":12,"min":65,"max":190,"target":"absent","response":"absent","rt":459.79999995232,"correct":true,"confidence":-1},{"trial_n":13,"min":65,"max":190,"target":"present","response":"present","rt":645.80000007153,"correct":true,"confidence":-1},{"trial_n":14,"min":73,"max":182,"target":"absent","response":"absent","rt":464.5,"correct":true,"confidence":-1},{"trial_n":15,"min":73,"max":182,"target":"present","response":"present","rt":547.09999990463,"correct":true,"confidence":-1},{"trial_n":16,"min":81,"max":174,"target":"absent","response":"absent","rt":549.39999997616,"correct":true,"confidence":-1},{"trial_n":17,"min":81,"max":174,"target":"present","response":"absent","rt":430.89999997616,"correct":false,"confidence":-1},{"trial_n":18,"min":73,"max":182,"target":"present","response":"present","rt":478.60000002384,"correct":true,"confidence":-1},{"trial_n":19,"min":73,"max":182,"target":"absent","response":"absent","rt":454.10000002384,"correct":true,"confidence":-1},{"trial_n":20,"min":81,"max":174,"target":"absent","response":"absent","rt":417.39999997616,"correct":true,"confidence":-1},{"trial_n":21,"min":81,"max":174,"target":"present","response":"present","rt":1014,"correct":true,"confidence":3},{"trial_n":22,"min":85,"max":170,"target":"present","response":"present","rt":2217.4000000954,"correct":true,"confidence":3},{"trial_n":23,"min":85,"max":170,"target":"absent","response":"absent","rt":435.90000009537,"correct":true,"confidence":4},{"trial_n":24,"min":89,"max":166,"target":"present","response":"absent","rt":1764,"correct":false,"confidence":1},{"trial_n":25,"min":85,"max":170,"target":"present","response":"present","rt":456.69999992847,"correct":true,"confidence":5},{"trial_n":26,"min":85,"max":170,"target":"absent","response":"absent","rt":849.79999995232,"correct":true,"confidence":3},{"trial_n":27,"min":89,"max":166,"target":"present","response":"absent","rt":1034,"correct":false,"confidence":2},{"trial_n":28,"min":85,"max":170,"target":"absent","response":"present","rt":1256.7000000477,"correct":false,"confidence":1},{"trial_n":29,"min":81,"max":174,"target":"present","response":"present","rt":603.10000002384,"correct":true,"confidence":1},{"trial_n":30,"min":81,"max":174,"target":"present","response":"present","rt":844.39999997616,"correct":true,"confidence":4},{"trial_n":31,"min":83,"max":172,"target":"present","response":"present","rt":1927.7000000477,"correct":true,"confidence":3},{"trial_n":32,"min":83,"max":172,"target":"present","response":"absent","rt":414.30000007153,"correct":false,"confidence":5},{"trial_n":33,"min":81,"max":174,"target":"absent","response":"present","rt":589,"correct":false,"confidence":3},{"trial_n":34,"min":79,"max":176,"target":"absent","response":"absent","rt":376.59999990463,"correct":true,"confidence":3},{"trial_n":35,"min":79,"max":176,"target":"present","response":"present","rt":583.30000007153,"correct":true,"confidence":4},{"trial_n":36,"min":81,"max":174,"target":"present","response":"present","rt":1068.6999999285,"correct":true,"confidence":5},{"trial_n":37,"min":81,"max":174,"target":"absent","response":"present","rt":544,"correct":false,"confidence":4},{"trial_n":38,"min":79,"max":176,"target":"present","response":"present","rt":379.69999992847,"correct":true,"confidence":5},{"trial_n":39,"min":79,"max":176,"target":"present","response":"present","rt":1219.1999999285,"correct":true,"confidence":4},{"trial_n":40,"min":81,"max":174,"target":"absent","response":"present","rt":1098.8999999762,"correct":false,"confidence":3},{"trial_n":41,"min":80,"max":175,"target":"present","response":"present","rt":405.89999997616,"correct":true,"confidence":4},{"trial_n":42,"min":80,"max":175,"target":"present","response":"present","rt":815.60000002384,"correct":true,"confidence":5},{"trial_n":43,"min":81,"max":174,"target":"present","response":"absent","rt":745.5,"correct":false,"confidence":1},{"trial_n":44,"min":80,"max":175,"target":"absent","response":"absent","rt":849.19999992847,"correct":true,"confidence":1},{"trial_n":45,"min":80,"max":175,"target":"present","response":"absent","rt":869.40000009537,"correct":false,"confidence":1},{"trial_n":46,"min":79,"max":176,"target":"absent","response":"absent","rt":417.10000002384,"correct":true,"confidence":1},{"trial_n":47,"min":79,"max":176,"target":"absent","response":"absent","rt":384.59999990463,"correct":true,"confidence":1},{"trial_n":48,"min":80,"max":175,"target":"absent","response":"absent","rt":280.30000007153,"correct":true,"confidence":1},{"trial_n":49,"min":80,"max":175,"target":"absent","response":"absent","rt":310.30000007153,"correct":true,"confidence":1},{"trial_n":50,"min":81,"max":174,"target":"absent","response":"absent","rt":299.10000002384,"correct":true,"confidence":1},{"trial_n":51,"min":81,"max":174,"target":"present","response":"absent","rt":1285.6000000238,"correct":false,"confidence":3},{"trial_n":52,"min":80,"max":175,"target":"present","response":"present","rt":1232.8999999762,"correct":true,"confidence":2},{"trial_n":53,"min":80,"max":175,"target":"absent","response":"absent","rt":735.10000002384,"correct":true,"confidence":3},{"trial_n":54,"min":81,"max":174,"target":"present","response":"present","rt":2918.3999999762,"correct":true,"confidence":2},{"trial_n":55,"min":81,"max":174,"target":"absent","response":"absent","rt":491.80000007153,"correct":true,"confidence":4},{"trial_n":56,"min":82,"max":173,"target":"absent","response":"present","rt":809.60000002384,"correct":false,"confidence":3},{"trial_n":57,"min":81,"max":174,"target":"absent","response":"present","rt":2295.5,"correct":false,"confidence":3},{"trial_n":58,"min":80,"max":175,"target":"present","response":"absent","rt":662,"correct":false,"confidence":3},{"trial_n":59,"min":79,"max":176,"target":"absent","response":"absent","rt":898.90000009537,"correct":true,"confidence":3},{"trial_n":60,"min":79,"max":176,"target":"absent","response":"present","rt":1476.1000000238,"correct":false,"confidence":3},{"trial_n":61,"min":78,"max":177,"target":"present","response":"present","rt":723.89999997616,"correct":true,"confidence":3},{"trial_n":62,"min":78,"max":177,"target":"absent","response":"present","rt":987.90000009537,"correct":false,"confidence":3},{"trial_n":63,"min":77,"max":178,"target":"absent","response":"absent","rt":411.5,"correct":true,"confidence":3},{"trial_n":64,"min":77,"max":178,"target":"absent","response":"absent","rt":483.20000004768,"correct":true,"confidence":3},{"trial_n":65,"min":78,"max":177,"target":"present","response":"present","rt":508,"correct":true,"confidence":5},{"trial_n":66,"min":78,"max":177,"target":"present","response":"present","rt":486.20000004768,"correct":true,"confidence":5},{"trial_n":67,"min":79,"max":176,"target":"present","response":"present","rt":994,"correct":true,"confidence":3},{"trial_n":68,"min":79,"max":176,"target":"absent","response":"absent","rt":385.60000002384,"correct":true,"confidence":4},{"trial_n":69,"min":80,"max":175,"target":"present","response":"absent","rt":515.09999990463,"correct":false,"confidence":4},{"trial_n":70,"min":79,"max":176,"target":"absent","response":"absent","rt":411.80000007153,"correct":true,"confidence":4},{"trial_n":71,"min":41,"max":214,"target":"present","response":"present","rt":2046.6999999285,"correct":true,"confidence":-1},{"trial_n":72,"min":41,"max":214,"target":"present","response":"present","rt":738.89999997616,"correct":true,"confidence":-1},{"trial_n":73,"min":57,"max":198,"target":"absent","response":"absent","rt":562.10000002384,"correct":true,"confidence":-1},{"trial_n":74,"min":57,"max":198,"target":"absent","response":"absent","rt":505.89999997616,"correct":true,"confidence":-1},{"trial_n":75,"min":73,"max":182,"target":"present","response":"present","rt":573.69999992847,"correct":true,"confidence":-1},{"trial_n":76,"min":73,"max":182,"target":"absent","response":"absent","rt":448,"correct":true,"confidence":-1},{"trial_n":77,"min":89,"max":166,"target":"absent","response":"absent","rt":808,"correct":true,"confidence":-1},{"trial_n":78,"min":89,"max":166,"target":"present","response":"present","rt":323.89999997616,"correct":true,"confidence":-1},{"trial_n":79,"min":105,"max":150,"target":"absent","response":"present","rt":878.39999997616,"correct":false,"confidence":-1},{"trial_n":80,"min":89,"max":166,"target":"present","response":"absent","rt":995.39999997616,"correct":false,"confidence":-1},{"trial_n":81,"min":81,"max":174,"target":"absent","response":"present","rt":1209.7000000477,"correct":false,"confidence":-1},{"trial_n":82,"min":73,"max":182,"target":"absent","response":"present","rt":647.20000004768,"correct":false,"confidence":-1},{"trial_n":83,"min":65,"max":190,"target":"present","response":"present","rt":372.30000007153,"correct":true,"confidence":-1},{"trial_n":84,"min":65,"max":190,"target":"absent","response":"absent","rt":406.5,"correct":true,"confidence":-1},{"trial_n":85,"min":73,"max":182,"target":"present","response":"present","rt":265.29999995232,"correct":true,"confidence":-1},{"trial_n":86,"min":73,"max":182,"target":"present","response":"absent","rt":375.29999995232,"correct":false,"confidence":-1},{"trial_n":87,"min":65,"max":190,"target":"absent","response":"absent","rt":829,"correct":true,"confidence":-1},{"trial_n":88,"min":65,"max":190,"target":"present","response":"present","rt":255.29999995232,"correct":true,"confidence":-1},{"trial_n":89,"min":73,"max":182,"target":"absent","response":"absent","rt":479.30000007153,"correct":true,"confidence":-1},{"trial_n":90,"min":73,"max":182,"target":"present","response":"present","rt":358.29999995232,"correct":true,"confidence":-1},{"trial_n":91,"min":77,"max":178,"target":"absent","response":"absent","rt":652.29999995232,"correct":true,"confidence":4},{"trial_n":92,"min":77,"max":178,"target":"present","response":"present","rt":922,"correct":true,"confidence":1},{"trial_n":93,"min":81,"max":174,"target":"present","response":"present","rt":258.10000002384,"correct":true,"confidence":4},{"trial_n":94,"min":81,"max":174,"target":"absent","response":"absent","rt":524.39999997616,"correct":true,"confidence":3},{"trial_n":95,"min":85,"max":170,"target":"present","response":"present","rt":256.79999995232,"correct":true,"confidence":5},{"trial_n":96,"min":85,"max":170,"target":"present","response":"absent","rt":604.10000002384,"correct":false,"confidence":1},{"trial_n":97,"min":81,"max":174,"target":"present","response":"present","rt":722.20000004768,"correct":true,"confidence":2},{"trial_n":98,"min":81,"max":174,"target":"absent","response":"present","rt":873.19999992847,"correct":false,"confidence":3},{"trial_n":99,"min":77,"max":178,"target":"present","response":"present","rt":1078.7999999523,"correct":true,"confidence":2},{"trial_n":100,"min":77,"max":178,"target":"absent","response":"present","rt":551.90000009537,"correct":false,"confidence":1},{"trial_n":101,"min":75,"max":180,"target":"present","response":"present","rt":1069.2999999523,"correct":true,"confidence":3},{"trial_n":102,"min":75,"max":180,"target":"absent","response":"absent","rt":647.19999992847,"correct":true,"confidence":4},{"trial_n":103,"min":77,"max":178,"target":"absent","response":"absent","rt":2429.6000000238,"correct":true,"confidence":1},{"trial_n":104,"min":77,"max":178,"target":"present","response":"present","rt":469.39999997616,"correct":true,"confidence":4},{"trial_n":105,"min":79,"max":176,"target":"present","response":"present","rt":378.60000002384,"correct":true,"confidence":5},{"trial_n":106,"min":79,"max":176,"target":"absent","response":"absent","rt":1250.4000000954,"correct":true,"confidence":1},{"trial_n":107,"min":81,"max":174,"target":"present","response":"present","rt":640.19999992847,"correct":true,"confidence":4},{"trial_n":108,"min":81,"max":174,"target":"present","response":"present","rt":311.5,"correct":true,"confidence":5},{"trial_n":109,"min":83,"max":172,"target":"present","response":"present","rt":454.20000004768,"correct":true,"confidence":5},{"trial_n":110,"min":83,"max":172,"target":"present","response":"present","rt":528.09999990463,"correct":true,"confidence":5},{"trial_n":111,"min":84,"max":171,"target":"absent","response":"present","rt":3833.7000000477,"correct":false,"confidence":1},{"trial_n":112,"min":83,"max":172,"target":"absent","response":"absent","rt":560.69999992847,"correct":true,"confidence":3},{"trial_n":113,"min":83,"max":172,"target":"absent","response":"absent","rt":1058.6000000238,"correct":true,"confidence":1},{"trial_n":114,"min":84,"max":171,"target":"absent","response":"present","rt":446.69999992847,"correct":false,"confidence":2},{"trial_n":115,"min":83,"max":172,"target":"present","response":"present","rt":689.10000002384,"correct":true,"confidence":3},{"trial_n":116,"min":83,"max":172,"target":"absent","response":"absent","rt":767.20000004768,"correct":true,"confidence":2},{"trial_n":117,"min":84,"max":171,"target":"present","response":"present","rt":1075.8999999762,"correct":true,"confidence":1},{"trial_n":118,"min":84,"max":171,"target":"absent","response":"present","rt":1225.2000000477,"correct":false,"confidence":1},{"trial_n":119,"min":83,"max":172,"target":"present","response":"absent","rt":418.89999997616,"correct":false,"confidence":1},{"trial_n":120,"min":82,"max":173,"target":"present","response":"present","rt":641.79999995232,"correct":true,"confidence":2},{"trial_n":121,"min":82,"max":173,"target":"present","response":"present","rt":475,"correct":true,"confidence":2},{"trial_n":122,"min":83,"max":172,"target":"absent","response":"absent","rt":707.70000004768,"correct":true,"confidence":3},{"trial_n":123,"min":83,"max":172,"target":"present","response":"present","rt":547.60000002384,"correct":true,"confidence":3},{"trial_n":124,"min":84,"max":171,"target":"absent","response":"absent","rt":1630.7999999523,"correct":true,"confidence":2},{"trial_n":125,"min":84,"max":171,"target":"absent","response":"present","rt":2575.8999999762,"correct":false,"confidence":1},{"trial_n":126,"min":83,"max":172,"target":"present","response":"present","rt":417.10000002384,"correct":true,"confidence":3},{"trial_n":127,"min":83,"max":172,"target":"absent","response":"absent","rt":811.40000009537,"correct":true,"confidence":1},{"trial_n":128,"min":84,"max":171,"target":"present","response":"present","rt":507.10000002384,"correct":true,"confidence":4},{"trial_n":129,"min":84,"max":171,"target":"present","response":"present","rt":255.89999997616,"correct":true,"confidence":5},{"trial_n":130,"min":85,"max":170,"target":"present","response":"present","rt":496.29999995232,"correct":true,"confidence":3},{"trial_n":131,"min":85,"max":170,"target":"present","response":"present","rt":286.39999997616,"correct":true,"confidence":3},{"trial_n":132,"min":86,"max":169,"target":"present","response":"present","rt":372.40000009537,"correct":true,"confidence":4},{"trial_n":133,"min":86,"max":169,"target":"absent","response":"absent","rt":790.19999992847,"correct":true,"confidence":1},{"trial_n":134,"min":87,"max":168,"target":"present","response":"present","rt":979,"correct":true,"confidence":1},{"trial_n":135,"min":87,"max":168,"target":"absent","response":"absent","rt":872.89999997616,"correct":true,"confidence":1},{"trial_n":136,"min":88,"max":167,"target":"absent","response":"absent","rt":635.39999997616,"correct":true,"confidence":3},{"trial_n":137,"min":88,"max":167,"target":"absent","response":"absent","rt":1092.6000000238,"correct":true,"confidence":1},{"trial_n":138,"min":89,"max":166,"target":"absent","response":"present","rt":536.09999990463,"correct":false,"confidence":1},{"trial_n":139,"min":88,"max":167,"target":"absent","response":"absent","rt":605.10000002384,"correct":true,"confidence":1},{"trial_n":140,"min":88,"max":167,"target":"absent","response":"absent","rt":1356.6999999285,"correct":true,"confidence":1}]