[{"trial_n":1,"span":8,"encoder":"38850825","distractor":"28850825","target":"present","response":"present","rt":"5770.0999999046","correct":true,"confidence":-1},{"trial_n":2,"span":8,"encoder":"11018245","distractor":"11008245","target":"present","response":"present","rt":"3490.5","correct":true,"confidence":-1},{"trial_n":3,"span":10,"encoder":"2221416077","distractor":"2221416277","target":"absent","response":"absent","rt":"1561.7000000477","correct":true,"confidence":-1},{"trial_n":4,"span":10,"encoder":"7029674341","distractor":"7029634341","target":"absent","response":"present","rt":"2994.6000000238","correct":false,"confidence":-1},{"trial_n":5,"span":8,"encoder":"85102232","distractor":"85102132","target":"present","response":"present","rt":"1372.2000000477","correct":true,"confidence":-1},{"trial_n":6,"span":8,"encoder":"51955398","distractor":"51955298","target":"absent","response":"present","rt":"1917.2000000477","correct":false,"confidence":-1},{"trial_n":7,"span":6,"encoder":"058040","distractor":"028040","target":"present","response":"present","rt":"1367.2000000477","correct":true,"confidence":-1},{"trial_n":8,"span":6,"encoder":"860308","distractor":"560308","target":"absent","response":"present","rt":"1199.3999999762","correct":false,"confidence":-1},{"trial_n":9,"span":4,"encoder":"2797","distractor":"2597","target":"absent","response":"absent","rt":"1102.1000000238","correct":true,"confidence":-1},{"trial_n":10,"span":4,"encoder":"9503","distractor":"9103","target":"present","response":"present","rt":"1139.5","correct":true,"confidence":-1},{"trial_n":11,"span":6,"encoder":"684931","distractor":"884931","target":"absent","response":"absent","rt":"1733","correct":true,"confidence":-1},{"trial_n":12,"span":6,"encoder":"045030","distractor":"845030","target":"absent","response":"present","rt":"1157","correct":false,"confidence":-1},{"trial_n":13,"span":5,"encoder":"57246","distractor":"57256","target":"absent","response":"absent","rt":"1453.1999999285","correct":true,"confidence":-1},{"trial_n":14,"span":5,"encoder":"33106","distractor":"33506","target":"present","response":"present","rt":"1028.6999999285","correct":true,"confidence":-1},{"trial_n":15,"span":6,"encoder":"925371","distractor":"915371","target":"absent","response":"absent","rt":"1996.5","correct":true,"confidence":-1},{"trial_n":16,"span":6,"encoder":"514309","distractor":"514409","target":"present","response":"present","rt":"1158.1999999285","correct":true,"confidence":-1},{"trial_n":17,"span":7,"encoder":"6397891","distractor":"6397291","target":"present","response":"present","rt":"3263","correct":true,"confidence":-1},{"trial_n":18,"span":7,"encoder":"7190383","distractor":"7190393","target":"present","response":"present","rt":"1478.7000000477","correct":true,"confidence":-1},{"trial_n":19,"span":8,"encoder":"06869896","distractor":"06869596","target":"absent","response":"absent","rt":"3146.5","correct":true,"confidence":-1},{"trial_n":20,"span":8,"encoder":"19377022","distractor":"19377062","target":"present","response":"present","rt":"1210.6000000238","correct":true,"confidence":-1},{"trial_n":21,"span":9,"encoder":"535950645","distractor":"535950615","target":"present","response":"present","rt":"6066.2999999523","correct":true,"confidence":2},{"trial_n":22,"span":9,"encoder":"272509251","distractor":"272509201","target":"present","response":"present","rt":"3516","correct":true,"confidence":2},{"trial_n":23,"span":10,"encoder":"4622969274","distractor":"4922969274","target":"absent","response":"absent","rt":"2390.7999999523","correct":true,"confidence":2},{"trial_n":24,"span":10,"encoder":"9651289971","distractor":"9621289971","target":"present","response":"absent","rt":"2579.8999999762","correct":false,"confidence":1},{"trial_n":25,"span":9,"encoder":"975483300","distractor":"975484300","target":"present","response":"present","rt":"1801.3000000715","correct":true,"confidence":3},{"trial_n":26,"span":9,"encoder":"592964218","distractor":"592964268","target":"absent","response":"absent","rt":"2326","correct":true,"confidence":5},{"trial_n":27,"span":10,"encoder":"0227351884","distractor":"0227351889","target":"absent","response":"absent","rt":"1685.3999999762","correct":true,"confidence":5},{"trial_n":28,"span":10,"encoder":"1009397387","distractor":"1009397388","target":"absent","response":"absent","rt":"1640.8999999762","correct":true,"confidence":5},{"trial_n":29,"span":11,"encoder":"10808347843","distractor":"90808347843","target":"absent","response":"present","rt":"4423.7999999523","correct":false,"confidence":2},{"trial_n":30,"span":10,"encoder":"0889795543","distractor":"0879795543","target":"absent","response":"present","rt":"2658.7000000477","correct":false,"confidence":4},{"trial_n":31,"span":9,"encoder":"504151825","distractor":"507151825","target":"present","response":"present","rt":"2151.5","correct":true,"confidence":4},{"trial_n":32,"span":9,"encoder":"070036321","distractor":"070066321","target":"absent","response":"present","rt":"2672.2000000477","correct":false,"confidence":5},{"trial_n":33,"span":8,"encoder":"55778161","distractor":"65778161","target":"absent","response":"present","rt":"10231.5","correct":false,"confidence":3},{"trial_n":34,"span":7,"encoder":"1740152","distractor":"1740172","target":"present","response":"present","rt":"2988.2999999523","correct":true,"confidence":4},{"trial_n":35,"span":7,"encoder":"1071628","distractor":"1071668","target":"absent","response":"absent","rt":"3565.3999999762","correct":true,"confidence":5},{"trial_n":36,"span":8,"encoder":"85068032","distractor":"88068032","target":"absent","response":"absent","rt":"2753.2999999523","correct":true,"confidence":4},{"trial_n":37,"span":8,"encoder":"65909322","distractor":"95909322","target":"present","response":"present","rt":"2267.8999999762","correct":true,"confidence":4},{"trial_n":38,"span":9,"encoder":"903594036","distractor":"903598036","target":"present","response":"present","rt":"6537.7000000477","correct":true,"confidence":4},{"trial_n":39,"span":9,"encoder":"318059590","distractor":"318057590","target":"present","response":"present","rt":"5522.2999999523","correct":true,"confidence":3},{"trial_n":40,"span":10,"encoder":"6289126569","distractor":"6289126564","target":"absent","response":"absent","rt":"1206.2999999523","correct":true,"confidence":5},{"trial_n":41,"span":10,"encoder":"7164024499","distractor":"7164324499","target":"absent","response":"absent","rt":"2305","correct":true,"confidence":5},{"trial_n":42,"span":11,"encoder":"40581025748","distractor":"40581026748","target":"present","response":"present","rt":"2776.7000000477","correct":true,"confidence":3},{"trial_n":43,"span":11,"encoder":"56636737455","distractor":"56636737405","target":"present","response":"present","rt":"8046.7000000477","correct":true,"confidence":2},{"trial_n":44,"span":12,"encoder":"082821159550","distractor":"082821151550","target":"present","response":"present","rt":"2719.3999999762","correct":true,"confidence":3},{"trial_n":45,"span":12,"encoder":"240417172782","distractor":"240417102782","target":"present","response":"present","rt":"3689.3999999762","correct":true,"confidence":3},{"trial_n":46,"span":13,"encoder":"1183427757060","distractor":"1183447757060","target":"present","response":"absent","rt":"7712.5","correct":false,"confidence":2},{"trial_n":47,"span":12,"encoder":"912930837729","distractor":"912939837729","target":"present","response":"present","rt":"3539.3999999762","correct":true,"confidence":3},{"trial_n":48,"span":12,"encoder":"830194742145","distractor":"836194742145","target":"present","response":"present","rt":"3187.8999999762","correct":true,"confidence":3},{"trial_n":49,"span":13,"encoder":"8923783631899","distractor":"8923780631899","target":"absent","response":"absent","rt":"6288.9000000954","correct":true,"confidence":2},{"trial_n":50,"span":13,"encoder":"7137823160467","distractor":"7137823160497","target":"present","response":"present","rt":"3980.0999999046","correct":true,"confidence":1},{"trial_n":51,"span":14,"encoder":"99555783880464","distractor":"99555783880469","target":"present","response":"absent","rt":"5691.2999999523","correct":false,"confidence":2},{"trial_n":52,"span":13,"encoder":"8752667625028","distractor":"8752667625029","target":"absent","response":"absent","rt":"3450.7999999523","correct":true,"confidence":1},{"trial_n":53,"span":13,"encoder":"3842966079827","distractor":"3642966079827","target":"absent","response":"present","rt":"2464.7000000477","correct":false,"confidence":3},{"trial_n":54,"span":12,"encoder":"874219217699","distractor":"874219517699","target":"absent","response":"present","rt":"11959","correct":false,"confidence":3},{"trial_n":55,"span":11,"encoder":"27497661469","distractor":"27497664469","target":"present","response":"present","rt":"2430.8000000715","correct":true,"confidence":1},{"trial_n":56,"span":11,"encoder":"01751279471","distractor":"01751279472","target":"absent","response":"absent","rt":"1377.3999999762","correct":true,"confidence":5},{"trial_n":57,"span":12,"encoder":"543223695308","distractor":"543223695908","target":"present","response":"absent","rt":"4118.8999999762","correct":false,"confidence":3},{"trial_n":58,"span":11,"encoder":"56189771994","distractor":"06189771994","target":"absent","response":"present","rt":"2622.1000000238","correct":false,"confidence":3},{"trial_n":59,"span":10,"encoder":"1186307598","distractor":"1486307598","target":"absent","response":"absent","rt":"2943.8000000715","correct":true,"confidence":3},{"trial_n":60,"span":10,"encoder":"5714856394","distractor":"5716856394","target":"present","response":"present","rt":"3055.3999999762","correct":true,"confidence":2},{"trial_n":61,"span":11,"encoder":"51203025113","distractor":"91203025113","target":"present","response":"present","rt":"2346.7999999523","correct":true,"confidence":3},{"trial_n":62,"span":11,"encoder":"16032109907","distractor":"96032109907","target":"present","response":"present","rt":"3296.0999999046","correct":true,"confidence":2},{"trial_n":63,"span":12,"encoder":"038004428168","distractor":"032004428168","target":"absent","response":"present","rt":"4168","correct":false,"confidence":3},{"trial_n":64,"span":11,"encoder":"68214544284","distractor":"58214544284","target":"present","response":"present","rt":"2033.5","correct":true,"confidence":4},{"trial_n":65,"span":11,"encoder":"48793775495","distractor":"48793775395","target":"absent","response":"present","rt":"7574.8999999762","correct":false,"confidence":2},{"trial_n":66,"span":10,"encoder":"6000452338","distractor":"6000752338","target":"absent","response":"present","rt":"2459.7999999523","correct":false,"confidence":3},{"trial_n":67,"span":9,"encoder":"858509765","distractor":"858509745","target":"absent","response":"absent","rt":"6126.5999999046","correct":true,"confidence":2},{"trial_n":68,"span":9,"encoder":"453948398","distractor":"457948398","target":"present","response":"present","rt":"2474.6000000238","correct":true,"confidence":2},{"trial_n":69,"span":10,"encoder":"4235403108","distractor":"4635403108","target":"absent","response":"present","rt":"1503.6000000238","correct":false,"confidence":3},{"trial_n":70,"span":9,"encoder":"575053820","distractor":"575059820","target":"present","response":"present","rt":"2998.3000000715","correct":true,"confidence":4},{"trial_n":71,"span":8,"encoder":"76200422","distractor":"76202422","target":"present","response":"present","rt":"5105.5","correct":true,"confidence":-1},{"trial_n":72,"span":8,"encoder":"61305861","distractor":"61305831","target":"present","response":"present","rt":"7985.6999999285","correct":true,"confidence":-1},{"trial_n":73,"span":9,"encoder":"904151136","distractor":"904151137","target":"absent","response":"absent","rt":"1423.6000000238","correct":true,"confidence":-1},{"trial_n":74,"span":9,"encoder":"669031373","distractor":"669061373","target":"absent","response":"absent","rt":"5180.3999999762","correct":true,"confidence":-1},{"trial_n":75,"span":10,"encoder":"5518795000","distractor":"1518795000","target":"present","response":"absent","rt":"3197.7000000477","correct":false,"confidence":-1},{"trial_n":76,"span":9,"encoder":"729672741","distractor":"729612741","target":"present","response":"present","rt":"3656.8000000715","correct":true,"confidence":-1},{"trial_n":77,"span":9,"encoder":"189838966","distractor":"189848966","target":"absent","response":"absent","rt":"5862.6999999285","correct":true,"confidence":-1},{"trial_n":78,"span":10,"encoder":"2159182718","distractor":"2159182728","target":"absent","response":"absent","rt":"2982.3999999762","correct":true,"confidence":-1},{"trial_n":79,"span":10,"encoder":"3203772278","distractor":"3203772275","target":"absent","response":"present","rt":"6691.6999999285","correct":false,"confidence":-1},{"trial_n":80,"span":9,"encoder":"186763624","distractor":"186563624","target":"absent","response":"absent","rt":"3960.5999999046","correct":true,"confidence":-1},{"trial_n":81,"span":9,"encoder":"683158079","distractor":"680158079","target":"present","response":"absent","rt":"4663.3999999762","correct":false,"confidence":-1},{"trial_n":82,"span":8,"encoder":"25342646","distractor":"25344646","target":"present","response":"present","rt":"2167.5","correct":true,"confidence":-1},{"trial_n":83,"span":8,"encoder":"15462243","distractor":"15462283","target":"absent","response":"absent","rt":"1732.6000000238","correct":true,"confidence":-1},{"trial_n":84,"span":9,"encoder":"262771006","distractor":"262771096","target":"present","response":"present","rt":"1527.6999999285","correct":true,"confidence":-1},{"trial_n":85,"span":9,"encoder":"393039845","distractor":"383039845","target":"absent","response":"absent","rt":"2957.7000000477","correct":true,"confidence":-1},{"trial_n":86,"span":10,"encoder":"6770612662","distractor":"0770612662","target":"absent","response":"absent","rt":"2929.2999999523","correct":true,"confidence":-1},{"trial_n":87,"span":10,"encoder":"4438899174","distractor":"6438899174","target":"present","response":"present","rt":"4772.1000000238","correct":true,"confidence":-1},{"trial_n":88,"span":11,"encoder":"58381535551","distractor":"58388535551","target":"present","response":"present","rt":"4666.1999999285","correct":true,"confidence":-1},{"trial_n":89,"span":11,"encoder":"97902612932","distractor":"07902612932","target":"present","response":"present","rt":"2407.8999999762","correct":true,"confidence":-1},{"trial_n":90,"span":12,"encoder":"968354484783","distractor":"968354884783","target":"present","response":"present","rt":"2690.1000000238","correct":true,"confidence":-1},{"trial_n":91,"span":12,"encoder":"312933840471","distractor":"314933840471","target":"absent","response":"present","rt":"4108","correct":false,"confidence":2},{"trial_n":92,"span":11,"encoder":"60530007274","distractor":"60830007274","target":"present","response":"present","rt":"4673.6000000238","correct":true,"confidence":1},{"trial_n":93,"span":11,"encoder":"75504205748","distractor":"45504205748","target":"absent","response":"absent","rt":"7007.3999999762","correct":true,"confidence":3},{"trial_n":94,"span":12,"encoder":"607457821319","distractor":"607417821319","target":"absent","response":"absent","rt":"6702.5","correct":true,"confidence":1},{"trial_n":95,"span":12,"encoder":"533198661643","distractor":"533998661643","target":"absent","response":"present","rt":"3231.3999999762","correct":false,"confidence":4},{"trial_n":96,"span":11,"encoder":"71558993339","distractor":"71558993439","target":"present","response":"present","rt":"2211.6000000238","correct":true,"confidence":5},{"trial_n":97,"span":11,"encoder":"50288833900","distractor":"50288833905","target":"absent","response":"present","rt":"4602.3000000715","correct":false,"confidence":4},{"trial_n":98,"span":10,"encoder":"4870316992","distractor":"4870396992","target":"present","response":"present","rt":"8914.8999999762","correct":true,"confidence":1},{"trial_n":99,"span":10,"encoder":"0382183312","distractor":"0382183352","target":"absent","response":"absent","rt":"2775.4000000954","correct":true,"confidence":5},{"trial_n":100,"span":11,"encoder":"74761587844","distractor":"74761887844","target":"absent","response":"absent","rt":"10163.899999976","correct":true,"confidence":2},{"trial_n":101,"span":11,"encoder":"04374966874","distractor":"04324966874","target":"present","response":"present","rt":"5007.5","correct":true,"confidence":3},{"trial_n":102,"span":12,"encoder":"309154912624","distractor":"309104912624","target":"absent","response":"absent","rt":"9735.5999999046","correct":true,"confidence":3},{"trial_n":103,"span":12,"encoder":"516259190223","distractor":"516259690223","target":"absent","response":"absent","rt":"3784.3999999762","correct":true,"confidence":4},{"trial_n":104,"span":13,"encoder":"8885875412851","distractor":"8685875412851","target":"absent","response":"absent","rt":"2262.8999999762","correct":true,"confidence":5},{"trial_n":105,"span":13,"encoder":"8949496084476","distractor":"8949496084416","target":"present","response":"absent","rt":"8156.7000000477","correct":false,"confidence":4},{"trial_n":106,"span":12,"encoder":"542771105656","distractor":"542741105656","target":"absent","response":"absent","rt":"3664.1000000238","correct":true,"confidence":2},{"trial_n":107,"span":12,"encoder":"589162635526","distractor":"589162635522","target":"present","response":"present","rt":"3952","correct":true,"confidence":5},{"trial_n":108,"span":13,"encoder":"6785677219511","distractor":"6785637219511","target":"present","response":"present","rt":"4195","correct":true,"confidence":4},{"trial_n":109,"span":13,"encoder":"5125624660022","distractor":"5123624660022","target":"present","response":"present","rt":"10391","correct":true,"confidence":4},{"trial_n":110,"span":14,"encoder":"45142094584962","distractor":"45148094584962","target":"absent","response":"absent","rt":"9711.9000000954","correct":true,"confidence":1},{"trial_n":111,"span":14,"encoder":"09558672292525","distractor":"09558272292525","target":"present","response":"present","rt":"7440.8000000715","correct":true,"confidence":3},{"trial_n":112,"span":15,"encoder":"707188060697033","distractor":"707188060627033","target":"absent","response":"present","rt":"12622.300000072","correct":false,"confidence":1},{"trial_n":113,"span":14,"encoder":"21914653933316","distractor":"21914658933316","target":"absent","response":"present","rt":"10889.5","correct":false,"confidence":2},{"trial_n":114,"span":13,"encoder":"5283065755488","distractor":"5283005755488","target":"absent","response":"present","rt":"5753.3000000715","correct":false,"confidence":3},{"trial_n":115,"span":12,"encoder":"648060288162","distractor":"648060287162","target":"present","response":"present","rt":"3080.2000000477","correct":true,"confidence":5},{"trial_n":116,"span":12,"encoder":"620022871859","distractor":"620022871855","target":"present","response":"present","rt":"4113.7999999523","correct":true,"confidence":4},{"trial_n":117,"span":13,"encoder":"1250964702400","distractor":"1750964702400","target":"absent","response":"present","rt":"8108.8000000715","correct":false,"confidence":2},{"trial_n":118,"span":12,"encoder":"923299969384","distractor":"923299969304","target":"present","response":"absent","rt":"10312.5","correct":false,"confidence":1},{"trial_n":119,"span":11,"encoder":"55454318705","distractor":"52454318705","target":"present","response":"present","rt":"8754.9000000954","correct":true,"confidence":4},{"trial_n":120,"span":11,"encoder":"89882113304","distractor":"89882183304","target":"absent","response":"absent","rt":"6006.4000000954","correct":true,"confidence":4},{"trial_n":121,"span":12,"encoder":"778953316607","distractor":"778953116607","target":"absent","response":"absent","rt":"2826.7999999523","correct":true,"confidence":5},{"trial_n":122,"span":12,"encoder":"219422752365","distractor":"216422752365","target":"absent","response":"absent","rt":"11182","correct":true,"confidence":2},{"trial_n":123,"span":13,"encoder":"5342354416191","distractor":"5344354416191","target":"present","response":"present","rt":"4968.8999999762","correct":true,"confidence":5},{"trial_n":124,"span":13,"encoder":"8239143483389","distractor":"8239143083389","target":"absent","response":"absent","rt":"13663.599999905","correct":true,"confidence":3},{"trial_n":125,"span":14,"encoder":"40555263053038","distractor":"40555260053038","target":"present","response":"absent","rt":"16072.799999952","correct":false,"confidence":3},{"trial_n":126,"span":13,"encoder":"5628520029553","distractor":"5628522029553","target":"present","response":"present","rt":"3589.9000000954","correct":true,"confidence":5},{"trial_n":127,"span":13,"encoder":"1357227712279","distractor":"1357227712269","target":"absent","response":"absent","rt":"9253.2000000477","correct":true,"confidence":4},{"trial_n":128,"span":14,"encoder":"25101444583980","distractor":"25103444583980","target":"present","response":"present","rt":"10164.200000048","correct":true,"confidence":2},{"trial_n":129,"span":14,"encoder":"77174003049972","distractor":"77104003049972","target":"absent","response":"absent","rt":"5555.3999999762","correct":true,"confidence":4},{"trial_n":130,"span":15,"encoder":"916599812859586","distractor":"916599872859586","target":"present","response":"present","rt":"7729.8000000715","correct":true,"confidence":3},{"trial_n":131,"span":15,"encoder":"004050667242286","distractor":"004050667242686","target":"present","response":"present","rt":"3717.9000000954","correct":true,"confidence":5},{"trial_n":132,"span":16,"encoder":"7401241507238403","distractor":"7401231507238403","target":"present","response":"present","rt":"13473.800000072","correct":true,"confidence":3},{"trial_n":133,"span":16,"encoder":"8661766570072147","distractor":"8661766570772147","target":"absent","response":"absent","rt":"6017","correct":true,"confidence":5},{"trial_n":134,"span":17,"encoder":"59318165821121967","distractor":"59318165121121967","target":"present","response":"present","rt":"16041.200000048","correct":true,"confidence":2},{"trial_n":135,"span":17,"encoder":"96215892398987530","distractor":"06215892398987530","target":"present","response":"present","rt":"8072.3999999762","correct":true,"confidence":4},{"trial_n":136,"span":18,"encoder":"183815266498965164","distractor":"183815266498965134","target":"present","response":"present","rt":"3033.2000000477","correct":true,"confidence":5},{"trial_n":137,"span":18,"encoder":"763437354535609155","distractor":"763431354535609155","target":"absent","response":"absent","rt":"9868.7000000477","correct":true,"confidence":4},{"trial_n":138,"span":19,"encoder":"4898845480551479814","distractor":"4898885480551479814","target":"present","response":"present","rt":"5130","correct":true,"confidence":5},{"trial_n":139,"span":19,"encoder":"1625372142127894885","distractor":"1625372142127894888","target":"present","response":"present","rt":"2206.7000000477","correct":true,"confidence":5},{"trial_n":140,"span":20,"encoder":"91477065645142415447","distractor":"91177065645142415447","target":"absent","response":"absent","rt":"6429.7000000477","correct":true,"confidence":3}]