[{"trial_n":1,"min":25,"max":230,"target":"present","response":"present","rt":5439.2000000477,"correct":true,"confidence":-1},{"trial_n":2,"min":25,"max":230,"target":"present","response":"present","rt":572.5,"correct":true,"confidence":-1},{"trial_n":3,"min":41,"max":214,"target":"absent","response":"absent","rt":358.19999992847,"correct":true,"confidence":-1},{"trial_n":4,"min":41,"max":214,"target":"absent","response":"absent","rt":309.69999992847,"correct":true,"confidence":-1},{"trial_n":5,"min":57,"max":198,"target":"present","response":"present","rt":332.70000004768,"correct":true,"confidence":-1},{"trial_n":6,"min":57,"max":198,"target":"absent","response":"absent","rt":275.80000007153,"correct":true,"confidence":-1},{"trial_n":7,"min":73,"max":182,"target":"absent","response":"absent","rt":196.30000007153,"correct":true,"confidence":-1},{"trial_n":8,"min":73,"max":182,"target":"present","response":"present","rt":368.29999995232,"correct":true,"confidence":-1},{"trial_n":9,"min":89,"max":166,"target":"present","response":"present","rt":359.89999997616,"correct":true,"confidence":-1},{"trial_n":10,"min":89,"max":166,"target":"absent","response":"absent","rt":248.29999995232,"correct":true,"confidence":-1},{"trial_n":11,"min":97,"max":158,"target":"present","response":"absent","rt":312.89999997616,"correct":false,"confidence":-1},{"trial_n":12,"min":89,"max":166,"target":"absent","response":"absent","rt":234.10000002384,"correct":true,"confidence":-1},{"trial_n":13,"min":89,"max":166,"target":"present","response":"absent","rt":291.80000007153,"correct":false,"confidence":-1},{"trial_n":14,"min":81,"max":174,"target":"absent","response":"absent","rt":299.39999997616,"correct":true,"confidence":-1},{"trial_n":15,"min":81,"max":174,"target":"absent","response":"absent","rt":285.79999995232,"correct":true,"confidence":-1},{"trial_n":16,"min":89,"max":166,"target":"absent","response":"absent","rt":278.20000004768,"correct":true,"confidence":-1},{"trial_n":17,"min":89,"max":166,"target":"present","response":"absent","rt":253.40000009537,"correct":false,"confidence":-1},{"trial_n":18,"min":81,"max":174,"target":"present","response":"absent","rt":516,"correct":false,"confidence":-1},{"trial_n":19,"min":73,"max":182,"target":"present","response":"absent","rt":555.09999990463,"correct":false,"confidence":-1},{"trial_n":20,"min":65,"max":190,"target":"present","response":"present","rt":355,"correct":true,"confidence":-1},{"trial_n":21,"min":65,"max":190,"target":"absent","response":"absent","rt":2557.6999999285,"correct":true,"confidence":2},{"trial_n":22,"min":69,"max":186,"target":"present","response":"present","rt":499.19999992847,"correct":true,"confidence":5},{"trial_n":23,"min":69,"max":186,"target":"absent","response":"absent","rt":523,"correct":true,"confidence":4},{"trial_n":24,"min":73,"max":182,"target":"present","response":"present","rt":905.30000007153,"correct":true,"confidence":5},{"trial_n":25,"min":73,"max":182,"target":"present","response":"present","rt":530.60000002384,"correct":true,"confidence":5},{"trial_n":26,"min":77,"max":178,"target":"present","response":"present","rt":471.39999997616,"correct":true,"confidence":5},{"trial_n":27,"min":77,"max":178,"target":"absent","response":"absent","rt":642.90000009537,"correct":true,"confidence":4},{"trial_n":28,"min":81,"max":174,"target":"present","response":"absent","rt":752.5,"correct":false,"confidence":3},{"trial_n":29,"min":77,"max":178,"target":"present","response":"absent","rt":1010.8999999762,"correct":false,"confidence":4},{"trial_n":30,"min":73,"max":182,"target":"absent","response":"absent","rt":561.89999997616,"correct":true,"confidence":5},{"trial_n":31,"min":73,"max":182,"target":"absent","response":"absent","rt":641.30000007153,"correct":true,"confidence":4},{"trial_n":32,"min":75,"max":180,"target":"present","response":"present","rt":520.80000007153,"correct":true,"confidence":5},{"trial_n":33,"min":75,"max":180,"target":"absent","response":"absent","rt":548.89999997616,"correct":true,"confidence":4},{"trial_n":34,"min":77,"max":178,"target":"absent","response":"absent","rt":570.10000002384,"correct":true,"confidence":3},{"trial_n":35,"min":77,"max":178,"target":"present","response":"present","rt":513.5,"correct":true,"confidence":4},{"trial_n":36,"min":79,"max":176,"target":"present","response":"present","rt":358.60000002384,"correct":true,"confidence":4},{"trial_n":37,"min":79,"max":176,"target":"present","response":"present","rt":519.10000002384,"correct":true,"confidence":5},{"trial_n":38,"min":81,"max":174,"target":"absent","response":"absent","rt":423.90000009537,"correct":true,"confidence":4},{"trial_n":39,"min":81,"max":174,"target":"present","response":"present","rt":516.90000009537,"correct":true,"confidence":4},{"trial_n":40,"min":83,"max":172,"target":"absent","response":"absent","rt":618,"correct":true,"confidence":3},{"trial_n":41,"min":83,"max":172,"target":"present","response":"absent","rt":552,"correct":false,"confidence":4},{"trial_n":42,"min":82,"max":173,"target":"absent","response":"absent","rt":429.5,"correct":true,"confidence":4},{"trial_n":43,"min":82,"max":173,"target":"absent","response":"absent","rt":663.5,"correct":true,"confidence":4},{"trial_n":44,"min":83,"max":172,"target":"present","response":"present","rt":399.70000004768,"correct":true,"confidence":5},{"trial_n":45,"min":83,"max":172,"target":"present","response":"present","rt":610.39999997616,"correct":true,"confidence":4},{"trial_n":46,"min":84,"max":171,"target":"absent","response":"absent","rt":8763.8999999762,"correct":true,"confidence":3},{"trial_n":47,"min":84,"max":171,"target":"absent","response":"absent","rt":1375.8999999762,"correct":true,"confidence":4},{"trial_n":48,"min":85,"max":170,"target":"present","response":"present","rt":1024,"correct":true,"confidence":3},{"trial_n":49,"min":85,"max":170,"target":"present","response":"present","rt":637.5,"correct":true,"confidence":4},{"trial_n":50,"min":86,"max":169,"target":"present","response":"absent","rt":24654.800000072,"correct":false,"confidence":4},{"trial_n":51,"min":85,"max":170,"target":"present","response":"present","rt":1104.1000000238,"correct":true,"confidence":4},{"trial_n":52,"min":85,"max":170,"target":"absent","response":"absent","rt":800.80000007153,"correct":true,"confidence":4},{"trial_n":53,"min":86,"max":169,"target":"present","response":"present","rt":719.70000004768,"correct":true,"confidence":4},{"trial_n":54,"min":86,"max":169,"target":"present","response":"absent","rt":497.10000002384,"correct":false,"confidence":3},{"trial_n":55,"min":85,"max":170,"target":"absent","response":"absent","rt":766.79999995232,"correct":true,"confidence":5},{"trial_n":56,"min":85,"max":170,"target":"absent","response":"present","rt":1363.5,"correct":false,"confidence":2},{"trial_n":57,"min":84,"max":171,"target":"absent","response":"absent","rt":418.20000004768,"correct":true,"confidence":4},{"trial_n":58,"min":84,"max":171,"target":"present","response":"present","rt":616,"correct":true,"confidence":2},{"trial_n":59,"min":85,"max":170,"target":"absent","response":"absent","rt":897.10000002384,"correct":true,"confidence":4},{"trial_n":60,"min":85,"max":170,"target":"present","response":"present","rt":369.69999992847,"correct":true,"confidence":5},{"trial_n":61,"min":86,"max":169,"target":"absent","response":"absent","rt":602.30000007153,"correct":true,"confidence":4},{"trial_n":62,"min":86,"max":169,"target":"absent","response":"absent","rt":898.29999995232,"correct":true,"confidence":4},{"trial_n":63,"min":87,"max":168,"target":"absent","response":"present","rt":787.20000004768,"correct":false,"confidence":5},{"trial_n":64,"min":86,"max":169,"target":"present","response":"present","rt":412.5,"correct":true,"confidence":5},{"trial_n":65,"min":86,"max":169,"target":"absent","response":"absent","rt":954.30000007153,"correct":true,"confidence":3},{"trial_n":66,"min":87,"max":168,"target":"absent","response":"absent","rt":851.20000004768,"correct":true,"confidence":4},{"trial_n":67,"min":87,"max":168,"target":"absent","response":"present","rt":673.79999995232,"correct":false,"confidence":4},{"trial_n":68,"min":86,"max":169,"target":"present","response":"present","rt":538.5,"correct":true,"confidence":4},{"trial_n":69,"min":86,"max":169,"target":"present","response":"present","rt":577.60000002384,"correct":true,"confidence":5},{"trial_n":70,"min":87,"max":168,"target":"absent","response":"absent","rt":447.89999997616,"correct":true,"confidence":4},{"trial_n":71,"min":41,"max":214,"target":"present","response":"present","rt":2241.2999999523,"correct":true,"confidence":-1},{"trial_n":72,"min":41,"max":214,"target":"present","response":"absent","rt":14.5,"correct":false,"confidence":-1},{"trial_n":73,"min":25,"max":230,"target":"absent","response":"absent","rt":316.20000004768,"correct":true,"confidence":-1},{"trial_n":74,"min":25,"max":230,"target":"absent","response":"absent","rt":310.19999992847,"correct":true,"confidence":-1},{"trial_n":75,"min":41,"max":214,"target":"present","response":"present","rt":287.09999990463,"correct":true,"confidence":-1},{"trial_n":76,"min":41,"max":214,"target":"absent","response":"absent","rt":309.30000007153,"correct":true,"confidence":-1},{"trial_n":77,"min":57,"max":198,"target":"absent","response":"present","rt":308.89999997616,"correct":false,"confidence":-1},{"trial_n":78,"min":41,"max":214,"target":"present","response":"present","rt":282,"correct":true,"confidence":-1},{"trial_n":79,"min":41,"max":214,"target":"absent","response":"absent","rt":256.60000002384,"correct":true,"confidence":-1},{"trial_n":80,"min":57,"max":198,"target":"present","response":"present","rt":299.29999995232,"correct":true,"confidence":-1},{"trial_n":81,"min":57,"max":198,"target":"present","response":"present","rt":408.60000002384,"correct":true,"confidence":-1},{"trial_n":82,"min":65,"max":190,"target":"absent","response":"absent","rt":319.19999992847,"correct":true,"confidence":-1},{"trial_n":83,"min":65,"max":190,"target":"present","response":"present","rt":307.69999992847,"correct":true,"confidence":-1},{"trial_n":84,"min":73,"max":182,"target":"absent","response":"present","rt":341.5,"correct":false,"confidence":-1},{"trial_n":85,"min":65,"max":190,"target":"absent","response":"absent","rt":267.60000002384,"correct":true,"confidence":-1},{"trial_n":86,"min":65,"max":190,"target":"absent","response":"absent","rt":805.80000007153,"correct":true,"confidence":-1},{"trial_n":87,"min":73,"max":182,"target":"present","response":"present","rt":333.60000002384,"correct":true,"confidence":-1},{"trial_n":88,"min":73,"max":182,"target":"absent","response":"absent","rt":325.09999990463,"correct":true,"confidence":-1},{"trial_n":89,"min":81,"max":174,"target":"absent","response":"absent","rt":2503.1999999285,"correct":true,"confidence":-1},{"trial_n":90,"min":81,"max":174,"target":"absent","response":"absent","rt":1261.3999999762,"correct":true,"confidence":-1},{"trial_n":91,"min":85,"max":170,"target":"present","response":"present","rt":577.5,"correct":true,"confidence":4},{"trial_n":92,"min":85,"max":170,"target":"present","response":"present","rt":1152,"correct":true,"confidence":1},{"trial_n":93,"min":89,"max":166,"target":"absent","response":"present","rt":1535,"correct":false,"confidence":3},{"trial_n":94,"min":85,"max":170,"target":"absent","response":"present","rt":1072.6999999285,"correct":false,"confidence":2},{"trial_n":95,"min":81,"max":174,"target":"absent","response":"absent","rt":2970.8999999762,"correct":true,"confidence":1},{"trial_n":96,"min":81,"max":174,"target":"absent","response":"present","rt":8935.5999999046,"correct":false,"confidence":1},{"trial_n":97,"min":77,"max":178,"target":"present","response":"present","rt":856,"correct":true,"confidence":5},{"trial_n":98,"min":77,"max":178,"target":"present","response":"present","rt":2099.1000000238,"correct":true,"confidence":1},{"trial_n":99,"min":81,"max":174,"target":"present","response":"present","rt":505,"correct":true,"confidence":4},{"trial_n":100,"min":81,"max":174,"target":"present","response":"present","rt":833.5,"correct":true,"confidence":5},{"trial_n":101,"min":83,"max":172,"target":"present","response":"present","rt":440.29999995232,"correct":true,"confidence":4},{"trial_n":102,"min":83,"max":172,"target":"absent","response":"absent","rt":758.40000009537,"correct":true,"confidence":3},{"trial_n":103,"min":85,"max":170,"target":"present","response":"present","rt":418.19999992847,"correct":true,"confidence":4},{"trial_n":104,"min":85,"max":170,"target":"absent","response":"present","rt":350.39999997616,"correct":false,"confidence":5},{"trial_n":105,"min":83,"max":172,"target":"present","response":"present","rt":591.5,"correct":true,"confidence":4},{"trial_n":106,"min":83,"max":172,"target":"present","response":"present","rt":1104.5,"correct":true,"confidence":3},{"trial_n":107,"min":85,"max":170,"target":"present","response":"present","rt":494.70000004768,"correct":true,"confidence":4},{"trial_n":108,"min":85,"max":170,"target":"absent","response":"absent","rt":809,"correct":true,"confidence":2},{"trial_n":109,"min":87,"max":168,"target":"present","response":"present","rt":548.5,"correct":true,"confidence":4},{"trial_n":110,"min":87,"max":168,"target":"absent","response":"absent","rt":471,"correct":true,"confidence":4},{"trial_n":111,"min":88,"max":167,"target":"absent","response":"present","rt":926.39999997616,"correct":false,"confidence":1},{"trial_n":112,"min":87,"max":168,"target":"present","response":"absent","rt":2334,"correct":false,"confidence":1},{"trial_n":113,"min":86,"max":169,"target":"present","response":"present","rt":1306,"correct":true,"confidence":3},{"trial_n":114,"min":86,"max":169,"target":"present","response":"present","rt":725.79999995232,"correct":true,"confidence":4},{"trial_n":115,"min":87,"max":168,"target":"present","response":"present","rt":3225.7000000477,"correct":true,"confidence":1},{"trial_n":116,"min":87,"max":168,"target":"absent","response":"present","rt":2404.7999999523,"correct":false,"confidence":3},{"trial_n":117,"min":86,"max":169,"target":"present","response":"present","rt":368.59999990463,"correct":true,"confidence":5},{"trial_n":118,"min":86,"max":169,"target":"present","response":"present","rt":1099.5999999046,"correct":true,"confidence":4},{"trial_n":119,"min":87,"max":168,"target":"absent","response":"absent","rt":2147.1000000238,"correct":true,"confidence":1},{"trial_n":120,"min":87,"max":168,"target":"absent","response":"present","rt":948.5,"correct":false,"confidence":3},{"trial_n":121,"min":86,"max":169,"target":"present","response":"present","rt":406.60000002384,"correct":true,"confidence":4},{"trial_n":122,"min":86,"max":169,"target":"absent","response":"absent","rt":1146.1000000238,"correct":true,"confidence":1},{"trial_n":123,"min":87,"max":168,"target":"absent","response":"present","rt":2463.1000000238,"correct":false,"confidence":2},{"trial_n":124,"min":86,"max":169,"target":"present","response":"present","rt":1016.7000000477,"correct":true,"confidence":1},{"trial_n":125,"min":86,"max":169,"target":"present","response":"present","rt":864.30000007153,"correct":true,"confidence":5},{"trial_n":126,"min":87,"max":168,"target":"present","response":"present","rt":1226.6000000238,"correct":true,"confidence":4},{"trial_n":127,"min":87,"max":168,"target":"absent","response":"present","rt":1419.8000000715,"correct":false,"confidence":1},{"trial_n":128,"min":86,"max":169,"target":"absent","response":"present","rt":784.60000002384,"correct":false,"confidence":2},{"trial_n":129,"min":85,"max":170,"target":"absent","response":"present","rt":858.80000007153,"correct":false,"confidence":1},{"trial_n":130,"min":84,"max":171,"target":"absent","response":"absent","rt":765.39999997616,"correct":true,"confidence":3},{"trial_n":131,"min":84,"max":171,"target":"present","response":"present","rt":462.10000002384,"correct":true,"confidence":4},{"trial_n":132,"min":85,"max":170,"target":"absent","response":"absent","rt":779.5,"correct":true,"confidence":5},{"trial_n":133,"min":85,"max":170,"target":"absent","response":"absent","rt":958.89999997616,"correct":true,"confidence":3},{"trial_n":134,"min":86,"max":169,"target":"present","response":"present","rt":803.5,"correct":true,"confidence":5},{"trial_n":135,"min":86,"max":169,"target":"present","response":"present","rt":455.20000004768,"correct":true,"confidence":5},{"trial_n":136,"min":87,"max":168,"target":"present","response":"present","rt":427.20000004768,"correct":true,"confidence":5},{"trial_n":137,"min":87,"max":168,"target":"absent","response":"present","rt":604.30000007153,"correct":false,"confidence":5},{"trial_n":138,"min":86,"max":169,"target":"present","response":"present","rt":367.20000004768,"correct":true,"confidence":5},{"trial_n":139,"min":86,"max":169,"target":"present","response":"present","rt":334.5,"correct":true,"confidence":5},{"trial_n":140,"min":87,"max":168,"target":"absent","response":"absent","rt":593.79999995232,"correct":true,"confidence":4}]