[{"trial_n":1,"n_dots":4.25,"target":"right","response":"right","rt":6779.6000000238,"correct":true,"confidence":-1},{"trial_n":2,"n_dots":4.25,"target":"left","response":"left","rt":524.69999992847,"correct":true,"confidence":-1},{"trial_n":3,"n_dots":3.85,"target":"right","response":"right","rt":360.40000009537,"correct":true,"confidence":-1},{"trial_n":4,"n_dots":3.85,"target":"left","response":"left","rt":520.79999995232,"correct":true,"confidence":-1},{"trial_n":5,"n_dots":3.45,"target":"left","response":"left","rt":417.60000002384,"correct":true,"confidence":-1},{"trial_n":6,"n_dots":3.45,"target":"left","response":"left","rt":379.30000007153,"correct":true,"confidence":-1},{"trial_n":7,"n_dots":3.05,"target":"left","response":"left","rt":606.60000002384,"correct":true,"confidence":-1},{"trial_n":8,"n_dots":3.05,"target":"left","response":"left","rt":595.90000009537,"correct":true,"confidence":-1},{"trial_n":9,"n_dots":2.85,"target":"right","response":"left","rt":1401.3999999762,"correct":false,"confidence":-1},{"trial_n":10,"n_dots":3.05,"target":"left","response":"left","rt":357.5,"correct":true,"confidence":-1},{"trial_n":11,"n_dots":3.05,"target":"right","response":"right","rt":477.89999997616,"correct":true,"confidence":-1},{"trial_n":12,"n_dots":2.85,"target":"right","response":"left","rt":383.89999997616,"correct":false,"confidence":-1},{"trial_n":13,"n_dots":2.95,"target":"right","response":"left","rt":459.89999997616,"correct":false,"confidence":-1},{"trial_n":14,"n_dots":3.05,"target":"left","response":"left","rt":373.29999995232,"correct":true,"confidence":-1},{"trial_n":15,"n_dots":3.05,"target":"left","response":"left","rt":525.29999995232,"correct":true,"confidence":-1},{"trial_n":16,"n_dots":2.95,"target":"right","response":"right","rt":409.20000004768,"correct":true,"confidence":-1},{"trial_n":17,"n_dots":2.95,"target":"left","response":"left","rt":777.79999995232,"correct":true,"confidence":-1},{"trial_n":18,"n_dots":2.85,"target":"right","response":"right","rt":1475.6000000238,"correct":true,"confidence":-1},{"trial_n":19,"n_dots":2.85,"target":"right","response":"left","rt":1207.7000000477,"correct":false,"confidence":-1},{"trial_n":20,"n_dots":2.95,"target":"right","response":"right","rt":585.20000004768,"correct":true,"confidence":-1},{"trial_n":21,"n_dots":2.95,"target":"left","response":"right","rt":686,"correct":false,"confidence":2},{"trial_n":22,"n_dots":3.05,"target":"right","response":"right","rt":472.39999997616,"correct":true,"confidence":2},{"trial_n":23,"n_dots":3.05,"target":"left","response":"left","rt":483.89999997616,"correct":true,"confidence":2},{"trial_n":24,"n_dots":2.95,"target":"right","response":"left","rt":935.19999992847,"correct":false,"confidence":2},{"trial_n":25,"n_dots":3.05,"target":"left","response":"right","rt":716.30000007153,"correct":false,"confidence":3},{"trial_n":26,"n_dots":3.15,"target":"right","response":"left","rt":1056.1999999285,"correct":false,"confidence":2},{"trial_n":27,"n_dots":3.25,"target":"right","response":"right","rt":653,"correct":true,"confidence":1},{"trial_n":28,"n_dots":3.25,"target":"left","response":"left","rt":1641.1000000238,"correct":true,"confidence":3},{"trial_n":29,"n_dots":3.15,"target":"right","response":"right","rt":1072.6000000238,"correct":true,"confidence":1},{"trial_n":30,"n_dots":3.15,"target":"left","response":"left","rt":1165.6000000238,"correct":true,"confidence":2},{"trial_n":31,"n_dots":3.05,"target":"left","response":"left","rt":1190.6000000238,"correct":true,"confidence":1},{"trial_n":32,"n_dots":3.05,"target":"left","response":"left","rt":1147,"correct":true,"confidence":1},{"trial_n":33,"n_dots":2.95,"target":"right","response":"right","rt":1007.5,"correct":true,"confidence":1},{"trial_n":34,"n_dots":2.95,"target":"right","response":"left","rt":1119.3999999762,"correct":false,"confidence":1},{"trial_n":35,"n_dots":3.05,"target":"right","response":"right","rt":395.5,"correct":true,"confidence":2},{"trial_n":36,"n_dots":3.05,"target":"left","response":"left","rt":620.5,"correct":true,"confidence":3},{"trial_n":37,"n_dots":2.95,"target":"left","response":"left","rt":834,"correct":true,"confidence":3},{"trial_n":38,"n_dots":2.95,"target":"left","response":"left","rt":866.89999997616,"correct":true,"confidence":3},{"trial_n":39,"n_dots":2.85,"target":"left","response":"left","rt":446.19999992847,"correct":true,"confidence":3},{"trial_n":40,"n_dots":2.85,"target":"left","response":"left","rt":796.29999995232,"correct":true,"confidence":2},{"trial_n":41,"n_dots":2.75,"target":"left","response":"left","rt":442,"correct":true,"confidence":2},{"trial_n":42,"n_dots":2.75,"target":"right","response":"right","rt":968.29999995232,"correct":true,"confidence":2},{"trial_n":43,"n_dots":2.65,"target":"right","response":"right","rt":1039.7000000477,"correct":true,"confidence":1},{"trial_n":44,"n_dots":2.65,"target":"right","response":"left","rt":1320.8000000715,"correct":false,"confidence":1},{"trial_n":45,"n_dots":2.75,"target":"left","response":"left","rt":444.70000004768,"correct":true,"confidence":2},{"trial_n":46,"n_dots":2.75,"target":"left","response":"left","rt":562.10000002384,"correct":true,"confidence":3},{"trial_n":47,"n_dots":2.65,"target":"right","response":"left","rt":716.39999997616,"correct":false,"confidence":2},{"trial_n":48,"n_dots":2.75,"target":"left","response":"right","rt":1668.3999999762,"correct":false,"confidence":1},{"trial_n":49,"n_dots":2.85,"target":"right","response":"right","rt":639.89999997616,"correct":true,"confidence":1},{"trial_n":50,"n_dots":2.85,"target":"right","response":"right","rt":566.5,"correct":true,"confidence":1},{"trial_n":51,"n_dots":2.75,"target":"right","response":"left","rt":878,"correct":false,"confidence":1},{"trial_n":52,"n_dots":2.85,"target":"right","response":"right","rt":548.19999992847,"correct":true,"confidence":1},{"trial_n":53,"n_dots":2.85,"target":"right","response":"left","rt":517.89999997616,"correct":false,"confidence":1},{"trial_n":54,"n_dots":2.95,"target":"right","response":"right","rt":445.39999997616,"correct":true,"confidence":1},{"trial_n":55,"n_dots":2.95,"target":"left","response":"left","rt":902.59999990463,"correct":true,"confidence":2},{"trial_n":56,"n_dots":2.85,"target":"left","response":"left","rt":472.69999992847,"correct":true,"confidence":2},{"trial_n":57,"n_dots":2.85,"target":"left","response":"left","rt":914.59999990463,"correct":true,"confidence":2},{"trial_n":58,"n_dots":2.75,"target":"left","response":"left","rt":1974,"correct":true,"confidence":3},{"trial_n":59,"n_dots":2.75,"target":"left","response":"left","rt":1632.6999999285,"correct":true,"confidence":2},{"trial_n":60,"n_dots":2.65,"target":"left","response":"right","rt":932.60000002384,"correct":false,"confidence":1},{"trial_n":61,"n_dots":2.75,"target":"left","response":"right","rt":699.20000004768,"correct":false,"confidence":1},{"trial_n":62,"n_dots":2.85,"target":"right","response":"left","rt":488.79999995232,"correct":false,"confidence":1},{"trial_n":63,"n_dots":2.95,"target":"right","response":"left","rt":1786.1000000238,"correct":false,"confidence":2},{"trial_n":64,"n_dots":3.05,"target":"right","response":"right","rt":614.80000007153,"correct":true,"confidence":2},{"trial_n":65,"n_dots":3.05,"target":"right","response":"right","rt":865.20000004768,"correct":true,"confidence":2},{"trial_n":66,"n_dots":2.95,"target":"right","response":"left","rt":960.60000002384,"correct":false,"confidence":1},{"trial_n":67,"n_dots":3.05,"target":"left","response":"left","rt":850.39999997616,"correct":true,"confidence":3},{"trial_n":68,"n_dots":3.05,"target":"left","response":"left","rt":819.60000002384,"correct":true,"confidence":2},{"trial_n":69,"n_dots":2.95,"target":"left","response":"left","rt":1040.2000000477,"correct":true,"confidence":2},{"trial_n":70,"n_dots":2.95,"target":"right","response":"right","rt":637.5,"correct":true,"confidence":1},{"trial_n":71,"n_dots":2.85,"target":"right","response":"left","rt":753.5,"correct":false,"confidence":1},{"trial_n":72,"n_dots":2.95,"target":"right","response":"right","rt":618.39999997616,"correct":true,"confidence":1},{"trial_n":73,"n_dots":2.95,"target":"right","response":"left","rt":551.5,"correct":false,"confidence":1},{"trial_n":74,"n_dots":3.05,"target":"right","response":"right","rt":737.39999997616,"correct":true,"confidence":1},{"trial_n":75,"n_dots":3.05,"target":"left","response":"left","rt":368.39999997616,"correct":true,"confidence":3},{"trial_n":76,"n_dots":2.95,"target":"left","response":"right","rt":576.89999997616,"correct":false,"confidence":1},{"trial_n":77,"n_dots":3.05,"target":"left","response":"left","rt":476.89999997616,"correct":true,"confidence":1},{"trial_n":78,"n_dots":3.05,"target":"left","response":"left","rt":434.89999997616,"correct":true,"confidence":1},{"trial_n":79,"n_dots":2.95,"target":"left","response":"left","rt":488.59999990463,"correct":true,"confidence":1},{"trial_n":80,"n_dots":2.95,"target":"right","response":"right","rt":1378.7999999523,"correct":true,"confidence":1},{"trial_n":81,"n_dots":2.85,"target":"left","response":"left","rt":901.69999992847,"correct":true,"confidence":1},{"trial_n":82,"n_dots":2.85,"target":"left","response":"right","rt":646.70000004768,"correct":false,"confidence":1},{"trial_n":83,"n_dots":2.95,"target":"right","response":"right","rt":597.60000002384,"correct":true,"confidence":1},{"trial_n":84,"n_dots":2.95,"target":"right","response":"left","rt":473.5,"correct":false,"confidence":1},{"trial_n":85,"n_dots":3.05,"target":"right","response":"left","rt":763.60000002384,"correct":false,"confidence":1},{"trial_n":86,"n_dots":3.15,"target":"right","response":"right","rt":1313.5999999046,"correct":true,"confidence":1},{"trial_n":87,"n_dots":3.15,"target":"left","response":"left","rt":366.79999995232,"correct":true,"confidence":1},{"trial_n":88,"n_dots":3.05,"target":"left","response":"right","rt":541.60000002384,"correct":false,"confidence":1},{"trial_n":89,"n_dots":3.15,"target":"left","response":"right","rt":834.70000004768,"correct":false,"confidence":1},{"trial_n":90,"n_dots":3.25,"target":"right","response":"left","rt":303.39999997616,"correct":false,"confidence":1},{"trial_n":91,"n_dots":3.35,"target":"left","response":"left","rt":657.59999990463,"correct":true,"confidence":1},{"trial_n":92,"n_dots":3.35,"target":"left","response":"left","rt":668.19999992847,"correct":true,"confidence":1},{"trial_n":93,"n_dots":3.25,"target":"right","response":"right","rt":415.20000004768,"correct":true,"confidence":1},{"trial_n":94,"n_dots":3.25,"target":"left","response":"left","rt":239.89999997616,"correct":true,"confidence":1},{"trial_n":95,"n_dots":3.15,"target":"right","response":"right","rt":105.5,"correct":true,"confidence":1},{"trial_n":96,"n_dots":3.15,"target":"right","response":"left","rt":674.70000004768,"correct":false,"confidence":1},{"trial_n":97,"n_dots":3.25,"target":"right","response":"right","rt":462.10000002384,"correct":true,"confidence":1},{"trial_n":98,"n_dots":3.25,"target":"left","response":"left","rt":232.70000004768,"correct":true,"confidence":1},{"trial_n":99,"n_dots":3.15,"target":"left","response":"left","rt":411.29999995232,"correct":true,"confidence":1},{"trial_n":100,"n_dots":3.15,"target":"right","response":"right","rt":747.20000004768,"correct":true,"confidence":1},{"trial_n":101,"n_dots":3.05,"target":"left","response":"left","rt":280.40000009537,"correct":true,"confidence":1},{"trial_n":102,"n_dots":3.05,"target":"left","response":"left","rt":649.5,"correct":true,"confidence":1},{"trial_n":103,"n_dots":2.95,"target":"left","response":"left","rt":69.5,"correct":true,"confidence":1},{"trial_n":104,"n_dots":2.95,"target":"right","response":"right","rt":1248.2999999523,"correct":true,"confidence":1},{"trial_n":105,"n_dots":2.85,"target":"left","response":"left","rt":530.39999997616,"correct":true,"confidence":1},{"trial_n":106,"n_dots":2.85,"target":"right","response":"right","rt":413.40000009537,"correct":true,"confidence":1},{"trial_n":107,"n_dots":2.75,"target":"right","response":"right","rt":441.29999995232,"correct":true,"confidence":1},{"trial_n":108,"n_dots":2.75,"target":"right","response":"right","rt":412.40000009537,"correct":true,"confidence":1},{"trial_n":109,"n_dots":2.65,"target":"left","response":"left","rt":635.69999992847,"correct":true,"confidence":1},{"trial_n":110,"n_dots":2.65,"target":"left","response":"right","rt":481.09999990463,"correct":false,"confidence":1},{"trial_n":111,"n_dots":2.75,"target":"right","response":"right","rt":384.69999992847,"correct":true,"confidence":1},{"trial_n":112,"n_dots":2.75,"target":"right","response":"right","rt":548.70000004768,"correct":true,"confidence":1},{"trial_n":113,"n_dots":2.65,"target":"right","response":"right","rt":495.29999995232,"correct":true,"confidence":1},{"trial_n":114,"n_dots":2.65,"target":"right","response":"left","rt":363.69999992847,"correct":false,"confidence":1},{"trial_n":115,"n_dots":2.75,"target":"right","response":"right","rt":384.79999995232,"correct":true,"confidence":1},{"trial_n":116,"n_dots":2.75,"target":"left","response":"left","rt":551,"correct":true,"confidence":1},{"trial_n":117,"n_dots":2.65,"target":"left","response":"left","rt":341.29999995232,"correct":true,"confidence":1},{"trial_n":118,"n_dots":2.65,"target":"right","response":"right","rt":335.89999997616,"correct":true,"confidence":1},{"trial_n":119,"n_dots":2.55,"target":"right","response":"left","rt":174.40000009537,"correct":false,"confidence":1},{"trial_n":120,"n_dots":2.65,"target":"left","response":"left","rt":351.39999997616,"correct":true,"confidence":1}]