[{"trial_n":1,"n_dots":4.25,"target":"left","response":"left","rt":7297,"correct":true,"confidence":-1},{"trial_n":2,"n_dots":4.25,"target":"right","response":"right","rt":814,"correct":true,"confidence":-1},{"trial_n":3,"n_dots":3.85,"target":"right","response":"right","rt":787,"correct":true,"confidence":-1},{"trial_n":4,"n_dots":3.85,"target":"right","response":"right","rt":848,"correct":true,"confidence":-1},{"trial_n":5,"n_dots":3.45,"target":"left","response":"left","rt":652,"correct":true,"confidence":-1},{"trial_n":6,"n_dots":3.45,"target":"right","response":"right","rt":1170,"correct":true,"confidence":-1},{"trial_n":7,"n_dots":3.05,"target":"right","response":"right","rt":1130,"correct":true,"confidence":-1},{"trial_n":8,"n_dots":3.05,"target":"right","response":"left","rt":708.99999999999,"correct":false,"confidence":-1},{"trial_n":9,"n_dots":3.25,"target":"left","response":"left","rt":589.99999999999,"correct":true,"confidence":-1},{"trial_n":10,"n_dots":3.25,"target":"right","response":"left","rt":2019,"correct":false,"confidence":-1},{"trial_n":11,"n_dots":3.45,"target":"left","response":"left","rt":800,"correct":true,"confidence":-1},{"trial_n":12,"n_dots":3.45,"target":"left","response":"right","rt":1024,"correct":false,"confidence":-1},{"trial_n":13,"n_dots":3.55,"target":"right","response":"right","rt":799,"correct":true,"confidence":-1},{"trial_n":14,"n_dots":3.55,"target":"left","response":"right","rt":919.99999999999,"correct":false,"confidence":-1},{"trial_n":15,"n_dots":3.65,"target":"right","response":"right","rt":519.00000000001,"correct":true,"confidence":-1},{"trial_n":16,"n_dots":3.65,"target":"left","response":"left","rt":563.00000000001,"correct":true,"confidence":-1},{"trial_n":17,"n_dots":3.55,"target":"left","response":"left","rt":775,"correct":true,"confidence":-1},{"trial_n":18,"n_dots":3.55,"target":"left","response":"left","rt":1253,"correct":true,"confidence":-1},{"trial_n":19,"n_dots":3.45,"target":"right","response":"right","rt":715,"correct":true,"confidence":-1},{"trial_n":20,"n_dots":3.45,"target":"right","response":"right","rt":739,"correct":true,"confidence":-1},{"trial_n":21,"n_dots":3.35,"target":"left","response":"left","rt":1280,"correct":true,"confidence":3},{"trial_n":22,"n_dots":3.35,"target":"right","response":"right","rt":1039,"correct":true,"confidence":3},{"trial_n":23,"n_dots":3.25,"target":"left","response":"right","rt":1140.0000000001,"correct":false,"confidence":3},{"trial_n":24,"n_dots":3.35,"target":"right","response":"left","rt":635,"correct":false,"confidence":3},{"trial_n":25,"n_dots":3.45,"target":"right","response":"right","rt":1414.0000000001,"correct":true,"confidence":3},{"trial_n":26,"n_dots":3.45,"target":"right","response":"right","rt":572,"correct":true,"confidence":4},{"trial_n":27,"n_dots":3.35,"target":"left","response":"right","rt":2262,"correct":false,"confidence":3},{"trial_n":28,"n_dots":3.45,"target":"left","response":"left","rt":923,"correct":true,"confidence":3},{"trial_n":29,"n_dots":3.45,"target":"right","response":"right","rt":2754,"correct":true,"confidence":2},{"trial_n":30,"n_dots":3.35,"target":"right","response":"right","rt":1521,"correct":true,"confidence":3},{"trial_n":31,"n_dots":3.35,"target":"left","response":"left","rt":716,"correct":true,"confidence":4},{"trial_n":32,"n_dots":3.25,"target":"right","response":"right","rt":1357,"correct":true,"confidence":2},{"trial_n":33,"n_dots":3.25,"target":"left","response":"left","rt":2772,"correct":true,"confidence":3},{"trial_n":34,"n_dots":3.15,"target":"right","response":"right","rt":1336,"correct":true,"confidence":4},{"trial_n":35,"n_dots":3.15,"target":"right","response":"right","rt":1046,"correct":true,"confidence":4},{"trial_n":36,"n_dots":3.05,"target":"right","response":"right","rt":1501,"correct":true,"confidence":3},{"trial_n":37,"n_dots":3.05,"target":"right","response":"right","rt":1242,"correct":true,"confidence":4},{"trial_n":38,"n_dots":2.95,"target":"left","response":"left","rt":469,"correct":true,"confidence":5},{"trial_n":39,"n_dots":2.95,"target":"left","response":"left","rt":800,"correct":true,"confidence":4},{"trial_n":40,"n_dots":2.85,"target":"left","response":"right","rt":2279,"correct":false,"confidence":2},{"trial_n":41,"n_dots":2.95,"target":"right","response":"right","rt":886.00000000006,"correct":true,"confidence":3},{"trial_n":42,"n_dots":2.95,"target":"left","response":"left","rt":466,"correct":true,"confidence":3},{"trial_n":43,"n_dots":2.85,"target":"left","response":"left","rt":3992,"correct":true,"confidence":2},{"trial_n":44,"n_dots":2.85,"target":"left","response":"left","rt":660.00000000006,"correct":true,"confidence":4},{"trial_n":45,"n_dots":2.75,"target":"right","response":"left","rt":2620,"correct":false,"confidence":1},{"trial_n":46,"n_dots":2.85,"target":"left","response":"left","rt":631.99999999994,"correct":true,"confidence":4},{"trial_n":47,"n_dots":2.85,"target":"left","response":"left","rt":805.99999999994,"correct":true,"confidence":4},{"trial_n":48,"n_dots":2.75,"target":"left","response":"left","rt":794,"correct":true,"confidence":3},{"trial_n":49,"n_dots":2.75,"target":"left","response":"left","rt":536.99999999988,"correct":true,"confidence":3},{"trial_n":50,"n_dots":2.65,"target":"left","response":"left","rt":1022,"correct":true,"confidence":3},{"trial_n":51,"n_dots":2.65,"target":"right","response":"right","rt":3210,"correct":true,"confidence":3},{"trial_n":52,"n_dots":2.55,"target":"right","response":"left","rt":639,"correct":false,"confidence":3},{"trial_n":53,"n_dots":2.65,"target":"left","response":"left","rt":1611,"correct":true,"confidence":2},{"trial_n":54,"n_dots":2.65,"target":"right","response":"right","rt":654,"correct":true,"confidence":4},{"trial_n":55,"n_dots":2.55,"target":"right","response":"right","rt":380,"correct":true,"confidence":5},{"trial_n":56,"n_dots":2.55,"target":"right","response":"right","rt":1247,"correct":true,"confidence":4},{"trial_n":57,"n_dots":2.45,"target":"right","response":"right","rt":1068,"correct":true,"confidence":4},{"trial_n":58,"n_dots":2.45,"target":"left","response":"left","rt":526,"correct":true,"confidence":4},{"trial_n":59,"n_dots":2.35,"target":"left","response":"left","rt":548.99999999988,"correct":true,"confidence":3},{"trial_n":60,"n_dots":2.35,"target":"left","response":"left","rt":1873.0000000001,"correct":true,"confidence":3},{"trial_n":61,"n_dots":2.25,"target":"left","response":"left","rt":493.00000000012,"correct":true,"confidence":3},{"trial_n":62,"n_dots":2.25,"target":"right","response":"right","rt":486.99999999988,"correct":true,"confidence":3},{"trial_n":63,"n_dots":2.15,"target":"right","response":"right","rt":628,"correct":true,"confidence":4},{"trial_n":64,"n_dots":2.15,"target":"left","response":"left","rt":1360,"correct":true,"confidence":2},{"trial_n":65,"n_dots":2.05,"target":"right","response":"left","rt":471,"correct":false,"confidence":3},{"trial_n":66,"n_dots":2.15,"target":"left","response":"left","rt":693,"correct":true,"confidence":4},{"trial_n":67,"n_dots":2.15,"target":"left","response":"left","rt":639.99999999988,"correct":true,"confidence":5},{"trial_n":68,"n_dots":2.05,"target":"left","response":"left","rt":494,"correct":true,"confidence":4},{"trial_n":69,"n_dots":2.05,"target":"right","response":"right","rt":1306,"correct":true,"confidence":2},{"trial_n":70,"n_dots":1.95,"target":"right","response":"right","rt":1167,"correct":true,"confidence":2},{"trial_n":71,"n_dots":1.95,"target":"right","response":"right","rt":441,"correct":true,"confidence":3},{"trial_n":72,"n_dots":1.85,"target":"left","response":"left","rt":2631,"correct":true,"confidence":3},{"trial_n":73,"n_dots":1.85,"target":"right","response":"left","rt":925.99999999988,"correct":false,"confidence":3},{"trial_n":74,"n_dots":1.95,"target":"right","response":"left","rt":678.99999999988,"correct":false,"confidence":3},{"trial_n":75,"n_dots":2.05,"target":"left","response":"left","rt":995,"correct":true,"confidence":3},{"trial_n":76,"n_dots":2.05,"target":"left","response":"left","rt":716,"correct":true,"confidence":2},{"trial_n":77,"n_dots":1.95,"target":"left","response":"left","rt":479,"correct":true,"confidence":3},{"trial_n":78,"n_dots":1.95,"target":"right","response":"right","rt":627,"correct":true,"confidence":2},{"trial_n":79,"n_dots":1.85,"target":"right","response":"right","rt":538,"correct":true,"confidence":3},{"trial_n":80,"n_dots":1.85,"target":"right","response":"left","rt":360,"correct":false,"confidence":3},{"trial_n":81,"n_dots":1.95,"target":"right","response":"right","rt":402,"correct":true,"confidence":3},{"trial_n":82,"n_dots":1.95,"target":"right","response":"left","rt":433,"correct":false,"confidence":4},{"trial_n":83,"n_dots":2.05,"target":"left","response":"left","rt":715,"correct":true,"confidence":3},{"trial_n":84,"n_dots":2.05,"target":"right","response":"right","rt":277,"correct":true,"confidence":3},{"trial_n":85,"n_dots":1.95,"target":"left","response":"left","rt":431,"correct":true,"confidence":3},{"trial_n":86,"n_dots":1.95,"target":"right","response":"left","rt":470,"correct":false,"confidence":3},{"trial_n":87,"n_dots":2.05,"target":"right","response":"right","rt":394,"correct":true,"confidence":3},{"trial_n":88,"n_dots":2.05,"target":"right","response":"right","rt":6544,"correct":true,"confidence":2},{"trial_n":89,"n_dots":1.95,"target":"left","response":"left","rt":390.00000000012,"correct":true,"confidence":4},{"trial_n":90,"n_dots":1.95,"target":"left","response":"left","rt":446.00000000012,"correct":true,"confidence":3},{"trial_n":91,"n_dots":1.85,"target":"right","response":"right","rt":272.00000000012,"correct":true,"confidence":2},{"trial_n":92,"n_dots":1.85,"target":"left","response":"left","rt":434.00000000012,"correct":true,"confidence":4},{"trial_n":93,"n_dots":1.75,"target":"left","response":"left","rt":742,"correct":true,"confidence":3},{"trial_n":94,"n_dots":1.75,"target":"left","response":"left","rt":721,"correct":true,"confidence":3},{"trial_n":95,"n_dots":1.65,"target":"right","response":"right","rt":545,"correct":true,"confidence":3},{"trial_n":96,"n_dots":1.65,"target":"right","response":"left","rt":682,"correct":false,"confidence":5},{"trial_n":97,"n_dots":1.75,"target":"left","response":"left","rt":2319,"correct":true,"confidence":3},{"trial_n":98,"n_dots":1.75,"target":"right","response":"right","rt":450.00000000012,"correct":true,"confidence":4},{"trial_n":99,"n_dots":1.65,"target":"right","response":"right","rt":872,"correct":true,"confidence":3},{"trial_n":100,"n_dots":1.65,"target":"right","response":"right","rt":597,"correct":true,"confidence":3},{"trial_n":101,"n_dots":1.55,"target":"left","response":"left","rt":1967,"correct":true,"confidence":2},{"trial_n":102,"n_dots":1.55,"target":"left","response":"left","rt":749,"correct":true,"confidence":4},{"trial_n":103,"n_dots":1.45,"target":"left","response":"right","rt":473,"correct":false,"confidence":4},{"trial_n":104,"n_dots":1.55,"target":"left","response":"right","rt":947,"correct":false,"confidence":3},{"trial_n":105,"n_dots":1.65,"target":"right","response":"right","rt":1588,"correct":true,"confidence":3},{"trial_n":106,"n_dots":1.65,"target":"right","response":"left","rt":740.99999999988,"correct":false,"confidence":3},{"trial_n":107,"n_dots":1.75,"target":"left","response":"left","rt":192442,"correct":true,"confidence":1},{"trial_n":108,"n_dots":1.75,"target":"left","response":"left","rt":424.00000000023,"correct":true,"confidence":3},{"trial_n":109,"n_dots":1.65,"target":"left","response":"right","rt":1059,"correct":false,"confidence":3},{"trial_n":110,"n_dots":1.75,"target":"left","response":"left","rt":1044,"correct":true,"confidence":3},{"trial_n":111,"n_dots":1.75,"target":"left","response":"right","rt":1055,"correct":false,"confidence":4},{"trial_n":112,"n_dots":1.85,"target":"right","response":"right","rt":1244,"correct":true,"confidence":3},{"trial_n":113,"n_dots":1.85,"target":"left","response":"left","rt":2022,"correct":true,"confidence":2},{"trial_n":114,"n_dots":1.75,"target":"left","response":"right","rt":910,"correct":false,"confidence":4},{"trial_n":115,"n_dots":1.85,"target":"right","response":"right","rt":985,"correct":true,"confidence":4},{"trial_n":116,"n_dots":1.85,"target":"left","response":"left","rt":1005.0000000002,"correct":true,"confidence":3},{"trial_n":117,"n_dots":1.75,"target":"right","response":"right","rt":944,"correct":true,"confidence":3},{"trial_n":118,"n_dots":1.75,"target":"right","response":"right","rt":928,"correct":true,"confidence":4},{"trial_n":119,"n_dots":1.65,"target":"right","response":"left","rt":1193,"correct":false,"confidence":3},{"trial_n":120,"n_dots":1.75,"target":"left","response":"left","rt":1138.9999999998,"correct":true,"confidence":3}]