[{"trial_n":1,"min":25,"max":230,"target":"present","response":"absent","rt":3823.5,"correct":false,"confidence":-1},{"trial_n":2,"min":25,"max":230,"target":"present","response":"present","rt":1234.5,"correct":true,"confidence":-1},{"trial_n":3,"min":25,"max":230,"target":"absent","response":"absent","rt":1998.8000001907,"correct":true,"confidence":-1},{"trial_n":4,"min":41,"max":214,"target":"absent","response":"absent","rt":403.30000019073,"correct":true,"confidence":-1},{"trial_n":5,"min":41,"max":214,"target":"present","response":"present","rt":1106,"correct":true,"confidence":-1},{"trial_n":6,"min":57,"max":198,"target":"absent","response":"absent","rt":272,"correct":true,"confidence":-1},{"trial_n":7,"min":57,"max":198,"target":"present","response":"present","rt":387.5,"correct":true,"confidence":-1},{"trial_n":8,"min":73,"max":182,"target":"present","response":"absent","rt":321.2999997139,"correct":false,"confidence":-1},{"trial_n":9,"min":57,"max":198,"target":"present","response":"present","rt":598,"correct":true,"confidence":-1},{"trial_n":10,"min":57,"max":198,"target":"absent","response":"absent","rt":388.90000009537,"correct":true,"confidence":-1},{"trial_n":11,"min":65,"max":190,"target":"present","response":"present","rt":363.5,"correct":true,"confidence":-1},{"trial_n":12,"min":65,"max":190,"target":"present","response":"present","rt":356.7000002861,"correct":true,"confidence":-1},{"trial_n":13,"min":73,"max":182,"target":"present","response":"present","rt":457.40000009537,"correct":true,"confidence":-1},{"trial_n":14,"min":73,"max":182,"target":"absent","response":"absent","rt":398.09999990463,"correct":true,"confidence":-1},{"trial_n":15,"min":81,"max":174,"target":"absent","response":"absent","rt":396.7999997139,"correct":true,"confidence":-1},{"trial_n":16,"min":81,"max":174,"target":"present","response":"present","rt":532.5,"correct":true,"confidence":-1},{"trial_n":17,"min":89,"max":166,"target":"absent","response":"absent","rt":345.40000009537,"correct":true,"confidence":-1},{"trial_n":18,"min":89,"max":166,"target":"present","response":"absent","rt":247.09999990463,"correct":false,"confidence":-1},{"trial_n":19,"min":81,"max":174,"target":"present","response":"absent","rt":971.80000019073,"correct":false,"confidence":-1},{"trial_n":20,"min":73,"max":182,"target":"absent","response":"absent","rt":496,"correct":true,"confidence":-1},{"trial_n":21,"min":73,"max":182,"target":"absent","response":"absent","rt":902.19999980927,"correct":true,"confidence":3},{"trial_n":22,"min":77,"max":178,"target":"absent","response":"absent","rt":1241.0999999046,"correct":true,"confidence":4},{"trial_n":23,"min":77,"max":178,"target":"present","response":"present","rt":631.39999961853,"correct":true,"confidence":5},{"trial_n":24,"min":81,"max":174,"target":"present","response":"present","rt":572.19999980927,"correct":true,"confidence":5},{"trial_n":25,"min":81,"max":174,"target":"absent","response":"absent","rt":858.30000019073,"correct":true,"confidence":4},{"trial_n":26,"min":85,"max":170,"target":"present","response":"present","rt":458.2999997139,"correct":true,"confidence":5},{"trial_n":27,"min":85,"max":170,"target":"absent","response":"absent","rt":901.2999997139,"correct":true,"confidence":3},{"trial_n":28,"min":89,"max":166,"target":"present","response":"present","rt":340.2000002861,"correct":true,"confidence":5},{"trial_n":29,"min":89,"max":166,"target":"present","response":"absent","rt":826,"correct":false,"confidence":2},{"trial_n":30,"min":85,"max":170,"target":"present","response":"present","rt":692.80000019073,"correct":true,"confidence":3},{"trial_n":31,"min":85,"max":170,"target":"absent","response":"absent","rt":520.7000002861,"correct":true,"confidence":2},{"trial_n":32,"min":87,"max":168,"target":"present","response":"present","rt":1054.9000000954,"correct":true,"confidence":3},{"trial_n":33,"min":87,"max":168,"target":"present","response":"absent","rt":916.30000019073,"correct":false,"confidence":3},{"trial_n":34,"min":85,"max":170,"target":"absent","response":"absent","rt":1592.2000002861,"correct":true,"confidence":3},{"trial_n":35,"min":85,"max":170,"target":"present","response":"present","rt":302.5,"correct":true,"confidence":4},{"trial_n":36,"min":87,"max":168,"target":"absent","response":"absent","rt":526.60000038147,"correct":true,"confidence":2},{"trial_n":37,"min":87,"max":168,"target":"present","response":"absent","rt":1612.5999999046,"correct":false,"confidence":3},{"trial_n":38,"min":85,"max":170,"target":"absent","response":"absent","rt":490.09999990463,"correct":true,"confidence":3},{"trial_n":39,"min":85,"max":170,"target":"absent","response":"absent","rt":406.09999990463,"correct":true,"confidence":3},{"trial_n":40,"min":87,"max":168,"target":"absent","response":"absent","rt":397.69999980927,"correct":true,"confidence":3},{"trial_n":41,"min":87,"max":168,"target":"absent","response":"absent","rt":941.59999990463,"correct":true,"confidence":2},{"trial_n":42,"min":88,"max":167,"target":"present","response":"absent","rt":420.09999990463,"correct":false,"confidence":3},{"trial_n":43,"min":87,"max":168,"target":"present","response":"absent","rt":326.59999990463,"correct":false,"confidence":3},{"trial_n":44,"min":86,"max":169,"target":"present","response":"present","rt":1097,"correct":true,"confidence":2},{"trial_n":45,"min":86,"max":169,"target":"present","response":"absent","rt":654.09999990463,"correct":false,"confidence":2},{"trial_n":46,"min":85,"max":170,"target":"absent","response":"absent","rt":719.30000019073,"correct":true,"confidence":2},{"trial_n":47,"min":85,"max":170,"target":"present","response":"absent","rt":408.40000009537,"correct":false,"confidence":3},{"trial_n":48,"min":84,"max":171,"target":"present","response":"absent","rt":630.7999997139,"correct":false,"confidence":3},{"trial_n":49,"min":83,"max":172,"target":"absent","response":"absent","rt":364.69999980927,"correct":true,"confidence":3},{"trial_n":50,"min":83,"max":172,"target":"absent","response":"absent","rt":359.39999961853,"correct":true,"confidence":3},{"trial_n":51,"min":84,"max":171,"target":"absent","response":"absent","rt":774.19999980927,"correct":true,"confidence":2},{"trial_n":52,"min":84,"max":171,"target":"absent","response":"absent","rt":488.80000019073,"correct":true,"confidence":3},{"trial_n":53,"min":85,"max":170,"target":"absent","response":"absent","rt":860.5,"correct":true,"confidence":3},{"trial_n":54,"min":85,"max":170,"target":"present","response":"present","rt":1977.4000000954,"correct":true,"confidence":2},{"trial_n":55,"min":86,"max":169,"target":"absent","response":"absent","rt":319.59999990463,"correct":true,"confidence":3},{"trial_n":56,"min":86,"max":169,"target":"absent","response":"absent","rt":307.19999980927,"correct":true,"confidence":3},{"trial_n":57,"min":87,"max":168,"target":"absent","response":"absent","rt":610.2000002861,"correct":true,"confidence":3},{"trial_n":58,"min":87,"max":168,"target":"present","response":"present","rt":324.5,"correct":true,"confidence":4},{"trial_n":59,"min":88,"max":167,"target":"absent","response":"present","rt":343.2000002861,"correct":false,"confidence":4},{"trial_n":60,"min":87,"max":168,"target":"present","response":"present","rt":330.7000002861,"correct":true,"confidence":5},{"trial_n":61,"min":87,"max":168,"target":"present","response":"present","rt":283.09999990463,"correct":true,"confidence":3},{"trial_n":62,"min":88,"max":167,"target":"present","response":"present","rt":370.80000019073,"correct":true,"confidence":3},{"trial_n":63,"min":88,"max":167,"target":"present","response":"absent","rt":655.10000038147,"correct":false,"confidence":3},{"trial_n":64,"min":87,"max":168,"target":"present","response":"present","rt":355.60000038147,"correct":true,"confidence":3},{"trial_n":65,"min":87,"max":168,"target":"absent","response":"absent","rt":1020.5,"correct":true,"confidence":3},{"trial_n":66,"min":88,"max":167,"target":"absent","response":"absent","rt":741.2999997139,"correct":true,"confidence":3},{"trial_n":67,"min":88,"max":167,"target":"present","response":"present","rt":520.90000009537,"correct":true,"confidence":3},{"trial_n":68,"min":89,"max":166,"target":"absent","response":"absent","rt":723.7999997139,"correct":true,"confidence":2},{"trial_n":69,"min":89,"max":166,"target":"absent","response":"absent","rt":484.30000019073,"correct":true,"confidence":2},{"trial_n":70,"min":90,"max":165,"target":"absent","response":"absent","rt":953.19999980927,"correct":true,"confidence":2},{"trial_n":71,"min":41,"max":214,"target":"present","response":"present","rt":3044.8000001907,"correct":true,"confidence":-1},{"trial_n":72,"min":41,"max":214,"target":"present","response":"present","rt":318.59999990463,"correct":true,"confidence":-1},{"trial_n":73,"min":57,"max":198,"target":"absent","response":"absent","rt":493.80000019073,"correct":true,"confidence":-1},{"trial_n":74,"min":57,"max":198,"target":"absent","response":"absent","rt":380,"correct":true,"confidence":-1},{"trial_n":75,"min":73,"max":182,"target":"present","response":"present","rt":336.40000009537,"correct":true,"confidence":-1},{"trial_n":76,"min":73,"max":182,"target":"present","response":"present","rt":547.69999980927,"correct":true,"confidence":-1},{"trial_n":77,"min":89,"max":166,"target":"absent","response":"absent","rt":688,"correct":true,"confidence":-1},{"trial_n":78,"min":89,"max":166,"target":"present","response":"present","rt":522.30000019073,"correct":true,"confidence":-1},{"trial_n":79,"min":105,"max":150,"target":"absent","response":"present","rt":448.2999997139,"correct":false,"confidence":-1},{"trial_n":80,"min":89,"max":166,"target":"present","response":"absent","rt":698,"correct":false,"confidence":-1},{"trial_n":81,"min":81,"max":174,"target":"present","response":"present","rt":329.2999997139,"correct":true,"confidence":-1},{"trial_n":82,"min":81,"max":174,"target":"present","response":"present","rt":252,"correct":true,"confidence":-1},{"trial_n":83,"min":89,"max":166,"target":"absent","response":"present","rt":646.2000002861,"correct":false,"confidence":-1},{"trial_n":84,"min":81,"max":174,"target":"absent","response":"present","rt":435.59999990463,"correct":false,"confidence":-1},{"trial_n":85,"min":73,"max":182,"target":"absent","response":"absent","rt":398.60000038147,"correct":true,"confidence":-1},{"trial_n":86,"min":73,"max":182,"target":"present","response":"present","rt":143.59999990463,"correct":true,"confidence":-1},{"trial_n":87,"min":81,"max":174,"target":"absent","response":"absent","rt":338.10000038147,"correct":true,"confidence":-1},{"trial_n":88,"min":81,"max":174,"target":"present","response":"present","rt":171.80000019073,"correct":true,"confidence":-1},{"trial_n":89,"min":89,"max":166,"target":"absent","response":"absent","rt":454.40000009537,"correct":true,"confidence":-1},{"trial_n":90,"min":89,"max":166,"target":"absent","response":"present","rt":488.80000019073,"correct":false,"confidence":-1},{"trial_n":91,"min":85,"max":170,"target":"present","response":"present","rt":584.30000019073,"correct":true,"confidence":3},{"trial_n":92,"min":85,"max":170,"target":"absent","response":"absent","rt":776.69999980927,"correct":true,"confidence":3},{"trial_n":93,"min":89,"max":166,"target":"present","response":"present","rt":264.40000009537,"correct":true,"confidence":5},{"trial_n":94,"min":89,"max":166,"target":"present","response":"present","rt":310.40000009537,"correct":true,"confidence":5},{"trial_n":95,"min":93,"max":162,"target":"absent","response":"absent","rt":491.7999997139,"correct":true,"confidence":1},{"trial_n":96,"min":93,"max":162,"target":"present","response":"present","rt":679.7999997139,"correct":true,"confidence":2},{"trial_n":97,"min":97,"max":158,"target":"present","response":"present","rt":907.90000009537,"correct":true,"confidence":3},{"trial_n":98,"min":97,"max":158,"target":"absent","response":"present","rt":605.69999980927,"correct":false,"confidence":3},{"trial_n":99,"min":93,"max":162,"target":"present","response":"present","rt":603.7999997139,"correct":true,"confidence":4},{"trial_n":100,"min":93,"max":162,"target":"present","response":"present","rt":810.7999997139,"correct":true,"confidence":3},{"trial_n":101,"min":95,"max":160,"target":"absent","response":"absent","rt":1161.7999997139,"correct":true,"confidence":1},{"trial_n":102,"min":95,"max":160,"target":"present","response":"present","rt":677.40000009537,"correct":true,"confidence":1},{"trial_n":103,"min":97,"max":158,"target":"absent","response":"present","rt":513.7999997139,"correct":false,"confidence":3},{"trial_n":104,"min":95,"max":160,"target":"present","response":"present","rt":445,"correct":true,"confidence":3},{"trial_n":105,"min":95,"max":160,"target":"present","response":"present","rt":897.09999990463,"correct":true,"confidence":1},{"trial_n":106,"min":97,"max":158,"target":"absent","response":"present","rt":422.10000038147,"correct":false,"confidence":1},{"trial_n":107,"min":95,"max":160,"target":"present","response":"present","rt":406.59999990463,"correct":true,"confidence":1},{"trial_n":108,"min":95,"max":160,"target":"absent","response":"present","rt":770.39999961853,"correct":false,"confidence":3},{"trial_n":109,"min":93,"max":162,"target":"absent","response":"present","rt":498.40000009537,"correct":false,"confidence":4},{"trial_n":110,"min":91,"max":164,"target":"absent","response":"absent","rt":707.7999997139,"correct":true,"confidence":2},{"trial_n":111,"min":91,"max":164,"target":"present","response":"present","rt":408,"correct":true,"confidence":5},{"trial_n":112,"min":92,"max":163,"target":"present","response":"present","rt":943.59999990463,"correct":true,"confidence":2},{"trial_n":113,"min":92,"max":163,"target":"absent","response":"present","rt":783.2000002861,"correct":false,"confidence":3},{"trial_n":114,"min":91,"max":164,"target":"absent","response":"present","rt":604.5,"correct":false,"confidence":2},{"trial_n":115,"min":90,"max":165,"target":"absent","response":"absent","rt":540.5,"correct":true,"confidence":2},{"trial_n":116,"min":90,"max":165,"target":"present","response":"present","rt":966.7000002861,"correct":true,"confidence":4},{"trial_n":117,"min":91,"max":164,"target":"absent","response":"present","rt":559.30000019073,"correct":false,"confidence":5},{"trial_n":118,"min":90,"max":165,"target":"absent","response":"absent","rt":755.80000019073,"correct":true,"confidence":2},{"trial_n":119,"min":90,"max":165,"target":"absent","response":"present","rt":984.39999961853,"correct":false,"confidence":2},{"trial_n":120,"min":89,"max":166,"target":"absent","response":"present","rt":741.40000009537,"correct":false,"confidence":2},{"trial_n":121,"min":88,"max":167,"target":"absent","response":"absent","rt":1161.0999999046,"correct":true,"confidence":2},{"trial_n":122,"min":88,"max":167,"target":"present","response":"absent","rt":505.69999980927,"correct":false,"confidence":2},{"trial_n":123,"min":87,"max":168,"target":"present","response":"present","rt":449.7999997139,"correct":true,"confidence":2},{"trial_n":124,"min":87,"max":168,"target":"absent","response":"present","rt":487.7999997139,"correct":false,"confidence":5},{"trial_n":125,"min":86,"max":169,"target":"present","response":"present","rt":514.5,"correct":true,"confidence":5},{"trial_n":126,"min":86,"max":169,"target":"present","response":"absent","rt":724.80000019073,"correct":false,"confidence":3},{"trial_n":127,"min":85,"max":170,"target":"present","response":"present","rt":466.80000019073,"correct":true,"confidence":2},{"trial_n":128,"min":85,"max":170,"target":"present","response":"present","rt":310.59999990463,"correct":true,"confidence":5},{"trial_n":129,"min":86,"max":169,"target":"present","response":"absent","rt":727.90000009537,"correct":false,"confidence":2},{"trial_n":130,"min":85,"max":170,"target":"present","response":"present","rt":215.7000002861,"correct":true,"confidence":5},{"trial_n":131,"min":85,"max":170,"target":"absent","response":"absent","rt":716.59999990463,"correct":true,"confidence":5},{"trial_n":132,"min":86,"max":169,"target":"present","response":"present","rt":431.09999990463,"correct":true,"confidence":5},{"trial_n":133,"min":86,"max":169,"target":"absent","response":"present","rt":1362.2999997139,"correct":false,"confidence":1},{"trial_n":134,"min":85,"max":170,"target":"absent","response":"present","rt":485.5,"correct":false,"confidence":5},{"trial_n":135,"min":84,"max":171,"target":"present","response":"absent","rt":2164.6999998093,"correct":false,"confidence":1},{"trial_n":136,"min":83,"max":172,"target":"absent","response":"absent","rt":470.7000002861,"correct":true,"confidence":5},{"trial_n":137,"min":83,"max":172,"target":"present","response":"present","rt":213.80000019073,"correct":true,"confidence":5},{"trial_n":138,"min":84,"max":171,"target":"absent","response":"absent","rt":538.30000019073,"correct":true,"confidence":5},{"trial_n":139,"min":84,"max":171,"target":"present","response":"absent","rt":275.40000009537,"correct":false,"confidence":5},{"trial_n":140,"min":83,"max":172,"target":"absent","response":"absent","rt":373,"correct":true,"confidence":5}]