[{"trial_n":1,"span":8,"encoder":"41676322","distractor":"41676422","target":"present","response":"absent","rt":"8718","correct":false,"confidence":-1},{"trial_n":2,"span":6,"encoder":"480274","distractor":"480224","target":"present","response":"present","rt":"3846","correct":true,"confidence":-1},{"trial_n":3,"span":6,"encoder":"352060","distractor":"356060","target":"absent","response":"absent","rt":"3923","correct":true,"confidence":-1},{"trial_n":4,"span":8,"encoder":"05508008","distractor":"05548008","target":"absent","response":"absent","rt":"1817","correct":true,"confidence":-1},{"trial_n":5,"span":8,"encoder":"50325392","distractor":"50395392","target":"present","response":"present","rt":"3994","correct":true,"confidence":-1},{"trial_n":6,"span":10,"encoder":"6283945002","distractor":"6233945002","target":"absent","response":"absent","rt":"1866","correct":true,"confidence":-1},{"trial_n":7,"span":10,"encoder":"3938138544","distractor":"3038138544","target":"absent","response":"absent","rt":"2164","correct":true,"confidence":-1},{"trial_n":8,"span":12,"encoder":"675871494762","distractor":"675871484762","target":"absent","response":"absent","rt":"1672","correct":true,"confidence":-1},{"trial_n":9,"span":12,"encoder":"238652667295","distractor":"238652667255","target":"absent","response":"absent","rt":"45665","correct":true,"confidence":-1},{"trial_n":10,"span":14,"encoder":"06614791029035","distractor":"06610791029035","target":"absent","response":"absent","rt":"3894","correct":true,"confidence":-1},{"trial_n":11,"span":14,"encoder":"40118304795285","distractor":"40118324795285","target":"absent","response":"absent","rt":"4129","correct":true,"confidence":-1},{"trial_n":12,"span":15,"encoder":"420159387367404","distractor":"420159377367404","target":"absent","response":"present","rt":"3369","correct":false,"confidence":-1},{"trial_n":13,"span":14,"encoder":"36293432497116","distractor":"36293432490116","target":"absent","response":"absent","rt":"1977","correct":true,"confidence":-1},{"trial_n":14,"span":14,"encoder":"89723597819135","distractor":"89724597819135","target":"present","response":"absent","rt":"3177","correct":false,"confidence":-1},{"trial_n":15,"span":13,"encoder":"8161308656528","distractor":"8161308856528","target":"present","response":"present","rt":"3483","correct":true,"confidence":-1},{"trial_n":16,"span":13,"encoder":"0248742255815","distractor":"0748742255815","target":"present","response":"absent","rt":"2252","correct":false,"confidence":-1},{"trial_n":17,"span":12,"encoder":"700931486360","distractor":"700935486360","target":"absent","response":"absent","rt":"1405","correct":true,"confidence":-1},{"trial_n":18,"span":12,"encoder":"743210278934","distractor":"743210258934","target":"present","response":"present","rt":"4237","correct":true,"confidence":-1},{"trial_n":19,"span":13,"encoder":"8527518128409","distractor":"8577518128409","target":"absent","response":"absent","rt":"2019","correct":true,"confidence":-1},{"trial_n":20,"span":13,"encoder":"1310051295040","distractor":"1310051295140","target":"present","response":"absent","rt":"1822","correct":false,"confidence":-1},{"trial_n":21,"span":12,"encoder":"379812300764","distractor":"379512300764","target":"present","response":"absent","rt":"3509","correct":false,"confidence":4},{"trial_n":22,"span":11,"encoder":"82788978004","distractor":"82788958004","target":"present","response":"present","rt":"8597","correct":true,"confidence":3},{"trial_n":23,"span":11,"encoder":"61097820730","distractor":"21097820730","target":"absent","response":"present","rt":"37863","correct":false,"confidence":3},{"trial_n":24,"span":10,"encoder":"1430286642","distractor":"1430186642","target":"present","response":"absent","rt":"4416","correct":false,"confidence":2},{"trial_n":25,"span":9,"encoder":"745679508","distractor":"845679508","target":"present","response":"present","rt":"3470","correct":true,"confidence":3},{"trial_n":26,"span":9,"encoder":"382621766","distractor":"382622766","target":"present","response":"present","rt":"1835","correct":true,"confidence":4},{"trial_n":27,"span":10,"encoder":"8065463102","distractor":"8965463102","target":"present","response":"absent","rt":"6490","correct":false,"confidence":3},{"trial_n":28,"span":9,"encoder":"717888278","distractor":"717888778","target":"absent","response":"absent","rt":"3387.0000000001","correct":true,"confidence":3},{"trial_n":29,"span":9,"encoder":"298107712","distractor":"298104712","target":"absent","response":"absent","rt":"6989","correct":true,"confidence":1},{"trial_n":30,"span":10,"encoder":"4357988878","distractor":"4357978878","target":"absent","response":"present","rt":"6279","correct":false,"confidence":2},{"trial_n":31,"span":9,"encoder":"003182146","distractor":"003182446","target":"present","response":"absent","rt":"1469","correct":false,"confidence":2},{"trial_n":32,"span":8,"encoder":"97580963","distractor":"97580163","target":"present","response":"absent","rt":"1320","correct":false,"confidence":2},{"trial_n":33,"span":7,"encoder":"3553725","distractor":"3153725","target":"present","response":"present","rt":"1565","correct":true,"confidence":3},{"trial_n":34,"span":7,"encoder":"7275844","distractor":"7375844","target":"present","response":"present","rt":"2249","correct":true,"confidence":3},{"trial_n":35,"span":8,"encoder":"24563096","distractor":"26563096","target":"present","response":"absent","rt":"2821","correct":false,"confidence":3},{"trial_n":36,"span":7,"encoder":"0163227","distractor":"0163228","target":"present","response":"absent","rt":"4251","correct":false,"confidence":4},{"trial_n":37,"span":6,"encoder":"712455","distractor":"712465","target":"present","response":"absent","rt":"18880","correct":false,"confidence":1},{"trial_n":38,"span":5,"encoder":"07369","distractor":"07389","target":"absent","response":"present","rt":"2575","correct":false,"confidence":3},{"trial_n":39,"span":4,"encoder":"1575","distractor":"1515","target":"absent","response":"absent","rt":"5905","correct":true,"confidence":4},{"trial_n":40,"span":4,"encoder":"5305","distractor":"5705","target":"absent","response":"absent","rt":"5205","correct":true,"confidence":5},{"trial_n":41,"span":5,"encoder":"59244","distractor":"59264","target":"present","response":"present","rt":"2192.9999999999","correct":true,"confidence":5},{"trial_n":42,"span":5,"encoder":"43240","distractor":"43210","target":"present","response":"present","rt":"2227","correct":true,"confidence":5},{"trial_n":43,"span":6,"encoder":"088139","distractor":"038139","target":"present","response":"present","rt":"3083.9999999999","correct":true,"confidence":4},{"trial_n":44,"span":6,"encoder":"133124","distractor":"143124","target":"absent","response":"absent","rt":"3033","correct":true,"confidence":4},{"trial_n":45,"span":7,"encoder":"4778105","distractor":"4778103","target":"absent","response":"absent","rt":"2420","correct":true,"confidence":4},{"trial_n":46,"span":7,"encoder":"2469511","distractor":"7469511","target":"present","response":"absent","rt":"4387","correct":false,"confidence":2},{"trial_n":47,"span":6,"encoder":"206815","distractor":"208815","target":"present","response":"present","rt":"3469.0000000001","correct":true,"confidence":5},{"trial_n":48,"span":6,"encoder":"163227","distractor":"183227","target":"present","response":"present","rt":"2634","correct":true,"confidence":5},{"trial_n":49,"span":7,"encoder":"3426441","distractor":"3427441","target":"present","response":"present","rt":"2573.0000000001","correct":true,"confidence":4},{"trial_n":50,"span":7,"encoder":"0011894","distractor":"0011896","target":"absent","response":"absent","rt":"2589","correct":true,"confidence":5},{"trial_n":51,"span":8,"encoder":"21884502","distractor":"71884502","target":"absent","response":"absent","rt":"2183","correct":true,"confidence":5},{"trial_n":52,"span":8,"encoder":"12655844","distractor":"12655884","target":"present","response":"present","rt":"4778","correct":true,"confidence":5},{"trial_n":53,"span":9,"encoder":"821097934","distractor":"891097934","target":"absent","response":"absent","rt":"4584","correct":true,"confidence":4},{"trial_n":54,"span":9,"encoder":"603357693","distractor":"663357693","target":"absent","response":"absent","rt":"2597.9999999999","correct":true,"confidence":2},{"trial_n":55,"span":10,"encoder":"6747622912","distractor":"9747622912","target":"present","response":"present","rt":"2464","correct":true,"confidence":3},{"trial_n":56,"span":10,"encoder":"1099369019","distractor":"1099366019","target":"absent","response":"present","rt":"4712","correct":false,"confidence":3},{"trial_n":57,"span":9,"encoder":"974509858","distractor":"971509858","target":"absent","response":"present","rt":"1744","correct":false,"confidence":2},{"trial_n":58,"span":8,"encoder":"53084784","distractor":"57084784","target":"absent","response":"present","rt":"2440","correct":false,"confidence":3},{"trial_n":59,"span":7,"encoder":"7199762","distractor":"7399762","target":"absent","response":"present","rt":"1533","correct":false,"confidence":2},{"trial_n":60,"span":6,"encoder":"944359","distractor":"944459","target":"present","response":"present","rt":"5531","correct":true,"confidence":3},{"trial_n":61,"span":6,"encoder":"043078","distractor":"023078","target":"absent","response":"absent","rt":"7865","correct":true,"confidence":5},{"trial_n":62,"span":7,"encoder":"1610398","distractor":"1690398","target":"present","response":"present","rt":"2870","correct":true,"confidence":5},{"trial_n":63,"span":7,"encoder":"7941487","distractor":"7141487","target":"absent","response":"absent","rt":"3187","correct":true,"confidence":5},{"trial_n":64,"span":8,"encoder":"65629537","distractor":"65629547","target":"present","response":"absent","rt":"4141","correct":false,"confidence":2},{"trial_n":65,"span":7,"encoder":"6847379","distractor":"6947379","target":"present","response":"present","rt":"3036","correct":true,"confidence":5},{"trial_n":66,"span":7,"encoder":"7737068","distractor":"7737968","target":"absent","response":"absent","rt":"12171","correct":true,"confidence":2},{"trial_n":67,"span":8,"encoder":"16753813","distractor":"06753813","target":"present","response":"present","rt":"2095","correct":true,"confidence":4},{"trial_n":68,"span":8,"encoder":"08677865","distractor":"08677165","target":"present","response":"present","rt":"1695","correct":true,"confidence":4},{"trial_n":69,"span":9,"encoder":"541005281","distractor":"541005285","target":"absent","response":"absent","rt":"3750.9999999998","correct":true,"confidence":2},{"trial_n":70,"span":9,"encoder":"443588505","distractor":"943588505","target":"absent","response":"absent","rt":"2950","correct":true,"confidence":3},{"trial_n":71,"span":8,"encoder":"70200549","distractor":"70280549","target":"present","response":"absent","rt":"4173","correct":false,"confidence":-1},{"trial_n":72,"span":7,"encoder":"7726741","distractor":"7726742","target":"present","response":"present","rt":"1154.9999999998","correct":true,"confidence":-1},{"trial_n":73,"span":7,"encoder":"8299897","distractor":"8239897","target":"absent","response":"absent","rt":"1056","correct":true,"confidence":-1},{"trial_n":74,"span":8,"encoder":"35110192","distractor":"85110192","target":"absent","response":"present","rt":"895.99999999977","correct":false,"confidence":-1},{"trial_n":75,"span":7,"encoder":"7389961","distractor":"7389966","target":"present","response":"absent","rt":"789","correct":false,"confidence":-1},{"trial_n":76,"span":6,"encoder":"025649","distractor":"065649","target":"absent","response":"absent","rt":"772.00000000023","correct":true,"confidence":-1},{"trial_n":77,"span":6,"encoder":"125509","distractor":"125009","target":"present","response":"present","rt":"902.00000000023","correct":true,"confidence":-1},{"trial_n":78,"span":7,"encoder":"4938702","distractor":"4838702","target":"present","response":"present","rt":"708","correct":true,"confidence":-1},{"trial_n":79,"span":7,"encoder":"7627909","distractor":"7677909","target":"present","response":"absent","rt":"725","correct":false,"confidence":-1},{"trial_n":80,"span":6,"encoder":"056230","distractor":"056830","target":"absent","response":"present","rt":"1751.9999999998","correct":false,"confidence":-1},{"trial_n":81,"span":5,"encoder":"95690","distractor":"97690","target":"absent","response":"absent","rt":"1946","correct":true,"confidence":-1},{"trial_n":82,"span":5,"encoder":"85802","distractor":"85842","target":"present","response":"present","rt":"1601","correct":true,"confidence":-1},{"trial_n":83,"span":6,"encoder":"927526","distractor":"937526","target":"absent","response":"absent","rt":"1623","correct":true,"confidence":-1},{"trial_n":84,"span":6,"encoder":"940774","distractor":"240774","target":"absent","response":"absent","rt":"15939","correct":true,"confidence":-1},{"trial_n":85,"span":7,"encoder":"0052283","distractor":"0052288","target":"absent","response":"present","rt":"3060.9999999998","correct":false,"confidence":-1},{"trial_n":86,"span":6,"encoder":"032026","distractor":"032024","target":"absent","response":"present","rt":"1225","correct":false,"confidence":-1},{"trial_n":87,"span":5,"encoder":"29681","distractor":"29981","target":"present","response":"absent","rt":"1834","correct":false,"confidence":-1},{"trial_n":88,"span":4,"encoder":"5666","distractor":"5766","target":"present","response":"present","rt":"2762","correct":true,"confidence":-1},{"trial_n":89,"span":4,"encoder":"3543","distractor":"6543","target":"absent","response":"absent","rt":"4479","correct":true,"confidence":-1},{"trial_n":90,"span":5,"encoder":"59278","distractor":"56278","target":"present","response":"present","rt":"2102","correct":true,"confidence":-1},{"trial_n":91,"span":5,"encoder":"83960","distractor":"87960","target":"absent","response":"absent","rt":"1101.0000000002","correct":true,"confidence":2},{"trial_n":92,"span":6,"encoder":"279232","distractor":"279212","target":"absent","response":"present","rt":"2025.0000000002","correct":false,"confidence":3},{"trial_n":93,"span":5,"encoder":"09412","distractor":"09417","target":"present","response":"absent","rt":"14522","correct":false,"confidence":2},{"trial_n":94,"span":4,"encoder":"1859","distractor":"1819","target":"present","response":"present","rt":"2120","correct":true,"confidence":2},{"trial_n":95,"span":4,"encoder":"4391","distractor":"3391","target":"present","response":"present","rt":"6122","correct":true,"confidence":3},{"trial_n":96,"span":5,"encoder":"79097","distractor":"79597","target":"present","response":"present","rt":"1439.9999999998","correct":true,"confidence":5},{"trial_n":97,"span":5,"encoder":"32012","distractor":"22012","target":"absent","response":"absent","rt":"2041","correct":true,"confidence":5},{"trial_n":98,"span":6,"encoder":"728320","distractor":"728120","target":"present","response":"present","rt":"3495","correct":true,"confidence":4},{"trial_n":99,"span":6,"encoder":"091609","distractor":"091602","target":"present","response":"absent","rt":"16546","correct":false,"confidence":2},{"trial_n":100,"span":5,"encoder":"26265","distractor":"26165","target":"absent","response":"absent","rt":"2091.9999999998","correct":true,"confidence":4},{"trial_n":101,"span":5,"encoder":"58523","distractor":"50523","target":"absent","response":"absent","rt":"1628","correct":true,"confidence":4},{"trial_n":102,"span":6,"encoder":"461485","distractor":"461484","target":"present","response":"absent","rt":"1313.9999999998","correct":false,"confidence":3},{"trial_n":103,"span":5,"encoder":"03610","distractor":"03619","target":"present","response":"present","rt":"1860","correct":true,"confidence":3},{"trial_n":104,"span":5,"encoder":"72203","distractor":"72803","target":"present","response":"absent","rt":"2843.0000000002","correct":false,"confidence":3},{"trial_n":105,"span":4,"encoder":"6189","distractor":"0189","target":"absent","response":"present","rt":"1456","correct":false,"confidence":2},{"trial_n":106,"span":3,"encoder":"896","distractor":"816","target":"present","response":"present","rt":"2569","correct":true,"confidence":3},{"trial_n":107,"span":3,"encoder":"271","distractor":"261","target":"absent","response":"absent","rt":"1618","correct":true,"confidence":4},{"trial_n":108,"span":4,"encoder":"1933","distractor":"1934","target":"present","response":"present","rt":"1240","correct":true,"confidence":5},{"trial_n":109,"span":4,"encoder":"1612","distractor":"1012","target":"present","response":"present","rt":"1957","correct":true,"confidence":5},{"trial_n":110,"span":5,"encoder":"14451","distractor":"14457","target":"present","response":"present","rt":"2845","correct":true,"confidence":4},{"trial_n":111,"span":5,"encoder":"08592","distractor":"08590","target":"present","response":"present","rt":"1637","correct":true,"confidence":5},{"trial_n":112,"span":6,"encoder":"589970","distractor":"189970","target":"present","response":"present","rt":"6418","correct":true,"confidence":3},{"trial_n":113,"span":6,"encoder":"614779","distractor":"634779","target":"absent","response":"present","rt":"19002","correct":false,"confidence":3},{"trial_n":114,"span":5,"encoder":"95679","distractor":"95639","target":"absent","response":"absent","rt":"17565","correct":true,"confidence":2},{"trial_n":115,"span":5,"encoder":"88565","distractor":"86565","target":"present","response":"absent","rt":"1281","correct":false,"confidence":3},{"trial_n":116,"span":4,"encoder":"4073","distractor":"4173","target":"absent","response":"absent","rt":"4146","correct":true,"confidence":2},{"trial_n":117,"span":4,"encoder":"9101","distractor":"9102","target":"present","response":"present","rt":"1095","correct":true,"confidence":4},{"trial_n":118,"span":5,"encoder":"76813","distractor":"06813","target":"absent","response":"absent","rt":"1450","correct":true,"confidence":4},{"trial_n":119,"span":5,"encoder":"71135","distractor":"71835","target":"absent","response":"absent","rt":"1765.9999999998","correct":true,"confidence":4},{"trial_n":120,"span":6,"encoder":"031258","distractor":"021258","target":"present","response":"present","rt":"1937.9999999998","correct":true,"confidence":4},{"trial_n":121,"span":6,"encoder":"480027","distractor":"480028","target":"absent","response":"absent","rt":"1522","correct":true,"confidence":4},{"trial_n":122,"span":7,"encoder":"2575945","distractor":"2575941","target":"present","response":"absent","rt":"2143","correct":false,"confidence":4},{"trial_n":123,"span":6,"encoder":"936070","distractor":"939070","target":"absent","response":"present","rt":"1721","correct":false,"confidence":3},{"trial_n":124,"span":5,"encoder":"43633","distractor":"43333","target":"present","response":"absent","rt":"10569","correct":false,"confidence":3},{"trial_n":125,"span":4,"encoder":"4136","distractor":"9136","target":"present","response":"present","rt":"1796","correct":true,"confidence":5},{"trial_n":126,"span":4,"encoder":"7774","distractor":"7770","target":"absent","response":"absent","rt":"3516","correct":true,"confidence":4},{"trial_n":127,"span":5,"encoder":"70092","distractor":"00092","target":"absent","response":"absent","rt":"4085","correct":true,"confidence":2},{"trial_n":128,"span":5,"encoder":"76476","distractor":"76466","target":"absent","response":"absent","rt":"2018","correct":true,"confidence":4},{"trial_n":129,"span":6,"encoder":"172512","distractor":"152512","target":"present","response":"present","rt":"3491","correct":true,"confidence":4},{"trial_n":130,"span":6,"encoder":"930675","distractor":"980675","target":"absent","response":"present","rt":"11858","correct":false,"confidence":2},{"trial_n":131,"span":5,"encoder":"48772","distractor":"48752","target":"absent","response":"absent","rt":"1906.0000000005","correct":true,"confidence":4},{"trial_n":132,"span":5,"encoder":"90603","distractor":"90604","target":"absent","response":"absent","rt":"1906.9999999998","correct":true,"confidence":5},{"trial_n":133,"span":6,"encoder":"722703","distractor":"729703","target":"absent","response":"absent","rt":"6712.9999999998","correct":true,"confidence":4},{"trial_n":134,"span":6,"encoder":"565855","distractor":"565875","target":"absent","response":"absent","rt":"2662.0000000002","correct":true,"confidence":4},{"trial_n":135,"span":7,"encoder":"0654974","distractor":"0654984","target":"present","response":"present","rt":"4150.0000000005","correct":true,"confidence":5},{"trial_n":136,"span":7,"encoder":"6656130","distractor":"6656830","target":"present","response":"present","rt":"2900","correct":true,"confidence":4},{"trial_n":137,"span":8,"encoder":"23719392","distractor":"23749392","target":"absent","response":"absent","rt":"2589","correct":true,"confidence":5},{"trial_n":138,"span":8,"encoder":"79074490","distractor":"79074290","target":"absent","response":"absent","rt":"3240","correct":true,"confidence":4},{"trial_n":139,"span":9,"encoder":"456445226","distractor":"446445226","target":"present","response":"present","rt":"5146","correct":true,"confidence":3},{"trial_n":140,"span":9,"encoder":"994559684","distractor":"594559684","target":"present","response":"present","rt":"3295","correct":true,"confidence":5}]