[{"trial_n":1,"n_dots":4.25,"target":"right","response":"left","rt":7257.6000000238,"correct":false,"confidence":-1},{"trial_n":2,"n_dots":4.25,"target":"right","response":"right","rt":2434.6000000238,"correct":true,"confidence":-1},{"trial_n":3,"n_dots":4.25,"target":"right","response":"right","rt":615.80000007153,"correct":true,"confidence":-1},{"trial_n":4,"n_dots":3.85,"target":"left","response":"left","rt":446.10000002384,"correct":true,"confidence":-1},{"trial_n":5,"n_dots":3.85,"target":"left","response":"left","rt":330.5,"correct":true,"confidence":-1},{"trial_n":6,"n_dots":3.45,"target":"left","response":"left","rt":1141.1000000238,"correct":true,"confidence":-1},{"trial_n":7,"n_dots":3.45,"target":"left","response":"left","rt":340.09999990463,"correct":true,"confidence":-1},{"trial_n":8,"n_dots":3.25,"target":"left","response":"right","rt":850.79999995232,"correct":false,"confidence":-1},{"trial_n":9,"n_dots":3.45,"target":"right","response":"right","rt":589.40000009537,"correct":true,"confidence":-1},{"trial_n":10,"n_dots":3.45,"target":"left","response":"left","rt":673.30000007153,"correct":true,"confidence":-1},{"trial_n":11,"n_dots":3.25,"target":"left","response":"right","rt":624.60000002384,"correct":false,"confidence":-1},{"trial_n":12,"n_dots":3.45,"target":"right","response":"right","rt":687.10000002384,"correct":true,"confidence":-1},{"trial_n":13,"n_dots":3.45,"target":"right","response":"left","rt":427.79999995232,"correct":false,"confidence":-1},{"trial_n":14,"n_dots":3.55,"target":"right","response":"right","rt":511.09999990463,"correct":true,"confidence":-1},{"trial_n":15,"n_dots":3.55,"target":"right","response":"right","rt":538.5,"correct":true,"confidence":-1},{"trial_n":16,"n_dots":3.45,"target":"left","response":"left","rt":299.70000004768,"correct":true,"confidence":-1},{"trial_n":17,"n_dots":3.45,"target":"right","response":"left","rt":492.70000004768,"correct":false,"confidence":-1},{"trial_n":18,"n_dots":3.55,"target":"right","response":"right","rt":316.80000007153,"correct":true,"confidence":-1},{"trial_n":19,"n_dots":3.55,"target":"left","response":"left","rt":148.5,"correct":true,"confidence":-1},{"trial_n":20,"n_dots":3.45,"target":"left","response":"left","rt":422.80000007153,"correct":true,"confidence":-1},{"trial_n":21,"n_dots":3.45,"target":"right","response":"left","rt":1103,"correct":false,"confidence":1},{"trial_n":22,"n_dots":3.55,"target":"left","response":"left","rt":750,"correct":true,"confidence":5},{"trial_n":23,"n_dots":3.55,"target":"left","response":"left","rt":742.10000002384,"correct":true,"confidence":3},{"trial_n":24,"n_dots":3.45,"target":"left","response":"left","rt":904.89999997616,"correct":true,"confidence":3},{"trial_n":25,"n_dots":3.45,"target":"left","response":"left","rt":923.90000009537,"correct":true,"confidence":5},{"trial_n":26,"n_dots":3.35,"target":"left","response":"left","rt":947.19999992847,"correct":true,"confidence":4},{"trial_n":27,"n_dots":3.35,"target":"right","response":"left","rt":1967.3000000715,"correct":false,"confidence":2},{"trial_n":28,"n_dots":3.45,"target":"right","response":"right","rt":750.10000002384,"correct":true,"confidence":3},{"trial_n":29,"n_dots":3.45,"target":"left","response":"left","rt":573,"correct":true,"confidence":3},{"trial_n":30,"n_dots":3.35,"target":"left","response":"left","rt":1227.7000000477,"correct":true,"confidence":4},{"trial_n":31,"n_dots":3.35,"target":"right","response":"left","rt":1294.8999999762,"correct":false,"confidence":2},{"trial_n":32,"n_dots":3.45,"target":"left","response":"left","rt":675.89999997616,"correct":true,"confidence":3},{"trial_n":33,"n_dots":3.45,"target":"left","response":"left","rt":630.5,"correct":true,"confidence":4},{"trial_n":34,"n_dots":3.35,"target":"right","response":"left","rt":1052.7999999523,"correct":false,"confidence":2},{"trial_n":35,"n_dots":3.45,"target":"left","response":"left","rt":913.39999997616,"correct":true,"confidence":4},{"trial_n":36,"n_dots":3.45,"target":"right","response":"left","rt":734.39999997616,"correct":false,"confidence":3},{"trial_n":37,"n_dots":3.55,"target":"right","response":"right","rt":711.39999997616,"correct":true,"confidence":4},{"trial_n":38,"n_dots":3.55,"target":"left","response":"left","rt":522.60000002384,"correct":true,"confidence":4},{"trial_n":39,"n_dots":3.45,"target":"left","response":"right","rt":1185.1000000238,"correct":false,"confidence":1},{"trial_n":40,"n_dots":3.55,"target":"left","response":"left","rt":1847,"correct":true,"confidence":1},{"trial_n":41,"n_dots":3.55,"target":"right","response":"right","rt":714.10000002384,"correct":true,"confidence":2},{"trial_n":42,"n_dots":3.45,"target":"right","response":"left","rt":882.19999992847,"correct":false,"confidence":2},{"trial_n":43,"n_dots":3.55,"target":"right","response":"left","rt":605.09999990463,"correct":false,"confidence":4},{"trial_n":44,"n_dots":3.65,"target":"right","response":"right","rt":566,"correct":true,"confidence":3},{"trial_n":45,"n_dots":3.65,"target":"left","response":"left","rt":651.5,"correct":true,"confidence":3},{"trial_n":46,"n_dots":3.55,"target":"left","response":"left","rt":767.10000002384,"correct":true,"confidence":4},{"trial_n":47,"n_dots":3.55,"target":"left","response":"left","rt":575.5,"correct":true,"confidence":3},{"trial_n":48,"n_dots":3.45,"target":"right","response":"right","rt":806.69999992847,"correct":true,"confidence":4},{"trial_n":49,"n_dots":3.45,"target":"right","response":"right","rt":863,"correct":true,"confidence":2},{"trial_n":50,"n_dots":3.35,"target":"right","response":"right","rt":595,"correct":true,"confidence":3},{"trial_n":51,"n_dots":3.35,"target":"right","response":"right","rt":663.09999990463,"correct":true,"confidence":2},{"trial_n":52,"n_dots":3.25,"target":"right","response":"right","rt":678.60000002384,"correct":true,"confidence":4},{"trial_n":53,"n_dots":3.25,"target":"left","response":"left","rt":579.70000004768,"correct":true,"confidence":4},{"trial_n":54,"n_dots":3.15,"target":"left","response":"left","rt":362.60000002384,"correct":true,"confidence":3},{"trial_n":55,"n_dots":3.15,"target":"left","response":"left","rt":523.39999997616,"correct":true,"confidence":4},{"trial_n":56,"n_dots":3.05,"target":"right","response":"right","rt":623.5,"correct":true,"confidence":3},{"trial_n":57,"n_dots":3.05,"target":"right","response":"left","rt":1003.6000000238,"correct":false,"confidence":2},{"trial_n":58,"n_dots":3.15,"target":"right","response":"right","rt":382.70000004768,"correct":true,"confidence":3},{"trial_n":59,"n_dots":3.15,"target":"right","response":"right","rt":636.5,"correct":true,"confidence":2},{"trial_n":60,"n_dots":3.05,"target":"right","response":"right","rt":553.69999992847,"correct":true,"confidence":1},{"trial_n":61,"n_dots":3.05,"target":"right","response":"right","rt":534.10000002384,"correct":true,"confidence":3},{"trial_n":62,"n_dots":2.95,"target":"left","response":"left","rt":411.20000004768,"correct":true,"confidence":4},{"trial_n":63,"n_dots":2.95,"target":"right","response":"left","rt":1020.5,"correct":false,"confidence":1},{"trial_n":64,"n_dots":3.05,"target":"left","response":"right","rt":614.90000009537,"correct":false,"confidence":3},{"trial_n":65,"n_dots":3.15,"target":"left","response":"left","rt":742.20000004768,"correct":true,"confidence":2},{"trial_n":66,"n_dots":3.15,"target":"right","response":"right","rt":434.89999997616,"correct":true,"confidence":3},{"trial_n":67,"n_dots":3.05,"target":"left","response":"right","rt":664.30000007153,"correct":false,"confidence":2},{"trial_n":68,"n_dots":3.15,"target":"right","response":"right","rt":497.5,"correct":true,"confidence":3},{"trial_n":69,"n_dots":3.15,"target":"right","response":"right","rt":649.90000009537,"correct":true,"confidence":3},{"trial_n":70,"n_dots":3.05,"target":"left","response":"left","rt":529.10000002384,"correct":true,"confidence":3},{"trial_n":71,"n_dots":3.05,"target":"right","response":"right","rt":534.89999997616,"correct":true,"confidence":3},{"trial_n":72,"n_dots":2.95,"target":"right","response":"right","rt":437.5,"correct":true,"confidence":3},{"trial_n":73,"n_dots":2.95,"target":"left","response":"left","rt":387.10000002384,"correct":true,"confidence":3},{"trial_n":74,"n_dots":2.85,"target":"left","response":"left","rt":536.69999992847,"correct":true,"confidence":3},{"trial_n":75,"n_dots":2.85,"target":"left","response":"right","rt":983.29999995232,"correct":false,"confidence":2},{"trial_n":76,"n_dots":2.95,"target":"left","response":"right","rt":594.60000002384,"correct":false,"confidence":3},{"trial_n":77,"n_dots":3.05,"target":"right","response":"right","rt":666.30000007153,"correct":true,"confidence":2},{"trial_n":78,"n_dots":3.05,"target":"left","response":"left","rt":535.29999995232,"correct":true,"confidence":3},{"trial_n":79,"n_dots":2.95,"target":"left","response":"left","rt":997.29999995232,"correct":true,"confidence":3},{"trial_n":80,"n_dots":2.95,"target":"left","response":"left","rt":778.80000007153,"correct":true,"confidence":4},{"trial_n":81,"n_dots":2.85,"target":"right","response":"right","rt":444.10000002384,"correct":true,"confidence":5},{"trial_n":82,"n_dots":2.85,"target":"right","response":"right","rt":835.79999995232,"correct":true,"confidence":4},{"trial_n":83,"n_dots":2.75,"target":"left","response":"right","rt":914.39999997616,"correct":false,"confidence":3},{"trial_n":84,"n_dots":2.85,"target":"left","response":"left","rt":621.89999997616,"correct":true,"confidence":3},{"trial_n":85,"n_dots":2.85,"target":"left","response":"right","rt":941.30000007153,"correct":false,"confidence":3},{"trial_n":86,"n_dots":2.95,"target":"right","response":"right","rt":435.89999997616,"correct":true,"confidence":4},{"trial_n":87,"n_dots":2.95,"target":"left","response":"right","rt":2201.2999999523,"correct":false,"confidence":2},{"trial_n":88,"n_dots":3.05,"target":"right","response":"right","rt":584.60000002384,"correct":true,"confidence":3},{"trial_n":89,"n_dots":3.05,"target":"left","response":"left","rt":461.20000004768,"correct":true,"confidence":2},{"trial_n":90,"n_dots":2.95,"target":"right","response":"right","rt":405.29999995232,"correct":true,"confidence":4},{"trial_n":91,"n_dots":2.95,"target":"left","response":"left","rt":562.30000007153,"correct":true,"confidence":3},{"trial_n":92,"n_dots":2.85,"target":"left","response":"right","rt":967.30000007153,"correct":false,"confidence":1},{"trial_n":93,"n_dots":2.95,"target":"right","response":"right","rt":346.89999997616,"correct":true,"confidence":4},{"trial_n":94,"n_dots":2.95,"target":"right","response":"right","rt":563.80000007153,"correct":true,"confidence":3},{"trial_n":95,"n_dots":2.85,"target":"left","response":"left","rt":865.10000002384,"correct":true,"confidence":3},{"trial_n":96,"n_dots":2.85,"target":"right","response":"right","rt":467.59999990463,"correct":true,"confidence":4},{"trial_n":97,"n_dots":2.75,"target":"left","response":"right","rt":548.59999990463,"correct":false,"confidence":3},{"trial_n":98,"n_dots":2.85,"target":"right","response":"right","rt":779.10000002384,"correct":true,"confidence":3},{"trial_n":99,"n_dots":2.85,"target":"left","response":"right","rt":506,"correct":false,"confidence":3},{"trial_n":100,"n_dots":2.95,"target":"right","response":"right","rt":981.89999997616,"correct":true,"confidence":2},{"trial_n":101,"n_dots":2.95,"target":"right","response":"left","rt":954.79999995232,"correct":false,"confidence":2},{"trial_n":102,"n_dots":3.05,"target":"left","response":"left","rt":541.70000004768,"correct":true,"confidence":3},{"trial_n":103,"n_dots":3.05,"target":"left","response":"right","rt":718.60000002384,"correct":false,"confidence":2},{"trial_n":104,"n_dots":3.15,"target":"right","response":"right","rt":683.39999997616,"correct":true,"confidence":3},{"trial_n":105,"n_dots":3.15,"target":"left","response":"left","rt":507.90000009537,"correct":true,"confidence":3},{"trial_n":106,"n_dots":3.05,"target":"left","response":"left","rt":435.80000007153,"correct":true,"confidence":3},{"trial_n":107,"n_dots":3.05,"target":"left","response":"left","rt":659,"correct":true,"confidence":2},{"trial_n":108,"n_dots":2.95,"target":"left","response":"right","rt":379.10000002384,"correct":false,"confidence":3},{"trial_n":109,"n_dots":3.05,"target":"right","response":"right","rt":510.5,"correct":true,"confidence":3},{"trial_n":110,"n_dots":3.05,"target":"right","response":"right","rt":582.69999992847,"correct":true,"confidence":2},{"trial_n":111,"n_dots":2.95,"target":"right","response":"right","rt":424.80000007153,"correct":true,"confidence":1},{"trial_n":112,"n_dots":2.95,"target":"right","response":"right","rt":592.79999995232,"correct":true,"confidence":1},{"trial_n":113,"n_dots":2.85,"target":"left","response":"left","rt":1459.3000000715,"correct":true,"confidence":1},{"trial_n":114,"n_dots":2.85,"target":"left","response":"left","rt":465.39999997616,"correct":true,"confidence":3},{"trial_n":115,"n_dots":2.75,"target":"right","response":"right","rt":715.39999997616,"correct":true,"confidence":2},{"trial_n":116,"n_dots":2.75,"target":"right","response":"left","rt":778.79999995232,"correct":false,"confidence":2},{"trial_n":117,"n_dots":2.85,"target":"left","response":"right","rt":635.89999997616,"correct":false,"confidence":3},{"trial_n":118,"n_dots":2.95,"target":"right","response":"right","rt":1018.7999999523,"correct":true,"confidence":3},{"trial_n":119,"n_dots":2.95,"target":"right","response":"right","rt":820.20000004768,"correct":true,"confidence":3},{"trial_n":120,"n_dots":2.85,"target":"right","response":"right","rt":532.19999992847,"correct":true,"confidence":3}]