[{"trial_n":1,"n_dots":4.25,"target":"right","response":"right","rt":3764.7999997139,"correct":true,"confidence":-1},{"trial_n":2,"n_dots":4.25,"target":"right","response":"right","rt":659.7999997139,"correct":true,"confidence":-1},{"trial_n":3,"n_dots":3.85,"target":"left","response":"left","rt":366.5,"correct":true,"confidence":-1},{"trial_n":4,"n_dots":3.85,"target":"right","response":"right","rt":422.40000009537,"correct":true,"confidence":-1},{"trial_n":5,"n_dots":3.45,"target":"right","response":"left","rt":562.2999997139,"correct":false,"confidence":-1},{"trial_n":6,"n_dots":3.85,"target":"left","response":"left","rt":561.5,"correct":true,"confidence":-1},{"trial_n":7,"n_dots":3.85,"target":"right","response":"right","rt":450.19999980927,"correct":true,"confidence":-1},{"trial_n":8,"n_dots":3.65,"target":"right","response":"left","rt":640,"correct":false,"confidence":-1},{"trial_n":9,"n_dots":3.85,"target":"left","response":"left","rt":414.7999997139,"correct":true,"confidence":-1},{"trial_n":10,"n_dots":3.85,"target":"right","response":"right","rt":356.09999990463,"correct":true,"confidence":-1},{"trial_n":11,"n_dots":3.65,"target":"right","response":"right","rt":443.7999997139,"correct":true,"confidence":-1},{"trial_n":12,"n_dots":3.65,"target":"left","response":"left","rt":504.39999961853,"correct":true,"confidence":-1},{"trial_n":13,"n_dots":3.55,"target":"left","response":"left","rt":350,"correct":true,"confidence":-1},{"trial_n":14,"n_dots":3.55,"target":"right","response":"left","rt":588,"correct":false,"confidence":-1},{"trial_n":15,"n_dots":3.65,"target":"left","response":"left","rt":439.39999961853,"correct":true,"confidence":-1},{"trial_n":16,"n_dots":3.65,"target":"right","response":"right","rt":411.40000009537,"correct":true,"confidence":-1},{"trial_n":17,"n_dots":3.55,"target":"left","response":"left","rt":292.5,"correct":true,"confidence":-1},{"trial_n":18,"n_dots":3.55,"target":"right","response":"right","rt":370.19999980927,"correct":true,"confidence":-1},{"trial_n":19,"n_dots":3.45,"target":"left","response":"left","rt":311.2999997139,"correct":true,"confidence":-1},{"trial_n":20,"n_dots":3.45,"target":"right","response":"right","rt":306.40000009537,"correct":true,"confidence":-1},{"trial_n":21,"n_dots":3.35,"target":"right","response":"right","rt":468.2999997139,"correct":true,"confidence":3},{"trial_n":22,"n_dots":3.35,"target":"right","response":"right","rt":447.59999990463,"correct":true,"confidence":3},{"trial_n":23,"n_dots":3.25,"target":"right","response":"right","rt":1040.8999996185,"correct":true,"confidence":3},{"trial_n":24,"n_dots":3.25,"target":"left","response":"left","rt":363.5,"correct":true,"confidence":3},{"trial_n":25,"n_dots":3.15,"target":"left","response":"left","rt":1787.3999996185,"correct":true,"confidence":5},{"trial_n":26,"n_dots":3.15,"target":"left","response":"left","rt":438.19999980927,"correct":true,"confidence":5},{"trial_n":27,"n_dots":3.05,"target":"left","response":"left","rt":365.90000009537,"correct":true,"confidence":5},{"trial_n":28,"n_dots":3.05,"target":"left","response":"left","rt":457.19999980927,"correct":true,"confidence":5},{"trial_n":29,"n_dots":2.95,"target":"left","response":"left","rt":729.2999997139,"correct":true,"confidence":4},{"trial_n":30,"n_dots":2.95,"target":"right","response":"left","rt":1123.0999999046,"correct":false,"confidence":4},{"trial_n":31,"n_dots":3.05,"target":"right","response":"right","rt":511.19999980927,"correct":true,"confidence":5},{"trial_n":32,"n_dots":3.05,"target":"left","response":"left","rt":352.19999980927,"correct":true,"confidence":5},{"trial_n":33,"n_dots":2.95,"target":"right","response":"left","rt":452.2999997139,"correct":false,"confidence":1},{"trial_n":34,"n_dots":3.05,"target":"left","response":"left","rt":317.19999980927,"correct":true,"confidence":1},{"trial_n":35,"n_dots":3.05,"target":"right","response":"right","rt":409.19999980927,"correct":true,"confidence":5},{"trial_n":36,"n_dots":2.95,"target":"right","response":"right","rt":1377.0999999046,"correct":true,"confidence":1},{"trial_n":37,"n_dots":2.95,"target":"right","response":"right","rt":371,"correct":true,"confidence":5},{"trial_n":38,"n_dots":2.85,"target":"right","response":"right","rt":455.40000009537,"correct":true,"confidence":1},{"trial_n":39,"n_dots":2.85,"target":"left","response":"right","rt":499.7000002861,"correct":false,"confidence":1},{"trial_n":40,"n_dots":2.95,"target":"right","response":"right","rt":508.2999997139,"correct":true,"confidence":4},{"trial_n":41,"n_dots":2.95,"target":"left","response":"left","rt":1084.1999998093,"correct":true,"confidence":1},{"trial_n":42,"n_dots":2.85,"target":"right","response":"right","rt":436.09999990463,"correct":true,"confidence":4},{"trial_n":43,"n_dots":2.85,"target":"left","response":"left","rt":392.2999997139,"correct":true,"confidence":4},{"trial_n":44,"n_dots":2.75,"target":"right","response":"right","rt":504.90000009537,"correct":true,"confidence":1},{"trial_n":45,"n_dots":2.75,"target":"left","response":"left","rt":508.09999990463,"correct":true,"confidence":5},{"trial_n":46,"n_dots":2.65,"target":"right","response":"right","rt":459.09999990463,"correct":true,"confidence":5},{"trial_n":47,"n_dots":2.65,"target":"left","response":"right","rt":962.39999961853,"correct":false,"confidence":1},{"trial_n":48,"n_dots":2.75,"target":"left","response":"right","rt":683.09999990463,"correct":false,"confidence":5},{"trial_n":49,"n_dots":2.85,"target":"right","response":"right","rt":611.59999990463,"correct":true,"confidence":4},{"trial_n":50,"n_dots":2.85,"target":"left","response":"left","rt":605.69999980927,"correct":true,"confidence":4},{"trial_n":51,"n_dots":2.75,"target":"right","response":"right","rt":398.19999980927,"correct":true,"confidence":4},{"trial_n":52,"n_dots":2.75,"target":"left","response":"left","rt":650.40000009537,"correct":true,"confidence":1},{"trial_n":53,"n_dots":2.65,"target":"right","response":"right","rt":595.7999997139,"correct":true,"confidence":4},{"trial_n":54,"n_dots":2.65,"target":"left","response":"left","rt":563.69999980927,"correct":true,"confidence":1},{"trial_n":55,"n_dots":2.55,"target":"left","response":"left","rt":470.19999980927,"correct":true,"confidence":4},{"trial_n":56,"n_dots":2.55,"target":"right","response":"right","rt":869.69999980927,"correct":true,"confidence":4},{"trial_n":57,"n_dots":2.45,"target":"right","response":"right","rt":1110.6999998093,"correct":true,"confidence":4},{"trial_n":58,"n_dots":2.45,"target":"left","response":"left","rt":779.09999990463,"correct":true,"confidence":2},{"trial_n":59,"n_dots":2.35,"target":"left","response":"left","rt":680.30000019073,"correct":true,"confidence":1},{"trial_n":60,"n_dots":2.35,"target":"left","response":"right","rt":768.19999980927,"correct":false,"confidence":4},{"trial_n":61,"n_dots":2.45,"target":"left","response":"right","rt":574.19999980927,"correct":false,"confidence":4},{"trial_n":62,"n_dots":2.55,"target":"right","response":"right","rt":480.09999990463,"correct":true,"confidence":1},{"trial_n":63,"n_dots":2.55,"target":"right","response":"right","rt":766.40000009537,"correct":true,"confidence":4},{"trial_n":64,"n_dots":2.45,"target":"left","response":"left","rt":453.90000009537,"correct":true,"confidence":4},{"trial_n":65,"n_dots":2.45,"target":"left","response":"left","rt":450.90000009537,"correct":true,"confidence":4},{"trial_n":66,"n_dots":2.35,"target":"right","response":"left","rt":856.30000019073,"correct":false,"confidence":2},{"trial_n":67,"n_dots":2.45,"target":"right","response":"right","rt":461.19999980927,"correct":true,"confidence":1},{"trial_n":68,"n_dots":2.45,"target":"right","response":"right","rt":818,"correct":true,"confidence":4},{"trial_n":69,"n_dots":2.35,"target":"left","response":"left","rt":435.7999997139,"correct":true,"confidence":4},{"trial_n":70,"n_dots":2.35,"target":"left","response":"right","rt":478.40000009537,"correct":false,"confidence":4},{"trial_n":71,"n_dots":2.45,"target":"left","response":"left","rt":708.19999980927,"correct":true,"confidence":4},{"trial_n":72,"n_dots":2.45,"target":"right","response":"right","rt":552.90000009537,"correct":true,"confidence":4},{"trial_n":73,"n_dots":2.35,"target":"right","response":"right","rt":556.09999990463,"correct":true,"confidence":4},{"trial_n":74,"n_dots":2.35,"target":"left","response":"left","rt":483.40000009537,"correct":true,"confidence":4},{"trial_n":75,"n_dots":2.25,"target":"left","response":"left","rt":462.80000019073,"correct":true,"confidence":4},{"trial_n":76,"n_dots":2.25,"target":"right","response":"left","rt":380.69999980927,"correct":false,"confidence":4},{"trial_n":77,"n_dots":2.35,"target":"right","response":"right","rt":576.2999997139,"correct":true,"confidence":1},{"trial_n":78,"n_dots":2.35,"target":"right","response":"left","rt":579.2999997139,"correct":false,"confidence":4},{"trial_n":79,"n_dots":2.45,"target":"right","response":"right","rt":450.69999980927,"correct":true,"confidence":4},{"trial_n":80,"n_dots":2.45,"target":"left","response":"left","rt":564.59999990463,"correct":true,"confidence":5},{"trial_n":81,"n_dots":2.35,"target":"right","response":"left","rt":422,"correct":false,"confidence":4},{"trial_n":82,"n_dots":2.45,"target":"left","response":"left","rt":583.90000009537,"correct":true,"confidence":5},{"trial_n":83,"n_dots":2.45,"target":"left","response":"left","rt":487.59999990463,"correct":true,"confidence":5},{"trial_n":84,"n_dots":2.35,"target":"right","response":"right","rt":580.2999997139,"correct":true,"confidence":4},{"trial_n":85,"n_dots":2.35,"target":"left","response":"left","rt":498.19999980927,"correct":true,"confidence":4},{"trial_n":86,"n_dots":2.25,"target":"left","response":"left","rt":628.80000019073,"correct":true,"confidence":1},{"trial_n":87,"n_dots":2.25,"target":"left","response":"left","rt":534.80000019073,"correct":true,"confidence":4},{"trial_n":88,"n_dots":2.15,"target":"right","response":"left","rt":632,"correct":false,"confidence":4},{"trial_n":89,"n_dots":2.25,"target":"right","response":"left","rt":580.19999980927,"correct":false,"confidence":4},{"trial_n":90,"n_dots":2.35,"target":"left","response":"left","rt":547,"correct":true,"confidence":1},{"trial_n":91,"n_dots":2.35,"target":"right","response":"left","rt":532.59999990463,"correct":false,"confidence":4},{"trial_n":92,"n_dots":2.45,"target":"left","response":"right","rt":690.59999990463,"correct":false,"confidence":2},{"trial_n":93,"n_dots":2.55,"target":"left","response":"left","rt":622,"correct":true,"confidence":3},{"trial_n":94,"n_dots":2.55,"target":"left","response":"left","rt":489.09999990463,"correct":true,"confidence":3},{"trial_n":95,"n_dots":2.45,"target":"right","response":"right","rt":540.30000019073,"correct":true,"confidence":3},{"trial_n":96,"n_dots":2.45,"target":"right","response":"left","rt":401.40000009537,"correct":false,"confidence":3},{"trial_n":97,"n_dots":2.55,"target":"left","response":"right","rt":424.90000009537,"correct":false,"confidence":3},{"trial_n":98,"n_dots":2.65,"target":"left","response":"left","rt":369,"correct":true,"confidence":3},{"trial_n":99,"n_dots":2.65,"target":"right","response":"right","rt":355.09999990463,"correct":true,"confidence":3},{"trial_n":100,"n_dots":2.55,"target":"left","response":"left","rt":342.40000009537,"correct":true,"confidence":1},{"trial_n":101,"n_dots":2.55,"target":"left","response":"left","rt":505.19999980927,"correct":true,"confidence":1},{"trial_n":102,"n_dots":2.45,"target":"left","response":"left","rt":476.80000019073,"correct":true,"confidence":4},{"trial_n":103,"n_dots":2.45,"target":"left","response":"left","rt":802.80000019073,"correct":true,"confidence":4},{"trial_n":104,"n_dots":2.35,"target":"left","response":"left","rt":428.2000002861,"correct":true,"confidence":5},{"trial_n":105,"n_dots":2.35,"target":"right","response":"right","rt":639.10000038147,"correct":true,"confidence":2},{"trial_n":106,"n_dots":2.25,"target":"left","response":"left","rt":393.90000009537,"correct":true,"confidence":5},{"trial_n":107,"n_dots":2.25,"target":"left","response":"left","rt":345.19999980927,"correct":true,"confidence":5},{"trial_n":108,"n_dots":2.15,"target":"right","response":"left","rt":452.19999980927,"correct":false,"confidence":1},{"trial_n":109,"n_dots":2.25,"target":"right","response":"left","rt":623.2000002861,"correct":false,"confidence":5},{"trial_n":110,"n_dots":2.35,"target":"left","response":"right","rt":670.5,"correct":false,"confidence":5},{"trial_n":111,"n_dots":2.45,"target":"right","response":"left","rt":445.09999990463,"correct":false,"confidence":4},{"trial_n":112,"n_dots":2.55,"target":"right","response":"right","rt":536.7000002861,"correct":true,"confidence":3},{"trial_n":113,"n_dots":2.55,"target":"left","response":"right","rt":446.09999990463,"correct":false,"confidence":2},{"trial_n":114,"n_dots":2.65,"target":"right","response":"left","rt":492.09999990463,"correct":false,"confidence":4},{"trial_n":115,"n_dots":2.75,"target":"right","response":"right","rt":533.19999980927,"correct":true,"confidence":4},{"trial_n":116,"n_dots":2.75,"target":"left","response":"left","rt":402,"correct":true,"confidence":4},{"trial_n":117,"n_dots":2.65,"target":"right","response":"right","rt":407.7000002861,"correct":true,"confidence":4},{"trial_n":118,"n_dots":2.65,"target":"right","response":"right","rt":469.7000002861,"correct":true,"confidence":2},{"trial_n":119,"n_dots":2.55,"target":"left","response":"left","rt":426.09999990463,"correct":true,"confidence":4},{"trial_n":120,"n_dots":2.55,"target":"right","response":"left","rt":696.59999990463,"correct":false,"confidence":2}]