[{"trial_n":1,"min":25,"max":230,"target":"present","response":"present","rt":6403,"correct":true,"confidence":-1},{"trial_n":2,"min":25,"max":230,"target":"present","response":"present","rt":1354,"correct":true,"confidence":-1},{"trial_n":3,"min":41,"max":214,"target":"absent","response":"present","rt":3155,"correct":false,"confidence":-1},{"trial_n":4,"min":25,"max":230,"target":"absent","response":"present","rt":1983,"correct":false,"confidence":-1},{"trial_n":5,"min":9,"max":246,"target":"present","response":"present","rt":1999,"correct":true,"confidence":-1},{"trial_n":6,"min":9,"max":246,"target":"absent","response":"absent","rt":693.99999999997,"correct":true,"confidence":-1},{"trial_n":7,"min":25,"max":230,"target":"present","response":"present","rt":681,"correct":true,"confidence":-1},{"trial_n":8,"min":25,"max":230,"target":"absent","response":"absent","rt":658.00000000003,"correct":true,"confidence":-1},{"trial_n":9,"min":41,"max":214,"target":"present","response":"present","rt":277,"correct":true,"confidence":-1},{"trial_n":10,"min":41,"max":214,"target":"absent","response":"absent","rt":670,"correct":true,"confidence":-1},{"trial_n":11,"min":49,"max":206,"target":"absent","response":"absent","rt":601,"correct":true,"confidence":-1},{"trial_n":12,"min":49,"max":206,"target":"absent","response":"absent","rt":635,"correct":true,"confidence":-1},{"trial_n":13,"min":57,"max":198,"target":"present","response":"absent","rt":652,"correct":false,"confidence":-1},{"trial_n":14,"min":49,"max":206,"target":"absent","response":"absent","rt":913,"correct":true,"confidence":-1},{"trial_n":15,"min":49,"max":206,"target":"absent","response":"absent","rt":638,"correct":true,"confidence":-1},{"trial_n":16,"min":57,"max":198,"target":"present","response":"present","rt":999,"correct":true,"confidence":-1},{"trial_n":17,"min":57,"max":198,"target":"present","response":"absent","rt":834.00000000003,"correct":false,"confidence":-1},{"trial_n":18,"min":49,"max":206,"target":"present","response":"present","rt":728,"correct":true,"confidence":-1},{"trial_n":19,"min":49,"max":206,"target":"present","response":"present","rt":705,"correct":true,"confidence":-1},{"trial_n":20,"min":57,"max":198,"target":"present","response":"present","rt":721,"correct":true,"confidence":-1},{"trial_n":21,"min":57,"max":198,"target":"absent","response":"present","rt":1401,"correct":false,"confidence":2},{"trial_n":22,"min":53,"max":202,"target":"present","response":"present","rt":1851,"correct":true,"confidence":3},{"trial_n":23,"min":53,"max":202,"target":"absent","response":"absent","rt":4687,"correct":true,"confidence":3},{"trial_n":24,"min":57,"max":198,"target":"present","response":"absent","rt":4132,"correct":false,"confidence":1},{"trial_n":25,"min":53,"max":202,"target":"absent","response":"present","rt":6249,"correct":false,"confidence":3},{"trial_n":26,"min":49,"max":206,"target":"present","response":"present","rt":1213,"correct":true,"confidence":4},{"trial_n":27,"min":49,"max":206,"target":"absent","response":"absent","rt":1281,"correct":true,"confidence":3},{"trial_n":28,"min":53,"max":202,"target":"present","response":"present","rt":654,"correct":true,"confidence":5},{"trial_n":29,"min":53,"max":202,"target":"absent","response":"absent","rt":1576,"correct":true,"confidence":5},{"trial_n":30,"min":57,"max":198,"target":"present","response":"absent","rt":1101,"correct":false,"confidence":3},{"trial_n":31,"min":55,"max":200,"target":"absent","response":"absent","rt":1385,"correct":true,"confidence":2},{"trial_n":32,"min":55,"max":200,"target":"present","response":"absent","rt":1383,"correct":false,"confidence":3},{"trial_n":33,"min":53,"max":202,"target":"absent","response":"absent","rt":841,"correct":true,"confidence":4},{"trial_n":34,"min":53,"max":202,"target":"present","response":"present","rt":768.99999999997,"correct":true,"confidence":5},{"trial_n":35,"min":55,"max":200,"target":"absent","response":"absent","rt":1331,"correct":true,"confidence":5},{"trial_n":36,"min":55,"max":200,"target":"absent","response":"absent","rt":1281,"correct":true,"confidence":4},{"trial_n":37,"min":57,"max":198,"target":"absent","response":"absent","rt":982.99999999997,"correct":true,"confidence":3},{"trial_n":38,"min":57,"max":198,"target":"present","response":"present","rt":1195,"correct":true,"confidence":5},{"trial_n":39,"min":59,"max":196,"target":"present","response":"present","rt":1451,"correct":true,"confidence":5},{"trial_n":40,"min":59,"max":196,"target":"present","response":"present","rt":773.00000000006,"correct":true,"confidence":4},{"trial_n":41,"min":60,"max":195,"target":"present","response":"absent","rt":2629,"correct":false,"confidence":1},{"trial_n":42,"min":59,"max":196,"target":"present","response":"present","rt":1125,"correct":true,"confidence":4},{"trial_n":43,"min":59,"max":196,"target":"present","response":"present","rt":1043,"correct":true,"confidence":4},{"trial_n":44,"min":60,"max":195,"target":"absent","response":"absent","rt":1334,"correct":true,"confidence":4},{"trial_n":45,"min":60,"max":195,"target":"present","response":"present","rt":1014,"correct":true,"confidence":5},{"trial_n":46,"min":61,"max":194,"target":"absent","response":"absent","rt":1467,"correct":true,"confidence":3},{"trial_n":47,"min":61,"max":194,"target":"absent","response":"absent","rt":942,"correct":true,"confidence":4},{"trial_n":48,"min":62,"max":193,"target":"absent","response":"absent","rt":2818.0000000001,"correct":true,"confidence":5},{"trial_n":49,"min":62,"max":193,"target":"absent","response":"absent","rt":983.99999999994,"correct":true,"confidence":5},{"trial_n":50,"min":63,"max":192,"target":"present","response":"present","rt":2680,"correct":true,"confidence":1},{"trial_n":51,"min":63,"max":192,"target":"absent","response":"absent","rt":1871,"correct":true,"confidence":3},{"trial_n":52,"min":64,"max":191,"target":"present","response":"absent","rt":875,"correct":false,"confidence":2},{"trial_n":53,"min":63,"max":192,"target":"absent","response":"absent","rt":1257,"correct":true,"confidence":5},{"trial_n":54,"min":63,"max":192,"target":"absent","response":"absent","rt":892,"correct":true,"confidence":5},{"trial_n":55,"min":64,"max":191,"target":"absent","response":"absent","rt":953.00000000006,"correct":true,"confidence":5},{"trial_n":56,"min":64,"max":191,"target":"absent","response":"absent","rt":1203.0000000001,"correct":true,"confidence":4},{"trial_n":57,"min":65,"max":190,"target":"present","response":"present","rt":902.00000000006,"correct":true,"confidence":5},{"trial_n":58,"min":65,"max":190,"target":"present","response":"present","rt":1067,"correct":true,"confidence":5},{"trial_n":59,"min":66,"max":189,"target":"absent","response":"absent","rt":1138,"correct":true,"confidence":4},{"trial_n":60,"min":66,"max":189,"target":"absent","response":"absent","rt":1021.9999999999,"correct":true,"confidence":3},{"trial_n":61,"min":67,"max":188,"target":"absent","response":"present","rt":1028,"correct":false,"confidence":3},{"trial_n":62,"min":66,"max":189,"target":"absent","response":"absent","rt":952,"correct":true,"confidence":3},{"trial_n":63,"min":66,"max":189,"target":"present","response":"present","rt":1013.0000000001,"correct":true,"confidence":3},{"trial_n":64,"min":67,"max":188,"target":"present","response":"present","rt":991,"correct":true,"confidence":5},{"trial_n":65,"min":67,"max":188,"target":"present","response":"present","rt":809,"correct":true,"confidence":5},{"trial_n":66,"min":68,"max":187,"target":"absent","response":"absent","rt":1179,"correct":true,"confidence":3},{"trial_n":67,"min":68,"max":187,"target":"present","response":"absent","rt":18896,"correct":false,"confidence":2},{"trial_n":68,"min":67,"max":188,"target":"present","response":"present","rt":2267,"correct":true,"confidence":1},{"trial_n":69,"min":67,"max":188,"target":"present","response":"present","rt":1558.0000000001,"correct":true,"confidence":2},{"trial_n":70,"min":68,"max":187,"target":"present","response":"present","rt":1069,"correct":true,"confidence":5},{"trial_n":71,"min":41,"max":214,"target":"present","response":"present","rt":4983,"correct":true,"confidence":-1},{"trial_n":72,"min":41,"max":214,"target":"present","response":"present","rt":959,"correct":true,"confidence":-1},{"trial_n":73,"min":57,"max":198,"target":"absent","response":"absent","rt":761,"correct":true,"confidence":-1},{"trial_n":74,"min":57,"max":198,"target":"absent","response":"absent","rt":663,"correct":true,"confidence":-1},{"trial_n":75,"min":73,"max":182,"target":"present","response":"present","rt":875,"correct":true,"confidence":-1},{"trial_n":76,"min":73,"max":182,"target":"absent","response":"absent","rt":1000.9999999999,"correct":true,"confidence":-1},{"trial_n":77,"min":89,"max":166,"target":"absent","response":"present","rt":751.00000000006,"correct":false,"confidence":-1},{"trial_n":78,"min":73,"max":182,"target":"present","response":"present","rt":787.00000000006,"correct":true,"confidence":-1},{"trial_n":79,"min":73,"max":182,"target":"absent","response":"absent","rt":801.00000000006,"correct":true,"confidence":-1},{"trial_n":80,"min":89,"max":166,"target":"present","response":"present","rt":1224,"correct":true,"confidence":-1},{"trial_n":81,"min":89,"max":166,"target":"present","response":"present","rt":631,"correct":true,"confidence":-1},{"trial_n":82,"min":97,"max":158,"target":"present","response":"absent","rt":1862.0000000001,"correct":false,"confidence":-1},{"trial_n":83,"min":89,"max":166,"target":"present","response":"present","rt":994,"correct":true,"confidence":-1},{"trial_n":84,"min":89,"max":166,"target":"absent","response":"absent","rt":1179,"correct":true,"confidence":-1},{"trial_n":85,"min":97,"max":158,"target":"absent","response":"present","rt":124339,"correct":false,"confidence":-1},{"trial_n":86,"min":89,"max":166,"target":"present","response":"present","rt":1012,"correct":true,"confidence":-1},{"trial_n":87,"min":89,"max":166,"target":"absent","response":"absent","rt":860,"correct":true,"confidence":-1},{"trial_n":88,"min":97,"max":158,"target":"present","response":"present","rt":681.99999999988,"correct":true,"confidence":-1},{"trial_n":89,"min":97,"max":158,"target":"present","response":"present","rt":677,"correct":true,"confidence":-1},{"trial_n":90,"min":105,"max":150,"target":"present","response":"present","rt":656.00000000012,"correct":true,"confidence":-1},{"trial_n":91,"min":105,"max":150,"target":"present","response":"present","rt":655.00000000012,"correct":true,"confidence":3},{"trial_n":92,"min":109,"max":146,"target":"absent","response":"absent","rt":864,"correct":true,"confidence":2},{"trial_n":93,"min":109,"max":146,"target":"present","response":"present","rt":996,"correct":true,"confidence":2},{"trial_n":94,"min":113,"max":142,"target":"present","response":"present","rt":800,"correct":true,"confidence":3},{"trial_n":95,"min":113,"max":142,"target":"present","response":"present","rt":1928,"correct":true,"confidence":3},{"trial_n":96,"min":117,"max":138,"target":"present","response":"present","rt":900,"correct":true,"confidence":2},{"trial_n":97,"min":117,"max":138,"target":"present","response":"present","rt":732,"correct":true,"confidence":3},{"trial_n":98,"min":121,"max":134,"target":"present","response":"present","rt":1517,"correct":true,"confidence":3},{"trial_n":99,"min":121,"max":134,"target":"absent","response":"present","rt":43440,"correct":false,"confidence":2},{"trial_n":100,"min":117,"max":138,"target":"absent","response":"absent","rt":85860,"correct":true,"confidence":2},{"trial_n":101,"min":117,"max":138,"target":"absent","response":"absent","rt":32725,"correct":true,"confidence":2},{"trial_n":102,"min":119,"max":136,"target":"absent","response":"present","rt":1425,"correct":false,"confidence":2},{"trial_n":103,"min":117,"max":138,"target":"absent","response":"present","rt":1157,"correct":false,"confidence":1},{"trial_n":104,"min":115,"max":140,"target":"absent","response":"absent","rt":1005,"correct":true,"confidence":1},{"trial_n":105,"min":115,"max":140,"target":"present","response":"present","rt":1498,"correct":true,"confidence":2},{"trial_n":106,"min":117,"max":138,"target":"present","response":"present","rt":2884,"correct":true,"confidence":1},{"trial_n":107,"min":117,"max":138,"target":"present","response":"present","rt":880,"correct":true,"confidence":1},{"trial_n":108,"min":119,"max":136,"target":"absent","response":"present","rt":866,"correct":false,"confidence":1},{"trial_n":109,"min":117,"max":138,"target":"absent","response":"absent","rt":1622,"correct":true,"confidence":2},{"trial_n":110,"min":117,"max":138,"target":"present","response":"present","rt":1040,"correct":true,"confidence":2},{"trial_n":111,"min":118,"max":137,"target":"present","response":"present","rt":725,"correct":true,"confidence":3},{"trial_n":112,"min":118,"max":137,"target":"absent","response":"absent","rt":1362.9999999999,"correct":true,"confidence":2},{"trial_n":113,"min":119,"max":136,"target":"present","response":"present","rt":3202.9999999999,"correct":true,"confidence":2},{"trial_n":114,"min":119,"max":136,"target":"present","response":"present","rt":1261,"correct":true,"confidence":2},{"trial_n":115,"min":120,"max":135,"target":"absent","response":"absent","rt":1686,"correct":true,"confidence":2},{"trial_n":116,"min":120,"max":135,"target":"absent","response":"absent","rt":1317,"correct":true,"confidence":3},{"trial_n":117,"min":121,"max":134,"target":"absent","response":"absent","rt":2245,"correct":true,"confidence":2},{"trial_n":118,"min":121,"max":134,"target":"absent","response":"present","rt":76185,"correct":false,"confidence":2},{"trial_n":119,"min":120,"max":135,"target":"present","response":"present","rt":1420,"correct":true,"confidence":3},{"trial_n":120,"min":120,"max":135,"target":"absent","response":"present","rt":811.99999999988,"correct":false,"confidence":3},{"trial_n":121,"min":119,"max":136,"target":"present","response":"present","rt":1503,"correct":true,"confidence":3},{"trial_n":122,"min":119,"max":136,"target":"present","response":"absent","rt":1553,"correct":false,"confidence":2},{"trial_n":123,"min":118,"max":137,"target":"absent","response":"absent","rt":1613,"correct":true,"confidence":3},{"trial_n":124,"min":118,"max":137,"target":"present","response":"present","rt":634,"correct":true,"confidence":4},{"trial_n":125,"min":119,"max":136,"target":"absent","response":"absent","rt":1707,"correct":true,"confidence":2},{"trial_n":126,"min":119,"max":136,"target":"present","response":"present","rt":1212,"correct":true,"confidence":2},{"trial_n":127,"min":120,"max":135,"target":"present","response":"present","rt":1474,"correct":true,"confidence":4},{"trial_n":128,"min":120,"max":135,"target":"absent","response":"absent","rt":1947,"correct":true,"confidence":2},{"trial_n":129,"min":121,"max":134,"target":"absent","response":"absent","rt":1281,"correct":true,"confidence":3},{"trial_n":130,"min":121,"max":134,"target":"absent","response":"present","rt":812,"correct":false,"confidence":3},{"trial_n":131,"min":120,"max":135,"target":"absent","response":"absent","rt":190559,"correct":true,"confidence":1},{"trial_n":132,"min":120,"max":135,"target":"absent","response":"present","rt":774,"correct":false,"confidence":3},{"trial_n":133,"min":119,"max":136,"target":"present","response":"present","rt":1074,"correct":true,"confidence":3},{"trial_n":134,"min":119,"max":136,"target":"present","response":"present","rt":619,"correct":true,"confidence":4},{"trial_n":135,"min":120,"max":135,"target":"present","response":"present","rt":901.99999999977,"correct":true,"confidence":3},{"trial_n":136,"min":120,"max":135,"target":"absent","response":"absent","rt":843,"correct":true,"confidence":2},{"trial_n":137,"min":121,"max":134,"target":"absent","response":"absent","rt":875,"correct":true,"confidence":2},{"trial_n":138,"min":121,"max":134,"target":"absent","response":"present","rt":1405,"correct":false,"confidence":3},{"trial_n":139,"min":120,"max":135,"target":"present","response":"present","rt":2087,"correct":true,"confidence":2},{"trial_n":140,"min":120,"max":135,"target":"absent","response":"absent","rt":1503,"correct":true,"confidence":4}]