[{"trial_n":1,"span":8,"encoder":"55963855","distractor":"55943855","target":"present","response":"present","rt":"4270","correct":true,"confidence":-1},{"trial_n":2,"span":8,"encoder":"66241127","distractor":"66241129","target":"present","response":"present","rt":"1864","correct":true,"confidence":-1},{"trial_n":3,"span":10,"encoder":"8624318452","distractor":"8224318452","target":"absent","response":"absent","rt":"1894","correct":true,"confidence":-1},{"trial_n":4,"span":10,"encoder":"0934786882","distractor":"0434786882","target":"absent","response":"absent","rt":"1454","correct":true,"confidence":-1},{"trial_n":5,"span":12,"encoder":"997341965206","distractor":"997344965206","target":"present","response":"absent","rt":"2021","correct":false,"confidence":-1},{"trial_n":6,"span":10,"encoder":"5625894016","distractor":"5625894116","target":"present","response":"present","rt":"3661","correct":true,"confidence":-1},{"trial_n":7,"span":10,"encoder":"6602158014","distractor":"9602158014","target":"absent","response":"absent","rt":"1650","correct":true,"confidence":-1},{"trial_n":8,"span":12,"encoder":"761201767373","distractor":"761201764373","target":"present","response":"present","rt":"1854","correct":true,"confidence":-1},{"trial_n":9,"span":12,"encoder":"279661571962","distractor":"279661571662","target":"present","response":"absent","rt":"2758","correct":false,"confidence":-1},{"trial_n":10,"span":10,"encoder":"1924804593","distractor":"8924804593","target":"absent","response":"absent","rt":"1856","correct":true,"confidence":-1},{"trial_n":11,"span":10,"encoder":"4669079174","distractor":"4669079176","target":"absent","response":"present","rt":"2757","correct":false,"confidence":-1},{"trial_n":12,"span":9,"encoder":"159350348","distractor":"169350348","target":"present","response":"absent","rt":"1464","correct":false,"confidence":-1},{"trial_n":13,"span":8,"encoder":"86745981","distractor":"56745981","target":"absent","response":"present","rt":"1828","correct":false,"confidence":-1},{"trial_n":14,"span":7,"encoder":"7600032","distractor":"7500032","target":"absent","response":"absent","rt":"1623","correct":true,"confidence":-1},{"trial_n":15,"span":7,"encoder":"1710642","distractor":"1713642","target":"present","response":"present","rt":"1966","correct":true,"confidence":-1},{"trial_n":16,"span":8,"encoder":"34451519","distractor":"30451519","target":"absent","response":"absent","rt":"1610","correct":true,"confidence":-1},{"trial_n":17,"span":8,"encoder":"07973247","distractor":"07923247","target":"absent","response":"absent","rt":"1630","correct":true,"confidence":-1},{"trial_n":18,"span":9,"encoder":"806815086","distractor":"801815086","target":"absent","response":"absent","rt":"1354","correct":true,"confidence":-1},{"trial_n":19,"span":9,"encoder":"517199189","distractor":"517599189","target":"absent","response":"absent","rt":"4262","correct":true,"confidence":-1},{"trial_n":20,"span":10,"encoder":"5909255574","distractor":"5809255574","target":"present","response":"absent","rt":"2947","correct":false,"confidence":-1},{"trial_n":21,"span":9,"encoder":"563600093","distractor":"563600083","target":"present","response":"present","rt":"2468","correct":true,"confidence":4},{"trial_n":22,"span":9,"encoder":"793201679","distractor":"793201675","target":"absent","response":"absent","rt":"3394","correct":true,"confidence":4},{"trial_n":23,"span":10,"encoder":"6718921133","distractor":"6714921133","target":"present","response":"present","rt":"2404","correct":true,"confidence":5},{"trial_n":24,"span":10,"encoder":"2739070972","distractor":"2739070975","target":"absent","response":"present","rt":"3326","correct":false,"confidence":4},{"trial_n":25,"span":9,"encoder":"884130861","distractor":"884130866","target":"absent","response":"absent","rt":"3546","correct":true,"confidence":4},{"trial_n":26,"span":9,"encoder":"949548647","distractor":"949518647","target":"present","response":"present","rt":"3728","correct":true,"confidence":3},{"trial_n":27,"span":10,"encoder":"1099915102","distractor":"1099915802","target":"present","response":"present","rt":"2180","correct":true,"confidence":5},{"trial_n":28,"span":10,"encoder":"4035628583","distractor":"4035628553","target":"present","response":"absent","rt":"2155","correct":false,"confidence":3},{"trial_n":29,"span":9,"encoder":"653582666","distractor":"623582666","target":"absent","response":"absent","rt":"4525","correct":true,"confidence":4},{"trial_n":30,"span":9,"encoder":"742574608","distractor":"042574608","target":"absent","response":"absent","rt":"2270","correct":true,"confidence":5},{"trial_n":31,"span":10,"encoder":"9336358230","distractor":"5336358230","target":"present","response":"present","rt":"2359","correct":true,"confidence":4},{"trial_n":32,"span":10,"encoder":"7169830548","distractor":"7169800548","target":"absent","response":"absent","rt":"1484","correct":true,"confidence":4},{"trial_n":33,"span":11,"encoder":"98365552920","distractor":"98365552520","target":"absent","response":"absent","rt":"2819","correct":true,"confidence":5},{"trial_n":34,"span":11,"encoder":"84755177768","distractor":"54755177768","target":"present","response":"present","rt":"4062","correct":true,"confidence":4},{"trial_n":35,"span":12,"encoder":"311144378820","distractor":"311147378820","target":"absent","response":"absent","rt":"3276","correct":true,"confidence":4},{"trial_n":36,"span":12,"encoder":"295666626198","distractor":"295566626198","target":"present","response":"absent","rt":"4552","correct":false,"confidence":2},{"trial_n":37,"span":11,"encoder":"83038358006","distractor":"83038658006","target":"present","response":"present","rt":"3302","correct":true,"confidence":4},{"trial_n":38,"span":11,"encoder":"48059818946","distractor":"48099818946","target":"present","response":"present","rt":"2931","correct":true,"confidence":4},{"trial_n":39,"span":12,"encoder":"312904461012","distractor":"312904461512","target":"absent","response":"absent","rt":"1805","correct":true,"confidence":5},{"trial_n":40,"span":12,"encoder":"895090084915","distractor":"595090084915","target":"absent","response":"absent","rt":"2264","correct":true,"confidence":3},{"trial_n":41,"span":13,"encoder":"6247560475959","distractor":"6247568475959","target":"absent","response":"absent","rt":"2821","correct":true,"confidence":4},{"trial_n":42,"span":13,"encoder":"5826655009450","distractor":"5828655009450","target":"absent","response":"absent","rt":"2654","correct":true,"confidence":2},{"trial_n":43,"span":14,"encoder":"21916287386494","distractor":"21916207386494","target":"present","response":"present","rt":"4503","correct":true,"confidence":4},{"trial_n":44,"span":14,"encoder":"05099320830440","distractor":"05049320830440","target":"present","response":"present","rt":"4521","correct":true,"confidence":4},{"trial_n":45,"span":15,"encoder":"919996917580095","distractor":"919996917380095","target":"absent","response":"present","rt":"4019","correct":false,"confidence":4},{"trial_n":46,"span":14,"encoder":"61205199776516","distractor":"61205195776516","target":"present","response":"present","rt":"4298","correct":true,"confidence":3},{"trial_n":47,"span":14,"encoder":"35329944702852","distractor":"35229944702852","target":"present","response":"present","rt":"3549","correct":true,"confidence":4},{"trial_n":48,"span":15,"encoder":"100349474057067","distractor":"100349374057067","target":"present","response":"present","rt":"8326","correct":true,"confidence":4},{"trial_n":49,"span":15,"encoder":"046026419663225","distractor":"046026419664225","target":"present","response":"present","rt":"3548","correct":true,"confidence":3},{"trial_n":50,"span":16,"encoder":"7938716942219476","distractor":"7938716942219576","target":"present","response":"absent","rt":"4147","correct":false,"confidence":3},{"trial_n":51,"span":15,"encoder":"319245657255746","distractor":"319245657285746","target":"absent","response":"absent","rt":"3190","correct":true,"confidence":5},{"trial_n":52,"span":15,"encoder":"666596441826609","distractor":"662596441826609","target":"absent","response":"present","rt":"4003","correct":false,"confidence":4},{"trial_n":53,"span":14,"encoder":"78192436549940","distractor":"76192436549940","target":"present","response":"absent","rt":"2230","correct":false,"confidence":4},{"trial_n":54,"span":13,"encoder":"8538713393665","distractor":"8538714393665","target":"absent","response":"absent","rt":"4429","correct":true,"confidence":4},{"trial_n":55,"span":13,"encoder":"8864782591068","distractor":"8864782501068","target":"present","response":"present","rt":"4480","correct":true,"confidence":3},{"trial_n":56,"span":14,"encoder":"47162850955609","distractor":"47162850955709","target":"absent","response":"present","rt":"4306","correct":false,"confidence":3},{"trial_n":57,"span":13,"encoder":"8258508292382","distractor":"8258508292482","target":"present","response":"present","rt":"4620","correct":true,"confidence":4},{"trial_n":58,"span":13,"encoder":"8519368699849","distractor":"2519368699849","target":"absent","response":"absent","rt":"7550","correct":true,"confidence":3},{"trial_n":59,"span":14,"encoder":"82282083139121","distractor":"82282783139121","target":"present","response":"present","rt":"7947","correct":true,"confidence":4},{"trial_n":60,"span":14,"encoder":"66289736259007","distractor":"66281736259007","target":"absent","response":"absent","rt":"2463","correct":true,"confidence":4},{"trial_n":61,"span":15,"encoder":"869847113861417","distractor":"869846113861417","target":"present","response":"present","rt":"3869","correct":true,"confidence":3},{"trial_n":62,"span":15,"encoder":"991673215224038","distractor":"991673215224438","target":"absent","response":"absent","rt":"3149","correct":true,"confidence":5},{"trial_n":63,"span":16,"encoder":"6947659410171099","distractor":"6947659410176099","target":"present","response":"present","rt":"4678","correct":true,"confidence":5},{"trial_n":64,"span":16,"encoder":"2335543263503870","distractor":"2335543263503879","target":"absent","response":"absent","rt":"3080","correct":true,"confidence":5},{"trial_n":65,"span":17,"encoder":"03905339163056652","distractor":"07905339163056652","target":"present","response":"present","rt":"7497","correct":true,"confidence":4},{"trial_n":66,"span":17,"encoder":"07982645792229013","distractor":"07982545792229013","target":"present","response":"absent","rt":"5224","correct":false,"confidence":2},{"trial_n":67,"span":16,"encoder":"1375373066303144","distractor":"1875373066303144","target":"present","response":"absent","rt":"4994","correct":false,"confidence":4},{"trial_n":68,"span":15,"encoder":"208164797994300","distractor":"208164797998300","target":"present","response":"absent","rt":"5106","correct":false,"confidence":4},{"trial_n":69,"span":14,"encoder":"83633462125670","distractor":"83933462125670","target":"absent","response":"absent","rt":"3023","correct":true,"confidence":3},{"trial_n":70,"span":14,"encoder":"71581774461101","distractor":"71581674461101","target":"absent","response":"absent","rt":"3016","correct":true,"confidence":5},{"trial_n":71,"span":8,"encoder":"17921046","distractor":"10921046","target":"present","response":"present","rt":"3709","correct":true,"confidence":-1},{"trial_n":72,"span":8,"encoder":"10750648","distractor":"10750688","target":"present","response":"present","rt":"2533","correct":true,"confidence":-1},{"trial_n":73,"span":9,"encoder":"786248882","distractor":"786948882","target":"absent","response":"absent","rt":"3031","correct":true,"confidence":-1},{"trial_n":74,"span":9,"encoder":"327839948","distractor":"327339948","target":"absent","response":"absent","rt":"4528","correct":true,"confidence":-1},{"trial_n":75,"span":10,"encoder":"6372636794","distractor":"4372636794","target":"present","response":"absent","rt":"5739","correct":false,"confidence":-1},{"trial_n":76,"span":9,"encoder":"220938773","distractor":"220938573","target":"absent","response":"absent","rt":"4338","correct":true,"confidence":-1},{"trial_n":77,"span":9,"encoder":"754504695","distractor":"754504699","target":"present","response":"present","rt":"7203","correct":true,"confidence":-1},{"trial_n":78,"span":10,"encoder":"7196098850","distractor":"7196098855","target":"present","response":"present","rt":"2586","correct":true,"confidence":-1},{"trial_n":79,"span":10,"encoder":"6745220460","distractor":"6745250460","target":"present","response":"present","rt":"3191","correct":true,"confidence":-1},{"trial_n":80,"span":11,"encoder":"38216226083","distractor":"32216226083","target":"absent","response":"present","rt":"2994","correct":false,"confidence":-1},{"trial_n":81,"span":10,"encoder":"5330979619","distractor":"5230979619","target":"present","response":"absent","rt":"4385","correct":false,"confidence":-1},{"trial_n":82,"span":9,"encoder":"308622855","distractor":"708622855","target":"absent","response":"absent","rt":"3241","correct":true,"confidence":-1},{"trial_n":83,"span":9,"encoder":"740338846","distractor":"750338846","target":"present","response":"present","rt":"7699","correct":true,"confidence":-1},{"trial_n":84,"span":10,"encoder":"2859432779","distractor":"2359432779","target":"present","response":"present","rt":"3588","correct":true,"confidence":-1},{"trial_n":85,"span":10,"encoder":"4282004729","distractor":"4382004729","target":"present","response":"absent","rt":"3599","correct":false,"confidence":-1},{"trial_n":86,"span":9,"encoder":"653255526","distractor":"753255526","target":"present","response":"present","rt":"5496","correct":true,"confidence":-1},{"trial_n":87,"span":9,"encoder":"423340465","distractor":"423340425","target":"present","response":"present","rt":"3175","correct":true,"confidence":-1},{"trial_n":88,"span":10,"encoder":"8882342475","distractor":"8883342475","target":"absent","response":"absent","rt":"10166","correct":true,"confidence":-1},{"trial_n":89,"span":10,"encoder":"7919391126","distractor":"5919391126","target":"present","response":"present","rt":"2901","correct":true,"confidence":-1},{"trial_n":90,"span":11,"encoder":"11011065593","distractor":"13011065593","target":"present","response":"present","rt":"2643","correct":true,"confidence":-1},{"trial_n":91,"span":11,"encoder":"37313475083","distractor":"37313495083","target":"absent","response":"absent","rt":"2948","correct":true,"confidence":5},{"trial_n":92,"span":12,"encoder":"329788492027","distractor":"329788892027","target":"present","response":"present","rt":"3572","correct":true,"confidence":5},{"trial_n":93,"span":12,"encoder":"148421027066","distractor":"118421027066","target":"present","response":"present","rt":"2232","correct":true,"confidence":5},{"trial_n":94,"span":13,"encoder":"8733240707979","distractor":"8833240707979","target":"present","response":"present","rt":"3256","correct":true,"confidence":5},{"trial_n":95,"span":13,"encoder":"7865279260582","distractor":"7865279260552","target":"absent","response":"absent","rt":"4934","correct":true,"confidence":5},{"trial_n":96,"span":14,"encoder":"43277226987107","distractor":"42277226987107","target":"absent","response":"absent","rt":"4768","correct":true,"confidence":4},{"trial_n":97,"span":14,"encoder":"41858629580486","distractor":"41858621580486","target":"present","response":"present","rt":"8441","correct":true,"confidence":5},{"trial_n":98,"span":15,"encoder":"792059091455555","distractor":"792059091405555","target":"present","response":"absent","rt":"10039","correct":false,"confidence":4},{"trial_n":99,"span":14,"encoder":"72144548864230","distractor":"76144548864230","target":"present","response":"present","rt":"5568","correct":true,"confidence":3},{"trial_n":100,"span":14,"encoder":"96972082262567","distractor":"96972083262567","target":"absent","response":"absent","rt":"5761","correct":true,"confidence":4},{"trial_n":101,"span":15,"encoder":"484065235976523","distractor":"489065235976523","target":"absent","response":"present","rt":"11513","correct":false,"confidence":3},{"trial_n":102,"span":14,"encoder":"35527275654626","distractor":"35527275659626","target":"absent","response":"absent","rt":"11667","correct":true,"confidence":4},{"trial_n":103,"span":14,"encoder":"45439136699210","distractor":"45439156699210","target":"absent","response":"absent","rt":"6580","correct":true,"confidence":4},{"trial_n":104,"span":15,"encoder":"040176769025338","distractor":"140176769025338","target":"present","response":"present","rt":"2723","correct":true,"confidence":5},{"trial_n":105,"span":15,"encoder":"474473000432475","distractor":"474474000432475","target":"absent","response":"absent","rt":"4481","correct":true,"confidence":5},{"trial_n":106,"span":16,"encoder":"0414011302797425","distractor":"0414011302799425","target":"absent","response":"absent","rt":"8211","correct":true,"confidence":4},{"trial_n":107,"span":16,"encoder":"4762526608572031","distractor":"4762526608577031","target":"present","response":"absent","rt":"9831","correct":false,"confidence":3},{"trial_n":108,"span":15,"encoder":"192333489947803","distractor":"192333489947813","target":"present","response":"present","rt":"2764","correct":true,"confidence":5},{"trial_n":109,"span":15,"encoder":"098338153371583","distractor":"098338353371583","target":"absent","response":"absent","rt":"6195","correct":true,"confidence":4},{"trial_n":110,"span":16,"encoder":"0473221299677030","distractor":"0473521299677030","target":"absent","response":"present","rt":"6094","correct":false,"confidence":2},{"trial_n":111,"span":15,"encoder":"994305361639139","distractor":"994307361639139","target":"absent","response":"absent","rt":"4070","correct":true,"confidence":4},{"trial_n":112,"span":15,"encoder":"512356134554645","distractor":"512356133554645","target":"present","response":"present","rt":"7852","correct":true,"confidence":4},{"trial_n":113,"span":16,"encoder":"5158593018934821","distractor":"5158593078934821","target":"present","response":"present","rt":"5701","correct":true,"confidence":3},{"trial_n":114,"span":16,"encoder":"8202432245559193","distractor":"8202432245459193","target":"absent","response":"absent","rt":"9773","correct":true,"confidence":3},{"trial_n":115,"span":17,"encoder":"76540857110304664","distractor":"76540857110304604","target":"present","response":"present","rt":"11647","correct":true,"confidence":3},{"trial_n":116,"span":17,"encoder":"40408888969018469","distractor":"48408888969018469","target":"absent","response":"absent","rt":"11433","correct":true,"confidence":5},{"trial_n":117,"span":18,"encoder":"494013059761464281","distractor":"494013059761463281","target":"absent","response":"absent","rt":"8910","correct":true,"confidence":4},{"trial_n":118,"span":18,"encoder":"461648703366096762","distractor":"491648703366096762","target":"absent","response":"absent","rt":"6169","correct":true,"confidence":3},{"trial_n":119,"span":19,"encoder":"3803009376460751148","distractor":"3807009376460751148","target":"absent","response":"present","rt":"3533","correct":false,"confidence":5},{"trial_n":120,"span":18,"encoder":"809726724698602868","distractor":"809726724698602828","target":"present","response":"present","rt":"10194","correct":true,"confidence":4},{"trial_n":121,"span":18,"encoder":"538476897763268751","distractor":"538476897764268751","target":"present","response":"absent","rt":"5625","correct":false,"confidence":5},{"trial_n":122,"span":17,"encoder":"38576423409044279","distractor":"38576423489044279","target":"absent","response":"present","rt":"7363","correct":false,"confidence":3},{"trial_n":123,"span":16,"encoder":"1595360006115111","distractor":"1595360006115112","target":"absent","response":"absent","rt":"1796","correct":true,"confidence":5},{"trial_n":124,"span":16,"encoder":"1533788797061240","distractor":"1533788737061240","target":"present","response":"absent","rt":"9066","correct":false,"confidence":2},{"trial_n":125,"span":15,"encoder":"392486310561953","distractor":"392486310567953","target":"absent","response":"absent","rt":"4965","correct":true,"confidence":5},{"trial_n":126,"span":15,"encoder":"040490873674495","distractor":"060490873674495","target":"present","response":"present","rt":"1677","correct":true,"confidence":5},{"trial_n":127,"span":16,"encoder":"1970292447275430","distractor":"4970292447275430","target":"present","response":"present","rt":"2024","correct":true,"confidence":4},{"trial_n":128,"span":16,"encoder":"0773855278411791","distractor":"0773855278417791","target":"present","response":"absent","rt":"11558","correct":false,"confidence":3},{"trial_n":129,"span":15,"encoder":"242148112169160","distractor":"242148111169160","target":"absent","response":"absent","rt":"4958","correct":true,"confidence":4},{"trial_n":130,"span":15,"encoder":"644702965392112","distractor":"644702935392112","target":"present","response":"present","rt":"8295","correct":true,"confidence":3},{"trial_n":131,"span":16,"encoder":"4882238014077137","distractor":"4882218014077137","target":"absent","response":"absent","rt":"8340","correct":true,"confidence":4},{"trial_n":132,"span":16,"encoder":"9037511364275891","distractor":"9037511365275891","target":"absent","response":"absent","rt":"6093","correct":true,"confidence":4},{"trial_n":133,"span":17,"encoder":"45299378822299234","distractor":"45299378823299234","target":"absent","response":"present","rt":"7734","correct":false,"confidence":3},{"trial_n":134,"span":16,"encoder":"3427271105080017","distractor":"3427271102080017","target":"present","response":"absent","rt":"5465","correct":false,"confidence":4},{"trial_n":135,"span":15,"encoder":"590283601076556","distractor":"590283401076556","target":"absent","response":"present","rt":"5833","correct":false,"confidence":3},{"trial_n":136,"span":14,"encoder":"19781058995725","distractor":"19781658995725","target":"present","response":"present","rt":"3988","correct":true,"confidence":4},{"trial_n":137,"span":14,"encoder":"56054086074125","distractor":"56054086084125","target":"absent","response":"present","rt":"8575","correct":false,"confidence":2},{"trial_n":138,"span":13,"encoder":"9202255019613","distractor":"9202255019813","target":"present","response":"present","rt":"2276","correct":true,"confidence":5},{"trial_n":139,"span":13,"encoder":"4788059056498","distractor":"4788059086498","target":"absent","response":"absent","rt":"22908","correct":true,"confidence":2},{"trial_n":140,"span":14,"encoder":"08796453154329","distractor":"02796453154329","target":"absent","response":"absent","rt":"4012","correct":true,"confidence":5}]