[{"trial_n":1,"n_dots":4.25,"target":"left","response":"left","rt":2774,"correct":true,"confidence":-1},{"trial_n":2,"n_dots":4.25,"target":"right","response":"right","rt":726,"correct":true,"confidence":-1},{"trial_n":3,"n_dots":3.85,"target":"right","response":"right","rt":575,"correct":true,"confidence":-1},{"trial_n":4,"n_dots":3.85,"target":"left","response":"left","rt":899,"correct":true,"confidence":-1},{"trial_n":5,"n_dots":3.45,"target":"left","response":"right","rt":576,"correct":false,"confidence":-1},{"trial_n":6,"n_dots":3.85,"target":"right","response":"right","rt":478,"correct":true,"confidence":-1},{"trial_n":7,"n_dots":3.85,"target":"left","response":"left","rt":587,"correct":true,"confidence":-1},{"trial_n":8,"n_dots":3.65,"target":"left","response":"left","rt":550,"correct":true,"confidence":-1},{"trial_n":9,"n_dots":3.65,"target":"left","response":"right","rt":577,"correct":false,"confidence":-1},{"trial_n":10,"n_dots":3.85,"target":"left","response":"left","rt":107,"correct":true,"confidence":-1},{"trial_n":11,"n_dots":3.85,"target":"right","response":"right","rt":442,"correct":true,"confidence":-1},{"trial_n":12,"n_dots":3.65,"target":"left","response":"left","rt":450,"correct":true,"confidence":-1},{"trial_n":13,"n_dots":3.65,"target":"left","response":"left","rt":382,"correct":true,"confidence":-1},{"trial_n":14,"n_dots":3.55,"target":"right","response":"right","rt":158,"correct":true,"confidence":-1},{"trial_n":15,"n_dots":3.55,"target":"right","response":"right","rt":293,"correct":true,"confidence":-1},{"trial_n":16,"n_dots":3.45,"target":"left","response":"left","rt":189,"correct":true,"confidence":-1},{"trial_n":17,"n_dots":3.45,"target":"left","response":"left","rt":927,"correct":true,"confidence":-1},{"trial_n":18,"n_dots":3.35,"target":"right","response":"right","rt":585,"correct":true,"confidence":-1},{"trial_n":19,"n_dots":3.35,"target":"left","response":"left","rt":610,"correct":true,"confidence":-1},{"trial_n":20,"n_dots":3.25,"target":"right","response":"right","rt":442,"correct":true,"confidence":-1},{"trial_n":21,"n_dots":3.25,"target":"right","response":"right","rt":438,"correct":true,"confidence":4},{"trial_n":22,"n_dots":3.15,"target":"right","response":"right","rt":520,"correct":true,"confidence":4},{"trial_n":23,"n_dots":3.15,"target":"right","response":"right","rt":549,"correct":true,"confidence":5},{"trial_n":24,"n_dots":3.05,"target":"right","response":"right","rt":590,"correct":true,"confidence":4},{"trial_n":25,"n_dots":3.05,"target":"right","response":"right","rt":638,"correct":true,"confidence":5},{"trial_n":26,"n_dots":2.95,"target":"right","response":"left","rt":1886,"correct":false,"confidence":2},{"trial_n":27,"n_dots":3.05,"target":"right","response":"right","rt":712,"correct":true,"confidence":3},{"trial_n":28,"n_dots":3.05,"target":"left","response":"right","rt":823,"correct":false,"confidence":3},{"trial_n":29,"n_dots":3.15,"target":"right","response":"right","rt":913,"correct":true,"confidence":3},{"trial_n":30,"n_dots":3.15,"target":"left","response":"left","rt":792,"correct":true,"confidence":4},{"trial_n":31,"n_dots":3.05,"target":"right","response":"right","rt":3331,"correct":true,"confidence":2},{"trial_n":32,"n_dots":3.05,"target":"left","response":"left","rt":561,"correct":true,"confidence":4},{"trial_n":33,"n_dots":2.95,"target":"right","response":"right","rt":673,"correct":true,"confidence":4},{"trial_n":34,"n_dots":2.95,"target":"left","response":"left","rt":696,"correct":true,"confidence":4},{"trial_n":35,"n_dots":2.85,"target":"right","response":"right","rt":516,"correct":true,"confidence":4},{"trial_n":36,"n_dots":2.85,"target":"left","response":"left","rt":605,"correct":true,"confidence":5},{"trial_n":37,"n_dots":2.75,"target":"left","response":"left","rt":579,"correct":true,"confidence":3},{"trial_n":38,"n_dots":2.75,"target":"left","response":"left","rt":393,"correct":true,"confidence":5},{"trial_n":39,"n_dots":2.65,"target":"right","response":"left","rt":917,"correct":false,"confidence":3},{"trial_n":40,"n_dots":2.75,"target":"right","response":"left","rt":609,"correct":false,"confidence":4},{"trial_n":41,"n_dots":2.85,"target":"right","response":"right","rt":2048,"correct":true,"confidence":3},{"trial_n":42,"n_dots":2.85,"target":"right","response":"right","rt":726,"correct":true,"confidence":5},{"trial_n":43,"n_dots":2.75,"target":"right","response":"right","rt":918,"correct":true,"confidence":4},{"trial_n":44,"n_dots":2.75,"target":"left","response":"left","rt":577,"correct":true,"confidence":3},{"trial_n":45,"n_dots":2.65,"target":"left","response":"left","rt":727,"correct":true,"confidence":5},{"trial_n":46,"n_dots":2.65,"target":"right","response":"left","rt":630,"correct":false,"confidence":5},{"trial_n":47,"n_dots":2.75,"target":"right","response":"left","rt":983,"correct":false,"confidence":3},{"trial_n":48,"n_dots":2.85,"target":"left","response":"left","rt":540,"correct":true,"confidence":3},{"trial_n":49,"n_dots":2.85,"target":"right","response":"left","rt":2976,"correct":false,"confidence":3},{"trial_n":50,"n_dots":2.95,"target":"right","response":"right","rt":782,"correct":true,"confidence":3},{"trial_n":51,"n_dots":2.95,"target":"left","response":"left","rt":412,"correct":true,"confidence":5},{"trial_n":52,"n_dots":2.85,"target":"left","response":"left","rt":475,"correct":true,"confidence":4},{"trial_n":53,"n_dots":2.85,"target":"left","response":"right","rt":2061,"correct":false,"confidence":3},{"trial_n":54,"n_dots":2.95,"target":"left","response":"left","rt":565,"correct":true,"confidence":4},{"trial_n":55,"n_dots":2.95,"target":"right","response":"right","rt":564,"correct":true,"confidence":4},{"trial_n":56,"n_dots":2.85,"target":"right","response":"right","rt":441,"correct":true,"confidence":4},{"trial_n":57,"n_dots":2.85,"target":"left","response":"right","rt":1290,"correct":false,"confidence":2},{"trial_n":58,"n_dots":2.95,"target":"right","response":"right","rt":631,"correct":true,"confidence":3},{"trial_n":59,"n_dots":2.95,"target":"right","response":"left","rt":537,"correct":false,"confidence":3},{"trial_n":60,"n_dots":3.05,"target":"right","response":"right","rt":503,"correct":true,"confidence":4},{"trial_n":61,"n_dots":3.05,"target":"right","response":"right","rt":577,"correct":true,"confidence":4},{"trial_n":62,"n_dots":2.95,"target":"left","response":"right","rt":816,"correct":false,"confidence":3},{"trial_n":63,"n_dots":3.05,"target":"right","response":"right","rt":642,"correct":true,"confidence":3},{"trial_n":64,"n_dots":3.05,"target":"left","response":"left","rt":1051,"correct":true,"confidence":2},{"trial_n":65,"n_dots":2.95,"target":"left","response":"left","rt":497,"correct":true,"confidence":3},{"trial_n":66,"n_dots":2.95,"target":"right","response":"right","rt":594,"correct":true,"confidence":4},{"trial_n":67,"n_dots":2.85,"target":"right","response":"left","rt":641,"correct":false,"confidence":3},{"trial_n":68,"n_dots":2.95,"target":"right","response":"right","rt":639,"correct":true,"confidence":4},{"trial_n":69,"n_dots":2.95,"target":"left","response":"right","rt":857,"correct":false,"confidence":3},{"trial_n":70,"n_dots":3.05,"target":"left","response":"left","rt":910,"correct":true,"confidence":2},{"trial_n":71,"n_dots":3.05,"target":"right","response":"right","rt":583,"correct":true,"confidence":3},{"trial_n":72,"n_dots":2.95,"target":"left","response":"left","rt":478,"correct":true,"confidence":4},{"trial_n":73,"n_dots":2.95,"target":"left","response":"left","rt":1201,"correct":true,"confidence":2},{"trial_n":74,"n_dots":2.85,"target":"right","response":"left","rt":846,"correct":false,"confidence":2},{"trial_n":75,"n_dots":2.95,"target":"left","response":"left","rt":907,"correct":true,"confidence":2},{"trial_n":76,"n_dots":2.95,"target":"left","response":"left","rt":755,"correct":true,"confidence":3},{"trial_n":77,"n_dots":2.85,"target":"left","response":"right","rt":605,"correct":false,"confidence":3},{"trial_n":78,"n_dots":2.95,"target":"right","response":"right","rt":985,"correct":true,"confidence":3},{"trial_n":79,"n_dots":2.95,"target":"right","response":"right","rt":684,"correct":true,"confidence":3},{"trial_n":80,"n_dots":2.85,"target":"left","response":"right","rt":639,"correct":false,"confidence":3},{"trial_n":81,"n_dots":2.95,"target":"right","response":"left","rt":1789,"correct":false,"confidence":3},{"trial_n":82,"n_dots":3.05,"target":"left","response":"right","rt":933,"correct":false,"confidence":5},{"trial_n":83,"n_dots":3.15,"target":"left","response":"left","rt":968,"correct":true,"confidence":5},{"trial_n":84,"n_dots":3.15,"target":"right","response":"right","rt":508,"correct":true,"confidence":4},{"trial_n":85,"n_dots":3.05,"target":"right","response":"right","rt":677,"correct":true,"confidence":4},{"trial_n":86,"n_dots":3.05,"target":"right","response":"right","rt":527,"correct":true,"confidence":4},{"trial_n":87,"n_dots":2.95,"target":"right","response":"right","rt":672,"correct":true,"confidence":4},{"trial_n":88,"n_dots":2.95,"target":"right","response":"left","rt":1038,"correct":false,"confidence":4},{"trial_n":89,"n_dots":3.05,"target":"right","response":"right","rt":749,"correct":true,"confidence":3},{"trial_n":90,"n_dots":3.05,"target":"left","response":"left","rt":808,"correct":true,"confidence":3},{"trial_n":91,"n_dots":2.95,"target":"right","response":"right","rt":687,"correct":true,"confidence":4},{"trial_n":92,"n_dots":2.95,"target":"left","response":"left","rt":928,"correct":true,"confidence":2},{"trial_n":93,"n_dots":2.85,"target":"left","response":"right","rt":542,"correct":false,"confidence":3},{"trial_n":94,"n_dots":2.95,"target":"left","response":"left","rt":292,"correct":true,"confidence":4},{"trial_n":95,"n_dots":2.95,"target":"left","response":"left","rt":394,"correct":true,"confidence":4},{"trial_n":96,"n_dots":2.85,"target":"left","response":"left","rt":430,"correct":true,"confidence":3},{"trial_n":97,"n_dots":2.85,"target":"right","response":"right","rt":468,"correct":true,"confidence":4},{"trial_n":98,"n_dots":2.75,"target":"right","response":"right","rt":208,"correct":true,"confidence":4},{"trial_n":99,"n_dots":2.75,"target":"right","response":"left","rt":1640,"correct":false,"confidence":2},{"trial_n":100,"n_dots":2.85,"target":"left","response":"left","rt":240,"correct":true,"confidence":3},{"trial_n":101,"n_dots":2.85,"target":"left","response":"left","rt":438,"correct":true,"confidence":4},{"trial_n":102,"n_dots":2.75,"target":"left","response":"left","rt":427,"correct":true,"confidence":2},{"trial_n":103,"n_dots":2.75,"target":"left","response":"right","rt":538,"correct":false,"confidence":2},{"trial_n":104,"n_dots":2.85,"target":"left","response":"left","rt":364,"correct":true,"confidence":3},{"trial_n":105,"n_dots":2.85,"target":"left","response":"left","rt":1893,"correct":true,"confidence":2},{"trial_n":106,"n_dots":2.75,"target":"left","response":"left","rt":390,"correct":true,"confidence":4},{"trial_n":107,"n_dots":2.75,"target":"left","response":"right","rt":433,"correct":false,"confidence":4},{"trial_n":108,"n_dots":2.85,"target":"left","response":"left","rt":498,"correct":true,"confidence":3},{"trial_n":109,"n_dots":2.85,"target":"left","response":"left","rt":383,"correct":true,"confidence":3},{"trial_n":110,"n_dots":2.75,"target":"right","response":"left","rt":642,"correct":false,"confidence":2},{"trial_n":111,"n_dots":2.85,"target":"right","response":"right","rt":492,"correct":true,"confidence":3},{"trial_n":112,"n_dots":2.85,"target":"right","response":"left","rt":154,"correct":false,"confidence":3},{"trial_n":113,"n_dots":2.95,"target":"right","response":"right","rt":759,"correct":true,"confidence":2},{"trial_n":114,"n_dots":2.95,"target":"right","response":"left","rt":406,"correct":false,"confidence":2},{"trial_n":115,"n_dots":3.05,"target":"left","response":"left","rt":1461,"correct":true,"confidence":1},{"trial_n":116,"n_dots":3.05,"target":"right","response":"right","rt":869,"correct":true,"confidence":2},{"trial_n":117,"n_dots":2.95,"target":"left","response":"left","rt":444,"correct":true,"confidence":3},{"trial_n":118,"n_dots":2.95,"target":"left","response":"right","rt":519,"correct":false,"confidence":3},{"trial_n":119,"n_dots":3.05,"target":"right","response":"right","rt":104,"correct":true,"confidence":3},{"trial_n":120,"n_dots":3.05,"target":"left","response":"left","rt":412,"correct":true,"confidence":4}]