[{"trial_n":1,"span":8,"encoder":"41622826","distractor":"41422826","target":"present","response":"present","rt":"5018.1000000238","correct":true,"confidence":-1},{"trial_n":2,"span":8,"encoder":"06811698","distractor":"06811688","target":"present","response":"present","rt":"1944.7000000477","correct":true,"confidence":-1},{"trial_n":3,"span":10,"encoder":"7958453898","distractor":"7958453897","target":"absent","response":"absent","rt":"1282.2000000477","correct":true,"confidence":-1},{"trial_n":4,"span":10,"encoder":"1056227026","distractor":"1056247026","target":"absent","response":"absent","rt":"1307.8000000715","correct":true,"confidence":-1},{"trial_n":5,"span":12,"encoder":"175148254054","distractor":"175148234054","target":"present","response":"present","rt":"1401.2000000477","correct":true,"confidence":-1},{"trial_n":6,"span":12,"encoder":"823953180374","distractor":"823953180074","target":"present","response":"present","rt":"1162.8999999762","correct":true,"confidence":-1},{"trial_n":7,"span":14,"encoder":"45270187030472","distractor":"41270187030472","target":"present","response":"present","rt":"1537.2999999523","correct":true,"confidence":-1},{"trial_n":8,"span":14,"encoder":"51547621740283","distractor":"51547221740283","target":"absent","response":"present","rt":"1155.8000000715","correct":false,"confidence":-1},{"trial_n":9,"span":12,"encoder":"832283069765","distractor":"832983069765","target":"present","response":"absent","rt":"37938.100000024","correct":false,"confidence":-1},{"trial_n":10,"span":10,"encoder":"8733071027","distractor":"8733071227","target":"present","response":"present","rt":"1424.7999999523","correct":true,"confidence":-1},{"trial_n":11,"span":10,"encoder":"3123295928","distractor":"3123595928","target":"absent","response":"present","rt":"1899.1000000238","correct":false,"confidence":-1},{"trial_n":12,"span":9,"encoder":"667818943","distractor":"666818943","target":"absent","response":"absent","rt":"1403.3999999762","correct":true,"confidence":-1},{"trial_n":13,"span":9,"encoder":"247053525","distractor":"247055525","target":"present","response":"present","rt":"948.69999992847","correct":true,"confidence":-1},{"trial_n":14,"span":10,"encoder":"4535365179","distractor":"4535365178","target":"present","response":"present","rt":"1010","correct":true,"confidence":-1},{"trial_n":15,"span":10,"encoder":"8746272216","distractor":"8746272266","target":"present","response":"present","rt":"1158.0999999046","correct":true,"confidence":-1},{"trial_n":16,"span":11,"encoder":"82741605020","distractor":"82741608020","target":"absent","response":"present","rt":"1351.1000000238","correct":false,"confidence":-1},{"trial_n":17,"span":10,"encoder":"5733699896","distractor":"7733699896","target":"absent","response":"present","rt":"1270.2000000477","correct":false,"confidence":-1},{"trial_n":18,"span":9,"encoder":"734080307","distractor":"934080307","target":"present","response":"present","rt":"1010.8999999762","correct":true,"confidence":-1},{"trial_n":19,"span":9,"encoder":"276567261","distractor":"776567261","target":"absent","response":"present","rt":"2436.7000000477","correct":false,"confidence":-1},{"trial_n":20,"span":8,"encoder":"51100407","distractor":"51100007","target":"absent","response":"absent","rt":"1003","correct":true,"confidence":-1},{"trial_n":21,"span":8,"encoder":"87824599","distractor":"87824593","target":"present","response":"present","rt":"1813.6000000238","correct":true,"confidence":5},{"trial_n":22,"span":9,"encoder":"888463500","distractor":"868463500","target":"present","response":"present","rt":"1466.8999999762","correct":true,"confidence":4},{"trial_n":23,"span":9,"encoder":"380305115","distractor":"380365115","target":"absent","response":"absent","rt":"4099.6000000238","correct":true,"confidence":3},{"trial_n":24,"span":10,"encoder":"8442397926","distractor":"8442392926","target":"present","response":"present","rt":"1895.7000000477","correct":true,"confidence":3},{"trial_n":25,"span":10,"encoder":"8846023657","distractor":"8846723657","target":"absent","response":"absent","rt":"2758.2999999523","correct":true,"confidence":4},{"trial_n":26,"span":11,"encoder":"29690942007","distractor":"29690943007","target":"present","response":"absent","rt":"55428.300000072","correct":false,"confidence":1},{"trial_n":27,"span":10,"encoder":"5203570242","distractor":"5243570242","target":"present","response":"present","rt":"1512.1000000238","correct":true,"confidence":4},{"trial_n":28,"span":10,"encoder":"8681561717","distractor":"8681561757","target":"absent","response":"absent","rt":"2121.3000000715","correct":true,"confidence":3},{"trial_n":29,"span":11,"encoder":"50239816151","distractor":"56239816151","target":"present","response":"present","rt":"3207.6999999285","correct":true,"confidence":3},{"trial_n":30,"span":11,"encoder":"81308147710","distractor":"81308147720","target":"absent","response":"absent","rt":"1754.3999999762","correct":true,"confidence":5},{"trial_n":31,"span":12,"encoder":"213421544083","distractor":"213421544043","target":"absent","response":"absent","rt":"2271.6000000238","correct":true,"confidence":5},{"trial_n":32,"span":12,"encoder":"791508634861","distractor":"791508634891","target":"absent","response":"absent","rt":"2200.6000000238","correct":true,"confidence":4},{"trial_n":33,"span":13,"encoder":"6506935379329","distractor":"6506935379339","target":"present","response":"present","rt":"2253","correct":true,"confidence":4},{"trial_n":34,"span":13,"encoder":"8279051963674","distractor":"8279051963774","target":"absent","response":"absent","rt":"2768.6000000238","correct":true,"confidence":3},{"trial_n":35,"span":14,"encoder":"25732391121049","distractor":"25732391121029","target":"absent","response":"present","rt":"2234.5","correct":false,"confidence":3},{"trial_n":36,"span":13,"encoder":"9839792189756","distractor":"9839792189755","target":"absent","response":"absent","rt":"1479.1000000238","correct":true,"confidence":5},{"trial_n":37,"span":13,"encoder":"1475957868374","distractor":"1475957868174","target":"present","response":"present","rt":"1330.5","correct":true,"confidence":3},{"trial_n":38,"span":14,"encoder":"25173880091767","distractor":"25172880091767","target":"present","response":"present","rt":"1731.8999999762","correct":true,"confidence":3},{"trial_n":39,"span":14,"encoder":"19194652419827","distractor":"19194652429827","target":"absent","response":"present","rt":"1488","correct":false,"confidence":3},{"trial_n":40,"span":13,"encoder":"2653579858670","distractor":"2653574858670","target":"present","response":"present","rt":"1356.5","correct":true,"confidence":4},{"trial_n":41,"span":13,"encoder":"5705459566703","distractor":"5305459566703","target":"absent","response":"present","rt":"1785.3000000715","correct":false,"confidence":3},{"trial_n":42,"span":12,"encoder":"786940745699","distractor":"786940745639","target":"present","response":"present","rt":"1468","correct":true,"confidence":3},{"trial_n":43,"span":12,"encoder":"254972683614","distractor":"254972689614","target":"absent","response":"present","rt":"1252","correct":false,"confidence":3},{"trial_n":44,"span":11,"encoder":"02990728732","distractor":"02990718732","target":"absent","response":"present","rt":"1473.1999999285","correct":false,"confidence":4},{"trial_n":45,"span":10,"encoder":"3190976343","distractor":"3190976323","target":"present","response":"present","rt":"1584.9000000954","correct":true,"confidence":5},{"trial_n":46,"span":10,"encoder":"1593986301","distractor":"1593986351","target":"present","response":"absent","rt":"2285.5","correct":false,"confidence":1},{"trial_n":47,"span":9,"encoder":"981671403","distractor":"981771403","target":"absent","response":"present","rt":"1663.8999999762","correct":false,"confidence":3},{"trial_n":48,"span":8,"encoder":"49869959","distractor":"49829959","target":"present","response":"present","rt":"1431","correct":true,"confidence":4},{"trial_n":49,"span":8,"encoder":"08723532","distractor":"08783532","target":"absent","response":"present","rt":"4963.8999999762","correct":false,"confidence":3},{"trial_n":50,"span":7,"encoder":"6354779","distractor":"6354769","target":"present","response":"present","rt":"1092.7000000477","correct":true,"confidence":5},{"trial_n":51,"span":7,"encoder":"7243708","distractor":"7240708","target":"absent","response":"present","rt":"1283.6000000238","correct":false,"confidence":4},{"trial_n":52,"span":6,"encoder":"888435","distractor":"788435","target":"absent","response":"absent","rt":"1206.2000000477","correct":true,"confidence":5},{"trial_n":53,"span":6,"encoder":"175384","distractor":"175386","target":"absent","response":"absent","rt":"1434.9000000954","correct":true,"confidence":5},{"trial_n":54,"span":7,"encoder":"5485251","distractor":"5415251","target":"absent","response":"absent","rt":"2056.5","correct":true,"confidence":3},{"trial_n":55,"span":7,"encoder":"1532751","distractor":"3532751","target":"absent","response":"absent","rt":"1771.7999999523","correct":true,"confidence":4},{"trial_n":56,"span":8,"encoder":"52955079","distractor":"52955029","target":"present","response":"present","rt":"1793.1000000238","correct":true,"confidence":5},{"trial_n":57,"span":8,"encoder":"47618325","distractor":"47698325","target":"present","response":"present","rt":"2381.0999999046","correct":true,"confidence":4},{"trial_n":58,"span":9,"encoder":"358446372","distractor":"658446372","target":"absent","response":"present","rt":"1405.3999999762","correct":false,"confidence":5},{"trial_n":59,"span":8,"encoder":"91751267","distractor":"91753267","target":"absent","response":"present","rt":"3105.3999999762","correct":false,"confidence":3},{"trial_n":60,"span":7,"encoder":"1608056","distractor":"1908056","target":"present","response":"present","rt":"1136.7000000477","correct":true,"confidence":4},{"trial_n":61,"span":7,"encoder":"9107229","distractor":"9107226","target":"present","response":"present","rt":"1332.8999999762","correct":true,"confidence":4},{"trial_n":62,"span":8,"encoder":"64616337","distractor":"67616337","target":"present","response":"present","rt":"1134.7999999523","correct":true,"confidence":3},{"trial_n":63,"span":8,"encoder":"57860640","distractor":"57860440","target":"absent","response":"absent","rt":"1580.8999999762","correct":true,"confidence":4},{"trial_n":64,"span":9,"encoder":"237939754","distractor":"235939754","target":"absent","response":"present","rt":"1944.2999999523","correct":false,"confidence":3},{"trial_n":65,"span":8,"encoder":"55698540","distractor":"55398540","target":"absent","response":"present","rt":"1033.3000000715","correct":false,"confidence":4},{"trial_n":66,"span":7,"encoder":"2209169","distractor":"9209169","target":"present","response":"present","rt":"1195.7000000477","correct":true,"confidence":5},{"trial_n":67,"span":7,"encoder":"2886705","distractor":"2806705","target":"present","response":"present","rt":"2998.6999999285","correct":true,"confidence":3},{"trial_n":68,"span":8,"encoder":"66312950","distractor":"66312150","target":"present","response":"present","rt":"1704","correct":true,"confidence":5},{"trial_n":69,"span":8,"encoder":"40098321","distractor":"80098321","target":"present","response":"present","rt":"1102","correct":true,"confidence":5},{"trial_n":70,"span":9,"encoder":"672266800","distractor":"672266820","target":"present","response":"present","rt":"1380.0999999046","correct":true,"confidence":5},{"trial_n":71,"span":8,"encoder":"60539817","distractor":"60589817","target":"present","response":"present","rt":"4486.8000000715","correct":true,"confidence":-1},{"trial_n":72,"span":8,"encoder":"62228382","distractor":"62728382","target":"present","response":"present","rt":"1272.2000000477","correct":true,"confidence":-1},{"trial_n":73,"span":9,"encoder":"123487307","distractor":"123487301","target":"absent","response":"absent","rt":"1828.2000000477","correct":true,"confidence":-1},{"trial_n":74,"span":9,"encoder":"405031507","distractor":"405631507","target":"absent","response":"absent","rt":"2536.8999999762","correct":true,"confidence":-1},{"trial_n":75,"span":10,"encoder":"4311732501","distractor":"4311732502","target":"present","response":"present","rt":"1307.6000000238","correct":true,"confidence":-1},{"trial_n":76,"span":10,"encoder":"9097456133","distractor":"9097455133","target":"absent","response":"present","rt":"4502.1000000238","correct":false,"confidence":-1},{"trial_n":77,"span":9,"encoder":"403481673","distractor":"403481675","target":"present","response":"present","rt":"1519.1999999285","correct":true,"confidence":-1},{"trial_n":78,"span":9,"encoder":"912849297","distractor":"912849287","target":"absent","response":"absent","rt":"2324.2999999523","correct":true,"confidence":-1},{"trial_n":79,"span":10,"encoder":"5009272640","distractor":"5009232640","target":"present","response":"present","rt":"3798.5","correct":true,"confidence":-1},{"trial_n":80,"span":10,"encoder":"7675124762","distractor":"7679124762","target":"present","response":"absent","rt":"4240.8999999762","correct":false,"confidence":-1},{"trial_n":81,"span":9,"encoder":"664942624","distractor":"663942624","target":"absent","response":"present","rt":"2918.6000000238","correct":false,"confidence":-1},{"trial_n":82,"span":8,"encoder":"06261456","distractor":"06261356","target":"present","response":"present","rt":"1787.1000000238","correct":true,"confidence":-1},{"trial_n":83,"span":8,"encoder":"75903053","distractor":"15903053","target":"absent","response":"absent","rt":"2137","correct":true,"confidence":-1},{"trial_n":84,"span":9,"encoder":"062631460","distractor":"061631460","target":"present","response":"present","rt":"4000","correct":true,"confidence":-1},{"trial_n":85,"span":9,"encoder":"887235632","distractor":"887935632","target":"present","response":"absent","rt":"2229.3999999762","correct":false,"confidence":-1},{"trial_n":86,"span":8,"encoder":"76145094","distractor":"76545094","target":"present","response":"present","rt":"1794.9000000954","correct":true,"confidence":-1},{"trial_n":87,"span":8,"encoder":"72436306","distractor":"72456306","target":"absent","response":"absent","rt":"2759.6000000238","correct":true,"confidence":-1},{"trial_n":88,"span":9,"encoder":"111370509","distractor":"111371509","target":"present","response":"present","rt":"2730.1000000238","correct":true,"confidence":-1},{"trial_n":89,"span":9,"encoder":"397384450","distractor":"387384450","target":"present","response":"absent","rt":"2879.5999999046","correct":false,"confidence":-1},{"trial_n":90,"span":8,"encoder":"75056322","distractor":"75856322","target":"present","response":"present","rt":"3574.2999999523","correct":true,"confidence":-1},{"trial_n":91,"span":8,"encoder":"96372278","distractor":"96272278","target":"present","response":"absent","rt":"2259","correct":false,"confidence":2},{"trial_n":92,"span":7,"encoder":"1781012","distractor":"1781042","target":"absent","response":"absent","rt":"1240.8000000715","correct":true,"confidence":5},{"trial_n":93,"span":7,"encoder":"7147223","distractor":"7147220","target":"absent","response":"absent","rt":"1468.6000000238","correct":true,"confidence":5},{"trial_n":94,"span":8,"encoder":"63591183","distractor":"23591183","target":"present","response":"present","rt":"2280.9000000954","correct":true,"confidence":3},{"trial_n":95,"span":8,"encoder":"85688989","distractor":"80688989","target":"absent","response":"present","rt":"1495.3999999762","correct":false,"confidence":4},{"trial_n":96,"span":7,"encoder":"7156904","distractor":"7156908","target":"present","response":"present","rt":"1429.4000000954","correct":true,"confidence":5},{"trial_n":97,"span":7,"encoder":"4503731","distractor":"4504731","target":"absent","response":"absent","rt":"1809.0999999046","correct":true,"confidence":4},{"trial_n":98,"span":8,"encoder":"13396606","distractor":"13696606","target":"present","response":"present","rt":"2949.7999999523","correct":true,"confidence":3},{"trial_n":99,"span":8,"encoder":"99639551","distractor":"89639551","target":"present","response":"present","rt":"4385.3000000715","correct":true,"confidence":1},{"trial_n":100,"span":9,"encoder":"562614722","distractor":"562644722","target":"present","response":"present","rt":"2660.3999999762","correct":true,"confidence":2},{"trial_n":101,"span":9,"encoder":"338718464","distractor":"338718764","target":"present","response":"present","rt":"5788.1000000238","correct":true,"confidence":4},{"trial_n":102,"span":10,"encoder":"0676120930","distractor":"0676110930","target":"absent","response":"absent","rt":"3280","correct":true,"confidence":3},{"trial_n":103,"span":10,"encoder":"7322869544","distractor":"7324869544","target":"absent","response":"absent","rt":"4021.2000000477","correct":true,"confidence":3},{"trial_n":104,"span":11,"encoder":"14768663564","distractor":"12768663564","target":"absent","response":"absent","rt":"3583.8999999762","correct":true,"confidence":2},{"trial_n":105,"span":11,"encoder":"54632227559","distractor":"54634227559","target":"present","response":"present","rt":"1716.7000000477","correct":true,"confidence":5},{"trial_n":106,"span":12,"encoder":"903229031593","distractor":"903229011593","target":"present","response":"present","rt":"2065.1999999285","correct":true,"confidence":1},{"trial_n":107,"span":12,"encoder":"951524078089","distractor":"951524088089","target":"present","response":"present","rt":"2210.2000000477","correct":true,"confidence":2},{"trial_n":108,"span":13,"encoder":"5897638029307","distractor":"5897636029307","target":"present","response":"present","rt":"4181.6000000238","correct":true,"confidence":1},{"trial_n":109,"span":13,"encoder":"2915599990855","distractor":"2915539990855","target":"present","response":"present","rt":"1925.3999999762","correct":true,"confidence":4},{"trial_n":110,"span":14,"encoder":"38170131088802","distractor":"38170131089802","target":"present","response":"present","rt":"1779.3000000715","correct":true,"confidence":5},{"trial_n":111,"span":14,"encoder":"18468519888764","distractor":"18468519885764","target":"absent","response":"absent","rt":"3400.3000000715","correct":true,"confidence":4},{"trial_n":112,"span":15,"encoder":"304288559605449","distractor":"604288559605449","target":"present","response":"absent","rt":"4741.7000000477","correct":false,"confidence":3},{"trial_n":113,"span":14,"encoder":"70375617273399","distractor":"70375617273369","target":"absent","response":"absent","rt":"4743.5","correct":true,"confidence":1},{"trial_n":114,"span":14,"encoder":"00754212294338","distractor":"00954212294338","target":"absent","response":"present","rt":"3405.5","correct":false,"confidence":2},{"trial_n":115,"span":13,"encoder":"2275776379695","distractor":"2271776379695","target":"absent","response":"absent","rt":"4943.7000000477","correct":true,"confidence":2},{"trial_n":116,"span":13,"encoder":"8540823218109","distractor":"8520823218109","target":"present","response":"absent","rt":"3477.3999999762","correct":false,"confidence":2},{"trial_n":117,"span":12,"encoder":"165184029725","distractor":"115184029725","target":"absent","response":"present","rt":"3121","correct":false,"confidence":3},{"trial_n":118,"span":11,"encoder":"82412575321","distractor":"82412578321","target":"present","response":"present","rt":"3696","correct":true,"confidence":4},{"trial_n":119,"span":11,"encoder":"40977758306","distractor":"40977758308","target":"absent","response":"absent","rt":"2325.3999999762","correct":true,"confidence":5},{"trial_n":120,"span":12,"encoder":"035971091239","distractor":"035971091259","target":"present","response":"present","rt":"1493.2000000477","correct":true,"confidence":5},{"trial_n":121,"span":12,"encoder":"407734976287","distractor":"407734970287","target":"present","response":"present","rt":"2344.8000000715","correct":true,"confidence":4},{"trial_n":122,"span":13,"encoder":"0163948212474","distractor":"0169948212474","target":"present","response":"present","rt":"4794.5","correct":true,"confidence":4},{"trial_n":123,"span":13,"encoder":"2691411692870","distractor":"2611411692870","target":"absent","response":"present","rt":"4026.8000000715","correct":false,"confidence":4},{"trial_n":124,"span":12,"encoder":"585756232823","distractor":"585756292823","target":"absent","response":"absent","rt":"4406.5","correct":true,"confidence":1},{"trial_n":125,"span":12,"encoder":"847734935546","distractor":"840734935546","target":"absent","response":"absent","rt":"3285.1000000238","correct":true,"confidence":3},{"trial_n":126,"span":13,"encoder":"2198199771267","distractor":"2193199771267","target":"absent","response":"absent","rt":"4108.6000000238","correct":true,"confidence":3},{"trial_n":127,"span":13,"encoder":"8678863024485","distractor":"8678863024085","target":"absent","response":"absent","rt":"3111.6999999285","correct":true,"confidence":4},{"trial_n":128,"span":14,"encoder":"49331597812290","distractor":"49337597812290","target":"absent","response":"absent","rt":"4819.2000000477","correct":true,"confidence":4},{"trial_n":129,"span":14,"encoder":"97732806638416","distractor":"97732806637416","target":"present","response":"present","rt":"2333.8999999762","correct":true,"confidence":3},{"trial_n":130,"span":15,"encoder":"848561800290357","distractor":"848561809290357","target":"absent","response":"absent","rt":"1991.1000000238","correct":true,"confidence":4},{"trial_n":131,"span":15,"encoder":"908531172969355","distractor":"908231172969355","target":"absent","response":"present","rt":"9668.6999999285","correct":false,"confidence":2},{"trial_n":132,"span":14,"encoder":"97005298506327","distractor":"97005298506307","target":"absent","response":"absent","rt":"1484.5","correct":true,"confidence":5},{"trial_n":133,"span":14,"encoder":"62668319830077","distractor":"64668319830077","target":"present","response":"present","rt":"8960.2999999523","correct":true,"confidence":2},{"trial_n":134,"span":15,"encoder":"397352508916897","distractor":"397352505916897","target":"absent","response":"absent","rt":"4846.6000000238","correct":true,"confidence":4},{"trial_n":135,"span":15,"encoder":"885859900898675","distractor":"885856900898675","target":"absent","response":"absent","rt":"4370.4000000954","correct":true,"confidence":4},{"trial_n":136,"span":16,"encoder":"9082150412777926","distractor":"9082150412677926","target":"present","response":"present","rt":"1773.2999999523","correct":true,"confidence":4},{"trial_n":137,"span":16,"encoder":"6479835749958991","distractor":"6479535749958991","target":"absent","response":"present","rt":"6064.2000000477","correct":false,"confidence":3},{"trial_n":138,"span":15,"encoder":"496191441788105","distractor":"396191441788105","target":"present","response":"absent","rt":"2578.3999999762","correct":false,"confidence":3},{"trial_n":139,"span":14,"encoder":"86006680824622","distractor":"86006680824620","target":"absent","response":"absent","rt":"5212.3000000715","correct":true,"confidence":4},{"trial_n":140,"span":14,"encoder":"48860641683450","distractor":"48860641683420","target":"absent","response":"absent","rt":"1952.1000000238","correct":true,"confidence":4}]