[{"trial_n":1,"span":8,"encoder":"96143082","distractor":"96143080","target":"present","response":"present","rt":"9401.5","correct":true,"confidence":-1},{"trial_n":2,"span":8,"encoder":"22543276","distractor":"22541276","target":"present","response":"absent","rt":"4281.3000001907","correct":false,"confidence":-1},{"trial_n":3,"span":6,"encoder":"528074","distractor":"526074","target":"absent","response":"absent","rt":"3494.8000001907","correct":true,"confidence":-1},{"trial_n":4,"span":6,"encoder":"464917","distractor":"464987","target":"absent","response":"absent","rt":"1372","correct":true,"confidence":-1},{"trial_n":5,"span":8,"encoder":"35755637","distractor":"35555637","target":"present","response":"present","rt":"12250.5","correct":true,"confidence":-1},{"trial_n":6,"span":8,"encoder":"60909844","distractor":"67909844","target":"present","response":"present","rt":"2151.2999997139","correct":true,"confidence":-1},{"trial_n":7,"span":10,"encoder":"6188843651","distractor":"6488843651","target":"absent","response":"present","rt":"3367.2999997139","correct":false,"confidence":-1},{"trial_n":8,"span":8,"encoder":"21782350","distractor":"21882350","target":"present","response":"present","rt":"3226.4000000954","correct":true,"confidence":-1},{"trial_n":9,"span":8,"encoder":"78346889","distractor":"78646889","target":"present","response":"present","rt":"3326.8999996185","correct":true,"confidence":-1},{"trial_n":10,"span":10,"encoder":"5441863533","distractor":"5481863533","target":"absent","response":"present","rt":"4264.7000002861","correct":false,"confidence":-1},{"trial_n":11,"span":8,"encoder":"56306498","distractor":"56306458","target":"present","response":"present","rt":"3523.6000003815","correct":true,"confidence":-1},{"trial_n":12,"span":8,"encoder":"20841993","distractor":"20848993","target":"absent","response":"absent","rt":"2327.5","correct":true,"confidence":-1},{"trial_n":13,"span":9,"encoder":"750394970","distractor":"750393970","target":"present","response":"present","rt":"3819.2999997139","correct":true,"confidence":-1},{"trial_n":14,"span":9,"encoder":"407032194","distractor":"437032194","target":"absent","response":"absent","rt":"3934.8000001907","correct":true,"confidence":-1},{"trial_n":15,"span":10,"encoder":"4362299108","distractor":"4362298108","target":"absent","response":"absent","rt":"7199.2999997139","correct":true,"confidence":-1},{"trial_n":16,"span":10,"encoder":"9031171933","distractor":"0031171933","target":"present","response":"present","rt":"3516.1999998093","correct":true,"confidence":-1},{"trial_n":17,"span":11,"encoder":"02690279099","distractor":"02691279099","target":"present","response":"absent","rt":"4258.8000001907","correct":false,"confidence":-1},{"trial_n":18,"span":10,"encoder":"2824894598","distractor":"2824894594","target":"absent","response":"present","rt":"894.7000002861","correct":false,"confidence":-1},{"trial_n":19,"span":9,"encoder":"523904528","distractor":"521904528","target":"absent","response":"absent","rt":"1979.3000001907","correct":true,"confidence":-1},{"trial_n":20,"span":9,"encoder":"010767722","distractor":"010765722","target":"absent","response":"absent","rt":"5705.5999999046","correct":true,"confidence":-1},{"trial_n":21,"span":10,"encoder":"0452360268","distractor":"2452360268","target":"present","response":"present","rt":"3474","correct":true,"confidence":2},{"trial_n":22,"span":10,"encoder":"6254759996","distractor":"6254759396","target":"absent","response":"absent","rt":"2324.7000002861","correct":true,"confidence":5},{"trial_n":23,"span":11,"encoder":"17837361971","distractor":"17837461971","target":"present","response":"present","rt":"5735","correct":true,"confidence":3},{"trial_n":24,"span":11,"encoder":"76881055843","distractor":"76281055843","target":"absent","response":"absent","rt":"4355.3999996185","correct":true,"confidence":4},{"trial_n":25,"span":12,"encoder":"621273632164","distractor":"621273632169","target":"present","response":"present","rt":"5441.9000000954","correct":true,"confidence":5},{"trial_n":26,"span":12,"encoder":"877997448056","distractor":"867997448056","target":"present","response":"present","rt":"6573.6999998093","correct":true,"confidence":3},{"trial_n":27,"span":13,"encoder":"2075446391227","distractor":"2075446301227","target":"absent","response":"present","rt":"7755.9000000954","correct":false,"confidence":2},{"trial_n":28,"span":12,"encoder":"826755417190","distractor":"826755417120","target":"present","response":"absent","rt":"7719.6999998093","correct":false,"confidence":4},{"trial_n":29,"span":11,"encoder":"50211670875","distractor":"50211670872","target":"absent","response":"absent","rt":"4612","correct":true,"confidence":5},{"trial_n":30,"span":11,"encoder":"77658825235","distractor":"77658825535","target":"present","response":"absent","rt":"5334.2999997139","correct":false,"confidence":4},{"trial_n":31,"span":10,"encoder":"5521276354","distractor":"5526276354","target":"present","response":"present","rt":"3784.8000001907","correct":true,"confidence":5},{"trial_n":32,"span":10,"encoder":"8319353692","distractor":"8309353692","target":"absent","response":"absent","rt":"2615.5","correct":true,"confidence":5},{"trial_n":33,"span":11,"encoder":"57633785848","distractor":"57633785898","target":"present","response":"present","rt":"7485.4000000954","correct":true,"confidence":3},{"trial_n":34,"span":11,"encoder":"38733536834","distractor":"38733536804","target":"present","response":"present","rt":"10438.400000095","correct":true,"confidence":2},{"trial_n":35,"span":12,"encoder":"719912504887","distractor":"719912503887","target":"present","response":"present","rt":"5089","correct":true,"confidence":1},{"trial_n":36,"span":12,"encoder":"240969401016","distractor":"240961401016","target":"present","response":"present","rt":"5796.2999997139","correct":true,"confidence":3},{"trial_n":37,"span":13,"encoder":"0544075897897","distractor":"0544025897897","target":"absent","response":"absent","rt":"5512.1999998093","correct":true,"confidence":3},{"trial_n":38,"span":13,"encoder":"6407186109402","distractor":"6407186101402","target":"absent","response":"present","rt":"4095.6000003815","correct":false,"confidence":3},{"trial_n":39,"span":12,"encoder":"583429894656","distractor":"583429891656","target":"present","response":"absent","rt":"4386.9000000954","correct":false,"confidence":2},{"trial_n":40,"span":11,"encoder":"87252300472","distractor":"87256300472","target":"absent","response":"absent","rt":"3416.0999999046","correct":true,"confidence":4},{"trial_n":41,"span":11,"encoder":"78494316704","distractor":"78493316704","target":"absent","response":"absent","rt":"5569.2999997139","correct":true,"confidence":3},{"trial_n":42,"span":12,"encoder":"928828837311","distractor":"928828837371","target":"present","response":"present","rt":"10126.400000095","correct":true,"confidence":3},{"trial_n":43,"span":12,"encoder":"055026131523","distractor":"005026131523","target":"absent","response":"present","rt":"4549.8000001907","correct":false,"confidence":3},{"trial_n":44,"span":11,"encoder":"30066085829","distractor":"30066080829","target":"absent","response":"present","rt":"4517.4000000954","correct":false,"confidence":3},{"trial_n":45,"span":10,"encoder":"7230007660","distractor":"7230007620","target":"absent","response":"present","rt":"9830.8999996185","correct":false,"confidence":2},{"trial_n":46,"span":9,"encoder":"095341813","distractor":"095341413","target":"present","response":"present","rt":"5538.0999999046","correct":true,"confidence":4},{"trial_n":47,"span":9,"encoder":"219556652","distractor":"216556652","target":"present","response":"present","rt":"6884","correct":true,"confidence":4},{"trial_n":48,"span":10,"encoder":"7464291521","distractor":"7464291520","target":"absent","response":"absent","rt":"1497.4000000954","correct":true,"confidence":5},{"trial_n":49,"span":10,"encoder":"1162281717","distractor":"1162280717","target":"present","response":"present","rt":"3819.1999998093","correct":true,"confidence":5},{"trial_n":50,"span":11,"encoder":"72706014281","distractor":"70706014281","target":"present","response":"absent","rt":"2450","correct":false,"confidence":2},{"trial_n":51,"span":10,"encoder":"3416348372","distractor":"3316348372","target":"absent","response":"absent","rt":"5334.7999997139","correct":true,"confidence":5},{"trial_n":52,"span":10,"encoder":"4389228110","distractor":"4389228118","target":"absent","response":"absent","rt":"1856.7000002861","correct":true,"confidence":5},{"trial_n":53,"span":11,"encoder":"88337055053","distractor":"88337555053","target":"absent","response":"absent","rt":"3870.1999998093","correct":true,"confidence":5},{"trial_n":54,"span":11,"encoder":"95353794432","distractor":"95253794432","target":"present","response":"present","rt":"2684.3000001907","correct":true,"confidence":2},{"trial_n":55,"span":12,"encoder":"597718254544","distractor":"597718294544","target":"present","response":"present","rt":"8186.4000000954","correct":true,"confidence":3},{"trial_n":56,"span":12,"encoder":"525028452013","distractor":"525028452073","target":"present","response":"present","rt":"5906.2000002861","correct":true,"confidence":3},{"trial_n":57,"span":13,"encoder":"4574141518979","distractor":"4574141518179","target":"present","response":"present","rt":"6752.2000002861","correct":true,"confidence":4},{"trial_n":58,"span":13,"encoder":"0905704926458","distractor":"0905904926458","target":"present","response":"present","rt":"5247","correct":true,"confidence":2},{"trial_n":59,"span":14,"encoder":"02608630800295","distractor":"02608630800285","target":"absent","response":"absent","rt":"2651.1999998093","correct":true,"confidence":3},{"trial_n":60,"span":14,"encoder":"90398260680820","distractor":"90398260620820","target":"absent","response":"present","rt":"3662.5","correct":false,"confidence":2},{"trial_n":61,"span":13,"encoder":"7910196571361","distractor":"7910196571301","target":"absent","response":"absent","rt":"2171.2000002861","correct":true,"confidence":5},{"trial_n":62,"span":13,"encoder":"2764834677896","distractor":"2764854677896","target":"present","response":"present","rt":"8088.7999997139","correct":true,"confidence":3},{"trial_n":63,"span":14,"encoder":"97670208534472","distractor":"97640208534472","target":"absent","response":"absent","rt":"4242.4000000954","correct":true,"confidence":2},{"trial_n":64,"span":14,"encoder":"93302575099504","distractor":"53302575099504","target":"present","response":"present","rt":"7120.7999997139","correct":true,"confidence":3},{"trial_n":65,"span":15,"encoder":"471118424326707","distractor":"471116424326707","target":"absent","response":"present","rt":"7233.4000000954","correct":false,"confidence":3},{"trial_n":66,"span":14,"encoder":"27800356163653","distractor":"27800356163453","target":"absent","response":"absent","rt":"5311.2999997139","correct":true,"confidence":5},{"trial_n":67,"span":14,"encoder":"14522440365839","distractor":"14522240365839","target":"present","response":"absent","rt":"7694.8000001907","correct":false,"confidence":2},{"trial_n":68,"span":13,"encoder":"2638220718298","distractor":"6638220718298","target":"absent","response":"present","rt":"4730","correct":false,"confidence":2},{"trial_n":69,"span":12,"encoder":"172117460240","distractor":"172717460240","target":"absent","response":"absent","rt":"2756","correct":true,"confidence":4},{"trial_n":70,"span":12,"encoder":"604049361287","distractor":"004049361287","target":"present","response":"present","rt":"2719.4000000954","correct":true,"confidence":2},{"trial_n":71,"span":8,"encoder":"97221545","distractor":"97221245","target":"present","response":"present","rt":"3599.2999997139","correct":true,"confidence":-1},{"trial_n":72,"span":8,"encoder":"29751943","distractor":"25751943","target":"present","response":"present","rt":"4888.2000002861","correct":true,"confidence":-1},{"trial_n":73,"span":9,"encoder":"048803662","distractor":"048503662","target":"absent","response":"absent","rt":"6122.5","correct":true,"confidence":-1},{"trial_n":74,"span":9,"encoder":"120293234","distractor":"120293534","target":"absent","response":"absent","rt":"2910.2999997139","correct":true,"confidence":-1},{"trial_n":75,"span":10,"encoder":"4678576642","distractor":"4678576643","target":"present","response":"present","rt":"2082.8000001907","correct":true,"confidence":-1},{"trial_n":76,"span":10,"encoder":"9594965389","distractor":"1594965389","target":"absent","response":"present","rt":"3012.1000003815","correct":false,"confidence":-1},{"trial_n":77,"span":9,"encoder":"238460672","distractor":"238480672","target":"present","response":"absent","rt":"8055","correct":false,"confidence":-1},{"trial_n":78,"span":8,"encoder":"65441468","distractor":"65441428","target":"present","response":"present","rt":"303.90000009537","correct":true,"confidence":-1},{"trial_n":79,"span":8,"encoder":"29213144","distractor":"29211144","target":"absent","response":"present","rt":"205.90000009537","correct":false,"confidence":-1},{"trial_n":80,"span":7,"encoder":"1530373","distractor":"1530673","target":"absent","response":"present","rt":"292.5","correct":false,"confidence":-1},{"trial_n":81,"span":6,"encoder":"772343","distractor":"775343","target":"absent","response":"absent","rt":"517.60000038147","correct":true,"confidence":-1},{"trial_n":82,"span":6,"encoder":"056175","distractor":"556175","target":"present","response":"absent","rt":"272.30000019073","correct":false,"confidence":-1},{"trial_n":83,"span":5,"encoder":"68188","distractor":"68158","target":"absent","response":"present","rt":"317.80000019073","correct":false,"confidence":-1},{"trial_n":84,"span":4,"encoder":"0970","distractor":"0930","target":"absent","response":"absent","rt":"316.7000002861","correct":true,"confidence":-1},{"trial_n":85,"span":4,"encoder":"8769","distractor":"8764","target":"present","response":"present","rt":"329.69999980927","correct":true,"confidence":-1},{"trial_n":86,"span":5,"encoder":"82192","distractor":"72192","target":"present","response":"absent","rt":"360.7999997139","correct":false,"confidence":-1},{"trial_n":87,"span":4,"encoder":"6490","distractor":"6499","target":"absent","response":"absent","rt":"1940.9000000954","correct":true,"confidence":-1},{"trial_n":88,"span":4,"encoder":"6841","distractor":"8841","target":"absent","response":"absent","rt":"1432.4000000954","correct":true,"confidence":-1},{"trial_n":89,"span":5,"encoder":"36797","distractor":"38797","target":"present","response":"present","rt":"1556.9000000954","correct":true,"confidence":-1},{"trial_n":90,"span":5,"encoder":"85052","distractor":"85652","target":"present","response":"present","rt":"1876.3000001907","correct":true,"confidence":-1},{"trial_n":91,"span":6,"encoder":"057424","distractor":"957424","target":"present","response":"present","rt":"3766.8000001907","correct":true,"confidence":5},{"trial_n":92,"span":6,"encoder":"309237","distractor":"309267","target":"present","response":"present","rt":"3607.7000002861","correct":true,"confidence":1},{"trial_n":93,"span":7,"encoder":"0575400","distractor":"0575300","target":"absent","response":"absent","rt":"1526.3000001907","correct":true,"confidence":5},{"trial_n":94,"span":7,"encoder":"3934960","distractor":"1934960","target":"absent","response":"absent","rt":"1230.2000002861","correct":true,"confidence":5},{"trial_n":95,"span":8,"encoder":"63718233","distractor":"63758233","target":"absent","response":"absent","rt":"2245.4000000954","correct":true,"confidence":5},{"trial_n":96,"span":8,"encoder":"43188454","distractor":"43188354","target":"present","response":"present","rt":"2300.4000000954","correct":true,"confidence":5},{"trial_n":97,"span":9,"encoder":"664514179","distractor":"664414179","target":"absent","response":"absent","rt":"1874.8000001907","correct":true,"confidence":5},{"trial_n":98,"span":9,"encoder":"707351180","distractor":"707351680","target":"absent","response":"absent","rt":"3068.0999999046","correct":true,"confidence":5},{"trial_n":99,"span":10,"encoder":"8378142250","distractor":"8338142250","target":"absent","response":"absent","rt":"8629.6999998093","correct":true,"confidence":4},{"trial_n":100,"span":10,"encoder":"6566369424","distractor":"6566329424","target":"absent","response":"absent","rt":"3721.2999997139","correct":true,"confidence":5},{"trial_n":101,"span":11,"encoder":"38906822527","distractor":"38906822427","target":"present","response":"present","rt":"5266.3999996185","correct":true,"confidence":5},{"trial_n":102,"span":11,"encoder":"77990754549","distractor":"77990854549","target":"present","response":"present","rt":"9517.2000002861","correct":true,"confidence":5},{"trial_n":103,"span":12,"encoder":"751322745222","distractor":"751352745222","target":"absent","response":"present","rt":"6635","correct":false,"confidence":4},{"trial_n":104,"span":11,"encoder":"75777993055","distractor":"75777993255","target":"present","response":"present","rt":"4897.6999998093","correct":true,"confidence":5},{"trial_n":105,"span":11,"encoder":"20048947251","distractor":"20248947251","target":"present","response":"present","rt":"3879.0999999046","correct":true,"confidence":4},{"trial_n":106,"span":12,"encoder":"167053495496","distractor":"167053495494","target":"absent","response":"absent","rt":"1592.0999999046","correct":true,"confidence":5},{"trial_n":107,"span":12,"encoder":"448318997802","distractor":"448318992802","target":"absent","response":"absent","rt":"7708","correct":true,"confidence":4},{"trial_n":108,"span":13,"encoder":"0298639999020","distractor":"0298639929020","target":"absent","response":"absent","rt":"3669.9000000954","correct":true,"confidence":5},{"trial_n":109,"span":13,"encoder":"7323684391752","distractor":"7323684391755","target":"present","response":"present","rt":"12485.5","correct":true,"confidence":1},{"trial_n":110,"span":14,"encoder":"08609280254586","distractor":"08609280254886","target":"present","response":"present","rt":"3988.5","correct":true,"confidence":4},{"trial_n":111,"span":14,"encoder":"83270947995788","distractor":"83070947995788","target":"absent","response":"absent","rt":"10470.900000095","correct":true,"confidence":3},{"trial_n":112,"span":15,"encoder":"424079239654745","distractor":"324079239654745","target":"absent","response":"present","rt":"3167.7000002861","correct":false,"confidence":5},{"trial_n":113,"span":14,"encoder":"57546733585107","distractor":"57446733585107","target":"absent","response":"absent","rt":"3557.9000000954","correct":true,"confidence":5},{"trial_n":114,"span":14,"encoder":"05956900119389","distractor":"05956900719389","target":"present","response":"present","rt":"8636.0999999046","correct":true,"confidence":5},{"trial_n":115,"span":15,"encoder":"571808581372460","distractor":"571808581378460","target":"present","response":"present","rt":"11126.900000095","correct":true,"confidence":4},{"trial_n":116,"span":15,"encoder":"955188895866323","distractor":"555188895866323","target":"present","response":"present","rt":"2237.6999998093","correct":true,"confidence":4},{"trial_n":117,"span":16,"encoder":"0426251788916378","distractor":"0456251788916378","target":"absent","response":"present","rt":"9095.2000002861","correct":false,"confidence":1},{"trial_n":118,"span":15,"encoder":"218509472009859","distractor":"218509412009859","target":"absent","response":"present","rt":"12099.700000286","correct":false,"confidence":1},{"trial_n":119,"span":14,"encoder":"23806581557337","distractor":"23806581554337","target":"present","response":"present","rt":"7562.8000001907","correct":true,"confidence":4},{"trial_n":120,"span":14,"encoder":"15389921298131","distractor":"15389921298831","target":"absent","response":"present","rt":"11116.600000381","correct":false,"confidence":4},{"trial_n":121,"span":13,"encoder":"9019134997406","distractor":"9019134597406","target":"absent","response":"absent","rt":"5546.2999997139","correct":true,"confidence":5},{"trial_n":122,"span":13,"encoder":"7823274673553","distractor":"7523274673553","target":"present","response":"present","rt":"5097.6999998093","correct":true,"confidence":3},{"trial_n":123,"span":14,"encoder":"51063494254627","distractor":"51063494254624","target":"present","response":"present","rt":"9521.1999998093","correct":true,"confidence":5},{"trial_n":124,"span":14,"encoder":"55674021622132","distractor":"55674021622136","target":"present","response":"present","rt":"3271","correct":true,"confidence":5},{"trial_n":125,"span":15,"encoder":"481401974720632","distractor":"481401974720662","target":"present","response":"present","rt":"2466.8999996185","correct":true,"confidence":5},{"trial_n":126,"span":15,"encoder":"705644451503440","distractor":"705244451503440","target":"present","response":"present","rt":"11580.800000191","correct":true,"confidence":4},{"trial_n":127,"span":16,"encoder":"3459239874081979","distractor":"3459239674081979","target":"present","response":"present","rt":"17141","correct":true,"confidence":2},{"trial_n":128,"span":16,"encoder":"4167334689929384","distractor":"4167334689929382","target":"absent","response":"absent","rt":"5047.0999999046","correct":true,"confidence":5},{"trial_n":129,"span":17,"encoder":"38628823679628352","distractor":"38628823679628342","target":"present","response":"present","rt":"1397.8000001907","correct":true,"confidence":5},{"trial_n":130,"span":17,"encoder":"39861387727860739","distractor":"39861387747860739","target":"present","response":"present","rt":"14408.199999809","correct":true,"confidence":3},{"trial_n":131,"span":18,"encoder":"197743139053591928","distractor":"197743139053191928","target":"present","response":"present","rt":"7938.2999997139","correct":true,"confidence":4},{"trial_n":132,"span":18,"encoder":"385210555269054263","distractor":"385210855269054263","target":"absent","response":"absent","rt":"4676.8000001907","correct":true,"confidence":5},{"trial_n":133,"span":19,"encoder":"2005102111665458006","distractor":"2005102111665458096","target":"present","response":"present","rt":"2165.5","correct":true,"confidence":5},{"trial_n":134,"span":19,"encoder":"8270102830662430295","distractor":"8270102830462430295","target":"absent","response":"absent","rt":"6250.7999997139","correct":true,"confidence":5},{"trial_n":135,"span":20,"encoder":"39295946966642327175","distractor":"39245946966642327175","target":"absent","response":"absent","rt":"4803.5","correct":true,"confidence":5},{"trial_n":136,"span":20,"encoder":"35801632506264433983","distractor":"35801642506264433983","target":"present","response":"present","rt":"8998.7999997139","correct":true,"confidence":1},{"trial_n":137,"span":21,"encoder":"198351430747721256561","distractor":"198351438747721256561","target":"absent","response":"absent","rt":"14817.099999905","correct":true,"confidence":2},{"trial_n":138,"span":21,"encoder":"909132301147771080954","distractor":"909132101147771080954","target":"present","response":"present","rt":"17429.099999905","correct":true,"confidence":2},{"trial_n":139,"span":22,"encoder":"9734005057804966243998","distractor":"9734005057804916243998","target":"absent","response":"present","rt":"27011.5","correct":false,"confidence":2},{"trial_n":140,"span":21,"encoder":"183815487563758950328","distractor":"183813487563758950328","target":"present","response":"present","rt":"19231.400000095","correct":true,"confidence":3}]