[{"trial_n":1,"min":25,"max":230,"target":"present","response":"present","rt":6099,"correct":true,"confidence":-1},{"trial_n":2,"min":25,"max":230,"target":"present","response":"present","rt":2115.3999999762,"correct":true,"confidence":-1},{"trial_n":3,"min":41,"max":214,"target":"absent","response":"absent","rt":577.40000009537,"correct":true,"confidence":-1},{"trial_n":4,"min":41,"max":214,"target":"absent","response":"absent","rt":576.79999995232,"correct":true,"confidence":-1},{"trial_n":5,"min":57,"max":198,"target":"present","response":"present","rt":542,"correct":true,"confidence":-1},{"trial_n":6,"min":57,"max":198,"target":"present","response":"present","rt":839.60000002384,"correct":true,"confidence":-1},{"trial_n":7,"min":73,"max":182,"target":"present","response":"absent","rt":880.70000004768,"correct":false,"confidence":-1},{"trial_n":8,"min":57,"max":198,"target":"present","response":"present","rt":1129.5,"correct":true,"confidence":-1},{"trial_n":9,"min":57,"max":198,"target":"absent","response":"absent","rt":2231.5,"correct":true,"confidence":-1},{"trial_n":10,"min":73,"max":182,"target":"absent","response":"absent","rt":1074.8000000715,"correct":true,"confidence":-1},{"trial_n":11,"min":73,"max":182,"target":"absent","response":"absent","rt":1058.3999999762,"correct":true,"confidence":-1},{"trial_n":12,"min":81,"max":174,"target":"present","response":"present","rt":793.29999995232,"correct":true,"confidence":-1},{"trial_n":13,"min":81,"max":174,"target":"absent","response":"absent","rt":780.09999990463,"correct":true,"confidence":-1},{"trial_n":14,"min":89,"max":166,"target":"present","response":"absent","rt":1004.6000000238,"correct":false,"confidence":-1},{"trial_n":15,"min":81,"max":174,"target":"absent","response":"absent","rt":753.90000009537,"correct":true,"confidence":-1},{"trial_n":16,"min":81,"max":174,"target":"absent","response":"absent","rt":675.30000007153,"correct":true,"confidence":-1},{"trial_n":17,"min":89,"max":166,"target":"absent","response":"absent","rt":953.69999992847,"correct":true,"confidence":-1},{"trial_n":18,"min":89,"max":166,"target":"absent","response":"present","rt":1176.3000000715,"correct":false,"confidence":-1},{"trial_n":19,"min":81,"max":174,"target":"absent","response":"absent","rt":484,"correct":true,"confidence":-1},{"trial_n":20,"min":81,"max":174,"target":"present","response":"absent","rt":483.29999995232,"correct":false,"confidence":-1},{"trial_n":21,"min":77,"max":178,"target":"absent","response":"absent","rt":677.5,"correct":true,"confidence":3},{"trial_n":22,"min":77,"max":178,"target":"absent","response":"present","rt":1604.2999999523,"correct":false,"confidence":3},{"trial_n":23,"min":73,"max":182,"target":"present","response":"present","rt":1417.6000000238,"correct":true,"confidence":5},{"trial_n":24,"min":73,"max":182,"target":"absent","response":"absent","rt":1969.7000000477,"correct":true,"confidence":2},{"trial_n":25,"min":77,"max":178,"target":"present","response":"present","rt":1506.8999999762,"correct":true,"confidence":5},{"trial_n":26,"min":77,"max":178,"target":"present","response":"present","rt":995.70000004768,"correct":true,"confidence":5},{"trial_n":27,"min":81,"max":174,"target":"present","response":"present","rt":762.20000004768,"correct":true,"confidence":5},{"trial_n":28,"min":81,"max":174,"target":"absent","response":"present","rt":582.20000004768,"correct":false,"confidence":3},{"trial_n":29,"min":77,"max":178,"target":"absent","response":"absent","rt":1285.3000000715,"correct":true,"confidence":3},{"trial_n":30,"min":77,"max":178,"target":"absent","response":"absent","rt":1023.8999999762,"correct":true,"confidence":2},{"trial_n":31,"min":79,"max":176,"target":"absent","response":"present","rt":2317.8000000715,"correct":false,"confidence":3},{"trial_n":32,"min":77,"max":178,"target":"present","response":"present","rt":441.10000002384,"correct":true,"confidence":5},{"trial_n":33,"min":77,"max":178,"target":"present","response":"present","rt":485.10000002384,"correct":true,"confidence":5},{"trial_n":34,"min":79,"max":176,"target":"absent","response":"present","rt":745.69999992847,"correct":false,"confidence":5},{"trial_n":35,"min":77,"max":178,"target":"present","response":"present","rt":482,"correct":true,"confidence":5},{"trial_n":36,"min":77,"max":178,"target":"present","response":"present","rt":612,"correct":true,"confidence":5},{"trial_n":37,"min":79,"max":176,"target":"absent","response":"present","rt":736.10000002384,"correct":false,"confidence":4},{"trial_n":38,"min":77,"max":178,"target":"present","response":"present","rt":812.39999997616,"correct":true,"confidence":5},{"trial_n":39,"min":77,"max":178,"target":"absent","response":"present","rt":884.20000004768,"correct":false,"confidence":2},{"trial_n":40,"min":75,"max":180,"target":"present","response":"present","rt":830,"correct":true,"confidence":5},{"trial_n":41,"min":75,"max":180,"target":"present","response":"present","rt":546.60000002384,"correct":true,"confidence":4},{"trial_n":42,"min":76,"max":179,"target":"present","response":"present","rt":400.10000002384,"correct":true,"confidence":5},{"trial_n":43,"min":76,"max":179,"target":"absent","response":"absent","rt":1053.8999999762,"correct":true,"confidence":3},{"trial_n":44,"min":77,"max":178,"target":"absent","response":"absent","rt":868.39999997616,"correct":true,"confidence":4},{"trial_n":45,"min":77,"max":178,"target":"absent","response":"absent","rt":879.29999995232,"correct":true,"confidence":1},{"trial_n":46,"min":78,"max":177,"target":"present","response":"present","rt":1910.6000000238,"correct":true,"confidence":2},{"trial_n":47,"min":78,"max":177,"target":"absent","response":"absent","rt":686.09999990463,"correct":true,"confidence":4},{"trial_n":48,"min":79,"max":176,"target":"present","response":"present","rt":2239.6999999285,"correct":true,"confidence":2},{"trial_n":49,"min":79,"max":176,"target":"present","response":"present","rt":954.80000007153,"correct":true,"confidence":4},{"trial_n":50,"min":80,"max":175,"target":"absent","response":"absent","rt":709.10000002384,"correct":true,"confidence":4},{"trial_n":51,"min":80,"max":175,"target":"present","response":"present","rt":436.10000002384,"correct":true,"confidence":5},{"trial_n":52,"min":81,"max":174,"target":"absent","response":"present","rt":849.29999995232,"correct":false,"confidence":3},{"trial_n":53,"min":80,"max":175,"target":"present","response":"present","rt":507.29999995232,"correct":true,"confidence":1},{"trial_n":54,"min":80,"max":175,"target":"present","response":"present","rt":2485.3000000715,"correct":true,"confidence":4},{"trial_n":55,"min":81,"max":174,"target":"present","response":"present","rt":651.80000007153,"correct":true,"confidence":5},{"trial_n":56,"min":81,"max":174,"target":"present","response":"present","rt":1082.9000000954,"correct":true,"confidence":2},{"trial_n":57,"min":82,"max":173,"target":"absent","response":"absent","rt":1099.2999999523,"correct":true,"confidence":3},{"trial_n":58,"min":82,"max":173,"target":"present","response":"present","rt":1017.6000000238,"correct":true,"confidence":5},{"trial_n":59,"min":83,"max":172,"target":"absent","response":"present","rt":3287,"correct":false,"confidence":4},{"trial_n":60,"min":82,"max":173,"target":"absent","response":"absent","rt":758.89999997616,"correct":true,"confidence":3},{"trial_n":61,"min":82,"max":173,"target":"absent","response":"absent","rt":584.89999997616,"correct":true,"confidence":5},{"trial_n":62,"min":83,"max":172,"target":"present","response":"present","rt":3588,"correct":true,"confidence":3},{"trial_n":63,"min":83,"max":172,"target":"absent","response":"absent","rt":706,"correct":true,"confidence":3},{"trial_n":64,"min":84,"max":171,"target":"absent","response":"absent","rt":1012.8999999762,"correct":true,"confidence":4},{"trial_n":65,"min":84,"max":171,"target":"present","response":"present","rt":655.30000007153,"correct":true,"confidence":3},{"trial_n":66,"min":85,"max":170,"target":"absent","response":"present","rt":1889.2999999523,"correct":false,"confidence":3},{"trial_n":67,"min":84,"max":171,"target":"present","response":"present","rt":1072.7999999523,"correct":true,"confidence":3},{"trial_n":68,"min":84,"max":171,"target":"present","response":"present","rt":664.5,"correct":true,"confidence":4},{"trial_n":69,"min":85,"max":170,"target":"present","response":"present","rt":867.79999995232,"correct":true,"confidence":1},{"trial_n":70,"min":85,"max":170,"target":"present","response":"present","rt":1403.5,"correct":true,"confidence":4},{"trial_n":71,"min":41,"max":214,"target":"present","response":"present","rt":7558.3000000715,"correct":true,"confidence":-1},{"trial_n":72,"min":41,"max":214,"target":"present","response":"present","rt":905.29999995232,"correct":true,"confidence":-1},{"trial_n":73,"min":57,"max":198,"target":"absent","response":"absent","rt":533.29999995232,"correct":true,"confidence":-1},{"trial_n":74,"min":57,"max":198,"target":"absent","response":"absent","rt":815.60000002384,"correct":true,"confidence":-1},{"trial_n":75,"min":73,"max":182,"target":"present","response":"present","rt":472.90000009537,"correct":true,"confidence":-1},{"trial_n":76,"min":73,"max":182,"target":"present","response":"present","rt":1031.6000000238,"correct":true,"confidence":-1},{"trial_n":77,"min":89,"max":166,"target":"present","response":"present","rt":999.79999995232,"correct":true,"confidence":-1},{"trial_n":78,"min":89,"max":166,"target":"absent","response":"absent","rt":818.20000004768,"correct":true,"confidence":-1},{"trial_n":79,"min":105,"max":150,"target":"present","response":"present","rt":1020.1000000238,"correct":true,"confidence":-1},{"trial_n":80,"min":105,"max":150,"target":"absent","response":"present","rt":632.10000002384,"correct":false,"confidence":-1},{"trial_n":81,"min":97,"max":158,"target":"absent","response":"absent","rt":581.70000004768,"correct":true,"confidence":-1},{"trial_n":82,"min":97,"max":158,"target":"present","response":"absent","rt":1774.5,"correct":false,"confidence":-1},{"trial_n":83,"min":89,"max":166,"target":"present","response":"present","rt":569.10000002384,"correct":true,"confidence":-1},{"trial_n":84,"min":89,"max":166,"target":"absent","response":"absent","rt":1061.7000000477,"correct":true,"confidence":-1},{"trial_n":85,"min":97,"max":158,"target":"present","response":"absent","rt":803.5,"correct":false,"confidence":-1},{"trial_n":86,"min":89,"max":166,"target":"present","response":"present","rt":505.19999992847,"correct":true,"confidence":-1},{"trial_n":87,"min":89,"max":166,"target":"absent","response":"absent","rt":1091.8000000715,"correct":true,"confidence":-1},{"trial_n":88,"min":97,"max":158,"target":"present","response":"absent","rt":785.19999992847,"correct":false,"confidence":-1},{"trial_n":89,"min":89,"max":166,"target":"present","response":"present","rt":508.60000002384,"correct":true,"confidence":-1},{"trial_n":90,"min":89,"max":166,"target":"present","response":"present","rt":756.69999992847,"correct":true,"confidence":-1},{"trial_n":91,"min":93,"max":162,"target":"absent","response":"absent","rt":873.5,"correct":true,"confidence":3},{"trial_n":92,"min":93,"max":162,"target":"present","response":"present","rt":2054.6999999285,"correct":true,"confidence":5},{"trial_n":93,"min":97,"max":158,"target":"absent","response":"present","rt":1359.8999999762,"correct":false,"confidence":4},{"trial_n":94,"min":93,"max":162,"target":"present","response":"present","rt":856.19999992847,"correct":true,"confidence":4},{"trial_n":95,"min":93,"max":162,"target":"absent","response":"present","rt":1907.2000000477,"correct":false,"confidence":3},{"trial_n":96,"min":89,"max":166,"target":"absent","response":"absent","rt":1107.3000000715,"correct":true,"confidence":3},{"trial_n":97,"min":89,"max":166,"target":"absent","response":"absent","rt":898.20000004768,"correct":true,"confidence":4},{"trial_n":98,"min":93,"max":162,"target":"absent","response":"absent","rt":743,"correct":true,"confidence":3},{"trial_n":99,"min":93,"max":162,"target":"absent","response":"absent","rt":2173.1000000238,"correct":true,"confidence":3},{"trial_n":100,"min":97,"max":158,"target":"present","response":"absent","rt":1597.5,"correct":false,"confidence":3},{"trial_n":101,"min":95,"max":160,"target":"absent","response":"present","rt":592.30000007153,"correct":false,"confidence":4},{"trial_n":102,"min":93,"max":162,"target":"absent","response":"present","rt":1354.1999999285,"correct":false,"confidence":3},{"trial_n":103,"min":91,"max":164,"target":"present","response":"present","rt":556.80000007153,"correct":true,"confidence":4},{"trial_n":104,"min":91,"max":164,"target":"present","response":"present","rt":707.09999990463,"correct":true,"confidence":4},{"trial_n":105,"min":93,"max":162,"target":"present","response":"present","rt":749.69999992847,"correct":true,"confidence":4},{"trial_n":106,"min":93,"max":162,"target":"present","response":"present","rt":465.39999997616,"correct":true,"confidence":5},{"trial_n":107,"min":95,"max":160,"target":"present","response":"present","rt":549.79999995232,"correct":true,"confidence":5},{"trial_n":108,"min":95,"max":160,"target":"present","response":"present","rt":892.5,"correct":true,"confidence":5},{"trial_n":109,"min":97,"max":158,"target":"present","response":"present","rt":1099.8999999762,"correct":true,"confidence":4},{"trial_n":110,"min":97,"max":158,"target":"absent","response":"present","rt":525.89999997616,"correct":false,"confidence":4},{"trial_n":111,"min":96,"max":159,"target":"present","response":"present","rt":657.5,"correct":true,"confidence":5},{"trial_n":112,"min":96,"max":159,"target":"absent","response":"present","rt":613.5,"correct":false,"confidence":4},{"trial_n":113,"min":95,"max":160,"target":"present","response":"present","rt":951.89999997616,"correct":true,"confidence":4},{"trial_n":114,"min":95,"max":160,"target":"absent","response":"present","rt":2021,"correct":false,"confidence":3},{"trial_n":115,"min":94,"max":161,"target":"absent","response":"present","rt":631.10000002384,"correct":false,"confidence":3},{"trial_n":116,"min":93,"max":162,"target":"present","response":"present","rt":701.10000002384,"correct":true,"confidence":3},{"trial_n":117,"min":93,"max":162,"target":"absent","response":"present","rt":1296.7000000477,"correct":false,"confidence":3},{"trial_n":118,"min":92,"max":163,"target":"absent","response":"present","rt":791.10000002384,"correct":false,"confidence":3},{"trial_n":119,"min":91,"max":164,"target":"absent","response":"absent","rt":1619.5,"correct":true,"confidence":3},{"trial_n":120,"min":91,"max":164,"target":"present","response":"present","rt":542.10000002384,"correct":true,"confidence":4},{"trial_n":121,"min":92,"max":163,"target":"present","response":"present","rt":568.60000002384,"correct":true,"confidence":3},{"trial_n":122,"min":92,"max":163,"target":"present","response":"present","rt":1448.5,"correct":true,"confidence":3},{"trial_n":123,"min":93,"max":162,"target":"present","response":"present","rt":408.19999992847,"correct":true,"confidence":5},{"trial_n":124,"min":93,"max":162,"target":"absent","response":"present","rt":732.69999992847,"correct":false,"confidence":3},{"trial_n":125,"min":92,"max":163,"target":"absent","response":"present","rt":912.69999992847,"correct":false,"confidence":3},{"trial_n":126,"min":91,"max":164,"target":"absent","response":"absent","rt":1155.6000000238,"correct":true,"confidence":4},{"trial_n":127,"min":91,"max":164,"target":"absent","response":"absent","rt":885.40000009537,"correct":true,"confidence":4},{"trial_n":128,"min":92,"max":163,"target":"present","response":"present","rt":2627,"correct":true,"confidence":3},{"trial_n":129,"min":92,"max":163,"target":"absent","response":"absent","rt":678.60000002384,"correct":true,"confidence":1},{"trial_n":130,"min":93,"max":162,"target":"absent","response":"absent","rt":2165.8000000715,"correct":true,"confidence":3},{"trial_n":131,"min":93,"max":162,"target":"absent","response":"present","rt":531.80000007153,"correct":false,"confidence":3},{"trial_n":132,"min":92,"max":163,"target":"present","response":"present","rt":941.09999990463,"correct":true,"confidence":5},{"trial_n":133,"min":92,"max":163,"target":"present","response":"present","rt":1215.6999999285,"correct":true,"confidence":4},{"trial_n":134,"min":93,"max":162,"target":"absent","response":"present","rt":977.40000009537,"correct":false,"confidence":3},{"trial_n":135,"min":92,"max":163,"target":"present","response":"present","rt":714.69999992847,"correct":true,"confidence":5},{"trial_n":136,"min":92,"max":163,"target":"present","response":"present","rt":552.29999995232,"correct":true,"confidence":3},{"trial_n":137,"min":93,"max":162,"target":"absent","response":"present","rt":490.89999997616,"correct":false,"confidence":4},{"trial_n":138,"min":92,"max":163,"target":"absent","response":"absent","rt":881.5,"correct":true,"confidence":3},{"trial_n":139,"min":92,"max":163,"target":"absent","response":"present","rt":684.20000004768,"correct":false,"confidence":3},{"trial_n":140,"min":91,"max":164,"target":"present","response":"absent","rt":1965.8999999762,"correct":false,"confidence":1}]