[{"trial_n":1,"min":25,"max":230,"target":"present","response":"present","rt":6189,"correct":true,"confidence":-1},{"trial_n":2,"min":25,"max":230,"target":"present","response":"present","rt":2776,"correct":true,"confidence":-1},{"trial_n":3,"min":41,"max":214,"target":"absent","response":"absent","rt":1265,"correct":true,"confidence":-1},{"trial_n":4,"min":41,"max":214,"target":"absent","response":"absent","rt":930,"correct":true,"confidence":-1},{"trial_n":5,"min":57,"max":198,"target":"present","response":"present","rt":840,"correct":true,"confidence":-1},{"trial_n":6,"min":57,"max":198,"target":"absent","response":"absent","rt":785,"correct":true,"confidence":-1},{"trial_n":7,"min":73,"max":182,"target":"absent","response":"absent","rt":705,"correct":true,"confidence":-1},{"trial_n":8,"min":73,"max":182,"target":"absent","response":"absent","rt":578,"correct":true,"confidence":-1},{"trial_n":9,"min":89,"max":166,"target":"absent","response":"absent","rt":575,"correct":true,"confidence":-1},{"trial_n":10,"min":89,"max":166,"target":"present","response":"present","rt":1198,"correct":true,"confidence":-1},{"trial_n":11,"min":97,"max":158,"target":"present","response":"present","rt":1230,"correct":true,"confidence":-1},{"trial_n":12,"min":97,"max":158,"target":"present","response":"absent","rt":1018,"correct":false,"confidence":-1},{"trial_n":13,"min":89,"max":166,"target":"present","response":"present","rt":800,"correct":true,"confidence":-1},{"trial_n":14,"min":89,"max":166,"target":"absent","response":"present","rt":1285,"correct":false,"confidence":-1},{"trial_n":15,"min":81,"max":174,"target":"present","response":"present","rt":942,"correct":true,"confidence":-1},{"trial_n":16,"min":81,"max":174,"target":"absent","response":"absent","rt":717,"correct":true,"confidence":-1},{"trial_n":17,"min":89,"max":166,"target":"absent","response":"absent","rt":586,"correct":true,"confidence":-1},{"trial_n":18,"min":89,"max":166,"target":"absent","response":"absent","rt":892,"correct":true,"confidence":-1},{"trial_n":19,"min":97,"max":158,"target":"absent","response":"absent","rt":553,"correct":true,"confidence":-1},{"trial_n":20,"min":97,"max":158,"target":"absent","response":"absent","rt":615,"correct":true,"confidence":-1},{"trial_n":21,"min":101,"max":154,"target":"present","response":"absent","rt":735,"correct":false,"confidence":4},{"trial_n":22,"min":97,"max":158,"target":"absent","response":"present","rt":1634,"correct":false,"confidence":4},{"trial_n":23,"min":93,"max":162,"target":"absent","response":"present","rt":1645,"correct":false,"confidence":3},{"trial_n":24,"min":89,"max":166,"target":"present","response":"present","rt":2756,"correct":true,"confidence":3},{"trial_n":25,"min":89,"max":166,"target":"present","response":"present","rt":923,"correct":true,"confidence":4},{"trial_n":26,"min":93,"max":162,"target":"present","response":"absent","rt":1583,"correct":false,"confidence":3},{"trial_n":27,"min":89,"max":166,"target":"absent","response":"absent","rt":3463,"correct":true,"confidence":3},{"trial_n":28,"min":89,"max":166,"target":"present","response":"absent","rt":1094,"correct":false,"confidence":3},{"trial_n":29,"min":85,"max":170,"target":"present","response":"present","rt":2007,"correct":true,"confidence":3},{"trial_n":30,"min":85,"max":170,"target":"present","response":"present","rt":2058,"correct":true,"confidence":3},{"trial_n":31,"min":87,"max":168,"target":"present","response":"present","rt":4441,"correct":true,"confidence":3},{"trial_n":32,"min":87,"max":168,"target":"absent","response":"present","rt":728,"correct":false,"confidence":4},{"trial_n":33,"min":85,"max":170,"target":"present","response":"present","rt":649,"correct":true,"confidence":5},{"trial_n":34,"min":85,"max":170,"target":"absent","response":"present","rt":4504,"correct":false,"confidence":3},{"trial_n":35,"min":83,"max":172,"target":"present","response":"present","rt":677,"correct":true,"confidence":3},{"trial_n":36,"min":83,"max":172,"target":"present","response":"present","rt":623,"correct":true,"confidence":5},{"trial_n":37,"min":85,"max":170,"target":"absent","response":"present","rt":1100,"correct":false,"confidence":3},{"trial_n":38,"min":83,"max":172,"target":"present","response":"present","rt":949,"correct":true,"confidence":4},{"trial_n":39,"min":83,"max":172,"target":"absent","response":"present","rt":756,"correct":false,"confidence":3},{"trial_n":40,"min":81,"max":174,"target":"absent","response":"absent","rt":1384,"correct":true,"confidence":3},{"trial_n":41,"min":81,"max":174,"target":"present","response":"present","rt":822,"correct":true,"confidence":5},{"trial_n":42,"min":82,"max":173,"target":"absent","response":"present","rt":1278,"correct":false,"confidence":3},{"trial_n":43,"min":81,"max":174,"target":"present","response":"present","rt":764,"correct":true,"confidence":3},{"trial_n":44,"min":81,"max":174,"target":"absent","response":"present","rt":939,"correct":false,"confidence":3},{"trial_n":45,"min":80,"max":175,"target":"present","response":"present","rt":588,"correct":true,"confidence":5},{"trial_n":46,"min":80,"max":175,"target":"present","response":"present","rt":659,"correct":true,"confidence":3},{"trial_n":47,"min":81,"max":174,"target":"absent","response":"present","rt":879,"correct":false,"confidence":5},{"trial_n":48,"min":80,"max":175,"target":"absent","response":"present","rt":717,"correct":false,"confidence":5},{"trial_n":49,"min":79,"max":176,"target":"absent","response":"present","rt":675,"correct":false,"confidence":3},{"trial_n":50,"min":78,"max":177,"target":"absent","response":"present","rt":619,"correct":false,"confidence":3},{"trial_n":51,"min":77,"max":178,"target":"present","response":"present","rt":520,"correct":true,"confidence":5},{"trial_n":52,"min":77,"max":178,"target":"present","response":"present","rt":631,"correct":true,"confidence":4},{"trial_n":53,"min":78,"max":177,"target":"present","response":"present","rt":712,"correct":true,"confidence":5},{"trial_n":54,"min":78,"max":177,"target":"absent","response":"absent","rt":1122,"correct":true,"confidence":5},{"trial_n":55,"min":79,"max":176,"target":"absent","response":"present","rt":1151,"correct":false,"confidence":4},{"trial_n":56,"min":78,"max":177,"target":"present","response":"present","rt":690,"correct":true,"confidence":4},{"trial_n":57,"min":78,"max":177,"target":"present","response":"present","rt":631,"correct":true,"confidence":5},{"trial_n":58,"min":79,"max":176,"target":"absent","response":"present","rt":629,"correct":false,"confidence":4},{"trial_n":59,"min":78,"max":177,"target":"absent","response":"present","rt":641,"correct":false,"confidence":3},{"trial_n":60,"min":77,"max":178,"target":"present","response":"present","rt":562,"correct":true,"confidence":5},{"trial_n":61,"min":77,"max":178,"target":"present","response":"absent","rt":1587,"correct":false,"confidence":3},{"trial_n":62,"min":76,"max":179,"target":"present","response":"present","rt":1010,"correct":true,"confidence":5},{"trial_n":63,"min":76,"max":179,"target":"present","response":"present","rt":599,"correct":true,"confidence":5},{"trial_n":64,"min":77,"max":178,"target":"absent","response":"absent","rt":1082,"correct":true,"confidence":5},{"trial_n":65,"min":77,"max":178,"target":"absent","response":"present","rt":697,"correct":false,"confidence":5},{"trial_n":66,"min":76,"max":179,"target":"present","response":"present","rt":647,"correct":true,"confidence":5},{"trial_n":67,"min":76,"max":179,"target":"present","response":"present","rt":530,"correct":true,"confidence":5},{"trial_n":68,"min":77,"max":178,"target":"present","response":"present","rt":579,"correct":true,"confidence":5},{"trial_n":69,"min":77,"max":178,"target":"absent","response":"absent","rt":1091,"correct":true,"confidence":4},{"trial_n":70,"min":78,"max":177,"target":"absent","response":"present","rt":1642,"correct":false,"confidence":3},{"trial_n":71,"min":41,"max":214,"target":"present","response":"present","rt":984,"correct":true,"confidence":-1},{"trial_n":72,"min":41,"max":214,"target":"present","response":"present","rt":549,"correct":true,"confidence":-1},{"trial_n":73,"min":57,"max":198,"target":"absent","response":"absent","rt":1095,"correct":true,"confidence":-1},{"trial_n":74,"min":57,"max":198,"target":"absent","response":"absent","rt":895,"correct":true,"confidence":-1},{"trial_n":75,"min":73,"max":182,"target":"present","response":"present","rt":938,"correct":true,"confidence":-1},{"trial_n":76,"min":73,"max":182,"target":"present","response":"present","rt":877,"correct":true,"confidence":-1},{"trial_n":77,"min":89,"max":166,"target":"absent","response":"absent","rt":1075,"correct":true,"confidence":-1},{"trial_n":78,"min":89,"max":166,"target":"present","response":"present","rt":1207,"correct":true,"confidence":-1},{"trial_n":79,"min":105,"max":150,"target":"absent","response":"present","rt":828,"correct":false,"confidence":-1},{"trial_n":80,"min":89,"max":166,"target":"absent","response":"absent","rt":676,"correct":true,"confidence":-1},{"trial_n":81,"min":89,"max":166,"target":"absent","response":"present","rt":1843,"correct":false,"confidence":-1},{"trial_n":82,"min":81,"max":174,"target":"present","response":"present","rt":999,"correct":true,"confidence":-1},{"trial_n":83,"min":81,"max":174,"target":"absent","response":"present","rt":594,"correct":false,"confidence":-1},{"trial_n":84,"min":73,"max":182,"target":"present","response":"present","rt":563,"correct":true,"confidence":-1},{"trial_n":85,"min":73,"max":182,"target":"present","response":"present","rt":878,"correct":true,"confidence":-1},{"trial_n":86,"min":81,"max":174,"target":"present","response":"present","rt":518,"correct":true,"confidence":-1},{"trial_n":87,"min":81,"max":174,"target":"absent","response":"absent","rt":2413,"correct":true,"confidence":-1},{"trial_n":88,"min":89,"max":166,"target":"present","response":"present","rt":817,"correct":true,"confidence":-1},{"trial_n":89,"min":89,"max":166,"target":"absent","response":"present","rt":712,"correct":false,"confidence":-1},{"trial_n":90,"min":81,"max":174,"target":"present","response":"present","rt":870,"correct":true,"confidence":-1},{"trial_n":91,"min":81,"max":174,"target":"present","response":"present","rt":515,"correct":true,"confidence":5},{"trial_n":92,"min":85,"max":170,"target":"absent","response":"absent","rt":1382,"correct":true,"confidence":5},{"trial_n":93,"min":85,"max":170,"target":"present","response":"present","rt":761,"correct":true,"confidence":4},{"trial_n":94,"min":89,"max":166,"target":"absent","response":"absent","rt":3059,"correct":true,"confidence":2},{"trial_n":95,"min":89,"max":166,"target":"absent","response":"present","rt":1498,"correct":false,"confidence":3},{"trial_n":96,"min":85,"max":170,"target":"absent","response":"present","rt":857,"correct":false,"confidence":4},{"trial_n":97,"min":81,"max":174,"target":"present","response":"present","rt":883,"correct":true,"confidence":4},{"trial_n":98,"min":81,"max":174,"target":"present","response":"present","rt":668,"correct":true,"confidence":4},{"trial_n":99,"min":85,"max":170,"target":"present","response":"absent","rt":1708,"correct":false,"confidence":2},{"trial_n":100,"min":81,"max":174,"target":"absent","response":"present","rt":1565,"correct":false,"confidence":3},{"trial_n":101,"min":79,"max":176,"target":"absent","response":"absent","rt":661,"correct":true,"confidence":5},{"trial_n":102,"min":79,"max":176,"target":"present","response":"present","rt":1219,"correct":true,"confidence":5},{"trial_n":103,"min":81,"max":174,"target":"present","response":"present","rt":596,"correct":true,"confidence":5},{"trial_n":104,"min":81,"max":174,"target":"present","response":"present","rt":803,"correct":true,"confidence":3},{"trial_n":105,"min":83,"max":172,"target":"present","response":"absent","rt":3995,"correct":false,"confidence":3},{"trial_n":106,"min":81,"max":174,"target":"present","response":"present","rt":2352,"correct":true,"confidence":3},{"trial_n":107,"min":81,"max":174,"target":"present","response":"present","rt":5855,"correct":true,"confidence":2},{"trial_n":108,"min":83,"max":172,"target":"absent","response":"absent","rt":1015,"correct":true,"confidence":4},{"trial_n":109,"min":83,"max":172,"target":"absent","response":"present","rt":1327,"correct":false,"confidence":2},{"trial_n":110,"min":81,"max":174,"target":"absent","response":"absent","rt":1175,"correct":true,"confidence":2},{"trial_n":111,"min":81,"max":174,"target":"absent","response":"present","rt":759,"correct":false,"confidence":4},{"trial_n":112,"min":80,"max":175,"target":"present","response":"present","rt":660,"correct":true,"confidence":4},{"trial_n":113,"min":80,"max":175,"target":"present","response":"present","rt":1084,"correct":true,"confidence":2},{"trial_n":114,"min":81,"max":174,"target":"present","response":"present","rt":797,"correct":true,"confidence":3},{"trial_n":115,"min":81,"max":174,"target":"present","response":"present","rt":1933,"correct":true,"confidence":3},{"trial_n":116,"min":82,"max":173,"target":"absent","response":"absent","rt":904,"correct":true,"confidence":5},{"trial_n":117,"min":82,"max":173,"target":"absent","response":"absent","rt":1021,"correct":true,"confidence":4},{"trial_n":118,"min":83,"max":172,"target":"absent","response":"absent","rt":2882,"correct":true,"confidence":2},{"trial_n":119,"min":83,"max":172,"target":"absent","response":"present","rt":864,"correct":false,"confidence":3},{"trial_n":120,"min":82,"max":173,"target":"absent","response":"present","rt":728,"correct":false,"confidence":4},{"trial_n":121,"min":81,"max":174,"target":"absent","response":"absent","rt":737,"correct":true,"confidence":4},{"trial_n":122,"min":81,"max":174,"target":"absent","response":"present","rt":1078,"correct":false,"confidence":3},{"trial_n":123,"min":80,"max":175,"target":"present","response":"present","rt":1071,"correct":true,"confidence":5},{"trial_n":124,"min":80,"max":175,"target":"present","response":"present","rt":655,"correct":true,"confidence":5},{"trial_n":125,"min":81,"max":174,"target":"absent","response":"present","rt":1141,"correct":false,"confidence":2},{"trial_n":126,"min":80,"max":175,"target":"absent","response":"absent","rt":1049,"correct":true,"confidence":4},{"trial_n":127,"min":80,"max":175,"target":"absent","response":"absent","rt":1136,"correct":true,"confidence":5},{"trial_n":128,"min":81,"max":174,"target":"present","response":"present","rt":1321,"correct":true,"confidence":5},{"trial_n":129,"min":81,"max":174,"target":"present","response":"present","rt":2220,"correct":true,"confidence":2},{"trial_n":130,"min":82,"max":173,"target":"absent","response":"absent","rt":1123,"correct":true,"confidence":4},{"trial_n":131,"min":82,"max":173,"target":"absent","response":"present","rt":825,"correct":false,"confidence":2},{"trial_n":132,"min":81,"max":174,"target":"present","response":"present","rt":1800,"correct":true,"confidence":4},{"trial_n":133,"min":81,"max":174,"target":"present","response":"present","rt":1506,"correct":true,"confidence":3},{"trial_n":134,"min":82,"max":173,"target":"absent","response":"present","rt":5377,"correct":false,"confidence":2},{"trial_n":135,"min":81,"max":174,"target":"absent","response":"absent","rt":1013,"correct":true,"confidence":5},{"trial_n":136,"min":81,"max":174,"target":"present","response":"present","rt":1523,"correct":true,"confidence":5},{"trial_n":137,"min":82,"max":173,"target":"present","response":"present","rt":754,"correct":true,"confidence":5},{"trial_n":138,"min":82,"max":173,"target":"present","response":"present","rt":1236,"correct":true,"confidence":3},{"trial_n":139,"min":83,"max":172,"target":"present","response":"absent","rt":1793,"correct":false,"confidence":2},{"trial_n":140,"min":82,"max":173,"target":"absent","response":"absent","rt":2449,"correct":true,"confidence":3}]