[{"trial_n":1,"n_dots":4.25,"target":"left","response":"right","rt":5331.4000000954,"correct":false,"confidence":-1},{"trial_n":2,"n_dots":4.25,"target":"left","response":"right","rt":573.10000002384,"correct":false,"confidence":-1},{"trial_n":3,"n_dots":4.65,"target":"left","response":"left","rt":319.40000009537,"correct":true,"confidence":-1},{"trial_n":4,"n_dots":4.65,"target":"right","response":"right","rt":2478.5,"correct":true,"confidence":-1},{"trial_n":5,"n_dots":4.25,"target":"left","response":"left","rt":339,"correct":true,"confidence":-1},{"trial_n":6,"n_dots":4.25,"target":"right","response":"right","rt":405.69999992847,"correct":true,"confidence":-1},{"trial_n":7,"n_dots":3.85,"target":"left","response":"left","rt":255.20000004768,"correct":true,"confidence":-1},{"trial_n":8,"n_dots":3.85,"target":"right","response":"right","rt":154.5,"correct":true,"confidence":-1},{"trial_n":9,"n_dots":3.65,"target":"right","response":"right","rt":264.70000004768,"correct":true,"confidence":-1},{"trial_n":10,"n_dots":3.65,"target":"right","response":"right","rt":231.80000007153,"correct":true,"confidence":-1},{"trial_n":11,"n_dots":3.45,"target":"left","response":"left","rt":140.29999995232,"correct":true,"confidence":-1},{"trial_n":12,"n_dots":3.45,"target":"left","response":"right","rt":314.69999992847,"correct":false,"confidence":-1},{"trial_n":13,"n_dots":3.55,"target":"right","response":"right","rt":375.29999995232,"correct":true,"confidence":-1},{"trial_n":14,"n_dots":3.55,"target":"right","response":"right","rt":471.29999995232,"correct":true,"confidence":-1},{"trial_n":15,"n_dots":3.45,"target":"left","response":"left","rt":275.70000004768,"correct":true,"confidence":-1},{"trial_n":16,"n_dots":3.45,"target":"right","response":"right","rt":309,"correct":true,"confidence":-1},{"trial_n":17,"n_dots":3.35,"target":"left","response":"left","rt":331.60000002384,"correct":true,"confidence":-1},{"trial_n":18,"n_dots":3.35,"target":"left","response":"right","rt":291.5,"correct":false,"confidence":-1},{"trial_n":19,"n_dots":3.45,"target":"left","response":"left","rt":255,"correct":true,"confidence":-1},{"trial_n":20,"n_dots":3.45,"target":"left","response":"left","rt":465.19999992847,"correct":true,"confidence":-1},{"trial_n":21,"n_dots":3.35,"target":"left","response":"right","rt":269.40000009537,"correct":false,"confidence":4},{"trial_n":22,"n_dots":3.45,"target":"left","response":"left","rt":616.30000007153,"correct":true,"confidence":3},{"trial_n":23,"n_dots":3.45,"target":"right","response":"right","rt":720.5,"correct":true,"confidence":5},{"trial_n":24,"n_dots":3.35,"target":"left","response":"left","rt":864.70000004768,"correct":true,"confidence":3},{"trial_n":25,"n_dots":3.35,"target":"left","response":"left","rt":767.79999995232,"correct":true,"confidence":2},{"trial_n":26,"n_dots":3.25,"target":"right","response":"right","rt":592.79999995232,"correct":true,"confidence":2},{"trial_n":27,"n_dots":3.25,"target":"right","response":"right","rt":810.40000009537,"correct":true,"confidence":2},{"trial_n":28,"n_dots":3.15,"target":"left","response":"left","rt":761.79999995232,"correct":true,"confidence":3},{"trial_n":29,"n_dots":3.15,"target":"left","response":"left","rt":532.60000002384,"correct":true,"confidence":3},{"trial_n":30,"n_dots":3.05,"target":"right","response":"right","rt":504.19999992847,"correct":true,"confidence":3},{"trial_n":31,"n_dots":3.05,"target":"right","response":"right","rt":454.30000007153,"correct":true,"confidence":4},{"trial_n":32,"n_dots":2.95,"target":"left","response":"right","rt":438.10000002384,"correct":false,"confidence":2},{"trial_n":33,"n_dots":3.05,"target":"right","response":"right","rt":417.80000007153,"correct":true,"confidence":5},{"trial_n":34,"n_dots":3.05,"target":"left","response":"right","rt":601.89999997616,"correct":false,"confidence":3},{"trial_n":35,"n_dots":3.15,"target":"left","response":"left","rt":603,"correct":true,"confidence":2},{"trial_n":36,"n_dots":3.15,"target":"left","response":"left","rt":868.89999997616,"correct":true,"confidence":2},{"trial_n":37,"n_dots":3.05,"target":"left","response":"left","rt":1395.7000000477,"correct":true,"confidence":1},{"trial_n":38,"n_dots":3.05,"target":"left","response":"right","rt":715.80000007153,"correct":false,"confidence":1},{"trial_n":39,"n_dots":3.15,"target":"left","response":"left","rt":749,"correct":true,"confidence":2},{"trial_n":40,"n_dots":3.15,"target":"right","response":"right","rt":479.29999995232,"correct":true,"confidence":4},{"trial_n":41,"n_dots":3.05,"target":"right","response":"right","rt":286.5,"correct":true,"confidence":5},{"trial_n":42,"n_dots":3.05,"target":"right","response":"right","rt":362.29999995232,"correct":true,"confidence":5},{"trial_n":43,"n_dots":2.95,"target":"left","response":"right","rt":536.80000007153,"correct":false,"confidence":3},{"trial_n":44,"n_dots":3.05,"target":"right","response":"right","rt":545.20000004768,"correct":true,"confidence":4},{"trial_n":45,"n_dots":3.05,"target":"right","response":"right","rt":497.29999995232,"correct":true,"confidence":5},{"trial_n":46,"n_dots":2.95,"target":"right","response":"right","rt":495.19999992847,"correct":true,"confidence":2},{"trial_n":47,"n_dots":2.95,"target":"left","response":"right","rt":597.19999992847,"correct":false,"confidence":2},{"trial_n":48,"n_dots":3.05,"target":"left","response":"right","rt":801.09999990463,"correct":false,"confidence":1},{"trial_n":49,"n_dots":3.15,"target":"right","response":"right","rt":471.30000007153,"correct":true,"confidence":2},{"trial_n":50,"n_dots":3.15,"target":"right","response":"right","rt":523.5,"correct":true,"confidence":4},{"trial_n":51,"n_dots":3.05,"target":"right","response":"right","rt":617.80000007153,"correct":true,"confidence":4},{"trial_n":52,"n_dots":3.05,"target":"left","response":"right","rt":611.39999997616,"correct":false,"confidence":3},{"trial_n":53,"n_dots":3.15,"target":"left","response":"left","rt":509.29999995232,"correct":true,"confidence":3},{"trial_n":54,"n_dots":3.15,"target":"left","response":"left","rt":430.70000004768,"correct":true,"confidence":2},{"trial_n":55,"n_dots":3.05,"target":"right","response":"right","rt":471.10000002384,"correct":true,"confidence":3},{"trial_n":56,"n_dots":3.05,"target":"right","response":"right","rt":462.90000009537,"correct":true,"confidence":2},{"trial_n":57,"n_dots":2.95,"target":"right","response":"right","rt":358.79999995232,"correct":true,"confidence":3},{"trial_n":58,"n_dots":2.95,"target":"right","response":"right","rt":375.80000007153,"correct":true,"confidence":4},{"trial_n":59,"n_dots":2.85,"target":"right","response":"right","rt":506.90000009537,"correct":true,"confidence":3},{"trial_n":60,"n_dots":2.85,"target":"left","response":"left","rt":357.60000002384,"correct":true,"confidence":4},{"trial_n":61,"n_dots":2.75,"target":"left","response":"left","rt":500.69999992847,"correct":true,"confidence":3},{"trial_n":62,"n_dots":2.75,"target":"right","response":"left","rt":921.79999995232,"correct":false,"confidence":2},{"trial_n":63,"n_dots":2.85,"target":"right","response":"right","rt":561.60000002384,"correct":true,"confidence":2},{"trial_n":64,"n_dots":2.85,"target":"left","response":"left","rt":775,"correct":true,"confidence":1},{"trial_n":65,"n_dots":2.75,"target":"right","response":"right","rt":575.60000002384,"correct":true,"confidence":2},{"trial_n":66,"n_dots":2.75,"target":"left","response":"left","rt":700.40000009537,"correct":true,"confidence":1},{"trial_n":67,"n_dots":2.65,"target":"right","response":"right","rt":1249.5,"correct":true,"confidence":1},{"trial_n":68,"n_dots":2.65,"target":"right","response":"right","rt":732.70000004768,"correct":true,"confidence":1},{"trial_n":69,"n_dots":2.55,"target":"right","response":"right","rt":1317.1000000238,"correct":true,"confidence":1},{"trial_n":70,"n_dots":2.55,"target":"right","response":"left","rt":945.5,"correct":false,"confidence":1},{"trial_n":71,"n_dots":2.65,"target":"left","response":"right","rt":1335.8999999762,"correct":false,"confidence":1},{"trial_n":72,"n_dots":2.75,"target":"left","response":"right","rt":756.30000007153,"correct":false,"confidence":2},{"trial_n":73,"n_dots":2.85,"target":"right","response":"right","rt":489.39999997616,"correct":true,"confidence":3},{"trial_n":74,"n_dots":2.85,"target":"right","response":"right","rt":551.69999992847,"correct":true,"confidence":3},{"trial_n":75,"n_dots":2.75,"target":"right","response":"right","rt":579.40000009537,"correct":true,"confidence":1},{"trial_n":76,"n_dots":2.75,"target":"right","response":"right","rt":557.10000002384,"correct":true,"confidence":1},{"trial_n":77,"n_dots":2.65,"target":"left","response":"left","rt":669.5,"correct":true,"confidence":1},{"trial_n":78,"n_dots":2.65,"target":"left","response":"right","rt":910.60000002384,"correct":false,"confidence":2},{"trial_n":79,"n_dots":2.75,"target":"right","response":"right","rt":430.10000002384,"correct":true,"confidence":4},{"trial_n":80,"n_dots":2.75,"target":"left","response":"right","rt":643.29999995232,"correct":false,"confidence":3},{"trial_n":81,"n_dots":2.85,"target":"right","response":"right","rt":537.19999992847,"correct":true,"confidence":2},{"trial_n":82,"n_dots":2.85,"target":"left","response":"right","rt":669,"correct":false,"confidence":1},{"trial_n":83,"n_dots":2.95,"target":"left","response":"right","rt":1007.3000000715,"correct":false,"confidence":2},{"trial_n":84,"n_dots":3.05,"target":"right","response":"right","rt":681.60000002384,"correct":true,"confidence":3},{"trial_n":85,"n_dots":3.05,"target":"left","response":"left","rt":551.60000002384,"correct":true,"confidence":4},{"trial_n":86,"n_dots":2.95,"target":"right","response":"right","rt":507.60000002384,"correct":true,"confidence":3},{"trial_n":87,"n_dots":2.95,"target":"left","response":"left","rt":535.10000002384,"correct":true,"confidence":4},{"trial_n":88,"n_dots":2.85,"target":"right","response":"right","rt":384.39999997616,"correct":true,"confidence":5},{"trial_n":89,"n_dots":2.85,"target":"right","response":"right","rt":659.10000002384,"correct":true,"confidence":3},{"trial_n":90,"n_dots":2.75,"target":"left","response":"right","rt":640.5,"correct":false,"confidence":2},{"trial_n":91,"n_dots":2.85,"target":"right","response":"right","rt":1160.6000000238,"correct":true,"confidence":4},{"trial_n":92,"n_dots":2.85,"target":"left","response":"left","rt":535.09999990463,"correct":true,"confidence":4},{"trial_n":93,"n_dots":2.75,"target":"left","response":"right","rt":615.19999992847,"correct":false,"confidence":3},{"trial_n":94,"n_dots":2.85,"target":"right","response":"right","rt":1310.3999999762,"correct":true,"confidence":1},{"trial_n":95,"n_dots":2.85,"target":"right","response":"right","rt":349.39999997616,"correct":true,"confidence":2},{"trial_n":96,"n_dots":2.75,"target":"right","response":"right","rt":491.69999992847,"correct":true,"confidence":2},{"trial_n":97,"n_dots":2.75,"target":"right","response":"right","rt":791.30000007153,"correct":true,"confidence":2},{"trial_n":98,"n_dots":2.65,"target":"left","response":"left","rt":631.10000002384,"correct":true,"confidence":5},{"trial_n":99,"n_dots":2.65,"target":"left","response":"left","rt":342.69999992847,"correct":true,"confidence":4},{"trial_n":100,"n_dots":2.55,"target":"right","response":"right","rt":421.59999990463,"correct":true,"confidence":3},{"trial_n":101,"n_dots":2.55,"target":"right","response":"right","rt":490.70000004768,"correct":true,"confidence":2},{"trial_n":102,"n_dots":2.45,"target":"right","response":"right","rt":399.69999992847,"correct":true,"confidence":2},{"trial_n":103,"n_dots":2.45,"target":"left","response":"left","rt":368.89999997616,"correct":true,"confidence":4},{"trial_n":104,"n_dots":2.35,"target":"left","response":"left","rt":769.29999995232,"correct":true,"confidence":2},{"trial_n":105,"n_dots":2.35,"target":"left","response":"left","rt":648.69999992847,"correct":true,"confidence":3},{"trial_n":106,"n_dots":2.25,"target":"left","response":"right","rt":527.80000007153,"correct":false,"confidence":3},{"trial_n":107,"n_dots":2.35,"target":"right","response":"right","rt":659,"correct":true,"confidence":2},{"trial_n":108,"n_dots":2.35,"target":"right","response":"right","rt":507.60000002384,"correct":true,"confidence":4},{"trial_n":109,"n_dots":2.25,"target":"left","response":"right","rt":752.30000007153,"correct":false,"confidence":2},{"trial_n":110,"n_dots":2.35,"target":"left","response":"right","rt":545,"correct":false,"confidence":1},{"trial_n":111,"n_dots":2.45,"target":"right","response":"right","rt":473.70000004768,"correct":true,"confidence":3},{"trial_n":112,"n_dots":2.45,"target":"left","response":"left","rt":890.70000004768,"correct":true,"confidence":4},{"trial_n":113,"n_dots":2.35,"target":"left","response":"right","rt":8894.7000000477,"correct":false,"confidence":1},{"trial_n":114,"n_dots":2.45,"target":"right","response":"right","rt":514.29999995232,"correct":true,"confidence":4},{"trial_n":115,"n_dots":2.45,"target":"right","response":"right","rt":687.30000007153,"correct":true,"confidence":3},{"trial_n":116,"n_dots":2.35,"target":"left","response":"right","rt":470.89999997616,"correct":false,"confidence":5},{"trial_n":117,"n_dots":2.45,"target":"right","response":"right","rt":818.20000004768,"correct":true,"confidence":3},{"trial_n":118,"n_dots":2.45,"target":"left","response":"right","rt":649.10000002384,"correct":false,"confidence":4},{"trial_n":119,"n_dots":2.55,"target":"left","response":"right","rt":539.5,"correct":false,"confidence":3},{"trial_n":120,"n_dots":2.65,"target":"right","response":"right","rt":611.19999992847,"correct":true,"confidence":2}]