[{"trial_n":1,"span":8,"encoder":"69078941","distractor":"65078941","target":"present","response":"present","rt":"7464.3999999762","correct":true,"confidence":-1},{"trial_n":2,"span":8,"encoder":"83523781","distractor":"82523781","target":"present","response":"present","rt":"2095.8000000715","correct":true,"confidence":-1},{"trial_n":3,"span":10,"encoder":"2133986112","distractor":"2139986112","target":"absent","response":"present","rt":"2222","correct":false,"confidence":-1},{"trial_n":4,"span":8,"encoder":"26240363","distractor":"26340363","target":"absent","response":"present","rt":"1763.9000000954","correct":false,"confidence":-1},{"trial_n":5,"span":6,"encoder":"364714","distractor":"364704","target":"present","response":"present","rt":"1272.2999999523","correct":true,"confidence":-1},{"trial_n":6,"span":6,"encoder":"165187","distractor":"665187","target":"present","response":"present","rt":"1881.7999999523","correct":true,"confidence":-1},{"trial_n":7,"span":8,"encoder":"62634374","distractor":"62634376","target":"absent","response":"absent","rt":"3784.5999999046","correct":true,"confidence":-1},{"trial_n":8,"span":8,"encoder":"31845061","distractor":"31845761","target":"absent","response":"present","rt":"946.20000004768","correct":false,"confidence":-1},{"trial_n":9,"span":6,"encoder":"011139","distractor":"011169","target":"present","response":"present","rt":"1218.7000000477","correct":true,"confidence":-1},{"trial_n":10,"span":6,"encoder":"345116","distractor":"345516","target":"present","response":"present","rt":"1222.7999999523","correct":true,"confidence":-1},{"trial_n":11,"span":8,"encoder":"50885641","distractor":"20885641","target":"present","response":"present","rt":"1540.1999999285","correct":true,"confidence":-1},{"trial_n":12,"span":8,"encoder":"68193325","distractor":"68193365","target":"absent","response":"present","rt":"1332.8999999762","correct":false,"confidence":-1},{"trial_n":13,"span":7,"encoder":"2395772","distractor":"2395775","target":"present","response":"present","rt":"3463.8000000715","correct":true,"confidence":-1},{"trial_n":14,"span":7,"encoder":"7188512","distractor":"7118512","target":"present","response":"present","rt":"2139.2999999523","correct":true,"confidence":-1},{"trial_n":15,"span":8,"encoder":"13634866","distractor":"13624866","target":"present","response":"absent","rt":"2573.1000000238","correct":false,"confidence":-1},{"trial_n":16,"span":7,"encoder":"1175706","distractor":"1172706","target":"absent","response":"absent","rt":"3386.7999999523","correct":true,"confidence":-1},{"trial_n":17,"span":7,"encoder":"3525980","distractor":"3515980","target":"present","response":"present","rt":"2438.6000000238","correct":true,"confidence":-1},{"trial_n":18,"span":8,"encoder":"73198569","distractor":"73198565","target":"present","response":"present","rt":"1513.8999999762","correct":true,"confidence":-1},{"trial_n":19,"span":8,"encoder":"10540402","distractor":"10540404","target":"present","response":"present","rt":"1034.3999999762","correct":true,"confidence":-1},{"trial_n":20,"span":9,"encoder":"675841481","distractor":"685841481","target":"absent","response":"absent","rt":"2567.2000000477","correct":true,"confidence":-1},{"trial_n":21,"span":9,"encoder":"362983068","distractor":"862983068","target":"absent","response":"present","rt":"877.60000002384","correct":false,"confidence":2},{"trial_n":22,"span":8,"encoder":"22958632","distractor":"32958632","target":"present","response":"present","rt":"2742.1000000238","correct":true,"confidence":3},{"trial_n":23,"span":8,"encoder":"00505944","distractor":"00505984","target":"present","response":"present","rt":"1907.5","correct":true,"confidence":5},{"trial_n":24,"span":9,"encoder":"343276723","distractor":"341276723","target":"absent","response":"present","rt":"3073.5","correct":false,"confidence":4},{"trial_n":25,"span":8,"encoder":"77808176","distractor":"77808276","target":"present","response":"present","rt":"2955.8999999762","correct":true,"confidence":5},{"trial_n":26,"span":8,"encoder":"63968331","distractor":"63968336","target":"absent","response":"present","rt":"3159.2000000477","correct":false,"confidence":3},{"trial_n":27,"span":7,"encoder":"5915462","distractor":"5975462","target":"present","response":"present","rt":"2235.4000000954","correct":true,"confidence":3},{"trial_n":28,"span":7,"encoder":"2636403","distractor":"2639403","target":"present","response":"present","rt":"1849.2000000477","correct":true,"confidence":4},{"trial_n":29,"span":8,"encoder":"50015790","distractor":"50115790","target":"present","response":"present","rt":"2850.7999999523","correct":true,"confidence":4},{"trial_n":30,"span":8,"encoder":"11795094","distractor":"11795594","target":"absent","response":"absent","rt":"2969.2000000477","correct":true,"confidence":2},{"trial_n":31,"span":9,"encoder":"796749891","distractor":"296749891","target":"absent","response":"present","rt":"3317.9000000954","correct":false,"confidence":2},{"trial_n":32,"span":8,"encoder":"84304339","distractor":"84304139","target":"present","response":"present","rt":"1526.7999999523","correct":true,"confidence":5},{"trial_n":33,"span":8,"encoder":"67233361","distractor":"17233361","target":"absent","response":"absent","rt":"4173.7999999523","correct":true,"confidence":4},{"trial_n":34,"span":9,"encoder":"465084671","distractor":"465884671","target":"absent","response":"present","rt":"3013.6000000238","correct":false,"confidence":3},{"trial_n":35,"span":8,"encoder":"06175939","distractor":"06175839","target":"present","response":"present","rt":"2802.8999999762","correct":true,"confidence":4},{"trial_n":36,"span":8,"encoder":"63821908","distractor":"63821978","target":"absent","response":"absent","rt":"3619.5","correct":true,"confidence":3},{"trial_n":37,"span":9,"encoder":"933448957","distractor":"533448957","target":"absent","response":"present","rt":"4691.2000000477","correct":false,"confidence":2},{"trial_n":38,"span":8,"encoder":"34177291","distractor":"34174291","target":"present","response":"present","rt":"4708.8999999762","correct":true,"confidence":3},{"trial_n":39,"span":8,"encoder":"70709677","distractor":"70709675","target":"absent","response":"absent","rt":"2561.5","correct":true,"confidence":4},{"trial_n":40,"span":9,"encoder":"731780401","distractor":"031780401","target":"absent","response":"present","rt":"2805","correct":false,"confidence":1},{"trial_n":41,"span":8,"encoder":"20188539","distractor":"21188539","target":"present","response":"present","rt":"1179.7000000477","correct":true,"confidence":3},{"trial_n":42,"span":8,"encoder":"00452831","distractor":"00442831","target":"absent","response":"absent","rt":"2587.6999999285","correct":true,"confidence":1},{"trial_n":43,"span":9,"encoder":"906121339","distractor":"906129339","target":"absent","response":"present","rt":"1425.3000000715","correct":false,"confidence":3},{"trial_n":44,"span":8,"encoder":"92367914","distractor":"92327914","target":"present","response":"present","rt":"2962.3000000715","correct":true,"confidence":3},{"trial_n":45,"span":8,"encoder":"32326862","distractor":"32926862","target":"present","response":"present","rt":"3198.0999999046","correct":true,"confidence":3},{"trial_n":46,"span":9,"encoder":"043365518","distractor":"041365518","target":"present","response":"present","rt":"2053.6000000238","correct":true,"confidence":4},{"trial_n":47,"span":9,"encoder":"466583134","distractor":"466583834","target":"present","response":"absent","rt":"4196.1000000238","correct":false,"confidence":3},{"trial_n":48,"span":8,"encoder":"15051601","distractor":"15851601","target":"present","response":"present","rt":"2371.2000000477","correct":true,"confidence":3},{"trial_n":49,"span":8,"encoder":"55245127","distractor":"55245227","target":"absent","response":"present","rt":"1799.0999999046","correct":false,"confidence":3},{"trial_n":50,"span":7,"encoder":"1345238","distractor":"1345738","target":"absent","response":"absent","rt":"2869.6000000238","correct":true,"confidence":3},{"trial_n":51,"span":7,"encoder":"0594775","distractor":"0494775","target":"present","response":"present","rt":"2360.7999999523","correct":true,"confidence":3},{"trial_n":52,"span":8,"encoder":"85622560","distractor":"85627560","target":"absent","response":"absent","rt":"2886.0999999046","correct":true,"confidence":4},{"trial_n":53,"span":8,"encoder":"91836461","distractor":"91806461","target":"absent","response":"present","rt":"4191.2000000477","correct":false,"confidence":3},{"trial_n":54,"span":7,"encoder":"4818429","distractor":"4808429","target":"absent","response":"absent","rt":"2943","correct":true,"confidence":3},{"trial_n":55,"span":7,"encoder":"4700757","distractor":"4700797","target":"absent","response":"absent","rt":"2042.8999999762","correct":true,"confidence":3},{"trial_n":56,"span":8,"encoder":"30491650","distractor":"30491610","target":"absent","response":"present","rt":"2555.8000000715","correct":false,"confidence":1},{"trial_n":57,"span":7,"encoder":"7898445","distractor":"7898446","target":"absent","response":"absent","rt":"1778.0999999046","correct":true,"confidence":5},{"trial_n":58,"span":7,"encoder":"9425264","distractor":"9425464","target":"absent","response":"present","rt":"2868.7000000477","correct":false,"confidence":2},{"trial_n":59,"span":6,"encoder":"585690","distractor":"585600","target":"present","response":"present","rt":"2301.7000000477","correct":true,"confidence":5},{"trial_n":60,"span":6,"encoder":"506351","distractor":"506356","target":"present","response":"present","rt":"2579.5","correct":true,"confidence":5},{"trial_n":61,"span":7,"encoder":"0734851","distractor":"0730851","target":"absent","response":"present","rt":"4828.3000000715","correct":false,"confidence":2},{"trial_n":62,"span":6,"encoder":"271237","distractor":"271297","target":"absent","response":"absent","rt":"1949","correct":true,"confidence":5},{"trial_n":63,"span":6,"encoder":"351469","distractor":"357469","target":"present","response":"present","rt":"2204.4000000954","correct":true,"confidence":4},{"trial_n":64,"span":7,"encoder":"1227915","distractor":"1222915","target":"present","response":"present","rt":"3825.5","correct":true,"confidence":3},{"trial_n":65,"span":7,"encoder":"4762907","distractor":"2762907","target":"present","response":"present","rt":"4403.9000000954","correct":true,"confidence":3},{"trial_n":66,"span":8,"encoder":"22397799","distractor":"22397797","target":"absent","response":"absent","rt":"14615.299999952","correct":true,"confidence":3},{"trial_n":67,"span":8,"encoder":"68792782","distractor":"68792787","target":"present","response":"present","rt":"4373.2999999523","correct":true,"confidence":3},{"trial_n":68,"span":9,"encoder":"497335688","distractor":"797335688","target":"absent","response":"absent","rt":"4915.7000000477","correct":true,"confidence":2},{"trial_n":69,"span":9,"encoder":"752802887","distractor":"752805887","target":"present","response":"present","rt":"3964.3999999762","correct":true,"confidence":3},{"trial_n":70,"span":10,"encoder":"4015648881","distractor":"4015848881","target":"absent","response":"present","rt":"2445.1000000238","correct":false,"confidence":3},{"trial_n":71,"span":8,"encoder":"07464221","distractor":"37464221","target":"present","response":"present","rt":"2966.8000000715","correct":true,"confidence":-1},{"trial_n":72,"span":8,"encoder":"39861477","distractor":"39821477","target":"present","response":"present","rt":"3977.5","correct":true,"confidence":-1},{"trial_n":73,"span":9,"encoder":"000429352","distractor":"000429302","target":"absent","response":"present","rt":"3415","correct":false,"confidence":-1},{"trial_n":74,"span":8,"encoder":"08408890","distractor":"09408890","target":"absent","response":"absent","rt":"4826.5","correct":true,"confidence":-1},{"trial_n":75,"span":8,"encoder":"54139192","distractor":"50139192","target":"present","response":"present","rt":"4176.9000000954","correct":true,"confidence":-1},{"trial_n":76,"span":9,"encoder":"494391840","distractor":"494396840","target":"present","response":"present","rt":"4705.7000000477","correct":true,"confidence":-1},{"trial_n":77,"span":9,"encoder":"662824058","distractor":"662854058","target":"absent","response":"absent","rt":"6291.7999999523","correct":true,"confidence":-1},{"trial_n":78,"span":10,"encoder":"1386774333","distractor":"1386784333","target":"absent","response":"absent","rt":"3086","correct":true,"confidence":-1},{"trial_n":79,"span":10,"encoder":"4379598756","distractor":"4379598776","target":"absent","response":"absent","rt":"1871.7000000477","correct":true,"confidence":-1},{"trial_n":80,"span":11,"encoder":"96258504237","distractor":"95258504237","target":"present","response":"present","rt":"5086.7000000477","correct":true,"confidence":-1},{"trial_n":81,"span":11,"encoder":"12500311295","distractor":"10500311295","target":"present","response":"present","rt":"4952.7999999523","correct":true,"confidence":-1},{"trial_n":82,"span":12,"encoder":"817521033407","distractor":"817521035407","target":"absent","response":"absent","rt":"2465.8999999762","correct":true,"confidence":-1},{"trial_n":83,"span":12,"encoder":"613211080179","distractor":"613211080479","target":"present","response":"absent","rt":"5633.3999999762","correct":false,"confidence":-1},{"trial_n":84,"span":11,"encoder":"13855344905","distractor":"13855374905","target":"present","response":"present","rt":"6871.0999999046","correct":true,"confidence":-1},{"trial_n":85,"span":11,"encoder":"40003146871","distractor":"40003946871","target":"absent","response":"absent","rt":"4387.7999999523","correct":true,"confidence":-1},{"trial_n":86,"span":12,"encoder":"141926585313","distractor":"141929585313","target":"absent","response":"absent","rt":"3434.2000000477","correct":true,"confidence":-1},{"trial_n":87,"span":12,"encoder":"011612406667","distractor":"011610406667","target":"present","response":"present","rt":"3582.5999999046","correct":true,"confidence":-1},{"trial_n":88,"span":13,"encoder":"0667019029449","distractor":"0367019029449","target":"absent","response":"present","rt":"3612.6999999285","correct":false,"confidence":-1},{"trial_n":89,"span":12,"encoder":"068249105810","distractor":"068243105810","target":"absent","response":"present","rt":"5387.6999999285","correct":false,"confidence":-1},{"trial_n":90,"span":11,"encoder":"26352382176","distractor":"26352382376","target":"present","response":"present","rt":"1902.1999999285","correct":true,"confidence":-1},{"trial_n":91,"span":11,"encoder":"03026252184","distractor":"04026252184","target":"present","response":"present","rt":"6861.6000000238","correct":true,"confidence":2},{"trial_n":92,"span":12,"encoder":"062437958239","distractor":"062431958239","target":"absent","response":"present","rt":"6222.7999999523","correct":false,"confidence":1},{"trial_n":93,"span":11,"encoder":"65122406700","distractor":"65122406702","target":"present","response":"present","rt":"5871.2999999523","correct":true,"confidence":3},{"trial_n":94,"span":11,"encoder":"42437541748","distractor":"42435541748","target":"present","response":"present","rt":"4831.1999999285","correct":true,"confidence":3},{"trial_n":95,"span":12,"encoder":"984725800957","distractor":"984725800917","target":"present","response":"present","rt":"2482.1000000238","correct":true,"confidence":5},{"trial_n":96,"span":12,"encoder":"643507749664","distractor":"643307749664","target":"present","response":"absent","rt":"8457.1000000238","correct":false,"confidence":3},{"trial_n":97,"span":11,"encoder":"89101245937","distractor":"89101245977","target":"present","response":"present","rt":"8023.3999999762","correct":true,"confidence":4},{"trial_n":98,"span":11,"encoder":"10631507578","distractor":"17631507578","target":"present","response":"absent","rt":"8042.9000000954","correct":false,"confidence":3},{"trial_n":99,"span":10,"encoder":"0549318375","distractor":"0548318375","target":"present","response":"present","rt":"5611.2000000477","correct":true,"confidence":3},{"trial_n":100,"span":10,"encoder":"9669707038","distractor":"9669707068","target":"absent","response":"absent","rt":"1752.7999999523","correct":true,"confidence":5},{"trial_n":101,"span":11,"encoder":"75296527146","distractor":"75290527146","target":"absent","response":"absent","rt":"5628","correct":true,"confidence":2},{"trial_n":102,"span":11,"encoder":"58439747455","distractor":"58539747455","target":"absent","response":"absent","rt":"4521.3999999762","correct":true,"confidence":4},{"trial_n":103,"span":12,"encoder":"281251166197","distractor":"281251166193","target":"absent","response":"present","rt":"14593.200000048","correct":false,"confidence":2},{"trial_n":104,"span":11,"encoder":"76003886737","distractor":"76003886777","target":"present","response":"present","rt":"2320.7000000477","correct":true,"confidence":5},{"trial_n":105,"span":11,"encoder":"94004167113","distractor":"94004162113","target":"absent","response":"absent","rt":"2801.6000000238","correct":true,"confidence":5},{"trial_n":106,"span":12,"encoder":"447771797567","distractor":"407771797567","target":"absent","response":"absent","rt":"5015.2999999523","correct":true,"confidence":4},{"trial_n":107,"span":12,"encoder":"689629961508","distractor":"689629941508","target":"absent","response":"absent","rt":"5423.2000000477","correct":true,"confidence":4},{"trial_n":108,"span":13,"encoder":"2734811432682","distractor":"2734811432622","target":"absent","response":"absent","rt":"2689.1000000238","correct":true,"confidence":5},{"trial_n":109,"span":13,"encoder":"6790519903550","distractor":"5790519903550","target":"present","response":"absent","rt":"4266.4000000954","correct":false,"confidence":3},{"trial_n":110,"span":12,"encoder":"943570778109","distractor":"943270778109","target":"present","response":"present","rt":"4471.2999999523","correct":true,"confidence":1},{"trial_n":111,"span":12,"encoder":"490917875726","distractor":"490957875726","target":"absent","response":"present","rt":"8926","correct":false,"confidence":3},{"trial_n":112,"span":11,"encoder":"84682805299","distractor":"84682805899","target":"present","response":"present","rt":"4272.3000000715","correct":true,"confidence":3},{"trial_n":113,"span":11,"encoder":"88279425336","distractor":"88279425326","target":"present","response":"present","rt":"1694","correct":true,"confidence":5},{"trial_n":114,"span":12,"encoder":"163634081093","distractor":"163630081093","target":"absent","response":"absent","rt":"3558.3000000715","correct":true,"confidence":3},{"trial_n":115,"span":12,"encoder":"900653254240","distractor":"900653254245","target":"present","response":"present","rt":"11109","correct":true,"confidence":1},{"trial_n":116,"span":13,"encoder":"5801395379346","distractor":"5809395379346","target":"present","response":"present","rt":"8396.7000000477","correct":true,"confidence":2},{"trial_n":117,"span":13,"encoder":"0144861985447","distractor":"0144961985447","target":"absent","response":"present","rt":"5240.8999999762","correct":false,"confidence":3},{"trial_n":118,"span":12,"encoder":"478268283555","distractor":"478968283555","target":"present","response":"present","rt":"8722","correct":true,"confidence":3},{"trial_n":119,"span":12,"encoder":"193069112018","distractor":"193066112018","target":"absent","response":"absent","rt":"4555.6999999285","correct":true,"confidence":2},{"trial_n":120,"span":13,"encoder":"3018281557816","distractor":"3018285557816","target":"absent","response":"absent","rt":"7688.7999999523","correct":true,"confidence":2},{"trial_n":121,"span":13,"encoder":"3626998969940","distractor":"3626998969950","target":"present","response":"present","rt":"3124.6000000238","correct":true,"confidence":4},{"trial_n":122,"span":14,"encoder":"82672495685118","distractor":"82673495685118","target":"absent","response":"present","rt":"5103.1000000238","correct":false,"confidence":2},{"trial_n":123,"span":13,"encoder":"7450235367071","distractor":"7459235367071","target":"absent","response":"present","rt":"5872.7999999523","correct":false,"confidence":3},{"trial_n":124,"span":12,"encoder":"859225790969","distractor":"859025790969","target":"present","response":"absent","rt":"5501.9000000954","correct":false,"confidence":3},{"trial_n":125,"span":11,"encoder":"35038566088","distractor":"35738566088","target":"present","response":"present","rt":"5129","correct":true,"confidence":4},{"trial_n":126,"span":11,"encoder":"21887994970","distractor":"21887924970","target":"present","response":"present","rt":"2527.5999999046","correct":true,"confidence":3},{"trial_n":127,"span":12,"encoder":"142251067001","distractor":"142251097001","target":"present","response":"present","rt":"4854","correct":true,"confidence":4},{"trial_n":128,"span":12,"encoder":"371231673447","distractor":"371231673440","target":"absent","response":"absent","rt":"9839.2000000477","correct":true,"confidence":3},{"trial_n":129,"span":13,"encoder":"8794601978869","distractor":"8764601978869","target":"absent","response":"present","rt":"6917.1999999285","correct":false,"confidence":2},{"trial_n":130,"span":12,"encoder":"759698201900","distractor":"759698281900","target":"absent","response":"absent","rt":"3175.6000000238","correct":true,"confidence":5},{"trial_n":131,"span":12,"encoder":"024428818654","distractor":"064428818654","target":"present","response":"absent","rt":"3510.8999999762","correct":false,"confidence":3},{"trial_n":132,"span":11,"encoder":"31845209647","distractor":"31849209647","target":"absent","response":"present","rt":"3802.2000000477","correct":false,"confidence":3},{"trial_n":133,"span":10,"encoder":"7678236419","distractor":"7678266419","target":"present","response":"absent","rt":"9482.3000000715","correct":false,"confidence":3},{"trial_n":134,"span":9,"encoder":"535630967","distractor":"535660967","target":"absent","response":"absent","rt":"2182.3999999762","correct":true,"confidence":5},{"trial_n":135,"span":9,"encoder":"912021716","distractor":"919021716","target":"present","response":"present","rt":"8309.8999999762","correct":true,"confidence":3},{"trial_n":136,"span":10,"encoder":"2686726130","distractor":"2686726430","target":"present","response":"present","rt":"1771.7000000477","correct":true,"confidence":4},{"trial_n":137,"span":10,"encoder":"2828234759","distractor":"2828234749","target":"absent","response":"absent","rt":"2033","correct":true,"confidence":5},{"trial_n":138,"span":11,"encoder":"97240933633","distractor":"97230933633","target":"absent","response":"absent","rt":"5008.1000000238","correct":true,"confidence":3},{"trial_n":139,"span":11,"encoder":"73461826804","distractor":"73261826804","target":"absent","response":"present","rt":"5146","correct":false,"confidence":2},{"trial_n":140,"span":10,"encoder":"8199820320","distractor":"8199820328","target":"present","response":"present","rt":"2381.3999999762","correct":true,"confidence":4}]