[{"trial_n":1,"span":8,"encoder":"00846734","distractor":"80846734","target":"present","response":"present","rt":"4262","correct":true,"confidence":-1},{"trial_n":2,"span":8,"encoder":"89595962","distractor":"80595962","target":"present","response":"present","rt":"2833.8000001907","correct":true,"confidence":-1},{"trial_n":3,"span":10,"encoder":"0243347523","distractor":"0243346523","target":"absent","response":"absent","rt":"2535.9000000954","correct":true,"confidence":-1},{"trial_n":4,"span":10,"encoder":"4173486177","distractor":"4173436177","target":"absent","response":"present","rt":"3049.2999997139","correct":false,"confidence":-1},{"trial_n":5,"span":8,"encoder":"60919409","distractor":"60919109","target":"present","response":"present","rt":"1762.7000002861","correct":true,"confidence":-1},{"trial_n":6,"span":8,"encoder":"88060662","distractor":"88060666","target":"present","response":"present","rt":"2502.2999997139","correct":true,"confidence":-1},{"trial_n":7,"span":10,"encoder":"3784921694","distractor":"3784921594","target":"present","response":"present","rt":"2517.3000001907","correct":true,"confidence":-1},{"trial_n":8,"span":10,"encoder":"9080766255","distractor":"9280766255","target":"absent","response":"absent","rt":"1721.2000002861","correct":true,"confidence":-1},{"trial_n":9,"span":12,"encoder":"604338456331","distractor":"604338456333","target":"absent","response":"absent","rt":"1748.6000003815","correct":true,"confidence":-1},{"trial_n":10,"span":12,"encoder":"109308029999","distractor":"109308029899","target":"present","response":"absent","rt":"2169.9000000954","correct":false,"confidence":-1},{"trial_n":11,"span":10,"encoder":"4901945528","distractor":"4901945522","target":"absent","response":"absent","rt":"1939.2000002861","correct":true,"confidence":-1},{"trial_n":12,"span":10,"encoder":"3815572188","distractor":"3815582188","target":"present","response":"present","rt":"2250.0999999046","correct":true,"confidence":-1},{"trial_n":13,"span":11,"encoder":"08828521328","distractor":"08828521348","target":"absent","response":"absent","rt":"4493.0999999046","correct":true,"confidence":-1},{"trial_n":14,"span":11,"encoder":"92484309085","distractor":"92784309085","target":"present","response":"present","rt":"2612.7000002861","correct":true,"confidence":-1},{"trial_n":15,"span":12,"encoder":"150757533524","distractor":"150757533520","target":"present","response":"present","rt":"2576.7999997139","correct":true,"confidence":-1},{"trial_n":16,"span":12,"encoder":"143010105929","distractor":"143010105923","target":"present","response":"present","rt":"4438.9000000954","correct":true,"confidence":-1},{"trial_n":17,"span":13,"encoder":"4208332517063","distractor":"4208332517061","target":"present","response":"present","rt":"1863.9000000954","correct":true,"confidence":-1},{"trial_n":18,"span":13,"encoder":"6355325952131","distractor":"1355325952131","target":"present","response":"present","rt":"1681.8000001907","correct":true,"confidence":-1},{"trial_n":19,"span":14,"encoder":"71144957662852","distractor":"71944957662852","target":"present","response":"present","rt":"1327.6999998093","correct":true,"confidence":-1},{"trial_n":20,"span":14,"encoder":"21222572173932","distractor":"21222772173932","target":"absent","response":"present","rt":"2608.5","correct":false,"confidence":-1},{"trial_n":21,"span":13,"encoder":"3001034162320","distractor":"3001034160320","target":"absent","response":"present","rt":"5710.5","correct":false,"confidence":4},{"trial_n":22,"span":12,"encoder":"019670199765","distractor":"019670191765","target":"absent","response":"present","rt":"4043.0999999046","correct":false,"confidence":5},{"trial_n":23,"span":11,"encoder":"00876884266","distractor":"00873884266","target":"absent","response":"present","rt":"1894.2999997139","correct":false,"confidence":5},{"trial_n":24,"span":10,"encoder":"8649692630","distractor":"8449692630","target":"absent","response":"absent","rt":"2052.9000000954","correct":true,"confidence":5},{"trial_n":25,"span":10,"encoder":"8079404821","distractor":"8070404821","target":"absent","response":"absent","rt":"5468.5","correct":true,"confidence":3},{"trial_n":26,"span":11,"encoder":"33336329904","distractor":"33396329904","target":"present","response":"present","rt":"3883.1999998093","correct":true,"confidence":5},{"trial_n":27,"span":11,"encoder":"62888233676","distractor":"62887233676","target":"absent","response":"present","rt":"4759.5999999046","correct":false,"confidence":4},{"trial_n":28,"span":10,"encoder":"5817435788","distractor":"5517435788","target":"present","response":"present","rt":"2090.9000000954","correct":true,"confidence":3},{"trial_n":29,"span":10,"encoder":"2207693713","distractor":"9207693713","target":"absent","response":"absent","rt":"5396.8000001907","correct":true,"confidence":3},{"trial_n":30,"span":11,"encoder":"65058255057","distractor":"65858255057","target":"present","response":"present","rt":"4028.5999999046","correct":true,"confidence":3},{"trial_n":31,"span":11,"encoder":"47411983295","distractor":"47511983295","target":"present","response":"present","rt":"10659.300000191","correct":true,"confidence":3},{"trial_n":32,"span":12,"encoder":"055854837416","distractor":"055854837316","target":"absent","response":"present","rt":"4650.3999996185","correct":false,"confidence":2},{"trial_n":33,"span":11,"encoder":"01921259297","distractor":"01928259297","target":"absent","response":"absent","rt":"5658.5","correct":true,"confidence":2},{"trial_n":34,"span":11,"encoder":"01230796863","distractor":"01230796861","target":"present","response":"absent","rt":"5277","correct":false,"confidence":3},{"trial_n":35,"span":10,"encoder":"8707683525","distractor":"8707683522","target":"present","response":"present","rt":"3759.4000000954","correct":true,"confidence":3},{"trial_n":36,"span":10,"encoder":"2698332658","distractor":"2698322658","target":"absent","response":"absent","rt":"3848.0999999046","correct":true,"confidence":3},{"trial_n":37,"span":11,"encoder":"77713350324","distractor":"77713320324","target":"present","response":"present","rt":"3179.6999998093","correct":true,"confidence":3},{"trial_n":38,"span":11,"encoder":"89717671965","distractor":"69717671965","target":"present","response":"present","rt":"3850","correct":true,"confidence":5},{"trial_n":39,"span":12,"encoder":"722291876905","distractor":"772291876905","target":"present","response":"present","rt":"2284.8000001907","correct":true,"confidence":3},{"trial_n":40,"span":12,"encoder":"627259884138","distractor":"627259884188","target":"present","response":"present","rt":"3449.6999998093","correct":true,"confidence":2},{"trial_n":41,"span":13,"encoder":"0546352505766","distractor":"9546352505766","target":"absent","response":"absent","rt":"3364.6999998093","correct":true,"confidence":4},{"trial_n":42,"span":13,"encoder":"1064024688270","distractor":"1064224688270","target":"present","response":"present","rt":"9558.1999998093","correct":true,"confidence":3},{"trial_n":43,"span":14,"encoder":"59555069622520","distractor":"59535069622520","target":"absent","response":"absent","rt":"1750.4000000954","correct":true,"confidence":5},{"trial_n":44,"span":14,"encoder":"00416369177953","distractor":"00416367177953","target":"present","response":"present","rt":"3196.5","correct":true,"confidence":3},{"trial_n":45,"span":15,"encoder":"870129100020328","distractor":"870129100023328","target":"absent","response":"present","rt":"4091.2000002861","correct":false,"confidence":3},{"trial_n":46,"span":14,"encoder":"25443681095450","distractor":"15443681095450","target":"present","response":"present","rt":"2210.1999998093","correct":true,"confidence":3},{"trial_n":47,"span":14,"encoder":"82222300556250","distractor":"82222700556250","target":"absent","response":"present","rt":"2059.0999999046","correct":false,"confidence":4},{"trial_n":48,"span":13,"encoder":"2640693801935","distractor":"2640993801935","target":"present","response":"present","rt":"36321.099999905","correct":true,"confidence":2},{"trial_n":49,"span":13,"encoder":"4952478728896","distractor":"8952478728896","target":"absent","response":"present","rt":"5434.4000000954","correct":false,"confidence":4},{"trial_n":50,"span":12,"encoder":"251571604170","distractor":"251571404170","target":"absent","response":"absent","rt":"6924","correct":true,"confidence":4},{"trial_n":51,"span":12,"encoder":"997710801144","distractor":"997718801144","target":"present","response":"present","rt":"2448.5","correct":true,"confidence":2},{"trial_n":52,"span":13,"encoder":"2447511310093","distractor":"2447511320093","target":"present","response":"present","rt":"2060.0999999046","correct":true,"confidence":3},{"trial_n":53,"span":13,"encoder":"4924243153402","distractor":"4924443153402","target":"absent","response":"absent","rt":"1998.9000000954","correct":true,"confidence":5},{"trial_n":54,"span":14,"encoder":"45500082381858","distractor":"45500082321858","target":"absent","response":"present","rt":"3334.3000001907","correct":false,"confidence":2},{"trial_n":55,"span":13,"encoder":"5639542736090","distractor":"5639542786090","target":"present","response":"present","rt":"4381.5999999046","correct":true,"confidence":2},{"trial_n":56,"span":13,"encoder":"4312578159187","distractor":"4312576159187","target":"absent","response":"absent","rt":"4707.8000001907","correct":true,"confidence":2},{"trial_n":57,"span":14,"encoder":"01072590153242","distractor":"01012590153242","target":"absent","response":"absent","rt":"2347.1999998093","correct":true,"confidence":5},{"trial_n":58,"span":14,"encoder":"04149302091288","distractor":"94149302091288","target":"present","response":"present","rt":"2973.8999996185","correct":true,"confidence":2},{"trial_n":59,"span":15,"encoder":"642929994664039","distractor":"642929984664039","target":"present","response":"present","rt":"3514","correct":true,"confidence":3},{"trial_n":60,"span":15,"encoder":"399607686184738","distractor":"399607626184738","target":"absent","response":"present","rt":"4974.5999999046","correct":false,"confidence":1},{"trial_n":61,"span":14,"encoder":"59358222707174","distractor":"59350222707174","target":"present","response":"present","rt":"2760.4000000954","correct":true,"confidence":1},{"trial_n":62,"span":14,"encoder":"95173444359456","distractor":"95170444359456","target":"present","response":"present","rt":"2767.5","correct":true,"confidence":4},{"trial_n":63,"span":15,"encoder":"872216635543449","distractor":"862216635543449","target":"absent","response":"absent","rt":"3436.9000000954","correct":true,"confidence":2},{"trial_n":64,"span":15,"encoder":"343262799962062","distractor":"383262799962062","target":"present","response":"present","rt":"3447.5","correct":true,"confidence":3},{"trial_n":65,"span":16,"encoder":"9865535338419093","distractor":"9895535338419093","target":"absent","response":"present","rt":"2198.6999998093","correct":false,"confidence":3},{"trial_n":66,"span":15,"encoder":"220745892487982","distractor":"220745892487082","target":"absent","response":"present","rt":"1800.8999996185","correct":false,"confidence":4},{"trial_n":67,"span":14,"encoder":"08299922875170","distractor":"28299922875170","target":"absent","response":"absent","rt":"3248.5999999046","correct":true,"confidence":1},{"trial_n":68,"span":14,"encoder":"11089791680110","distractor":"11089793680110","target":"absent","response":"present","rt":"2199.3000001907","correct":false,"confidence":2},{"trial_n":69,"span":13,"encoder":"8843884786761","distractor":"8843884788761","target":"absent","response":"present","rt":"1668.2000002861","correct":false,"confidence":2},{"trial_n":70,"span":12,"encoder":"577963440337","distractor":"477963440337","target":"present","response":"present","rt":"2522.6999998093","correct":true,"confidence":2},{"trial_n":71,"span":8,"encoder":"99522018","distractor":"99622018","target":"present","response":"present","rt":"4015.6999998093","correct":true,"confidence":-1},{"trial_n":72,"span":8,"encoder":"65384893","distractor":"65484893","target":"present","response":"present","rt":"8098.9000000954","correct":true,"confidence":-1},{"trial_n":73,"span":9,"encoder":"264312248","distractor":"294312248","target":"absent","response":"absent","rt":"13019.799999714","correct":true,"confidence":-1},{"trial_n":74,"span":9,"encoder":"772375188","distractor":"772275188","target":"absent","response":"absent","rt":"3180.8999996185","correct":true,"confidence":-1},{"trial_n":75,"span":10,"encoder":"9205186085","distractor":"9203186085","target":"present","response":"present","rt":"3802.6000003815","correct":true,"confidence":-1},{"trial_n":76,"span":10,"encoder":"0315445909","distractor":"0315445009","target":"present","response":"present","rt":"3297.8999996185","correct":true,"confidence":-1},{"trial_n":77,"span":11,"encoder":"21574882640","distractor":"22574882640","target":"absent","response":"absent","rt":"2018","correct":true,"confidence":-1},{"trial_n":78,"span":11,"encoder":"46412498630","distractor":"46412498030","target":"absent","response":"present","rt":"3054.6999998093","correct":false,"confidence":-1},{"trial_n":79,"span":10,"encoder":"0014740900","distractor":"0014720900","target":"present","response":"absent","rt":"657.40000009537","correct":false,"confidence":-1},{"trial_n":80,"span":9,"encoder":"081971432","distractor":"081971436","target":"present","response":"present","rt":"520.30000019073","correct":true,"confidence":-1},{"trial_n":81,"span":9,"encoder":"997104922","distractor":"997114922","target":"present","response":"present","rt":"1112.0999999046","correct":true,"confidence":-1},{"trial_n":82,"span":10,"encoder":"0843902010","distractor":"0843902710","target":"present","response":"absent","rt":"1933.5999999046","correct":false,"confidence":-1},{"trial_n":83,"span":9,"encoder":"614579042","distractor":"614279042","target":"absent","response":"present","rt":"1029.6999998093","correct":false,"confidence":-1},{"trial_n":84,"span":8,"encoder":"02957805","distractor":"02657805","target":"absent","response":"absent","rt":"635.90000009537","correct":true,"confidence":-1},{"trial_n":85,"span":8,"encoder":"97631157","distractor":"77631157","target":"absent","response":"present","rt":"3082.8999996185","correct":false,"confidence":-1},{"trial_n":86,"span":7,"encoder":"5521079","distractor":"4521079","target":"absent","response":"absent","rt":"4438.9000000954","correct":true,"confidence":-1},{"trial_n":87,"span":7,"encoder":"5319014","distractor":"5314014","target":"absent","response":"absent","rt":"9966.0999999046","correct":true,"confidence":-1},{"trial_n":88,"span":8,"encoder":"50765750","distractor":"80765750","target":"present","response":"present","rt":"5663.5999999046","correct":true,"confidence":-1},{"trial_n":89,"span":8,"encoder":"18340152","distractor":"18640152","target":"present","response":"present","rt":"4566.9000000954","correct":true,"confidence":-1},{"trial_n":90,"span":9,"encoder":"104714779","distractor":"104744779","target":"absent","response":"absent","rt":"4998.3999996185","correct":true,"confidence":-1},{"trial_n":91,"span":9,"encoder":"199781138","distractor":"199761138","target":"present","response":"present","rt":"4218.6999998093","correct":true,"confidence":3},{"trial_n":92,"span":10,"encoder":"7513633266","distractor":"7513632266","target":"absent","response":"absent","rt":"4911.9000000954","correct":true,"confidence":2},{"trial_n":93,"span":10,"encoder":"4033620448","distractor":"4034620448","target":"present","response":"present","rt":"5130.1999998093","correct":true,"confidence":2},{"trial_n":94,"span":11,"encoder":"49748538352","distractor":"49748338352","target":"absent","response":"absent","rt":"4305.9000000954","correct":true,"confidence":5},{"trial_n":95,"span":11,"encoder":"96442361035","distractor":"96442761035","target":"absent","response":"present","rt":"3605.0999999046","correct":false,"confidence":2},{"trial_n":96,"span":10,"encoder":"8155977106","distractor":"8155937106","target":"present","response":"absent","rt":"5449.0999999046","correct":false,"confidence":1},{"trial_n":97,"span":9,"encoder":"898245361","distractor":"818245361","target":"absent","response":"present","rt":"5339.3000001907","correct":false,"confidence":3},{"trial_n":98,"span":8,"encoder":"82665409","distractor":"82669409","target":"absent","response":"absent","rt":"9392.4000000954","correct":true,"confidence":2},{"trial_n":99,"span":8,"encoder":"63932339","distractor":"63931339","target":"absent","response":"absent","rt":"3592.1000003815","correct":true,"confidence":3},{"trial_n":100,"span":9,"encoder":"289506803","distractor":"286506803","target":"present","response":"present","rt":"1395.2999997139","correct":true,"confidence":2},{"trial_n":101,"span":9,"encoder":"083098929","distractor":"083098429","target":"absent","response":"absent","rt":"6871.2000002861","correct":true,"confidence":5},{"trial_n":102,"span":10,"encoder":"6160452595","distractor":"6160452565","target":"absent","response":"absent","rt":"2815.6999998093","correct":true,"confidence":4},{"trial_n":103,"span":10,"encoder":"1167266614","distractor":"1167276614","target":"present","response":"absent","rt":"8318.9000000954","correct":false,"confidence":3},{"trial_n":104,"span":9,"encoder":"039430966","distractor":"039430976","target":"present","response":"absent","rt":"6020.5","correct":false,"confidence":4},{"trial_n":105,"span":8,"encoder":"82041857","distractor":"22041857","target":"absent","response":"absent","rt":"2753.9000000954","correct":true,"confidence":4},{"trial_n":106,"span":8,"encoder":"62905150","distractor":"60905150","target":"absent","response":"absent","rt":"3026.0999999046","correct":true,"confidence":3},{"trial_n":107,"span":9,"encoder":"824726248","distractor":"824726298","target":"absent","response":"absent","rt":"6229.9000000954","correct":true,"confidence":4},{"trial_n":108,"span":9,"encoder":"965975337","distractor":"965975307","target":"absent","response":"present","rt":"3426.4000000954","correct":false,"confidence":3},{"trial_n":109,"span":8,"encoder":"01119929","distractor":"01119629","target":"present","response":"present","rt":"3055.2000002861","correct":true,"confidence":5},{"trial_n":110,"span":8,"encoder":"43570867","distractor":"43570067","target":"absent","response":"absent","rt":"3055.8000001907","correct":true,"confidence":5},{"trial_n":111,"span":9,"encoder":"691185491","distractor":"691185191","target":"present","response":"present","rt":"24389.900000095","correct":true,"confidence":5},{"trial_n":112,"span":9,"encoder":"308839004","distractor":"808839004","target":"present","response":"present","rt":"5327.5","correct":true,"confidence":2},{"trial_n":113,"span":10,"encoder":"2695056437","distractor":"2695556437","target":"present","response":"present","rt":"2443.1000003815","correct":true,"confidence":5},{"trial_n":114,"span":10,"encoder":"9851989631","distractor":"9751989631","target":"present","response":"present","rt":"3679.8000001907","correct":true,"confidence":4},{"trial_n":115,"span":11,"encoder":"89472214443","distractor":"89072214443","target":"present","response":"absent","rt":"5453.0999999046","correct":false,"confidence":2},{"trial_n":116,"span":10,"encoder":"5581083007","distractor":"5481083007","target":"absent","response":"absent","rt":"4291.5999999046","correct":true,"confidence":5},{"trial_n":117,"span":10,"encoder":"6126996400","distractor":"1126996400","target":"present","response":"present","rt":"4157.5999999046","correct":true,"confidence":5},{"trial_n":118,"span":11,"encoder":"75556318900","distractor":"75556318904","target":"absent","response":"absent","rt":"4468.6999998093","correct":true,"confidence":4},{"trial_n":119,"span":11,"encoder":"31407685505","distractor":"34407685505","target":"present","response":"present","rt":"3951.4000000954","correct":true,"confidence":5},{"trial_n":120,"span":12,"encoder":"449609566848","distractor":"443609566848","target":"present","response":"present","rt":"3220.5","correct":true,"confidence":2},{"trial_n":121,"span":12,"encoder":"085961587338","distractor":"085961547338","target":"present","response":"present","rt":"3207","correct":true,"confidence":4},{"trial_n":122,"span":13,"encoder":"9482123275811","distractor":"9482123275831","target":"absent","response":"absent","rt":"2034.3000001907","correct":true,"confidence":5},{"trial_n":123,"span":13,"encoder":"2514756460510","distractor":"2514756460110","target":"present","response":"present","rt":"5635.5999999046","correct":true,"confidence":4},{"trial_n":124,"span":14,"encoder":"69236985989172","distractor":"69236980989172","target":"absent","response":"absent","rt":"4207.5999999046","correct":true,"confidence":4},{"trial_n":125,"span":14,"encoder":"51818908837187","distractor":"51818908837181","target":"absent","response":"absent","rt":"4210.8000001907","correct":true,"confidence":4},{"trial_n":126,"span":15,"encoder":"722422003490844","distractor":"702422003490844","target":"present","response":"present","rt":"3967.1999998093","correct":true,"confidence":2},{"trial_n":127,"span":15,"encoder":"209401198041449","distractor":"209401108041449","target":"absent","response":"absent","rt":"5008.5","correct":true,"confidence":2},{"trial_n":128,"span":16,"encoder":"2172671672158771","distractor":"2072671672158771","target":"present","response":"present","rt":"5592","correct":true,"confidence":4},{"trial_n":129,"span":16,"encoder":"1923152421255543","distractor":"1923152421955543","target":"present","response":"absent","rt":"3056.4000000954","correct":false,"confidence":4},{"trial_n":130,"span":15,"encoder":"625630026688205","distractor":"665630026688205","target":"absent","response":"absent","rt":"4595.5","correct":true,"confidence":2},{"trial_n":131,"span":15,"encoder":"426837283393624","distractor":"426637283393624","target":"absent","response":"absent","rt":"5910.3000001907","correct":true,"confidence":2},{"trial_n":132,"span":16,"encoder":"8778529989279956","distractor":"8788529989279956","target":"present","response":"absent","rt":"4511.4000000954","correct":false,"confidence":2},{"trial_n":133,"span":15,"encoder":"779669137769987","distractor":"779669137769957","target":"absent","response":"absent","rt":"2341","correct":true,"confidence":5},{"trial_n":134,"span":15,"encoder":"435489365601455","distractor":"435489375601455","target":"present","response":"absent","rt":"71969.800000191","correct":false,"confidence":2},{"trial_n":135,"span":14,"encoder":"39656307799794","distractor":"39656308799794","target":"present","response":"present","rt":"1585.2999997139","correct":true,"confidence":1},{"trial_n":136,"span":14,"encoder":"68246098247576","distractor":"68246098267576","target":"present","response":"absent","rt":"1323.8000001907","correct":false,"confidence":2},{"trial_n":137,"span":13,"encoder":"5906225078298","distractor":"5909225078298","target":"present","response":"present","rt":"2163.9000000954","correct":true,"confidence":2},{"trial_n":138,"span":13,"encoder":"9188315926391","distractor":"9188318926391","target":"absent","response":"present","rt":"1350.8000001907","correct":false,"confidence":2},{"trial_n":139,"span":12,"encoder":"899109411408","distractor":"899109411404","target":"absent","response":"absent","rt":"2472.2999997139","correct":true,"confidence":4},{"trial_n":140,"span":12,"encoder":"021463322609","distractor":"021063322609","target":"present","response":"present","rt":"4064.5","correct":true,"confidence":1}]