[{"trial_n":1,"n_dots":4.25,"target":"left","response":"left","rt":4623.2000000477,"correct":true,"confidence":-1},{"trial_n":2,"n_dots":4.25,"target":"right","response":"right","rt":692.39999997616,"correct":true,"confidence":-1},{"trial_n":3,"n_dots":3.85,"target":"left","response":"left","rt":445,"correct":true,"confidence":-1},{"trial_n":4,"n_dots":3.85,"target":"right","response":"right","rt":477.69999992847,"correct":true,"confidence":-1},{"trial_n":5,"n_dots":3.45,"target":"right","response":"left","rt":371.09999990463,"correct":false,"confidence":-1},{"trial_n":6,"n_dots":3.85,"target":"right","response":"right","rt":462.5,"correct":true,"confidence":-1},{"trial_n":7,"n_dots":3.85,"target":"right","response":"right","rt":392.5,"correct":true,"confidence":-1},{"trial_n":8,"n_dots":3.65,"target":"right","response":"left","rt":609,"correct":false,"confidence":-1},{"trial_n":9,"n_dots":3.85,"target":"right","response":"right","rt":380.10000002384,"correct":true,"confidence":-1},{"trial_n":10,"n_dots":3.85,"target":"left","response":"left","rt":582.80000007153,"correct":true,"confidence":-1},{"trial_n":11,"n_dots":3.65,"target":"left","response":"left","rt":424.5,"correct":true,"confidence":-1},{"trial_n":12,"n_dots":3.65,"target":"left","response":"left","rt":319.29999995232,"correct":true,"confidence":-1},{"trial_n":13,"n_dots":3.55,"target":"right","response":"right","rt":245.10000002384,"correct":true,"confidence":-1},{"trial_n":14,"n_dots":3.55,"target":"right","response":"right","rt":359.5,"correct":true,"confidence":-1},{"trial_n":15,"n_dots":3.45,"target":"right","response":"left","rt":296.89999997616,"correct":false,"confidence":-1},{"trial_n":16,"n_dots":3.55,"target":"right","response":"left","rt":414.80000007153,"correct":false,"confidence":-1},{"trial_n":17,"n_dots":3.65,"target":"right","response":"right","rt":238.5,"correct":true,"confidence":-1},{"trial_n":18,"n_dots":3.65,"target":"left","response":"left","rt":210.09999990463,"correct":true,"confidence":-1},{"trial_n":19,"n_dots":3.55,"target":"left","response":"left","rt":274.59999990463,"correct":true,"confidence":-1},{"trial_n":20,"n_dots":3.55,"target":"left","response":"left","rt":315.20000004768,"correct":true,"confidence":-1},{"trial_n":21,"n_dots":3.45,"target":"left","response":"left","rt":308.5,"correct":true,"confidence":5},{"trial_n":22,"n_dots":3.45,"target":"left","response":"left","rt":432.20000004768,"correct":true,"confidence":5},{"trial_n":23,"n_dots":3.35,"target":"right","response":"left","rt":737.80000007153,"correct":false,"confidence":3},{"trial_n":24,"n_dots":3.45,"target":"left","response":"left","rt":316,"correct":true,"confidence":3},{"trial_n":25,"n_dots":3.45,"target":"left","response":"left","rt":688.20000004768,"correct":true,"confidence":3},{"trial_n":26,"n_dots":3.35,"target":"left","response":"left","rt":439.30000007153,"correct":true,"confidence":4},{"trial_n":27,"n_dots":3.35,"target":"right","response":"right","rt":441.70000004768,"correct":true,"confidence":3},{"trial_n":28,"n_dots":3.25,"target":"left","response":"left","rt":503.70000004768,"correct":true,"confidence":3},{"trial_n":29,"n_dots":3.25,"target":"right","response":"right","rt":394.60000002384,"correct":true,"confidence":3},{"trial_n":30,"n_dots":3.15,"target":"left","response":"left","rt":283.70000004768,"correct":true,"confidence":3},{"trial_n":31,"n_dots":3.15,"target":"left","response":"left","rt":512.60000002384,"correct":true,"confidence":4},{"trial_n":32,"n_dots":3.05,"target":"right","response":"left","rt":438.20000004768,"correct":false,"confidence":3},{"trial_n":33,"n_dots":3.15,"target":"left","response":"left","rt":605.60000002384,"correct":true,"confidence":3},{"trial_n":34,"n_dots":3.15,"target":"right","response":"right","rt":5425,"correct":true,"confidence":3},{"trial_n":35,"n_dots":3.05,"target":"left","response":"left","rt":471.20000004768,"correct":true,"confidence":3},{"trial_n":36,"n_dots":3.05,"target":"left","response":"left","rt":347.19999992847,"correct":true,"confidence":3},{"trial_n":37,"n_dots":2.95,"target":"left","response":"left","rt":247.90000009537,"correct":true,"confidence":4},{"trial_n":38,"n_dots":2.95,"target":"left","response":"left","rt":337,"correct":true,"confidence":4},{"trial_n":39,"n_dots":2.85,"target":"right","response":"left","rt":452.09999990463,"correct":false,"confidence":4},{"trial_n":40,"n_dots":2.95,"target":"right","response":"left","rt":331.10000002384,"correct":false,"confidence":3},{"trial_n":41,"n_dots":3.05,"target":"left","response":"left","rt":471.70000004768,"correct":true,"confidence":3},{"trial_n":42,"n_dots":3.05,"target":"right","response":"right","rt":423.69999992847,"correct":true,"confidence":2},{"trial_n":43,"n_dots":2.95,"target":"right","response":"right","rt":432.09999990463,"correct":true,"confidence":2},{"trial_n":44,"n_dots":2.95,"target":"left","response":"left","rt":481.60000002384,"correct":true,"confidence":1},{"trial_n":45,"n_dots":2.85,"target":"left","response":"left","rt":273.60000002384,"correct":true,"confidence":2},{"trial_n":46,"n_dots":2.85,"target":"left","response":"left","rt":621.79999995232,"correct":true,"confidence":1},{"trial_n":47,"n_dots":2.75,"target":"right","response":"right","rt":773.5,"correct":true,"confidence":1},{"trial_n":48,"n_dots":2.75,"target":"left","response":"left","rt":965.5,"correct":true,"confidence":1},{"trial_n":49,"n_dots":2.65,"target":"left","response":"left","rt":345,"correct":true,"confidence":2},{"trial_n":50,"n_dots":2.65,"target":"left","response":"left","rt":338.60000002384,"correct":true,"confidence":2},{"trial_n":51,"n_dots":2.55,"target":"left","response":"left","rt":317,"correct":true,"confidence":2},{"trial_n":52,"n_dots":2.55,"target":"right","response":"right","rt":283.59999990463,"correct":true,"confidence":1},{"trial_n":53,"n_dots":2.45,"target":"right","response":"right","rt":338.39999997616,"correct":true,"confidence":1},{"trial_n":54,"n_dots":2.45,"target":"right","response":"right","rt":420.70000004768,"correct":true,"confidence":1},{"trial_n":55,"n_dots":2.35,"target":"left","response":"left","rt":619.19999992847,"correct":true,"confidence":1},{"trial_n":56,"n_dots":2.35,"target":"right","response":"right","rt":689.20000004768,"correct":true,"confidence":1},{"trial_n":57,"n_dots":2.25,"target":"right","response":"right","rt":1098.2000000477,"correct":true,"confidence":1},{"trial_n":58,"n_dots":2.25,"target":"right","response":"right","rt":862.29999995232,"correct":true,"confidence":1},{"trial_n":59,"n_dots":2.15,"target":"right","response":"right","rt":650.10000002384,"correct":true,"confidence":1},{"trial_n":60,"n_dots":2.15,"target":"right","response":"right","rt":988.39999997616,"correct":true,"confidence":1},{"trial_n":61,"n_dots":2.05,"target":"right","response":"left","rt":653,"correct":false,"confidence":1},{"trial_n":62,"n_dots":2.15,"target":"left","response":"left","rt":385.39999997616,"correct":true,"confidence":1},{"trial_n":63,"n_dots":2.15,"target":"right","response":"left","rt":429.20000004768,"correct":false,"confidence":1},{"trial_n":64,"n_dots":2.25,"target":"left","response":"left","rt":865.20000004768,"correct":true,"confidence":1},{"trial_n":65,"n_dots":2.25,"target":"left","response":"left","rt":391.20000004768,"correct":true,"confidence":1},{"trial_n":66,"n_dots":2.15,"target":"right","response":"left","rt":426.5,"correct":false,"confidence":1},{"trial_n":67,"n_dots":2.25,"target":"left","response":"right","rt":463.19999992847,"correct":false,"confidence":1},{"trial_n":68,"n_dots":2.35,"target":"right","response":"left","rt":740.70000004768,"correct":false,"confidence":1},{"trial_n":69,"n_dots":2.45,"target":"left","response":"left","rt":412,"correct":true,"confidence":3},{"trial_n":70,"n_dots":2.45,"target":"right","response":"left","rt":542.20000004768,"correct":false,"confidence":3},{"trial_n":71,"n_dots":2.55,"target":"left","response":"left","rt":484.5,"correct":true,"confidence":3},{"trial_n":72,"n_dots":2.55,"target":"right","response":"left","rt":359.39999997616,"correct":false,"confidence":3},{"trial_n":73,"n_dots":2.65,"target":"left","response":"left","rt":328.10000002384,"correct":true,"confidence":3},{"trial_n":74,"n_dots":2.65,"target":"left","response":"right","rt":774.5,"correct":false,"confidence":1},{"trial_n":75,"n_dots":2.75,"target":"left","response":"left","rt":702.5,"correct":true,"confidence":1},{"trial_n":76,"n_dots":2.75,"target":"left","response":"right","rt":587.70000004768,"correct":false,"confidence":1},{"trial_n":77,"n_dots":2.85,"target":"left","response":"left","rt":416.20000004768,"correct":true,"confidence":1},{"trial_n":78,"n_dots":2.85,"target":"left","response":"left","rt":588.70000004768,"correct":true,"confidence":1},{"trial_n":79,"n_dots":2.75,"target":"right","response":"right","rt":826.39999997616,"correct":true,"confidence":1},{"trial_n":80,"n_dots":2.75,"target":"left","response":"right","rt":428.79999995232,"correct":false,"confidence":1},{"trial_n":81,"n_dots":2.85,"target":"left","response":"left","rt":1300.6000000238,"correct":true,"confidence":1},{"trial_n":82,"n_dots":2.85,"target":"left","response":"left","rt":415.79999995232,"correct":true,"confidence":1},{"trial_n":83,"n_dots":2.75,"target":"right","response":"right","rt":10.899999976158,"correct":true,"confidence":1},{"trial_n":84,"n_dots":2.75,"target":"right","response":"left","rt":549.80000007153,"correct":false,"confidence":1},{"trial_n":85,"n_dots":2.85,"target":"right","response":"left","rt":520,"correct":false,"confidence":1},{"trial_n":86,"n_dots":2.95,"target":"right","response":"right","rt":253.60000002384,"correct":true,"confidence":1},{"trial_n":87,"n_dots":2.95,"target":"right","response":"right","rt":308.29999995232,"correct":true,"confidence":1},{"trial_n":88,"n_dots":2.85,"target":"right","response":"right","rt":637.79999995232,"correct":true,"confidence":2},{"trial_n":89,"n_dots":2.85,"target":"right","response":"left","rt":143.30000007153,"correct":false,"confidence":1},{"trial_n":90,"n_dots":2.95,"target":"left","response":"right","rt":514.60000002384,"correct":false,"confidence":1},{"trial_n":91,"n_dots":3.05,"target":"right","response":"left","rt":545.70000004768,"correct":false,"confidence":1},{"trial_n":92,"n_dots":3.15,"target":"right","response":"right","rt":374.69999992847,"correct":true,"confidence":1},{"trial_n":93,"n_dots":3.15,"target":"left","response":"left","rt":307.90000009537,"correct":true,"confidence":4},{"trial_n":94,"n_dots":3.05,"target":"left","response":"left","rt":347.5,"correct":true,"confidence":3},{"trial_n":95,"n_dots":3.05,"target":"left","response":"left","rt":514.80000007153,"correct":true,"confidence":1},{"trial_n":96,"n_dots":2.95,"target":"right","response":"left","rt":357.10000002384,"correct":false,"confidence":2},{"trial_n":97,"n_dots":3.05,"target":"left","response":"left","rt":459.39999997616,"correct":true,"confidence":2},{"trial_n":98,"n_dots":3.05,"target":"left","response":"left","rt":366.20000004768,"correct":true,"confidence":3},{"trial_n":99,"n_dots":2.95,"target":"left","response":"left","rt":381.20000004768,"correct":true,"confidence":1},{"trial_n":100,"n_dots":2.95,"target":"right","response":"left","rt":656.5,"correct":false,"confidence":1},{"trial_n":101,"n_dots":3.05,"target":"left","response":"left","rt":242.80000007153,"correct":true,"confidence":2},{"trial_n":102,"n_dots":3.05,"target":"left","response":"left","rt":272.5,"correct":true,"confidence":3},{"trial_n":103,"n_dots":2.95,"target":"right","response":"right","rt":366.5,"correct":true,"confidence":2},{"trial_n":104,"n_dots":2.95,"target":"left","response":"left","rt":957.39999997616,"correct":true,"confidence":3},{"trial_n":105,"n_dots":2.85,"target":"left","response":"left","rt":569.5,"correct":true,"confidence":1},{"trial_n":106,"n_dots":2.85,"target":"right","response":"right","rt":410.89999997616,"correct":true,"confidence":1},{"trial_n":107,"n_dots":2.75,"target":"right","response":"right","rt":423.79999995232,"correct":true,"confidence":2},{"trial_n":108,"n_dots":2.75,"target":"right","response":"right","rt":310.69999992847,"correct":true,"confidence":1},{"trial_n":109,"n_dots":2.65,"target":"right","response":"right","rt":1674.5,"correct":true,"confidence":2},{"trial_n":110,"n_dots":2.65,"target":"right","response":"left","rt":401.20000004768,"correct":false,"confidence":1},{"trial_n":111,"n_dots":2.75,"target":"right","response":"left","rt":519.5,"correct":false,"confidence":1},{"trial_n":112,"n_dots":2.85,"target":"right","response":"right","rt":254,"correct":true,"confidence":1},{"trial_n":113,"n_dots":2.85,"target":"left","response":"left","rt":273.29999995232,"correct":true,"confidence":1},{"trial_n":114,"n_dots":2.75,"target":"right","response":"right","rt":371.89999997616,"correct":true,"confidence":1},{"trial_n":115,"n_dots":2.75,"target":"left","response":"left","rt":358.59999990463,"correct":true,"confidence":1},{"trial_n":116,"n_dots":2.65,"target":"right","response":"right","rt":274.89999997616,"correct":true,"confidence":1},{"trial_n":117,"n_dots":2.65,"target":"left","response":"left","rt":185.60000002384,"correct":true,"confidence":1},{"trial_n":118,"n_dots":2.55,"target":"right","response":"left","rt":265.80000007153,"correct":false,"confidence":1},{"trial_n":119,"n_dots":2.65,"target":"left","response":"left","rt":233.80000007153,"correct":true,"confidence":1},{"trial_n":120,"n_dots":2.65,"target":"right","response":"right","rt":863.89999997616,"correct":true,"confidence":1}]