[{"trial_n":1,"span":8,"encoder":"99097337","distractor":"99097937","target":"present","response":"present","rt":"9733.7000000477","correct":true,"confidence":-1},{"trial_n":2,"span":8,"encoder":"02879228","distractor":"02879258","target":"present","response":"present","rt":"3846.9000000954","correct":true,"confidence":-1},{"trial_n":3,"span":10,"encoder":"4069907636","distractor":"4069937636","target":"absent","response":"absent","rt":"7563.7000000477","correct":true,"confidence":-1},{"trial_n":4,"span":10,"encoder":"7041052535","distractor":"7081052535","target":"absent","response":"present","rt":"6667.8999998569","correct":false,"confidence":-1},{"trial_n":5,"span":8,"encoder":"85559267","distractor":"88559267","target":"present","response":"present","rt":"3286.7999999523","correct":true,"confidence":-1},{"trial_n":6,"span":8,"encoder":"78883664","distractor":"38883664","target":"absent","response":"present","rt":"4199.7999999523","correct":false,"confidence":-1},{"trial_n":7,"span":6,"encoder":"667429","distractor":"667419","target":"absent","response":"absent","rt":"3065.7000000477","correct":true,"confidence":-1},{"trial_n":8,"span":6,"encoder":"558856","distractor":"558816","target":"absent","response":"present","rt":"3219.3999998569","correct":false,"confidence":-1},{"trial_n":9,"span":4,"encoder":"1165","distractor":"1115","target":"absent","response":"absent","rt":"2976.2999999523","correct":true,"confidence":-1},{"trial_n":10,"span":4,"encoder":"1552","distractor":"1532","target":"absent","response":"absent","rt":"2599.5999999046","correct":true,"confidence":-1},{"trial_n":11,"span":6,"encoder":"404168","distractor":"404368","target":"absent","response":"absent","rt":"3033.8999998569","correct":true,"confidence":-1},{"trial_n":12,"span":6,"encoder":"830503","distractor":"860503","target":"present","response":"present","rt":"3583.2999999523","correct":true,"confidence":-1},{"trial_n":13,"span":7,"encoder":"8578194","distractor":"8578164","target":"absent","response":"absent","rt":"3308.8999998569","correct":true,"confidence":-1},{"trial_n":14,"span":7,"encoder":"7469151","distractor":"1469151","target":"present","response":"absent","rt":"1917.2999999523","correct":false,"confidence":-1},{"trial_n":15,"span":6,"encoder":"050477","distractor":"050077","target":"present","response":"present","rt":"2678.7000000477","correct":true,"confidence":-1},{"trial_n":16,"span":6,"encoder":"000838","distractor":"000839","target":"absent","response":"absent","rt":"3045.5","correct":true,"confidence":-1},{"trial_n":17,"span":7,"encoder":"5218201","distractor":"5518201","target":"present","response":"present","rt":"3122","correct":true,"confidence":-1},{"trial_n":18,"span":7,"encoder":"0766887","distractor":"0266887","target":"absent","response":"absent","rt":"3619.0999999046","correct":true,"confidence":-1},{"trial_n":19,"span":8,"encoder":"20554423","distractor":"20554463","target":"present","response":"present","rt":"3536.7000000477","correct":true,"confidence":-1},{"trial_n":20,"span":8,"encoder":"91329768","distractor":"91329764","target":"absent","response":"absent","rt":"4358.9000000954","correct":true,"confidence":-1},{"trial_n":21,"span":9,"encoder":"833552946","distractor":"833552966","target":"absent","response":"absent","rt":"4425.5","correct":true,"confidence":3},{"trial_n":22,"span":9,"encoder":"872844318","distractor":"872844388","target":"absent","response":"absent","rt":"4010.6000001431","correct":true,"confidence":4},{"trial_n":23,"span":10,"encoder":"3870602162","distractor":"3870502162","target":"present","response":"absent","rt":"5593.2000000477","correct":false,"confidence":1},{"trial_n":24,"span":9,"encoder":"761379487","distractor":"761379987","target":"present","response":"present","rt":"4073.5","correct":true,"confidence":3},{"trial_n":25,"span":9,"encoder":"328817389","distractor":"328810389","target":"present","response":"present","rt":"4434.0999999046","correct":true,"confidence":2},{"trial_n":26,"span":10,"encoder":"5161306585","distractor":"5161386585","target":"present","response":"absent","rt":"4415.8999998569","correct":false,"confidence":1},{"trial_n":27,"span":9,"encoder":"681329040","distractor":"681429040","target":"present","response":"present","rt":"4144.5999999046","correct":true,"confidence":5},{"trial_n":28,"span":9,"encoder":"517700225","distractor":"517700235","target":"absent","response":"absent","rt":"3576.5","correct":true,"confidence":5},{"trial_n":29,"span":10,"encoder":"8494876864","distractor":"8404876864","target":"present","response":"present","rt":"5030.4000000954","correct":true,"confidence":4},{"trial_n":30,"span":10,"encoder":"4056517752","distractor":"4056547752","target":"present","response":"absent","rt":"5215.7999999523","correct":false,"confidence":2},{"trial_n":31,"span":9,"encoder":"040154886","distractor":"040154186","target":"absent","response":"absent","rt":"4015.7999999523","correct":true,"confidence":2},{"trial_n":32,"span":9,"encoder":"801053926","distractor":"804053926","target":"absent","response":"absent","rt":"3503.1999998093","correct":true,"confidence":2},{"trial_n":33,"span":10,"encoder":"3799005502","distractor":"1799005502","target":"absent","response":"present","rt":"3774","correct":false,"confidence":1},{"trial_n":34,"span":9,"encoder":"988212324","distractor":"988212320","target":"present","response":"present","rt":"5560.6999998093","correct":true,"confidence":3},{"trial_n":35,"span":9,"encoder":"522961353","distractor":"552961353","target":"present","response":"present","rt":"4932.0999999046","correct":true,"confidence":2},{"trial_n":36,"span":10,"encoder":"4507762837","distractor":"4507732837","target":"absent","response":"absent","rt":"3237.7999999523","correct":true,"confidence":2},{"trial_n":37,"span":10,"encoder":"9056235240","distractor":"9057235240","target":"present","response":"absent","rt":"4222","correct":false,"confidence":2},{"trial_n":38,"span":9,"encoder":"103622588","distractor":"303622588","target":"present","response":"present","rt":"3432.4000000954","correct":true,"confidence":3},{"trial_n":39,"span":9,"encoder":"269154258","distractor":"249154258","target":"absent","response":"absent","rt":"4662.2000000477","correct":true,"confidence":3},{"trial_n":40,"span":10,"encoder":"3384609433","distractor":"3384609033","target":"present","response":"present","rt":"3287.3999998569","correct":true,"confidence":4},{"trial_n":41,"span":10,"encoder":"2078320966","distractor":"2068320966","target":"present","response":"present","rt":"3791.1000001431","correct":true,"confidence":3},{"trial_n":42,"span":11,"encoder":"47674015892","distractor":"47674015592","target":"present","response":"present","rt":"4721.5999999046","correct":true,"confidence":3},{"trial_n":43,"span":11,"encoder":"13530202841","distractor":"13530202821","target":"present","response":"absent","rt":"6592.7000000477","correct":false,"confidence":1},{"trial_n":44,"span":10,"encoder":"3996781161","distractor":"3996581161","target":"absent","response":"present","rt":"18647.599999905","correct":false,"confidence":2},{"trial_n":45,"span":9,"encoder":"306520649","distractor":"303520649","target":"present","response":"present","rt":"3808.2000000477","correct":true,"confidence":3},{"trial_n":46,"span":9,"encoder":"201958809","distractor":"201958802","target":"absent","response":"absent","rt":"4416.2000000477","correct":true,"confidence":5},{"trial_n":47,"span":10,"encoder":"2183782294","distractor":"2181782294","target":"present","response":"present","rt":"3929.2999999523","correct":true,"confidence":4},{"trial_n":48,"span":10,"encoder":"8529124774","distractor":"8529124764","target":"absent","response":"absent","rt":"2760.5","correct":true,"confidence":5},{"trial_n":49,"span":11,"encoder":"50777296830","distractor":"50773296830","target":"absent","response":"present","rt":"4690.4000000954","correct":false,"confidence":2},{"trial_n":50,"span":10,"encoder":"4327749916","distractor":"4327349916","target":"absent","response":"absent","rt":"2783.5999999046","correct":true,"confidence":3},{"trial_n":51,"span":10,"encoder":"1499655362","distractor":"1499651362","target":"absent","response":"present","rt":"5000.1000001431","correct":false,"confidence":1},{"trial_n":52,"span":9,"encoder":"100007602","distractor":"400007602","target":"present","response":"present","rt":"2499.2000000477","correct":true,"confidence":4},{"trial_n":53,"span":9,"encoder":"261091533","distractor":"261091534","target":"absent","response":"absent","rt":"1946.1000001431","correct":true,"confidence":5},{"trial_n":54,"span":10,"encoder":"7081185995","distractor":"7031185995","target":"absent","response":"present","rt":"2904.6000001431","correct":false,"confidence":3},{"trial_n":55,"span":9,"encoder":"708275916","distractor":"708275976","target":"present","response":"present","rt":"3064","correct":true,"confidence":4},{"trial_n":56,"span":9,"encoder":"373258580","distractor":"372258580","target":"present","response":"present","rt":"3443","correct":true,"confidence":5},{"trial_n":57,"span":10,"encoder":"9578894975","distractor":"9578892975","target":"present","response":"absent","rt":"4803.4000000954","correct":false,"confidence":1},{"trial_n":58,"span":9,"encoder":"970763603","distractor":"970563603","target":"absent","response":"absent","rt":"3779","correct":true,"confidence":2},{"trial_n":59,"span":9,"encoder":"368406912","distractor":"068406912","target":"absent","response":"absent","rt":"4556.2999999523","correct":true,"confidence":1},{"trial_n":60,"span":10,"encoder":"5318470800","distractor":"5328470800","target":"present","response":"present","rt":"4803.7000000477","correct":true,"confidence":2},{"trial_n":61,"span":10,"encoder":"4431450649","distractor":"4431450049","target":"absent","response":"absent","rt":"3706.1999998093","correct":true,"confidence":4},{"trial_n":62,"span":11,"encoder":"60006957608","distractor":"60706957608","target":"present","response":"present","rt":"3744.5999999046","correct":true,"confidence":5},{"trial_n":63,"span":11,"encoder":"44852404890","distractor":"44752404890","target":"present","response":"absent","rt":"4785.5999999046","correct":false,"confidence":1},{"trial_n":64,"span":10,"encoder":"1308807560","distractor":"1308807760","target":"present","response":"absent","rt":"4934.2000000477","correct":false,"confidence":3},{"trial_n":65,"span":9,"encoder":"058300860","distractor":"068300860","target":"present","response":"present","rt":"4607.6000001431","correct":true,"confidence":4},{"trial_n":66,"span":9,"encoder":"148874994","distractor":"148874794","target":"present","response":"present","rt":"3428.8000001907","correct":true,"confidence":3},{"trial_n":67,"span":10,"encoder":"4581403034","distractor":"4582403034","target":"absent","response":"absent","rt":"3338.7000000477","correct":true,"confidence":4},{"trial_n":68,"span":10,"encoder":"0809518243","distractor":"0809518843","target":"absent","response":"present","rt":"3085.1000001431","correct":false,"confidence":4},{"trial_n":69,"span":9,"encoder":"149784037","distractor":"119784037","target":"present","response":"absent","rt":"4870.9000000954","correct":false,"confidence":3},{"trial_n":70,"span":8,"encoder":"74826279","distractor":"74826299","target":"absent","response":"absent","rt":"4402.7000000477","correct":true,"confidence":2},{"trial_n":71,"span":8,"encoder":"00130771","distractor":"80130771","target":"present","response":"present","rt":"5900.6000001431","correct":true,"confidence":-1},{"trial_n":72,"span":8,"encoder":"60028533","distractor":"60028233","target":"present","response":"absent","rt":"9824.6999998093","correct":false,"confidence":-1},{"trial_n":73,"span":7,"encoder":"1555652","distractor":"1555632","target":"absent","response":"present","rt":"8852.2999999523","correct":false,"confidence":-1},{"trial_n":74,"span":6,"encoder":"274775","distractor":"974775","target":"absent","response":"present","rt":"3712.0999999046","correct":false,"confidence":-1},{"trial_n":75,"span":5,"encoder":"49702","distractor":"49902","target":"present","response":"absent","rt":"3585.8999998569","correct":false,"confidence":-1},{"trial_n":76,"span":4,"encoder":"7062","distractor":"7042","target":"present","response":"present","rt":"3363","correct":true,"confidence":-1},{"trial_n":77,"span":4,"encoder":"4743","distractor":"3743","target":"absent","response":"absent","rt":"1879.8000001907","correct":true,"confidence":-1},{"trial_n":78,"span":5,"encoder":"06445","distractor":"06455","target":"present","response":"absent","rt":"3021.2000000477","correct":false,"confidence":-1},{"trial_n":79,"span":4,"encoder":"4835","distractor":"4832","target":"present","response":"present","rt":"2531.0999999046","correct":true,"confidence":-1},{"trial_n":80,"span":4,"encoder":"2763","distractor":"3763","target":"absent","response":"absent","rt":"1696.7000000477","correct":true,"confidence":-1},{"trial_n":81,"span":5,"encoder":"75536","distractor":"75539","target":"present","response":"present","rt":"1965.7000000477","correct":true,"confidence":-1},{"trial_n":82,"span":5,"encoder":"05913","distractor":"05903","target":"absent","response":"absent","rt":"2720.9000000954","correct":true,"confidence":-1},{"trial_n":83,"span":6,"encoder":"206352","distractor":"506352","target":"absent","response":"absent","rt":"4703.5","correct":true,"confidence":-1},{"trial_n":84,"span":6,"encoder":"323245","distractor":"323295","target":"absent","response":"absent","rt":"2885.6999998093","correct":true,"confidence":-1},{"trial_n":85,"span":7,"encoder":"9009437","distractor":"9009457","target":"present","response":"present","rt":"3440.5999999046","correct":true,"confidence":-1},{"trial_n":86,"span":7,"encoder":"3903732","distractor":"3903832","target":"present","response":"present","rt":"1061.3999998569","correct":true,"confidence":-1},{"trial_n":87,"span":8,"encoder":"61350467","distractor":"61350462","target":"absent","response":"absent","rt":"3001.8999998569","correct":true,"confidence":-1},{"trial_n":88,"span":8,"encoder":"67457441","distractor":"67457445","target":"present","response":"present","rt":"2087.9000000954","correct":true,"confidence":-1},{"trial_n":89,"span":9,"encoder":"070582696","distractor":"090582696","target":"present","response":"present","rt":"5600.0999999046","correct":true,"confidence":-1},{"trial_n":90,"span":9,"encoder":"628284314","distractor":"628484314","target":"absent","response":"absent","rt":"4078.8999998569","correct":true,"confidence":-1},{"trial_n":91,"span":10,"encoder":"7082359033","distractor":"0082359033","target":"present","response":"present","rt":"4353.2999999523","correct":true,"confidence":3},{"trial_n":92,"span":10,"encoder":"2110757542","distractor":"2110757544","target":"absent","response":"absent","rt":"5990.5","correct":true,"confidence":4},{"trial_n":93,"span":11,"encoder":"28468018327","distractor":"28468018325","target":"absent","response":"absent","rt":"6283","correct":true,"confidence":4},{"trial_n":94,"span":11,"encoder":"71895895938","distractor":"11895895938","target":"present","response":"absent","rt":"5429.5","correct":false,"confidence":3},{"trial_n":95,"span":10,"encoder":"2691514753","distractor":"2691519753","target":"present","response":"absent","rt":"7412.3999998569","correct":false,"confidence":2},{"trial_n":96,"span":9,"encoder":"633505920","distractor":"634505920","target":"absent","response":"absent","rt":"4219.4000000954","correct":true,"confidence":4},{"trial_n":97,"span":9,"encoder":"225517616","distractor":"225517646","target":"absent","response":"absent","rt":"3901.2000000477","correct":true,"confidence":5},{"trial_n":98,"span":10,"encoder":"7080985425","distractor":"7010985425","target":"absent","response":"absent","rt":"3194.5","correct":true,"confidence":5},{"trial_n":99,"span":10,"encoder":"7760052772","distractor":"7760052472","target":"present","response":"present","rt":"5839.1000001431","correct":true,"confidence":4},{"trial_n":100,"span":11,"encoder":"22560245754","distractor":"22567245754","target":"present","response":"absent","rt":"5306.4000000954","correct":false,"confidence":3},{"trial_n":101,"span":10,"encoder":"1597371098","distractor":"1597351098","target":"absent","response":"absent","rt":"3366.9000000954","correct":true,"confidence":4},{"trial_n":102,"span":10,"encoder":"8315670182","distractor":"8315670188","target":"present","response":"present","rt":"7422.0999999046","correct":true,"confidence":5},{"trial_n":103,"span":11,"encoder":"61618795264","distractor":"61638795264","target":"absent","response":"absent","rt":"2854.3999998569","correct":true,"confidence":5},{"trial_n":104,"span":11,"encoder":"58524069935","distractor":"58524269935","target":"present","response":"present","rt":"8115.6000001431","correct":true,"confidence":3},{"trial_n":105,"span":12,"encoder":"041275437445","distractor":"041275437345","target":"absent","response":"absent","rt":"2896.5","correct":true,"confidence":5},{"trial_n":106,"span":12,"encoder":"154484462432","distractor":"154480462432","target":"absent","response":"absent","rt":"4092.5","correct":true,"confidence":4},{"trial_n":107,"span":13,"encoder":"2030434546858","distractor":"2030434546851","target":"present","response":"present","rt":"2604.3999998569","correct":true,"confidence":5},{"trial_n":108,"span":13,"encoder":"4515175920828","distractor":"4515775920828","target":"present","response":"present","rt":"10747.799999952","correct":true,"confidence":4},{"trial_n":109,"span":14,"encoder":"26688981631076","distractor":"26588981631076","target":"present","response":"present","rt":"9824","correct":true,"confidence":3},{"trial_n":110,"span":14,"encoder":"91218097868189","distractor":"91208097868189","target":"present","response":"absent","rt":"5119.4000000954","correct":false,"confidence":4},{"trial_n":111,"span":13,"encoder":"7359200261842","distractor":"7359200266842","target":"present","response":"present","rt":"7643","correct":true,"confidence":3},{"trial_n":112,"span":13,"encoder":"3962899172879","distractor":"9962899172879","target":"absent","response":"present","rt":"6063.2000000477","correct":false,"confidence":3},{"trial_n":113,"span":12,"encoder":"076017895997","distractor":"076017395997","target":"present","response":"present","rt":"5319.1000001431","correct":true,"confidence":4},{"trial_n":114,"span":12,"encoder":"564382627170","distractor":"564382627970","target":"absent","response":"present","rt":"1206.6000001431","correct":false,"confidence":2},{"trial_n":115,"span":11,"encoder":"50244122420","distractor":"57244122420","target":"present","response":"absent","rt":"8013.0999999046","correct":false,"confidence":3},{"trial_n":116,"span":10,"encoder":"2897388420","distractor":"5897388420","target":"absent","response":"absent","rt":"7102.7000000477","correct":true,"confidence":5},{"trial_n":117,"span":10,"encoder":"5313203976","distractor":"5913203976","target":"present","response":"present","rt":"4610.7999999523","correct":true,"confidence":5},{"trial_n":118,"span":11,"encoder":"51974128057","distractor":"51974148057","target":"absent","response":"absent","rt":"6916.1999998093","correct":true,"confidence":4},{"trial_n":119,"span":11,"encoder":"78003379882","distractor":"78003379282","target":"absent","response":"present","rt":"5191.7999999523","correct":false,"confidence":2},{"trial_n":120,"span":10,"encoder":"5365791412","distractor":"5365711412","target":"present","response":"present","rt":"5834.2999999523","correct":true,"confidence":3},{"trial_n":121,"span":10,"encoder":"1346255349","distractor":"6346255349","target":"present","response":"absent","rt":"1155.2000000477","correct":false,"confidence":2},{"trial_n":122,"span":9,"encoder":"977486178","distractor":"977086178","target":"absent","response":"absent","rt":"3125.5","correct":true,"confidence":4},{"trial_n":123,"span":9,"encoder":"439886351","distractor":"439886311","target":"absent","response":"absent","rt":"5195","correct":true,"confidence":5},{"trial_n":124,"span":10,"encoder":"3672360005","distractor":"4672360005","target":"absent","response":"present","rt":"8416.2000000477","correct":false,"confidence":2},{"trial_n":125,"span":9,"encoder":"433902766","distractor":"433902761","target":"absent","response":"absent","rt":"5249.2000000477","correct":true,"confidence":4},{"trial_n":126,"span":9,"encoder":"982717825","distractor":"986717825","target":"absent","response":"absent","rt":"5109.5999999046","correct":true,"confidence":4},{"trial_n":127,"span":10,"encoder":"9268320827","distractor":"9268320857","target":"present","response":"present","rt":"8347.2999999523","correct":true,"confidence":3},{"trial_n":128,"span":10,"encoder":"9388773443","distractor":"1388773443","target":"present","response":"present","rt":"5150.7999999523","correct":true,"confidence":5},{"trial_n":129,"span":11,"encoder":"00966183929","distractor":"00966193929","target":"present","response":"present","rt":"5462.5","correct":true,"confidence":2},{"trial_n":130,"span":11,"encoder":"62560254307","distractor":"62560754307","target":"absent","response":"absent","rt":"5323.1999998093","correct":true,"confidence":3},{"trial_n":131,"span":12,"encoder":"017632262526","distractor":"017032262526","target":"present","response":"absent","rt":"7263.5999999046","correct":false,"confidence":3},{"trial_n":132,"span":11,"encoder":"71630906623","distractor":"71630906626","target":"absent","response":"present","rt":"965.59999990463","correct":false,"confidence":2},{"trial_n":133,"span":10,"encoder":"3486692007","distractor":"3486692047","target":"present","response":"present","rt":"4310.7999999523","correct":true,"confidence":5},{"trial_n":134,"span":10,"encoder":"5640968488","distractor":"5640968483","target":"absent","response":"absent","rt":"1674","correct":true,"confidence":5},{"trial_n":135,"span":11,"encoder":"54753472865","distractor":"54353472865","target":"present","response":"present","rt":"10056.200000048","correct":true,"confidence":4},{"trial_n":136,"span":11,"encoder":"70516906064","distractor":"70516906264","target":"absent","response":"absent","rt":"2364.6000001431","correct":true,"confidence":5},{"trial_n":137,"span":12,"encoder":"840129065855","distractor":"840129065755","target":"absent","response":"absent","rt":"2673.4000000954","correct":true,"confidence":5},{"trial_n":138,"span":12,"encoder":"139211429871","distractor":"639211429871","target":"present","response":"present","rt":"7236","correct":true,"confidence":2},{"trial_n":139,"span":13,"encoder":"4740672986504","distractor":"4740632986504","target":"absent","response":"absent","rt":"5212","correct":true,"confidence":4},{"trial_n":140,"span":13,"encoder":"1548373956547","distractor":"1548373956548","target":"present","response":"present","rt":"2255.8999998569","correct":true,"confidence":5}]