[{"trial_n":1,"n_dots":4.25,"target":"left","response":"left","rt":1263.3000001907,"correct":true,"confidence":-1},{"trial_n":2,"n_dots":4.25,"target":"left","response":"left","rt":279.59999990463,"correct":true,"confidence":-1},{"trial_n":3,"n_dots":3.85,"target":"right","response":"right","rt":330.5,"correct":true,"confidence":-1},{"trial_n":4,"n_dots":3.85,"target":"right","response":"right","rt":568.2000002861,"correct":true,"confidence":-1},{"trial_n":5,"n_dots":3.45,"target":"right","response":"left","rt":346.59999990463,"correct":false,"confidence":-1},{"trial_n":6,"n_dots":3.85,"target":"left","response":"left","rt":328.90000009537,"correct":true,"confidence":-1},{"trial_n":7,"n_dots":3.85,"target":"right","response":"left","rt":333.30000019073,"correct":false,"confidence":-1},{"trial_n":8,"n_dots":4.05,"target":"left","response":"left","rt":222.90000009537,"correct":true,"confidence":-1},{"trial_n":9,"n_dots":4.05,"target":"left","response":"left","rt":545.5,"correct":true,"confidence":-1},{"trial_n":10,"n_dots":3.85,"target":"left","response":"left","rt":231.7999997139,"correct":true,"confidence":-1},{"trial_n":11,"n_dots":3.85,"target":"right","response":"right","rt":353.69999980927,"correct":true,"confidence":-1},{"trial_n":12,"n_dots":3.65,"target":"left","response":"left","rt":33.39999961853,"correct":true,"confidence":-1},{"trial_n":13,"n_dots":3.65,"target":"left","response":"left","rt":569.2999997139,"correct":true,"confidence":-1},{"trial_n":14,"n_dots":3.55,"target":"left","response":"left","rt":287.09999990463,"correct":true,"confidence":-1},{"trial_n":15,"n_dots":3.55,"target":"right","response":"right","rt":322.40000009537,"correct":true,"confidence":-1},{"trial_n":16,"n_dots":3.45,"target":"right","response":"left","rt":322.5,"correct":false,"confidence":-1},{"trial_n":17,"n_dots":3.55,"target":"left","response":"left","rt":260.5,"correct":true,"confidence":-1},{"trial_n":18,"n_dots":3.55,"target":"left","response":"left","rt":393.90000009537,"correct":true,"confidence":-1},{"trial_n":19,"n_dots":3.45,"target":"right","response":"left","rt":269.2999997139,"correct":false,"confidence":-1},{"trial_n":20,"n_dots":3.55,"target":"left","response":"left","rt":241.10000038147,"correct":true,"confidence":-1},{"trial_n":21,"n_dots":3.55,"target":"right","response":"right","rt":557.40000009537,"correct":true,"confidence":3},{"trial_n":22,"n_dots":3.45,"target":"left","response":"left","rt":377.10000038147,"correct":true,"confidence":4},{"trial_n":23,"n_dots":3.45,"target":"right","response":"left","rt":554.19999980927,"correct":false,"confidence":4},{"trial_n":24,"n_dots":3.55,"target":"right","response":"right","rt":612.09999990463,"correct":true,"confidence":2},{"trial_n":25,"n_dots":3.55,"target":"left","response":"left","rt":390.7000002861,"correct":true,"confidence":5},{"trial_n":26,"n_dots":3.45,"target":"right","response":"left","rt":335.40000009537,"correct":false,"confidence":4},{"trial_n":27,"n_dots":3.55,"target":"right","response":"right","rt":287.09999990463,"correct":true,"confidence":3},{"trial_n":28,"n_dots":3.55,"target":"left","response":"left","rt":277,"correct":true,"confidence":4},{"trial_n":29,"n_dots":3.45,"target":"right","response":"right","rt":814.89999961853,"correct":true,"confidence":2},{"trial_n":30,"n_dots":3.45,"target":"left","response":"left","rt":268.7999997139,"correct":true,"confidence":5},{"trial_n":31,"n_dots":3.35,"target":"left","response":"left","rt":281.5,"correct":true,"confidence":3},{"trial_n":32,"n_dots":3.35,"target":"left","response":"left","rt":257.59999990463,"correct":true,"confidence":3},{"trial_n":33,"n_dots":3.25,"target":"right","response":"left","rt":265.59999990463,"correct":false,"confidence":2},{"trial_n":34,"n_dots":3.35,"target":"left","response":"left","rt":299.59999990463,"correct":true,"confidence":3},{"trial_n":35,"n_dots":3.35,"target":"left","response":"left","rt":436.09999990463,"correct":true,"confidence":3},{"trial_n":36,"n_dots":3.25,"target":"left","response":"left","rt":261,"correct":true,"confidence":5},{"trial_n":37,"n_dots":3.25,"target":"right","response":"right","rt":553.90000009537,"correct":true,"confidence":3},{"trial_n":38,"n_dots":3.15,"target":"left","response":"left","rt":340.69999980927,"correct":true,"confidence":3},{"trial_n":39,"n_dots":3.15,"target":"left","response":"left","rt":404.2999997139,"correct":true,"confidence":3},{"trial_n":40,"n_dots":3.05,"target":"right","response":"left","rt":419.09999990463,"correct":false,"confidence":2},{"trial_n":41,"n_dots":3.15,"target":"right","response":"right","rt":662.39999961853,"correct":true,"confidence":2},{"trial_n":42,"n_dots":3.15,"target":"right","response":"right","rt":326.80000019073,"correct":true,"confidence":4},{"trial_n":43,"n_dots":3.05,"target":"left","response":"left","rt":610.7999997139,"correct":true,"confidence":3},{"trial_n":44,"n_dots":3.05,"target":"right","response":"left","rt":429.7999997139,"correct":false,"confidence":2},{"trial_n":45,"n_dots":3.15,"target":"right","response":"right","rt":300.7999997139,"correct":true,"confidence":2},{"trial_n":46,"n_dots":3.15,"target":"right","response":"right","rt":318.90000009537,"correct":true,"confidence":3},{"trial_n":47,"n_dots":3.05,"target":"left","response":"left","rt":507.80000019073,"correct":true,"confidence":4},{"trial_n":48,"n_dots":3.05,"target":"right","response":"right","rt":587,"correct":true,"confidence":2},{"trial_n":49,"n_dots":2.95,"target":"left","response":"left","rt":422.30000019073,"correct":true,"confidence":4},{"trial_n":50,"n_dots":2.95,"target":"left","response":"left","rt":676,"correct":true,"confidence":3},{"trial_n":51,"n_dots":2.85,"target":"left","response":"left","rt":309.80000019073,"correct":true,"confidence":4},{"trial_n":52,"n_dots":2.85,"target":"left","response":"left","rt":399.69999980927,"correct":true,"confidence":3},{"trial_n":53,"n_dots":2.75,"target":"right","response":"right","rt":371.59999990463,"correct":true,"confidence":3},{"trial_n":54,"n_dots":2.75,"target":"left","response":"left","rt":238,"correct":true,"confidence":3},{"trial_n":55,"n_dots":2.65,"target":"right","response":"left","rt":464,"correct":false,"confidence":3},{"trial_n":56,"n_dots":2.75,"target":"right","response":"right","rt":9995.6999998093,"correct":true,"confidence":3},{"trial_n":57,"n_dots":2.75,"target":"left","response":"left","rt":520,"correct":true,"confidence":3},{"trial_n":58,"n_dots":2.65,"target":"right","response":"left","rt":491.5,"correct":false,"confidence":2},{"trial_n":59,"n_dots":2.75,"target":"right","response":"left","rt":390.69999980927,"correct":false,"confidence":2},{"trial_n":60,"n_dots":2.85,"target":"right","response":"left","rt":528.09999990463,"correct":false,"confidence":2},{"trial_n":61,"n_dots":2.95,"target":"left","response":"left","rt":465.09999990463,"correct":true,"confidence":2},{"trial_n":62,"n_dots":2.95,"target":"left","response":"left","rt":246.59999990463,"correct":true,"confidence":1},{"trial_n":63,"n_dots":2.85,"target":"left","response":"right","rt":631.09999990463,"correct":false,"confidence":4},{"trial_n":64,"n_dots":2.95,"target":"left","response":"left","rt":270.90000009537,"correct":true,"confidence":5},{"trial_n":65,"n_dots":2.95,"target":"right","response":"right","rt":438.7000002861,"correct":true,"confidence":3},{"trial_n":66,"n_dots":2.85,"target":"left","response":"right","rt":1229.5999999046,"correct":false,"confidence":3},{"trial_n":67,"n_dots":2.95,"target":"left","response":"left","rt":342.30000019073,"correct":true,"confidence":4},{"trial_n":68,"n_dots":2.95,"target":"left","response":"left","rt":508.69999980927,"correct":true,"confidence":4},{"trial_n":69,"n_dots":2.85,"target":"right","response":"left","rt":774.40000009537,"correct":false,"confidence":2},{"trial_n":70,"n_dots":2.95,"target":"right","response":"left","rt":556.2000002861,"correct":false,"confidence":3},{"trial_n":71,"n_dots":3.05,"target":"right","response":"left","rt":577.10000038147,"correct":false,"confidence":3},{"trial_n":72,"n_dots":3.15,"target":"right","response":"left","rt":1418.4000000954,"correct":false,"confidence":3},{"trial_n":73,"n_dots":3.25,"target":"left","response":"right","rt":2469.1999998093,"correct":false,"confidence":1},{"trial_n":74,"n_dots":3.35,"target":"right","response":"left","rt":492.7000002861,"correct":false,"confidence":1},{"trial_n":75,"n_dots":3.45,"target":"left","response":"left","rt":332.30000019073,"correct":true,"confidence":3},{"trial_n":76,"n_dots":3.45,"target":"right","response":"right","rt":293.69999980927,"correct":true,"confidence":2},{"trial_n":77,"n_dots":3.35,"target":"left","response":"left","rt":261.7000002861,"correct":true,"confidence":3},{"trial_n":78,"n_dots":3.35,"target":"left","response":"left","rt":446.30000019073,"correct":true,"confidence":3},{"trial_n":79,"n_dots":3.25,"target":"left","response":"left","rt":412.59999990463,"correct":true,"confidence":4},{"trial_n":80,"n_dots":3.25,"target":"left","response":"left","rt":454.7999997139,"correct":true,"confidence":4},{"trial_n":81,"n_dots":3.15,"target":"left","response":"right","rt":723.80000019073,"correct":false,"confidence":3},{"trial_n":82,"n_dots":3.25,"target":"right","response":"right","rt":425.7000002861,"correct":true,"confidence":3},{"trial_n":83,"n_dots":3.25,"target":"left","response":"left","rt":585.80000019073,"correct":true,"confidence":4},{"trial_n":84,"n_dots":3.15,"target":"right","response":"right","rt":575,"correct":true,"confidence":2},{"trial_n":85,"n_dots":3.15,"target":"right","response":"right","rt":550.7000002861,"correct":true,"confidence":4},{"trial_n":86,"n_dots":3.05,"target":"right","response":"right","rt":287.90000009537,"correct":true,"confidence":4},{"trial_n":87,"n_dots":3.05,"target":"right","response":"right","rt":291.19999980927,"correct":true,"confidence":4},{"trial_n":88,"n_dots":2.95,"target":"right","response":"left","rt":308.2999997139,"correct":false,"confidence":4},{"trial_n":89,"n_dots":3.05,"target":"right","response":"right","rt":379.80000019073,"correct":true,"confidence":3},{"trial_n":90,"n_dots":3.05,"target":"left","response":"left","rt":336.7999997139,"correct":true,"confidence":3},{"trial_n":91,"n_dots":2.95,"target":"left","response":"left","rt":481.69999980927,"correct":true,"confidence":4},{"trial_n":92,"n_dots":2.95,"target":"right","response":"right","rt":250.90000009537,"correct":true,"confidence":3},{"trial_n":93,"n_dots":2.85,"target":"right","response":"right","rt":283.80000019073,"correct":true,"confidence":3},{"trial_n":94,"n_dots":2.85,"target":"right","response":"left","rt":338.2999997139,"correct":false,"confidence":2},{"trial_n":95,"n_dots":2.95,"target":"left","response":"right","rt":566.59999990463,"correct":false,"confidence":3},{"trial_n":96,"n_dots":3.05,"target":"right","response":"right","rt":7706.8000001907,"correct":true,"confidence":1},{"trial_n":97,"n_dots":3.05,"target":"right","response":"right","rt":400.30000019073,"correct":true,"confidence":3},{"trial_n":98,"n_dots":2.95,"target":"left","response":"left","rt":252.90000009537,"correct":true,"confidence":4},{"trial_n":99,"n_dots":2.95,"target":"left","response":"left","rt":2029.7000002861,"correct":true,"confidence":4},{"trial_n":100,"n_dots":2.85,"target":"right","response":"left","rt":592.69999980927,"correct":false,"confidence":3},{"trial_n":101,"n_dots":2.95,"target":"right","response":"right","rt":289.59999990463,"correct":true,"confidence":3},{"trial_n":102,"n_dots":2.95,"target":"left","response":"left","rt":218.7999997139,"correct":true,"confidence":4},{"trial_n":103,"n_dots":2.85,"target":"right","response":"right","rt":261.40000009537,"correct":true,"confidence":3},{"trial_n":104,"n_dots":2.85,"target":"right","response":"left","rt":783.09999990463,"correct":false,"confidence":3},{"trial_n":105,"n_dots":2.95,"target":"right","response":"left","rt":338.30000019073,"correct":false,"confidence":4},{"trial_n":106,"n_dots":3.05,"target":"left","response":"left","rt":304.09999990463,"correct":true,"confidence":5},{"trial_n":107,"n_dots":3.05,"target":"left","response":"left","rt":307.90000009537,"correct":true,"confidence":3},{"trial_n":108,"n_dots":2.95,"target":"right","response":"left","rt":457,"correct":false,"confidence":2},{"trial_n":109,"n_dots":3.05,"target":"right","response":"right","rt":238.2999997139,"correct":true,"confidence":2},{"trial_n":110,"n_dots":3.05,"target":"right","response":"left","rt":243,"correct":false,"confidence":3},{"trial_n":111,"n_dots":3.15,"target":"right","response":"right","rt":250.90000009537,"correct":true,"confidence":3},{"trial_n":112,"n_dots":3.15,"target":"left","response":"left","rt":1391.3000001907,"correct":true,"confidence":1},{"trial_n":113,"n_dots":3.05,"target":"left","response":"left","rt":357.40000009537,"correct":true,"confidence":4},{"trial_n":114,"n_dots":3.05,"target":"left","response":"left","rt":329.39999961853,"correct":true,"confidence":3},{"trial_n":115,"n_dots":2.95,"target":"right","response":"right","rt":664.90000009537,"correct":true,"confidence":3},{"trial_n":116,"n_dots":2.95,"target":"left","response":"left","rt":356.40000009537,"correct":true,"confidence":4},{"trial_n":117,"n_dots":2.85,"target":"right","response":"right","rt":387.40000009537,"correct":true,"confidence":4},{"trial_n":118,"n_dots":2.85,"target":"left","response":"right","rt":928.39999961853,"correct":false,"confidence":3},{"trial_n":119,"n_dots":2.95,"target":"right","response":"right","rt":462,"correct":true,"confidence":3},{"trial_n":120,"n_dots":2.95,"target":"left","response":"left","rt":279,"correct":true,"confidence":3}]