[{"trial_n":1,"min":25,"max":230,"target":"present","response":"present","rt":3319.7000000477,"correct":true,"confidence":-1},{"trial_n":2,"min":25,"max":230,"target":"present","response":"present","rt":1358.8999999762,"correct":true,"confidence":-1},{"trial_n":3,"min":41,"max":214,"target":"absent","response":"absent","rt":1729.8999999762,"correct":true,"confidence":-1},{"trial_n":4,"min":41,"max":214,"target":"absent","response":"absent","rt":315.09999990463,"correct":true,"confidence":-1},{"trial_n":5,"min":57,"max":198,"target":"present","response":"present","rt":240.60000002384,"correct":true,"confidence":-1},{"trial_n":6,"min":57,"max":198,"target":"present","response":"present","rt":295.19999992847,"correct":true,"confidence":-1},{"trial_n":7,"min":73,"max":182,"target":"absent","response":"absent","rt":327.60000002384,"correct":true,"confidence":-1},{"trial_n":8,"min":73,"max":182,"target":"absent","response":"absent","rt":203.60000002384,"correct":true,"confidence":-1},{"trial_n":9,"min":89,"max":166,"target":"present","response":"absent","rt":203.79999995232,"correct":false,"confidence":-1},{"trial_n":10,"min":73,"max":182,"target":"present","response":"present","rt":294.70000004768,"correct":true,"confidence":-1},{"trial_n":11,"min":73,"max":182,"target":"present","response":"present","rt":110.59999990463,"correct":true,"confidence":-1},{"trial_n":12,"min":81,"max":174,"target":"absent","response":"absent","rt":243.90000009537,"correct":true,"confidence":-1},{"trial_n":13,"min":81,"max":174,"target":"present","response":"present","rt":243.19999992847,"correct":true,"confidence":-1},{"trial_n":14,"min":89,"max":166,"target":"absent","response":"absent","rt":218.29999995232,"correct":true,"confidence":-1},{"trial_n":15,"min":89,"max":166,"target":"present","response":"present","rt":496.69999992847,"correct":true,"confidence":-1},{"trial_n":16,"min":97,"max":158,"target":"absent","response":"absent","rt":313.79999995232,"correct":true,"confidence":-1},{"trial_n":17,"min":97,"max":158,"target":"present","response":"absent","rt":261.70000004768,"correct":false,"confidence":-1},{"trial_n":18,"min":89,"max":166,"target":"present","response":"absent","rt":278.19999992847,"correct":false,"confidence":-1},{"trial_n":19,"min":81,"max":174,"target":"present","response":"present","rt":257.70000004768,"correct":true,"confidence":-1},{"trial_n":20,"min":81,"max":174,"target":"present","response":"present","rt":314.5,"correct":true,"confidence":-1},{"trial_n":21,"min":85,"max":170,"target":"absent","response":"absent","rt":773.80000007153,"correct":true,"confidence":5},{"trial_n":22,"min":85,"max":170,"target":"present","response":"present","rt":323.10000002384,"correct":true,"confidence":5},{"trial_n":23,"min":89,"max":166,"target":"present","response":"absent","rt":350.39999997616,"correct":false,"confidence":3},{"trial_n":24,"min":85,"max":170,"target":"present","response":"present","rt":1300.5,"correct":true,"confidence":4},{"trial_n":25,"min":85,"max":170,"target":"present","response":"present","rt":370.5,"correct":true,"confidence":4},{"trial_n":26,"min":89,"max":166,"target":"absent","response":"absent","rt":1734.1000000238,"correct":true,"confidence":3},{"trial_n":27,"min":89,"max":166,"target":"absent","response":"absent","rt":1485.6000000238,"correct":true,"confidence":3},{"trial_n":28,"min":93,"max":162,"target":"absent","response":"absent","rt":947.19999992847,"correct":true,"confidence":2},{"trial_n":29,"min":93,"max":162,"target":"present","response":"present","rt":980,"correct":true,"confidence":3},{"trial_n":30,"min":97,"max":158,"target":"absent","response":"absent","rt":554.70000004768,"correct":true,"confidence":3},{"trial_n":31,"min":97,"max":158,"target":"absent","response":"absent","rt":676.5,"correct":true,"confidence":3},{"trial_n":32,"min":99,"max":156,"target":"present","response":"absent","rt":1028.2000000477,"correct":false,"confidence":3},{"trial_n":33,"min":97,"max":158,"target":"present","response":"absent","rt":456,"correct":false,"confidence":3},{"trial_n":34,"min":95,"max":160,"target":"absent","response":"absent","rt":869.80000007153,"correct":true,"confidence":3},{"trial_n":35,"min":95,"max":160,"target":"present","response":"present","rt":345.69999992847,"correct":true,"confidence":3},{"trial_n":36,"min":97,"max":158,"target":"absent","response":"present","rt":927.89999997616,"correct":false,"confidence":4},{"trial_n":37,"min":95,"max":160,"target":"present","response":"absent","rt":1174.6999999285,"correct":false,"confidence":3},{"trial_n":38,"min":93,"max":162,"target":"present","response":"present","rt":297.5,"correct":true,"confidence":4},{"trial_n":39,"min":93,"max":162,"target":"absent","response":"absent","rt":848.70000004768,"correct":true,"confidence":2},{"trial_n":40,"min":95,"max":160,"target":"absent","response":"present","rt":746.60000002384,"correct":false,"confidence":4},{"trial_n":41,"min":94,"max":161,"target":"absent","response":"absent","rt":1249.4000000954,"correct":true,"confidence":3},{"trial_n":42,"min":94,"max":161,"target":"present","response":"present","rt":625.10000002384,"correct":true,"confidence":3},{"trial_n":43,"min":95,"max":160,"target":"present","response":"absent","rt":273.30000007153,"correct":false,"confidence":4},{"trial_n":44,"min":94,"max":161,"target":"present","response":"present","rt":412.19999992847,"correct":true,"confidence":3},{"trial_n":45,"min":94,"max":161,"target":"absent","response":"absent","rt":655.79999995232,"correct":true,"confidence":4},{"trial_n":46,"min":95,"max":160,"target":"absent","response":"absent","rt":725.29999995232,"correct":true,"confidence":3},{"trial_n":47,"min":95,"max":160,"target":"absent","response":"absent","rt":788.5,"correct":true,"confidence":3},{"trial_n":48,"min":96,"max":159,"target":"absent","response":"absent","rt":484.80000007153,"correct":true,"confidence":3},{"trial_n":49,"min":96,"max":159,"target":"present","response":"present","rt":237.39999997616,"correct":true,"confidence":4},{"trial_n":50,"min":97,"max":158,"target":"present","response":"absent","rt":1173.8999999762,"correct":false,"confidence":3},{"trial_n":51,"min":96,"max":159,"target":"absent","response":"absent","rt":614.69999992847,"correct":true,"confidence":3},{"trial_n":52,"min":96,"max":159,"target":"absent","response":"absent","rt":1313.5,"correct":true,"confidence":3},{"trial_n":53,"min":97,"max":158,"target":"absent","response":"present","rt":295.70000004768,"correct":false,"confidence":3},{"trial_n":54,"min":96,"max":159,"target":"present","response":"present","rt":250,"correct":true,"confidence":3},{"trial_n":55,"min":96,"max":159,"target":"present","response":"present","rt":752,"correct":true,"confidence":3},{"trial_n":56,"min":97,"max":158,"target":"absent","response":"present","rt":469.29999995232,"correct":false,"confidence":3},{"trial_n":57,"min":96,"max":159,"target":"absent","response":"absent","rt":282.60000002384,"correct":true,"confidence":4},{"trial_n":58,"min":96,"max":159,"target":"present","response":"present","rt":329.39999997616,"correct":true,"confidence":4},{"trial_n":59,"min":97,"max":158,"target":"absent","response":"absent","rt":847.69999992847,"correct":true,"confidence":4},{"trial_n":60,"min":97,"max":158,"target":"absent","response":"absent","rt":784.89999997616,"correct":true,"confidence":4},{"trial_n":61,"min":98,"max":157,"target":"present","response":"present","rt":254.79999995232,"correct":true,"confidence":4},{"trial_n":62,"min":98,"max":157,"target":"present","response":"absent","rt":312.29999995232,"correct":false,"confidence":3},{"trial_n":63,"min":97,"max":158,"target":"absent","response":"present","rt":1032,"correct":false,"confidence":4},{"trial_n":64,"min":96,"max":159,"target":"present","response":"absent","rt":630.89999997616,"correct":false,"confidence":2},{"trial_n":65,"min":95,"max":160,"target":"absent","response":"present","rt":421.59999990463,"correct":false,"confidence":3},{"trial_n":66,"min":94,"max":161,"target":"absent","response":"present","rt":972,"correct":false,"confidence":2},{"trial_n":67,"min":93,"max":162,"target":"absent","response":"present","rt":858.60000002384,"correct":false,"confidence":4},{"trial_n":68,"min":92,"max":163,"target":"present","response":"absent","rt":1195,"correct":false,"confidence":3},{"trial_n":69,"min":91,"max":164,"target":"absent","response":"absent","rt":438.30000007153,"correct":true,"confidence":3},{"trial_n":70,"min":91,"max":164,"target":"present","response":"present","rt":809.89999997616,"correct":true,"confidence":3},{"trial_n":71,"min":41,"max":214,"target":"present","response":"present","rt":2965.1000000238,"correct":true,"confidence":-1},{"trial_n":72,"min":41,"max":214,"target":"present","response":"present","rt":545.29999995232,"correct":true,"confidence":-1},{"trial_n":73,"min":57,"max":198,"target":"absent","response":"absent","rt":261,"correct":true,"confidence":-1},{"trial_n":74,"min":57,"max":198,"target":"absent","response":"present","rt":313.90000009537,"correct":false,"confidence":-1},{"trial_n":75,"min":41,"max":214,"target":"present","response":"present","rt":1080.6999999285,"correct":true,"confidence":-1},{"trial_n":76,"min":41,"max":214,"target":"absent","response":"absent","rt":326.5,"correct":true,"confidence":-1},{"trial_n":77,"min":57,"max":198,"target":"absent","response":"absent","rt":483.39999997616,"correct":true,"confidence":-1},{"trial_n":78,"min":57,"max":198,"target":"present","response":"present","rt":224.5,"correct":true,"confidence":-1},{"trial_n":79,"min":73,"max":182,"target":"absent","response":"absent","rt":754.19999992847,"correct":true,"confidence":-1},{"trial_n":80,"min":73,"max":182,"target":"present","response":"present","rt":348.39999997616,"correct":true,"confidence":-1},{"trial_n":81,"min":81,"max":174,"target":"absent","response":"absent","rt":488.39999997616,"correct":true,"confidence":-1},{"trial_n":82,"min":81,"max":174,"target":"present","response":"present","rt":343.30000007153,"correct":true,"confidence":-1},{"trial_n":83,"min":89,"max":166,"target":"absent","response":"absent","rt":527.69999992847,"correct":true,"confidence":-1},{"trial_n":84,"min":89,"max":166,"target":"present","response":"present","rt":288,"correct":true,"confidence":-1},{"trial_n":85,"min":97,"max":158,"target":"absent","response":"present","rt":222.60000002384,"correct":false,"confidence":-1},{"trial_n":86,"min":89,"max":166,"target":"absent","response":"absent","rt":336.69999992847,"correct":true,"confidence":-1},{"trial_n":87,"min":89,"max":166,"target":"present","response":"absent","rt":493,"correct":false,"confidence":-1},{"trial_n":88,"min":81,"max":174,"target":"present","response":"present","rt":137.80000007153,"correct":true,"confidence":-1},{"trial_n":89,"min":81,"max":174,"target":"absent","response":"absent","rt":682.20000004768,"correct":true,"confidence":-1},{"trial_n":90,"min":89,"max":166,"target":"absent","response":"present","rt":477.79999995232,"correct":false,"confidence":-1},{"trial_n":91,"min":85,"max":170,"target":"absent","response":"absent","rt":923.10000002384,"correct":true,"confidence":3},{"trial_n":92,"min":85,"max":170,"target":"absent","response":"present","rt":764.39999997616,"correct":false,"confidence":3},{"trial_n":93,"min":81,"max":174,"target":"present","response":"present","rt":295.79999995232,"correct":true,"confidence":5},{"trial_n":94,"min":81,"max":174,"target":"absent","response":"absent","rt":863.29999995232,"correct":true,"confidence":5},{"trial_n":95,"min":85,"max":170,"target":"absent","response":"present","rt":830.39999997616,"correct":false,"confidence":4},{"trial_n":96,"min":81,"max":174,"target":"present","response":"present","rt":341.39999997616,"correct":true,"confidence":5},{"trial_n":97,"min":81,"max":174,"target":"present","response":"present","rt":456.19999992847,"correct":true,"confidence":5},{"trial_n":98,"min":85,"max":170,"target":"present","response":"present","rt":84,"correct":true,"confidence":5},{"trial_n":99,"min":85,"max":170,"target":"absent","response":"present","rt":1238.6000000238,"correct":false,"confidence":3},{"trial_n":100,"min":81,"max":174,"target":"present","response":"present","rt":150.09999990463,"correct":true,"confidence":5},{"trial_n":101,"min":81,"max":174,"target":"present","response":"present","rt":296.5,"correct":true,"confidence":5},{"trial_n":102,"min":83,"max":172,"target":"present","response":"present","rt":210,"correct":true,"confidence":5},{"trial_n":103,"min":83,"max":172,"target":"present","response":"present","rt":273.69999992847,"correct":true,"confidence":5},{"trial_n":104,"min":85,"max":170,"target":"absent","response":"absent","rt":910.10000002384,"correct":true,"confidence":3},{"trial_n":105,"min":85,"max":170,"target":"present","response":"present","rt":252.39999997616,"correct":true,"confidence":5},{"trial_n":106,"min":87,"max":168,"target":"absent","response":"present","rt":659,"correct":false,"confidence":2},{"trial_n":107,"min":85,"max":170,"target":"absent","response":"present","rt":804.90000009537,"correct":false,"confidence":1},{"trial_n":108,"min":83,"max":172,"target":"present","response":"present","rt":339.19999992847,"correct":true,"confidence":5},{"trial_n":109,"min":83,"max":172,"target":"absent","response":"present","rt":1114.6000000238,"correct":false,"confidence":1},{"trial_n":110,"min":81,"max":174,"target":"absent","response":"absent","rt":684.89999997616,"correct":true,"confidence":3},{"trial_n":111,"min":81,"max":174,"target":"present","response":"present","rt":264.39999997616,"correct":true,"confidence":5},{"trial_n":112,"min":82,"max":173,"target":"present","response":"present","rt":108.5,"correct":true,"confidence":5},{"trial_n":113,"min":82,"max":173,"target":"present","response":"present","rt":202.60000002384,"correct":true,"confidence":5},{"trial_n":114,"min":83,"max":172,"target":"absent","response":"present","rt":1054.2999999523,"correct":false,"confidence":2},{"trial_n":115,"min":82,"max":173,"target":"present","response":"present","rt":399.39999997616,"correct":true,"confidence":5},{"trial_n":116,"min":82,"max":173,"target":"present","response":"present","rt":302.29999995232,"correct":true,"confidence":5},{"trial_n":117,"min":83,"max":172,"target":"present","response":"present","rt":241.20000004768,"correct":true,"confidence":5},{"trial_n":118,"min":83,"max":172,"target":"absent","response":"absent","rt":894.5,"correct":true,"confidence":4},{"trial_n":119,"min":84,"max":171,"target":"absent","response":"present","rt":440.89999997616,"correct":false,"confidence":3},{"trial_n":120,"min":83,"max":172,"target":"present","response":"present","rt":254.10000002384,"correct":true,"confidence":5},{"trial_n":121,"min":83,"max":172,"target":"absent","response":"absent","rt":550.60000002384,"correct":true,"confidence":2},{"trial_n":122,"min":84,"max":171,"target":"absent","response":"present","rt":1000.5,"correct":false,"confidence":2},{"trial_n":123,"min":83,"max":172,"target":"present","response":"present","rt":257.5,"correct":true,"confidence":5},{"trial_n":124,"min":83,"max":172,"target":"absent","response":"absent","rt":838.70000004768,"correct":true,"confidence":2},{"trial_n":125,"min":84,"max":171,"target":"present","response":"present","rt":219.09999990463,"correct":true,"confidence":5},{"trial_n":126,"min":84,"max":171,"target":"present","response":"present","rt":327.80000007153,"correct":true,"confidence":5},{"trial_n":127,"min":85,"max":170,"target":"absent","response":"absent","rt":672.40000009537,"correct":true,"confidence":2},{"trial_n":128,"min":85,"max":170,"target":"present","response":"present","rt":1214.3000000715,"correct":true,"confidence":5},{"trial_n":129,"min":86,"max":169,"target":"absent","response":"present","rt":940.29999995232,"correct":false,"confidence":3},{"trial_n":130,"min":85,"max":170,"target":"present","response":"present","rt":559.20000004768,"correct":true,"confidence":4},{"trial_n":131,"min":85,"max":170,"target":"absent","response":"absent","rt":986.39999997616,"correct":true,"confidence":1},{"trial_n":132,"min":86,"max":169,"target":"present","response":"present","rt":381,"correct":true,"confidence":5},{"trial_n":133,"min":86,"max":169,"target":"absent","response":"present","rt":710.30000007153,"correct":false,"confidence":1},{"trial_n":134,"min":85,"max":170,"target":"present","response":"present","rt":471.29999995232,"correct":true,"confidence":5},{"trial_n":135,"min":85,"max":170,"target":"absent","response":"present","rt":736.89999997616,"correct":false,"confidence":2},{"trial_n":136,"min":84,"max":171,"target":"present","response":"present","rt":87.299999952316,"correct":true,"confidence":5},{"trial_n":137,"min":84,"max":171,"target":"present","response":"present","rt":351.79999995232,"correct":true,"confidence":5},{"trial_n":138,"min":85,"max":170,"target":"absent","response":"present","rt":879.79999995232,"correct":false,"confidence":2},{"trial_n":139,"min":84,"max":171,"target":"absent","response":"present","rt":963.5,"correct":false,"confidence":1},{"trial_n":140,"min":83,"max":172,"target":"present","response":"present","rt":1274.3000000715,"correct":true,"confidence":5}]