[{"trial_n":1,"span":8,"encoder":"93140718","distractor":"93140715","target":"present","response":"present","rt":"4768.1000000238","correct":true,"confidence":-1},{"trial_n":2,"span":8,"encoder":"75622579","distractor":"75628579","target":"present","response":"present","rt":"3580.4000000954","correct":true,"confidence":-1},{"trial_n":3,"span":10,"encoder":"1164599455","distractor":"1164599155","target":"absent","response":"present","rt":"2457.8999999762","correct":false,"confidence":-1},{"trial_n":4,"span":8,"encoder":"63642263","distractor":"63642233","target":"absent","response":"absent","rt":"2524","correct":true,"confidence":-1},{"trial_n":5,"span":8,"encoder":"05037038","distractor":"05037058","target":"present","response":"absent","rt":"4684.7999999523","correct":false,"confidence":-1},{"trial_n":6,"span":6,"encoder":"817605","distractor":"807605","target":"absent","response":"absent","rt":"3296.6000000238","correct":true,"confidence":-1},{"trial_n":7,"span":6,"encoder":"361072","distractor":"361077","target":"absent","response":"absent","rt":"2368","correct":true,"confidence":-1},{"trial_n":8,"span":8,"encoder":"08477816","distractor":"08477813","target":"present","response":"present","rt":"1874.5","correct":true,"confidence":-1},{"trial_n":9,"span":8,"encoder":"71348045","distractor":"51348045","target":"absent","response":"absent","rt":"2096.1000000238","correct":true,"confidence":-1},{"trial_n":10,"span":10,"encoder":"8190052694","distractor":"1190052694","target":"present","response":"absent","rt":"4108.5","correct":false,"confidence":-1},{"trial_n":11,"span":8,"encoder":"81435119","distractor":"81435019","target":"absent","response":"absent","rt":"2769.6000000238","correct":true,"confidence":-1},{"trial_n":12,"span":8,"encoder":"88725954","distractor":"88725958","target":"absent","response":"absent","rt":"3217.1000000238","correct":true,"confidence":-1},{"trial_n":13,"span":9,"encoder":"632661841","distractor":"633661841","target":"present","response":"present","rt":"2783.7999999523","correct":true,"confidence":-1},{"trial_n":14,"span":9,"encoder":"144290282","distractor":"144290882","target":"absent","response":"absent","rt":"3651.3000000715","correct":true,"confidence":-1},{"trial_n":15,"span":10,"encoder":"1183494628","distractor":"1143494628","target":"present","response":"absent","rt":"3439.7999999523","correct":false,"confidence":-1},{"trial_n":16,"span":9,"encoder":"425350928","distractor":"445350928","target":"present","response":"absent","rt":"2167.3000000715","correct":false,"confidence":-1},{"trial_n":17,"span":8,"encoder":"24164590","distractor":"54164590","target":"absent","response":"absent","rt":"2415.5","correct":true,"confidence":-1},{"trial_n":18,"span":8,"encoder":"27923222","distractor":"37923222","target":"absent","response":"absent","rt":"1634.1999999285","correct":true,"confidence":-1},{"trial_n":19,"span":9,"encoder":"881737814","distractor":"881737894","target":"present","response":"present","rt":"2338.1000000238","correct":true,"confidence":-1},{"trial_n":20,"span":9,"encoder":"323623263","distractor":"323623268","target":"absent","response":"present","rt":"2810.2999999523","correct":false,"confidence":-1},{"trial_n":21,"span":8,"encoder":"77402190","distractor":"77402192","target":"present","response":"present","rt":"2123.1000000238","correct":true,"confidence":4},{"trial_n":22,"span":8,"encoder":"87932572","distractor":"87939572","target":"absent","response":"absent","rt":"3639.5999999046","correct":true,"confidence":3},{"trial_n":23,"span":9,"encoder":"281980378","distractor":"081980378","target":"absent","response":"absent","rt":"2436.6000000238","correct":true,"confidence":2},{"trial_n":24,"span":9,"encoder":"641453831","distractor":"641463831","target":"present","response":"present","rt":"2884.7999999523","correct":true,"confidence":3},{"trial_n":25,"span":10,"encoder":"6872961962","distractor":"6872961965","target":"absent","response":"absent","rt":"1589.8999999762","correct":true,"confidence":3},{"trial_n":26,"span":10,"encoder":"0976913985","distractor":"0976513985","target":"present","response":"absent","rt":"3033.5","correct":false,"confidence":2},{"trial_n":27,"span":9,"encoder":"069122453","distractor":"069122423","target":"present","response":"present","rt":"1964.6000000238","correct":true,"confidence":4},{"trial_n":28,"span":9,"encoder":"188027284","distractor":"188027184","target":"present","response":"present","rt":"2013.0999999046","correct":true,"confidence":2},{"trial_n":29,"span":10,"encoder":"6441444244","distractor":"6471444244","target":"present","response":"absent","rt":"3143.6000000238","correct":false,"confidence":3},{"trial_n":30,"span":9,"encoder":"106641210","distractor":"106641410","target":"present","response":"present","rt":"2244.3000000715","correct":true,"confidence":3},{"trial_n":31,"span":9,"encoder":"701172958","distractor":"701132958","target":"absent","response":"absent","rt":"3138","correct":true,"confidence":5},{"trial_n":32,"span":10,"encoder":"6751380652","distractor":"8751380652","target":"present","response":"absent","rt":"3569.3999999762","correct":false,"confidence":1},{"trial_n":33,"span":9,"encoder":"490728610","distractor":"490728615","target":"present","response":"absent","rt":"2296.8999999762","correct":false,"confidence":2},{"trial_n":34,"span":8,"encoder":"61712467","distractor":"61712497","target":"absent","response":"present","rt":"3319.8999999762","correct":false,"confidence":2},{"trial_n":35,"span":7,"encoder":"9840990","distractor":"9860990","target":"present","response":"present","rt":"3355.2000000477","correct":true,"confidence":2},{"trial_n":36,"span":7,"encoder":"1589140","distractor":"1589100","target":"absent","response":"absent","rt":"3247.5","correct":true,"confidence":4},{"trial_n":37,"span":8,"encoder":"93324282","distractor":"73324282","target":"present","response":"absent","rt":"3316.7999999523","correct":false,"confidence":2},{"trial_n":38,"span":7,"encoder":"3660659","distractor":"8660659","target":"present","response":"present","rt":"2511.6000000238","correct":true,"confidence":4},{"trial_n":39,"span":7,"encoder":"0592392","distractor":"0592192","target":"present","response":"present","rt":"3936.2999999523","correct":true,"confidence":3},{"trial_n":40,"span":8,"encoder":"57153549","distractor":"57153540","target":"absent","response":"absent","rt":"3898.8999999762","correct":true,"confidence":4},{"trial_n":41,"span":8,"encoder":"89954430","distractor":"89954830","target":"absent","response":"absent","rt":"3090.7999999523","correct":true,"confidence":3},{"trial_n":42,"span":9,"encoder":"350460582","distractor":"350465582","target":"absent","response":"absent","rt":"2120.6000000238","correct":true,"confidence":2},{"trial_n":43,"span":9,"encoder":"109113042","distractor":"109113041","target":"present","response":"absent","rt":"1462.7000000477","correct":false,"confidence":2},{"trial_n":44,"span":8,"encoder":"97748655","distractor":"97748657","target":"present","response":"present","rt":"1571.1000000238","correct":true,"confidence":2},{"trial_n":45,"span":8,"encoder":"09756280","distractor":"09756080","target":"present","response":"present","rt":"2276.6999999285","correct":true,"confidence":2},{"trial_n":46,"span":9,"encoder":"313264839","distractor":"316264839","target":"absent","response":"absent","rt":"2703.6000000238","correct":true,"confidence":1},{"trial_n":47,"span":9,"encoder":"962053136","distractor":"968053136","target":"absent","response":"present","rt":"1367.7000000477","correct":false,"confidence":1},{"trial_n":48,"span":8,"encoder":"35836910","distractor":"35830910","target":"absent","response":"absent","rt":"5263.6000000238","correct":true,"confidence":1},{"trial_n":49,"span":8,"encoder":"81922704","distractor":"81922708","target":"absent","response":"absent","rt":"3804.8999999762","correct":true,"confidence":5},{"trial_n":50,"span":9,"encoder":"406113373","distractor":"406613373","target":"absent","response":"absent","rt":"2799.9000000954","correct":true,"confidence":2},{"trial_n":51,"span":9,"encoder":"913781227","distractor":"713781227","target":"absent","response":"present","rt":"1787.3000000715","correct":false,"confidence":2},{"trial_n":52,"span":8,"encoder":"21647195","distractor":"23647195","target":"absent","response":"absent","rt":"5095.4000000954","correct":true,"confidence":1},{"trial_n":53,"span":8,"encoder":"32352554","distractor":"32352594","target":"absent","response":"absent","rt":"2441.4000000954","correct":true,"confidence":5},{"trial_n":54,"span":9,"encoder":"316548629","distractor":"316548622","target":"present","response":"present","rt":"2749.6000000238","correct":true,"confidence":1},{"trial_n":55,"span":9,"encoder":"006204105","distractor":"206204105","target":"present","response":"absent","rt":"10027.699999928","correct":false,"confidence":2},{"trial_n":56,"span":8,"encoder":"41354562","distractor":"41354262","target":"present","response":"present","rt":"1720.5999999046","correct":true,"confidence":2},{"trial_n":57,"span":8,"encoder":"89055026","distractor":"89255026","target":"absent","response":"present","rt":"1947.3999999762","correct":false,"confidence":2},{"trial_n":58,"span":7,"encoder":"4457405","distractor":"4417405","target":"present","response":"present","rt":"1967.8999999762","correct":true,"confidence":4},{"trial_n":59,"span":7,"encoder":"6831873","distractor":"6831893","target":"absent","response":"absent","rt":"3149.5999999046","correct":true,"confidence":2},{"trial_n":60,"span":8,"encoder":"35654003","distractor":"35654103","target":"present","response":"present","rt":"2631.5","correct":true,"confidence":3},{"trial_n":61,"span":8,"encoder":"22058156","distractor":"22058186","target":"present","response":"present","rt":"2761.5","correct":true,"confidence":2},{"trial_n":62,"span":9,"encoder":"928998521","distractor":"927998521","target":"absent","response":"absent","rt":"5570.6999999285","correct":true,"confidence":3},{"trial_n":63,"span":9,"encoder":"052341831","distractor":"052341871","target":"absent","response":"present","rt":"3779.5","correct":false,"confidence":1},{"trial_n":64,"span":8,"encoder":"54951434","distractor":"54951438","target":"present","response":"present","rt":"2689.6999999285","correct":true,"confidence":3},{"trial_n":65,"span":8,"encoder":"87491476","distractor":"87091476","target":"present","response":"absent","rt":"6293.2999999523","correct":false,"confidence":2},{"trial_n":66,"span":7,"encoder":"3783319","distractor":"3787319","target":"absent","response":"absent","rt":"3684.7000000477","correct":true,"confidence":5},{"trial_n":67,"span":7,"encoder":"9612052","distractor":"9612552","target":"present","response":"present","rt":"3493.2000000477","correct":true,"confidence":1},{"trial_n":68,"span":8,"encoder":"10466287","distractor":"10466288","target":"present","response":"present","rt":"1660.7999999523","correct":true,"confidence":2},{"trial_n":69,"span":8,"encoder":"32889821","distractor":"32889811","target":"present","response":"present","rt":"1984.6000000238","correct":true,"confidence":3},{"trial_n":70,"span":9,"encoder":"727689124","distractor":"727689624","target":"absent","response":"absent","rt":"2310.6000000238","correct":true,"confidence":1},{"trial_n":71,"span":8,"encoder":"09079473","distractor":"09079073","target":"present","response":"present","rt":"2765.3999999762","correct":true,"confidence":-1},{"trial_n":72,"span":8,"encoder":"62345146","distractor":"52345146","target":"present","response":"present","rt":"2587.7999999523","correct":true,"confidence":-1},{"trial_n":73,"span":9,"encoder":"663612136","distractor":"663612176","target":"absent","response":"absent","rt":"3178.3000000715","correct":true,"confidence":-1},{"trial_n":74,"span":9,"encoder":"467266306","distractor":"467266386","target":"absent","response":"absent","rt":"2534.5","correct":true,"confidence":-1},{"trial_n":75,"span":10,"encoder":"9911036821","distractor":"9911037821","target":"present","response":"present","rt":"4488.3999999762","correct":true,"confidence":-1},{"trial_n":76,"span":10,"encoder":"3315770919","distractor":"3915770919","target":"absent","response":"absent","rt":"2475.2999999523","correct":true,"confidence":-1},{"trial_n":77,"span":11,"encoder":"24343738231","distractor":"24343738241","target":"absent","response":"absent","rt":"4784","correct":true,"confidence":-1},{"trial_n":78,"span":11,"encoder":"80648620716","distractor":"80948620716","target":"present","response":"present","rt":"2398.6000000238","correct":true,"confidence":-1},{"trial_n":79,"span":12,"encoder":"861374991744","distractor":"861374991745","target":"present","response":"present","rt":"2482.8999999762","correct":true,"confidence":-1},{"trial_n":80,"span":12,"encoder":"253534268203","distractor":"253534298203","target":"present","response":"present","rt":"4517.1000000238","correct":true,"confidence":-1},{"trial_n":81,"span":13,"encoder":"9437165251169","distractor":"9437165251168","target":"present","response":"present","rt":"2192.5","correct":true,"confidence":-1},{"trial_n":82,"span":13,"encoder":"4821371668908","distractor":"4821341668908","target":"present","response":"present","rt":"2640.2000000477","correct":true,"confidence":-1},{"trial_n":83,"span":14,"encoder":"08508793323529","distractor":"08508713323529","target":"absent","response":"present","rt":"12302.600000024","correct":false,"confidence":-1},{"trial_n":84,"span":13,"encoder":"0117000711469","distractor":"0117004711469","target":"absent","response":"present","rt":"3414.2000000477","correct":false,"confidence":-1},{"trial_n":85,"span":12,"encoder":"946522395783","distractor":"946622395783","target":"absent","response":"present","rt":"9688","correct":false,"confidence":-1},{"trial_n":86,"span":11,"encoder":"21466130137","distractor":"21466138137","target":"present","response":"present","rt":"2375.3999999762","correct":true,"confidence":-1},{"trial_n":87,"span":11,"encoder":"85891772954","distractor":"85894772954","target":"absent","response":"absent","rt":"4264.5","correct":true,"confidence":-1},{"trial_n":88,"span":12,"encoder":"193037977323","distractor":"193037979323","target":"absent","response":"present","rt":"3402.1000000238","correct":false,"confidence":-1},{"trial_n":89,"span":11,"encoder":"28005596742","distractor":"28005596702","target":"present","response":"present","rt":"855.89999997616","correct":true,"confidence":-1},{"trial_n":90,"span":11,"encoder":"12339103296","distractor":"72339103296","target":"absent","response":"absent","rt":"3480.3000000715","correct":true,"confidence":-1},{"trial_n":91,"span":12,"encoder":"575523332686","distractor":"675523332686","target":"present","response":"present","rt":"2933.3999999762","correct":true,"confidence":1},{"trial_n":92,"span":12,"encoder":"738986497089","distractor":"738986397089","target":"absent","response":"absent","rt":"4695.5999999046","correct":true,"confidence":2},{"trial_n":93,"span":13,"encoder":"8201328688724","distractor":"8201328688124","target":"present","response":"present","rt":"1958.5","correct":true,"confidence":2},{"trial_n":94,"span":13,"encoder":"1128745165043","distractor":"1128745165543","target":"absent","response":"absent","rt":"1961.6000000238","correct":true,"confidence":2},{"trial_n":95,"span":14,"encoder":"11999763383287","distractor":"11999763383257","target":"absent","response":"absent","rt":"6143.3999999762","correct":true,"confidence":2},{"trial_n":96,"span":14,"encoder":"09197729537619","distractor":"09197729537613","target":"present","response":"present","rt":"1643.5","correct":true,"confidence":2},{"trial_n":97,"span":15,"encoder":"988243463103896","distractor":"988243463101896","target":"absent","response":"absent","rt":"1946.8999999762","correct":true,"confidence":2},{"trial_n":98,"span":15,"encoder":"109032359849315","distractor":"109032359849316","target":"absent","response":"absent","rt":"1715.3999999762","correct":true,"confidence":2},{"trial_n":99,"span":16,"encoder":"4454020425280157","distractor":"4454020425280657","target":"absent","response":"absent","rt":"1471.1000000238","correct":true,"confidence":3},{"trial_n":100,"span":16,"encoder":"2999624332439119","distractor":"2999624332439118","target":"absent","response":"absent","rt":"1380.7000000477","correct":true,"confidence":3},{"trial_n":101,"span":17,"encoder":"07329687094239157","distractor":"07369687094239157","target":"absent","response":"absent","rt":"5130.6000000238","correct":true,"confidence":2},{"trial_n":102,"span":17,"encoder":"92090446636317789","distractor":"92090449636317789","target":"present","response":"present","rt":"5171.5","correct":true,"confidence":1},{"trial_n":103,"span":18,"encoder":"687728352511535274","distractor":"687028352511535274","target":"present","response":"present","rt":"5419.5","correct":true,"confidence":2},{"trial_n":104,"span":18,"encoder":"516446243278480169","distractor":"516446243238480169","target":"absent","response":"absent","rt":"4632.3999999762","correct":true,"confidence":2},{"trial_n":105,"span":19,"encoder":"9163458161245995460","distractor":"9163458161545995460","target":"absent","response":"present","rt":"2434.8000000715","correct":false,"confidence":1},{"trial_n":106,"span":18,"encoder":"672747678087477208","distractor":"672747678787477208","target":"absent","response":"absent","rt":"4525.7999999523","correct":true,"confidence":2},{"trial_n":107,"span":18,"encoder":"643362592221101727","distractor":"643362592021101727","target":"absent","response":"absent","rt":"1890.7999999523","correct":true,"confidence":4},{"trial_n":108,"span":19,"encoder":"9575172724893076346","distractor":"9575172724893076246","target":"absent","response":"present","rt":"7100.7000000477","correct":false,"confidence":1},{"trial_n":109,"span":18,"encoder":"959877683996868863","distractor":"969877683996868863","target":"absent","response":"present","rt":"6720.7000000477","correct":false,"confidence":1},{"trial_n":110,"span":17,"encoder":"20334600346404869","distractor":"20334600346404969","target":"absent","response":"present","rt":"14005.800000072","correct":false,"confidence":2},{"trial_n":111,"span":16,"encoder":"7668877882202163","distractor":"7668877882202169","target":"present","response":"present","rt":"2818.0999999046","correct":true,"confidence":2},{"trial_n":112,"span":16,"encoder":"3176632399501493","distractor":"3176632309501493","target":"present","response":"present","rt":"5085.0999999046","correct":true,"confidence":3},{"trial_n":113,"span":17,"encoder":"15821241178972268","distractor":"15821246178972268","target":"present","response":"present","rt":"4774.1000000238","correct":true,"confidence":1},{"trial_n":114,"span":17,"encoder":"37331928399387061","distractor":"37333928399387061","target":"present","response":"present","rt":"2619.2999999523","correct":true,"confidence":1},{"trial_n":115,"span":18,"encoder":"871815136327581281","distractor":"871818136327581281","target":"present","response":"absent","rt":"4837.3000000715","correct":false,"confidence":1},{"trial_n":116,"span":17,"encoder":"99934130353156666","distractor":"99934130373156666","target":"present","response":"present","rt":"1633","correct":true,"confidence":1},{"trial_n":117,"span":17,"encoder":"48080070087924010","distractor":"48080070087925010","target":"absent","response":"present","rt":"3454.8000000715","correct":false,"confidence":1},{"trial_n":118,"span":16,"encoder":"0776985576253608","distractor":"3776985576253608","target":"present","response":"present","rt":"5560.4000000954","correct":true,"confidence":1},{"trial_n":119,"span":16,"encoder":"8495772076702593","distractor":"8495772076702598","target":"present","response":"present","rt":"3274.6000000238","correct":true,"confidence":1},{"trial_n":120,"span":17,"encoder":"89052260207413882","distractor":"89052260207453882","target":"present","response":"present","rt":"4201.8000000715","correct":true,"confidence":1},{"trial_n":121,"span":17,"encoder":"22889349939623109","distractor":"22889349939623409","target":"absent","response":"present","rt":"2318.5","correct":false,"confidence":1},{"trial_n":122,"span":16,"encoder":"1080740477757109","distractor":"1080740277757109","target":"present","response":"present","rt":"2661.2000000477","correct":true,"confidence":2},{"trial_n":123,"span":16,"encoder":"7452154989063862","distractor":"7452154989063865","target":"present","response":"present","rt":"3036.3000000715","correct":true,"confidence":1},{"trial_n":124,"span":17,"encoder":"25340667714027483","distractor":"65340667714027483","target":"absent","response":"present","rt":"3240.6000000238","correct":false,"confidence":1},{"trial_n":125,"span":16,"encoder":"6321848255181634","distractor":"6361848255181634","target":"absent","response":"present","rt":"8216.3999999762","correct":false,"confidence":1},{"trial_n":126,"span":15,"encoder":"845293949176243","distractor":"845293942176243","target":"present","response":"absent","rt":"6972.7000000477","correct":false,"confidence":1},{"trial_n":127,"span":14,"encoder":"86840781954208","distractor":"26840781954208","target":"present","response":"absent","rt":"6841.2999999523","correct":false,"confidence":1},{"trial_n":128,"span":13,"encoder":"5139582634266","distractor":"5139582637266","target":"present","response":"present","rt":"2339.6000000238","correct":true,"confidence":1},{"trial_n":129,"span":13,"encoder":"1788149925330","distractor":"1888149925330","target":"absent","response":"absent","rt":"3809.2000000477","correct":true,"confidence":2},{"trial_n":130,"span":14,"encoder":"70320044613780","distractor":"70320044613380","target":"present","response":"present","rt":"4186.1000000238","correct":true,"confidence":1},{"trial_n":131,"span":14,"encoder":"16880800198483","distractor":"16870800198483","target":"present","response":"present","rt":"1552.2000000477","correct":true,"confidence":1},{"trial_n":132,"span":15,"encoder":"070152118156389","distractor":"070102118156389","target":"present","response":"present","rt":"1556.8000000715","correct":true,"confidence":1},{"trial_n":133,"span":15,"encoder":"532219825887030","distractor":"532219825987030","target":"absent","response":"absent","rt":"3393","correct":true,"confidence":1},{"trial_n":134,"span":16,"encoder":"2855146412022626","distractor":"2855146412042626","target":"present","response":"present","rt":"1984.1000000238","correct":true,"confidence":1},{"trial_n":135,"span":16,"encoder":"6422642419251487","distractor":"6422642419251587","target":"absent","response":"absent","rt":"1574.6000000238","correct":true,"confidence":2},{"trial_n":136,"span":17,"encoder":"13126397509224173","distractor":"11126397509224173","target":"present","response":"present","rt":"4470.3000000715","correct":true,"confidence":2},{"trial_n":137,"span":17,"encoder":"71775673140371475","distractor":"71775673140377475","target":"present","response":"present","rt":"2039.3999999762","correct":true,"confidence":1},{"trial_n":138,"span":18,"encoder":"288878005727033075","distractor":"488878005727033075","target":"absent","response":"absent","rt":"4722.6000000238","correct":true,"confidence":1},{"trial_n":139,"span":18,"encoder":"921713001397199857","distractor":"921753001397199857","target":"absent","response":"absent","rt":"6450","correct":true,"confidence":1},{"trial_n":140,"span":19,"encoder":"3778275031807419142","distractor":"5778275031807419142","target":"present","response":"present","rt":"2166.5","correct":true,"confidence":1}]