[{"trial_n":1,"min":25,"max":230,"target":"present","response":"present","rt":8607.9000000954,"correct":true,"confidence":-1},{"trial_n":2,"min":25,"max":230,"target":"present","response":"present","rt":934.5,"correct":true,"confidence":-1},{"trial_n":3,"min":41,"max":214,"target":"absent","response":"absent","rt":623,"correct":true,"confidence":-1},{"trial_n":4,"min":41,"max":214,"target":"absent","response":"absent","rt":753.40000009537,"correct":true,"confidence":-1},{"trial_n":5,"min":57,"max":198,"target":"present","response":"present","rt":521.7999997139,"correct":true,"confidence":-1},{"trial_n":6,"min":57,"max":198,"target":"absent","response":"absent","rt":391.30000019073,"correct":true,"confidence":-1},{"trial_n":7,"min":73,"max":182,"target":"absent","response":"absent","rt":325,"correct":true,"confidence":-1},{"trial_n":8,"min":73,"max":182,"target":"present","response":"absent","rt":537.19999980927,"correct":false,"confidence":-1},{"trial_n":9,"min":57,"max":198,"target":"absent","response":"absent","rt":484.59999990463,"correct":true,"confidence":-1},{"trial_n":10,"min":57,"max":198,"target":"present","response":"present","rt":509.59999990463,"correct":true,"confidence":-1},{"trial_n":11,"min":65,"max":190,"target":"present","response":"present","rt":478.40000009537,"correct":true,"confidence":-1},{"trial_n":12,"min":65,"max":190,"target":"present","response":"present","rt":508.90000009537,"correct":true,"confidence":-1},{"trial_n":13,"min":73,"max":182,"target":"absent","response":"absent","rt":569.09999990463,"correct":true,"confidence":-1},{"trial_n":14,"min":73,"max":182,"target":"present","response":"present","rt":433.80000019073,"correct":true,"confidence":-1},{"trial_n":15,"min":81,"max":174,"target":"present","response":"present","rt":446.7000002861,"correct":true,"confidence":-1},{"trial_n":16,"min":81,"max":174,"target":"absent","response":"absent","rt":439,"correct":true,"confidence":-1},{"trial_n":17,"min":89,"max":166,"target":"absent","response":"absent","rt":385.09999990463,"correct":true,"confidence":-1},{"trial_n":18,"min":89,"max":166,"target":"absent","response":"absent","rt":367.09999990463,"correct":true,"confidence":-1},{"trial_n":19,"min":97,"max":158,"target":"present","response":"absent","rt":343.5,"correct":false,"confidence":-1},{"trial_n":20,"min":89,"max":166,"target":"present","response":"absent","rt":622.2999997139,"correct":false,"confidence":-1},{"trial_n":21,"min":85,"max":170,"target":"absent","response":"absent","rt":805.39999961853,"correct":true,"confidence":3},{"trial_n":22,"min":85,"max":170,"target":"present","response":"present","rt":1218.9000000954,"correct":true,"confidence":5},{"trial_n":23,"min":89,"max":166,"target":"absent","response":"absent","rt":1928.8999996185,"correct":true,"confidence":2},{"trial_n":24,"min":89,"max":166,"target":"present","response":"absent","rt":2778.1999998093,"correct":false,"confidence":2},{"trial_n":25,"min":85,"max":170,"target":"absent","response":"present","rt":2841.1999998093,"correct":false,"confidence":2},{"trial_n":26,"min":81,"max":174,"target":"present","response":"absent","rt":1176.6999998093,"correct":false,"confidence":3},{"trial_n":27,"min":77,"max":178,"target":"absent","response":"present","rt":1408,"correct":false,"confidence":3},{"trial_n":28,"min":73,"max":182,"target":"absent","response":"present","rt":1007.3999996185,"correct":false,"confidence":3},{"trial_n":29,"min":69,"max":186,"target":"absent","response":"absent","rt":1398.7000002861,"correct":true,"confidence":2},{"trial_n":30,"min":69,"max":186,"target":"present","response":"present","rt":1121.2999997139,"correct":true,"confidence":5},{"trial_n":31,"min":71,"max":184,"target":"present","response":"present","rt":872.69999980927,"correct":true,"confidence":5},{"trial_n":32,"min":71,"max":184,"target":"absent","response":"absent","rt":887.69999980927,"correct":true,"confidence":3},{"trial_n":33,"min":73,"max":182,"target":"present","response":"present","rt":523.90000009537,"correct":true,"confidence":5},{"trial_n":34,"min":73,"max":182,"target":"present","response":"present","rt":462.19999980927,"correct":true,"confidence":5},{"trial_n":35,"min":75,"max":180,"target":"absent","response":"absent","rt":1086.4000000954,"correct":true,"confidence":3},{"trial_n":36,"min":75,"max":180,"target":"present","response":"present","rt":798.69999980927,"correct":true,"confidence":4},{"trial_n":37,"min":77,"max":178,"target":"absent","response":"present","rt":789.90000009537,"correct":false,"confidence":3},{"trial_n":38,"min":75,"max":180,"target":"absent","response":"absent","rt":763.69999980927,"correct":true,"confidence":2},{"trial_n":39,"min":75,"max":180,"target":"present","response":"present","rt":369.09999990463,"correct":true,"confidence":4},{"trial_n":40,"min":77,"max":178,"target":"present","response":"present","rt":1486.7999997139,"correct":true,"confidence":2},{"trial_n":41,"min":77,"max":178,"target":"present","response":"present","rt":975.10000038147,"correct":true,"confidence":3},{"trial_n":42,"min":78,"max":177,"target":"absent","response":"absent","rt":883.40000009537,"correct":true,"confidence":2},{"trial_n":43,"min":78,"max":177,"target":"absent","response":"absent","rt":823.60000038147,"correct":true,"confidence":4},{"trial_n":44,"min":79,"max":176,"target":"absent","response":"absent","rt":728.90000009537,"correct":true,"confidence":4},{"trial_n":45,"min":79,"max":176,"target":"present","response":"present","rt":1061.2999997139,"correct":true,"confidence":2},{"trial_n":46,"min":80,"max":175,"target":"present","response":"present","rt":793.30000019073,"correct":true,"confidence":4},{"trial_n":47,"min":80,"max":175,"target":"present","response":"present","rt":1601.0999999046,"correct":true,"confidence":3},{"trial_n":48,"min":81,"max":174,"target":"absent","response":"absent","rt":1120.5,"correct":true,"confidence":2},{"trial_n":49,"min":81,"max":174,"target":"absent","response":"absent","rt":1066.6999998093,"correct":true,"confidence":3},{"trial_n":50,"min":82,"max":173,"target":"present","response":"present","rt":686.59999990463,"correct":true,"confidence":4},{"trial_n":51,"min":82,"max":173,"target":"absent","response":"absent","rt":597.69999980927,"correct":true,"confidence":3},{"trial_n":52,"min":83,"max":172,"target":"absent","response":"absent","rt":6222.3000001907,"correct":true,"confidence":2},{"trial_n":53,"min":83,"max":172,"target":"present","response":"present","rt":1386.0999999046,"correct":true,"confidence":4},{"trial_n":54,"min":84,"max":171,"target":"absent","response":"absent","rt":408.90000009537,"correct":true,"confidence":3},{"trial_n":55,"min":84,"max":171,"target":"absent","response":"absent","rt":684.69999980927,"correct":true,"confidence":3},{"trial_n":56,"min":85,"max":170,"target":"absent","response":"absent","rt":637.69999980927,"correct":true,"confidence":2},{"trial_n":57,"min":85,"max":170,"target":"present","response":"present","rt":492,"correct":true,"confidence":4},{"trial_n":58,"min":86,"max":169,"target":"present","response":"present","rt":1146.7000002861,"correct":true,"confidence":2},{"trial_n":59,"min":86,"max":169,"target":"present","response":"present","rt":585.30000019073,"correct":true,"confidence":4},{"trial_n":60,"min":87,"max":168,"target":"absent","response":"absent","rt":544.90000009537,"correct":true,"confidence":2},{"trial_n":61,"min":87,"max":168,"target":"absent","response":"present","rt":860.09999990463,"correct":false,"confidence":2},{"trial_n":62,"min":86,"max":169,"target":"present","response":"present","rt":385.7999997139,"correct":true,"confidence":3},{"trial_n":63,"min":86,"max":169,"target":"absent","response":"absent","rt":482.40000009537,"correct":true,"confidence":3},{"trial_n":64,"min":87,"max":168,"target":"present","response":"absent","rt":1219.0999999046,"correct":false,"confidence":5},{"trial_n":65,"min":86,"max":169,"target":"absent","response":"absent","rt":784.09999990463,"correct":true,"confidence":3},{"trial_n":66,"min":86,"max":169,"target":"present","response":"absent","rt":586,"correct":false,"confidence":2},{"trial_n":67,"min":85,"max":170,"target":"absent","response":"absent","rt":888.39999961853,"correct":true,"confidence":3},{"trial_n":68,"min":85,"max":170,"target":"present","response":"present","rt":542.19999980927,"correct":true,"confidence":5},{"trial_n":69,"min":86,"max":169,"target":"present","response":"present","rt":620,"correct":true,"confidence":4},{"trial_n":70,"min":86,"max":169,"target":"present","response":"present","rt":421.09999990463,"correct":true,"confidence":3},{"trial_n":71,"min":41,"max":214,"target":"present","response":"present","rt":4169,"correct":true,"confidence":-1},{"trial_n":72,"min":41,"max":214,"target":"present","response":"present","rt":935.39999961853,"correct":true,"confidence":-1},{"trial_n":73,"min":57,"max":198,"target":"absent","response":"absent","rt":540.90000009537,"correct":true,"confidence":-1},{"trial_n":74,"min":57,"max":198,"target":"absent","response":"absent","rt":624.5,"correct":true,"confidence":-1},{"trial_n":75,"min":73,"max":182,"target":"present","response":"present","rt":599.40000009537,"correct":true,"confidence":-1},{"trial_n":76,"min":73,"max":182,"target":"absent","response":"absent","rt":594.09999990463,"correct":true,"confidence":-1},{"trial_n":77,"min":89,"max":166,"target":"present","response":"present","rt":444.60000038147,"correct":true,"confidence":-1},{"trial_n":78,"min":89,"max":166,"target":"present","response":"absent","rt":681,"correct":false,"confidence":-1},{"trial_n":79,"min":73,"max":182,"target":"absent","response":"present","rt":676.69999980927,"correct":false,"confidence":-1},{"trial_n":80,"min":57,"max":198,"target":"present","response":"present","rt":412.7999997139,"correct":true,"confidence":-1},{"trial_n":81,"min":57,"max":198,"target":"present","response":"present","rt":370.90000009537,"correct":true,"confidence":-1},{"trial_n":82,"min":65,"max":190,"target":"absent","response":"absent","rt":567.19999980927,"correct":true,"confidence":-1},{"trial_n":83,"min":65,"max":190,"target":"present","response":"present","rt":344.40000009537,"correct":true,"confidence":-1},{"trial_n":84,"min":73,"max":182,"target":"present","response":"present","rt":584.40000009537,"correct":true,"confidence":-1},{"trial_n":85,"min":73,"max":182,"target":"present","response":"present","rt":303.80000019073,"correct":true,"confidence":-1},{"trial_n":86,"min":81,"max":174,"target":"absent","response":"absent","rt":1202.5,"correct":true,"confidence":-1},{"trial_n":87,"min":81,"max":174,"target":"absent","response":"absent","rt":473.09999990463,"correct":true,"confidence":-1},{"trial_n":88,"min":89,"max":166,"target":"present","response":"present","rt":437.90000009537,"correct":true,"confidence":-1},{"trial_n":89,"min":89,"max":166,"target":"absent","response":"absent","rt":549.30000019073,"correct":true,"confidence":-1},{"trial_n":90,"min":97,"max":158,"target":"present","response":"present","rt":418.5,"correct":true,"confidence":-1},{"trial_n":91,"min":97,"max":158,"target":"absent","response":"present","rt":562.2999997139,"correct":false,"confidence":2},{"trial_n":92,"min":93,"max":162,"target":"absent","response":"absent","rt":664.09999990463,"correct":true,"confidence":2},{"trial_n":93,"min":93,"max":162,"target":"present","response":"absent","rt":725.89999961853,"correct":false,"confidence":2},{"trial_n":94,"min":89,"max":166,"target":"present","response":"present","rt":1533.4000000954,"correct":true,"confidence":2},{"trial_n":95,"min":89,"max":166,"target":"present","response":"present","rt":873.09999990463,"correct":true,"confidence":2},{"trial_n":96,"min":93,"max":162,"target":"absent","response":"present","rt":595.59999990463,"correct":false,"confidence":3},{"trial_n":97,"min":89,"max":166,"target":"absent","response":"absent","rt":1127.6000003815,"correct":true,"confidence":2},{"trial_n":98,"min":89,"max":166,"target":"absent","response":"present","rt":514.40000009537,"correct":false,"confidence":4},{"trial_n":99,"min":85,"max":170,"target":"present","response":"absent","rt":963.80000019073,"correct":false,"confidence":2},{"trial_n":100,"min":81,"max":174,"target":"absent","response":"present","rt":1941.4000000954,"correct":false,"confidence":2},{"trial_n":101,"min":79,"max":176,"target":"present","response":"present","rt":376.09999990463,"correct":true,"confidence":5},{"trial_n":102,"min":79,"max":176,"target":"present","response":"present","rt":981,"correct":true,"confidence":2},{"trial_n":103,"min":81,"max":174,"target":"present","response":"present","rt":326.30000019073,"correct":true,"confidence":5},{"trial_n":104,"min":81,"max":174,"target":"absent","response":"present","rt":875.7999997139,"correct":false,"confidence":2},{"trial_n":105,"min":79,"max":176,"target":"absent","response":"absent","rt":643.30000019073,"correct":true,"confidence":3},{"trial_n":106,"min":79,"max":176,"target":"present","response":"present","rt":357.40000009537,"correct":true,"confidence":4},{"trial_n":107,"min":81,"max":174,"target":"absent","response":"absent","rt":887.90000009537,"correct":true,"confidence":2},{"trial_n":108,"min":81,"max":174,"target":"present","response":"present","rt":357.5,"correct":true,"confidence":4},{"trial_n":109,"min":83,"max":172,"target":"absent","response":"absent","rt":596,"correct":true,"confidence":3},{"trial_n":110,"min":83,"max":172,"target":"absent","response":"present","rt":806.2999997139,"correct":false,"confidence":2},{"trial_n":111,"min":82,"max":173,"target":"absent","response":"present","rt":1123.2000002861,"correct":false,"confidence":3},{"trial_n":112,"min":81,"max":174,"target":"present","response":"present","rt":900.5,"correct":true,"confidence":2},{"trial_n":113,"min":81,"max":174,"target":"absent","response":"absent","rt":1355.4000000954,"correct":true,"confidence":1},{"trial_n":114,"min":82,"max":173,"target":"present","response":"present","rt":736.19999980927,"correct":true,"confidence":1},{"trial_n":115,"min":82,"max":173,"target":"absent","response":"absent","rt":1023.5,"correct":true,"confidence":4},{"trial_n":116,"min":83,"max":172,"target":"present","response":"present","rt":1536.9000000954,"correct":true,"confidence":1},{"trial_n":117,"min":83,"max":172,"target":"present","response":"present","rt":416.30000019073,"correct":true,"confidence":5},{"trial_n":118,"min":84,"max":171,"target":"absent","response":"present","rt":667.10000038147,"correct":false,"confidence":1},{"trial_n":119,"min":83,"max":172,"target":"present","response":"present","rt":460.40000009537,"correct":true,"confidence":4},{"trial_n":120,"min":83,"max":172,"target":"absent","response":"absent","rt":623,"correct":true,"confidence":5},{"trial_n":121,"min":84,"max":171,"target":"absent","response":"present","rt":605.5,"correct":false,"confidence":3},{"trial_n":122,"min":83,"max":172,"target":"present","response":"present","rt":340.2000002861,"correct":true,"confidence":4},{"trial_n":123,"min":83,"max":172,"target":"present","response":"present","rt":1212.0999999046,"correct":true,"confidence":5},{"trial_n":124,"min":84,"max":171,"target":"present","response":"present","rt":389.30000019073,"correct":true,"confidence":5},{"trial_n":125,"min":84,"max":171,"target":"absent","response":"present","rt":600.2000002861,"correct":false,"confidence":4},{"trial_n":126,"min":83,"max":172,"target":"present","response":"present","rt":557.40000009537,"correct":true,"confidence":4},{"trial_n":127,"min":83,"max":172,"target":"present","response":"present","rt":522.5,"correct":true,"confidence":4},{"trial_n":128,"min":84,"max":171,"target":"absent","response":"present","rt":592.59999990463,"correct":false,"confidence":4},{"trial_n":129,"min":83,"max":172,"target":"present","response":"present","rt":465.80000019073,"correct":true,"confidence":5},{"trial_n":130,"min":83,"max":172,"target":"present","response":"present","rt":385.19999980927,"correct":true,"confidence":5},{"trial_n":131,"min":84,"max":171,"target":"present","response":"present","rt":503.09999990463,"correct":true,"confidence":2},{"trial_n":132,"min":84,"max":171,"target":"absent","response":"absent","rt":575.90000009537,"correct":true,"confidence":2},{"trial_n":133,"min":85,"max":170,"target":"present","response":"present","rt":451.7000002861,"correct":true,"confidence":3},{"trial_n":134,"min":85,"max":170,"target":"absent","response":"present","rt":566.19999980927,"correct":false,"confidence":1},{"trial_n":135,"min":84,"max":171,"target":"absent","response":"absent","rt":642.90000009537,"correct":true,"confidence":4},{"trial_n":136,"min":84,"max":171,"target":"absent","response":"absent","rt":750.60000038147,"correct":true,"confidence":4},{"trial_n":137,"min":85,"max":170,"target":"present","response":"present","rt":531.60000038147,"correct":true,"confidence":2},{"trial_n":138,"min":85,"max":170,"target":"absent","response":"absent","rt":1046.3000001907,"correct":true,"confidence":2},{"trial_n":139,"min":86,"max":169,"target":"absent","response":"present","rt":946.80000019073,"correct":false,"confidence":3},{"trial_n":140,"min":85,"max":170,"target":"absent","response":"present","rt":924.90000009537,"correct":false,"confidence":3}]