[{"trial_n":1,"n_dots":4.25,"target":"left","response":"left","rt":3492.5,"correct":true,"confidence":-1},{"trial_n":2,"n_dots":4.25,"target":"left","response":"left","rt":1494.6999998093,"correct":true,"confidence":-1},{"trial_n":3,"n_dots":3.85,"target":"left","response":"right","rt":917.29999995232,"correct":false,"confidence":-1},{"trial_n":4,"n_dots":4.25,"target":"right","response":"right","rt":1173,"correct":true,"confidence":-1},{"trial_n":5,"n_dots":4.25,"target":"left","response":"left","rt":970.70000004768,"correct":true,"confidence":-1},{"trial_n":6,"n_dots":3.85,"target":"left","response":"left","rt":867.29999995232,"correct":true,"confidence":-1},{"trial_n":7,"n_dots":3.85,"target":"left","response":"left","rt":701,"correct":true,"confidence":-1},{"trial_n":8,"n_dots":3.65,"target":"left","response":"left","rt":993,"correct":true,"confidence":-1},{"trial_n":9,"n_dots":3.65,"target":"left","response":"left","rt":572.5,"correct":true,"confidence":-1},{"trial_n":10,"n_dots":3.45,"target":"right","response":"right","rt":916,"correct":true,"confidence":-1},{"trial_n":11,"n_dots":3.45,"target":"right","response":"right","rt":569.20000004768,"correct":true,"confidence":-1},{"trial_n":12,"n_dots":3.25,"target":"right","response":"right","rt":527.40000009537,"correct":true,"confidence":-1},{"trial_n":13,"n_dots":3.25,"target":"right","response":"right","rt":550.5,"correct":true,"confidence":-1},{"trial_n":14,"n_dots":3.15,"target":"right","response":"right","rt":517.40000009537,"correct":true,"confidence":-1},{"trial_n":15,"n_dots":3.15,"target":"right","response":"right","rt":428,"correct":true,"confidence":-1},{"trial_n":16,"n_dots":3.05,"target":"left","response":"left","rt":1013.6000001431,"correct":true,"confidence":-1},{"trial_n":17,"n_dots":3.05,"target":"right","response":"right","rt":487.89999985695,"correct":true,"confidence":-1},{"trial_n":18,"n_dots":2.95,"target":"left","response":"left","rt":610.79999995232,"correct":true,"confidence":-1},{"trial_n":19,"n_dots":2.95,"target":"right","response":"right","rt":394.60000014305,"correct":true,"confidence":-1},{"trial_n":20,"n_dots":2.85,"target":"right","response":"right","rt":734.90000009537,"correct":true,"confidence":-1},{"trial_n":21,"n_dots":2.85,"target":"right","response":"right","rt":944.80000019073,"correct":true,"confidence":2},{"trial_n":22,"n_dots":2.75,"target":"right","response":"right","rt":668.79999995232,"correct":true,"confidence":4},{"trial_n":23,"n_dots":2.75,"target":"right","response":"left","rt":828.19999980927,"correct":false,"confidence":3},{"trial_n":24,"n_dots":2.85,"target":"right","response":"right","rt":795.5,"correct":true,"confidence":4},{"trial_n":25,"n_dots":2.85,"target":"right","response":"right","rt":711.10000014305,"correct":true,"confidence":3},{"trial_n":26,"n_dots":2.75,"target":"right","response":"right","rt":616.70000004768,"correct":true,"confidence":3},{"trial_n":27,"n_dots":2.75,"target":"left","response":"left","rt":602.39999985695,"correct":true,"confidence":2},{"trial_n":28,"n_dots":2.65,"target":"left","response":"right","rt":949.40000009537,"correct":false,"confidence":4},{"trial_n":29,"n_dots":2.75,"target":"right","response":"right","rt":936,"correct":true,"confidence":3},{"trial_n":30,"n_dots":2.75,"target":"left","response":"right","rt":903.09999990463,"correct":false,"confidence":3},{"trial_n":31,"n_dots":2.85,"target":"right","response":"left","rt":657.09999990463,"correct":false,"confidence":2},{"trial_n":32,"n_dots":2.95,"target":"left","response":"left","rt":777.20000004768,"correct":true,"confidence":5},{"trial_n":33,"n_dots":2.95,"target":"left","response":"left","rt":857,"correct":true,"confidence":4},{"trial_n":34,"n_dots":2.85,"target":"right","response":"right","rt":757.09999990463,"correct":true,"confidence":5},{"trial_n":35,"n_dots":2.85,"target":"right","response":"left","rt":568.30000019073,"correct":false,"confidence":5},{"trial_n":36,"n_dots":2.95,"target":"left","response":"left","rt":731.5,"correct":true,"confidence":5},{"trial_n":37,"n_dots":2.95,"target":"left","response":"left","rt":1291.2000000477,"correct":true,"confidence":4},{"trial_n":38,"n_dots":2.85,"target":"right","response":"right","rt":531.39999985695,"correct":true,"confidence":3},{"trial_n":39,"n_dots":2.85,"target":"right","response":"left","rt":718.09999990463,"correct":false,"confidence":4},{"trial_n":40,"n_dots":2.95,"target":"right","response":"right","rt":845.79999995232,"correct":true,"confidence":4},{"trial_n":41,"n_dots":2.95,"target":"right","response":"right","rt":925.5,"correct":true,"confidence":4},{"trial_n":42,"n_dots":2.85,"target":"left","response":"left","rt":539.40000009537,"correct":true,"confidence":5},{"trial_n":43,"n_dots":2.85,"target":"left","response":"left","rt":885.5,"correct":true,"confidence":4},{"trial_n":44,"n_dots":2.75,"target":"right","response":"right","rt":775.79999995232,"correct":true,"confidence":3},{"trial_n":45,"n_dots":2.75,"target":"right","response":"right","rt":1217.5999999046,"correct":true,"confidence":2},{"trial_n":46,"n_dots":2.65,"target":"right","response":"left","rt":745.5,"correct":false,"confidence":3},{"trial_n":47,"n_dots":2.75,"target":"right","response":"right","rt":926.70000004768,"correct":true,"confidence":4},{"trial_n":48,"n_dots":2.75,"target":"right","response":"left","rt":942.59999990463,"correct":false,"confidence":4},{"trial_n":49,"n_dots":2.85,"target":"left","response":"right","rt":792.89999985695,"correct":false,"confidence":3},{"trial_n":50,"n_dots":2.95,"target":"left","response":"left","rt":670,"correct":true,"confidence":3},{"trial_n":51,"n_dots":2.95,"target":"right","response":"left","rt":597.79999995232,"correct":false,"confidence":4},{"trial_n":52,"n_dots":3.05,"target":"left","response":"left","rt":600,"correct":true,"confidence":4},{"trial_n":53,"n_dots":3.05,"target":"right","response":"left","rt":535.59999990463,"correct":false,"confidence":4},{"trial_n":54,"n_dots":3.15,"target":"left","response":"left","rt":606,"correct":true,"confidence":5},{"trial_n":55,"n_dots":3.15,"target":"right","response":"right","rt":572.79999995232,"correct":true,"confidence":5},{"trial_n":56,"n_dots":3.05,"target":"left","response":"left","rt":548.40000009537,"correct":true,"confidence":5},{"trial_n":57,"n_dots":3.05,"target":"left","response":"left","rt":713.5,"correct":true,"confidence":5},{"trial_n":58,"n_dots":2.95,"target":"right","response":"left","rt":1148.7999999523,"correct":false,"confidence":4},{"trial_n":59,"n_dots":3.05,"target":"left","response":"left","rt":571.5,"correct":true,"confidence":4},{"trial_n":60,"n_dots":3.05,"target":"right","response":"left","rt":901.70000004768,"correct":false,"confidence":3},{"trial_n":61,"n_dots":3.15,"target":"right","response":"right","rt":581.80000019073,"correct":true,"confidence":4},{"trial_n":62,"n_dots":3.15,"target":"right","response":"left","rt":723,"correct":false,"confidence":3},{"trial_n":63,"n_dots":3.25,"target":"right","response":"right","rt":394.09999990463,"correct":true,"confidence":4},{"trial_n":64,"n_dots":3.25,"target":"left","response":"left","rt":223.90000009537,"correct":true,"confidence":3},{"trial_n":65,"n_dots":3.15,"target":"right","response":"right","rt":852,"correct":true,"confidence":3},{"trial_n":66,"n_dots":3.15,"target":"left","response":"left","rt":391.40000009537,"correct":true,"confidence":5},{"trial_n":67,"n_dots":3.05,"target":"right","response":"right","rt":738.70000004768,"correct":true,"confidence":3},{"trial_n":68,"n_dots":3.05,"target":"left","response":"left","rt":657,"correct":true,"confidence":5},{"trial_n":69,"n_dots":2.95,"target":"right","response":"right","rt":472.79999995232,"correct":true,"confidence":5},{"trial_n":70,"n_dots":2.95,"target":"right","response":"left","rt":640.70000004768,"correct":false,"confidence":5},{"trial_n":71,"n_dots":3.05,"target":"left","response":"left","rt":959.80000019073,"correct":true,"confidence":3},{"trial_n":72,"n_dots":3.05,"target":"left","response":"left","rt":726.09999990463,"correct":true,"confidence":2},{"trial_n":73,"n_dots":2.95,"target":"right","response":"right","rt":530,"correct":true,"confidence":4},{"trial_n":74,"n_dots":2.95,"target":"right","response":"right","rt":983.20000004768,"correct":true,"confidence":3},{"trial_n":75,"n_dots":2.85,"target":"left","response":"left","rt":392.59999990463,"correct":true,"confidence":5},{"trial_n":76,"n_dots":2.85,"target":"right","response":"right","rt":871.5,"correct":true,"confidence":5},{"trial_n":77,"n_dots":2.75,"target":"left","response":"left","rt":610.59999990463,"correct":true,"confidence":4},{"trial_n":78,"n_dots":2.75,"target":"right","response":"left","rt":662.20000004768,"correct":false,"confidence":3},{"trial_n":79,"n_dots":2.85,"target":"right","response":"right","rt":971.29999995232,"correct":true,"confidence":2},{"trial_n":80,"n_dots":2.85,"target":"left","response":"left","rt":488.90000009537,"correct":true,"confidence":5},{"trial_n":81,"n_dots":2.75,"target":"right","response":"left","rt":506.59999990463,"correct":false,"confidence":3},{"trial_n":82,"n_dots":2.85,"target":"right","response":"right","rt":578.20000004768,"correct":true,"confidence":4},{"trial_n":83,"n_dots":2.85,"target":"left","response":"left","rt":408.20000004768,"correct":true,"confidence":5},{"trial_n":84,"n_dots":2.75,"target":"right","response":"right","rt":336.70000004768,"correct":true,"confidence":5},{"trial_n":85,"n_dots":2.75,"target":"left","response":"left","rt":209.79999995232,"correct":true,"confidence":5},{"trial_n":86,"n_dots":2.65,"target":"right","response":"left","rt":1036,"correct":false,"confidence":4},{"trial_n":87,"n_dots":2.75,"target":"left","response":"left","rt":491.20000004768,"correct":true,"confidence":5},{"trial_n":88,"n_dots":2.75,"target":"left","response":"left","rt":376.90000009537,"correct":true,"confidence":5},{"trial_n":89,"n_dots":2.65,"target":"left","response":"left","rt":378.29999995232,"correct":true,"confidence":5},{"trial_n":90,"n_dots":2.65,"target":"left","response":"right","rt":351.90000009537,"correct":false,"confidence":5},{"trial_n":91,"n_dots":2.75,"target":"right","response":"right","rt":486.89999985695,"correct":true,"confidence":5},{"trial_n":92,"n_dots":2.75,"target":"left","response":"left","rt":738.20000004768,"correct":true,"confidence":4},{"trial_n":93,"n_dots":2.65,"target":"right","response":"right","rt":467.79999995232,"correct":true,"confidence":5},{"trial_n":94,"n_dots":2.65,"target":"left","response":"left","rt":422,"correct":true,"confidence":5},{"trial_n":95,"n_dots":2.55,"target":"left","response":"left","rt":283.59999990463,"correct":true,"confidence":5},{"trial_n":96,"n_dots":2.55,"target":"left","response":"left","rt":419.39999985695,"correct":true,"confidence":4},{"trial_n":97,"n_dots":2.45,"target":"right","response":"left","rt":586.10000014305,"correct":false,"confidence":3},{"trial_n":98,"n_dots":2.55,"target":"right","response":"right","rt":628.20000004768,"correct":true,"confidence":3},{"trial_n":99,"n_dots":2.55,"target":"right","response":"right","rt":384.10000014305,"correct":true,"confidence":3},{"trial_n":100,"n_dots":2.45,"target":"left","response":"left","rt":423.20000004768,"correct":true,"confidence":2},{"trial_n":101,"n_dots":2.45,"target":"left","response":"right","rt":540.20000004768,"correct":false,"confidence":2},{"trial_n":102,"n_dots":2.55,"target":"right","response":"left","rt":233.29999995232,"correct":false,"confidence":3},{"trial_n":103,"n_dots":2.65,"target":"left","response":"left","rt":402.79999995232,"correct":true,"confidence":2},{"trial_n":104,"n_dots":2.65,"target":"left","response":"left","rt":373.40000009537,"correct":true,"confidence":5},{"trial_n":105,"n_dots":2.55,"target":"left","response":"right","rt":453.59999990463,"correct":false,"confidence":4},{"trial_n":106,"n_dots":2.65,"target":"left","response":"left","rt":524.69999980927,"correct":true,"confidence":4},{"trial_n":107,"n_dots":2.65,"target":"left","response":"right","rt":103.10000014305,"correct":false,"confidence":5},{"trial_n":108,"n_dots":2.75,"target":"right","response":"right","rt":366.5,"correct":true,"confidence":5},{"trial_n":109,"n_dots":2.75,"target":"right","response":"right","rt":133.09999990463,"correct":true,"confidence":2},{"trial_n":110,"n_dots":2.65,"target":"left","response":"left","rt":440.79999995232,"correct":true,"confidence":4},{"trial_n":111,"n_dots":2.65,"target":"left","response":"left","rt":673.20000004768,"correct":true,"confidence":5},{"trial_n":112,"n_dots":2.55,"target":"left","response":"left","rt":577.89999985695,"correct":true,"confidence":4},{"trial_n":113,"n_dots":2.55,"target":"right","response":"right","rt":459,"correct":true,"confidence":5},{"trial_n":114,"n_dots":2.45,"target":"right","response":"left","rt":279.89999985695,"correct":false,"confidence":3},{"trial_n":115,"n_dots":2.55,"target":"left","response":"right","rt":525,"correct":false,"confidence":3},{"trial_n":116,"n_dots":2.65,"target":"left","response":"left","rt":212.80000019073,"correct":true,"confidence":2},{"trial_n":117,"n_dots":2.65,"target":"left","response":"left","rt":393.79999995232,"correct":true,"confidence":4},{"trial_n":118,"n_dots":2.55,"target":"left","response":"left","rt":341.29999995232,"correct":true,"confidence":5},{"trial_n":119,"n_dots":2.55,"target":"left","response":"left","rt":25.299999952316,"correct":true,"confidence":5},{"trial_n":120,"n_dots":2.45,"target":"left","response":"left","rt":157.39999985695,"correct":true,"confidence":5}]