[{"trial_n":1,"min":25,"max":230,"target":"present","response":"absent","rt":4303.5999999046,"correct":false,"confidence":-1},{"trial_n":2,"min":25,"max":230,"target":"present","response":"present","rt":1514.5,"correct":true,"confidence":-1},{"trial_n":3,"min":25,"max":230,"target":"absent","response":"absent","rt":950.89999985695,"correct":true,"confidence":-1},{"trial_n":4,"min":41,"max":214,"target":"absent","response":"absent","rt":539.79999995232,"correct":true,"confidence":-1},{"trial_n":5,"min":41,"max":214,"target":"present","response":"present","rt":1517.3999998569,"correct":true,"confidence":-1},{"trial_n":6,"min":57,"max":198,"target":"present","response":"present","rt":653.70000004768,"correct":true,"confidence":-1},{"trial_n":7,"min":57,"max":198,"target":"absent","response":"absent","rt":874.20000004768,"correct":true,"confidence":-1},{"trial_n":8,"min":73,"max":182,"target":"present","response":"absent","rt":929.39999985695,"correct":false,"confidence":-1},{"trial_n":9,"min":57,"max":198,"target":"absent","response":"absent","rt":1093.2999999523,"correct":true,"confidence":-1},{"trial_n":10,"min":57,"max":198,"target":"present","response":"present","rt":660.70000004768,"correct":true,"confidence":-1},{"trial_n":11,"min":65,"max":190,"target":"present","response":"present","rt":703.10000014305,"correct":true,"confidence":-1},{"trial_n":12,"min":65,"max":190,"target":"present","response":"present","rt":588.69999980927,"correct":true,"confidence":-1},{"trial_n":13,"min":73,"max":182,"target":"absent","response":"absent","rt":1180.4000000954,"correct":true,"confidence":-1},{"trial_n":14,"min":73,"max":182,"target":"absent","response":"absent","rt":499.59999990463,"correct":true,"confidence":-1},{"trial_n":15,"min":81,"max":174,"target":"absent","response":"absent","rt":697.5,"correct":true,"confidence":-1},{"trial_n":16,"min":81,"max":174,"target":"present","response":"present","rt":1353.4000000954,"correct":true,"confidence":-1},{"trial_n":17,"min":89,"max":166,"target":"present","response":"present","rt":489.70000004768,"correct":true,"confidence":-1},{"trial_n":18,"min":89,"max":166,"target":"absent","response":"absent","rt":733.70000004768,"correct":true,"confidence":-1},{"trial_n":19,"min":97,"max":158,"target":"absent","response":"absent","rt":536.70000004768,"correct":true,"confidence":-1},{"trial_n":20,"min":97,"max":158,"target":"absent","response":"absent","rt":436.5,"correct":true,"confidence":-1},{"trial_n":21,"min":101,"max":154,"target":"absent","response":"absent","rt":1019.5999999046,"correct":true,"confidence":2},{"trial_n":22,"min":101,"max":154,"target":"present","response":"absent","rt":1186.6999998093,"correct":false,"confidence":5},{"trial_n":23,"min":97,"max":158,"target":"absent","response":"absent","rt":814.69999980927,"correct":true,"confidence":4},{"trial_n":24,"min":97,"max":158,"target":"present","response":"present","rt":689.79999995232,"correct":true,"confidence":5},{"trial_n":25,"min":101,"max":154,"target":"present","response":"absent","rt":831.79999995232,"correct":false,"confidence":4},{"trial_n":26,"min":97,"max":158,"target":"present","response":"absent","rt":807,"correct":false,"confidence":4},{"trial_n":27,"min":93,"max":162,"target":"present","response":"present","rt":1130.8000001907,"correct":true,"confidence":3},{"trial_n":28,"min":93,"max":162,"target":"absent","response":"absent","rt":1479.2999999523,"correct":true,"confidence":3},{"trial_n":29,"min":97,"max":158,"target":"absent","response":"absent","rt":847.20000004768,"correct":true,"confidence":3},{"trial_n":30,"min":97,"max":158,"target":"absent","response":"absent","rt":1654.7000000477,"correct":true,"confidence":2},{"trial_n":31,"min":99,"max":156,"target":"present","response":"present","rt":720.20000004768,"correct":true,"confidence":2},{"trial_n":32,"min":99,"max":156,"target":"present","response":"present","rt":799.29999995232,"correct":true,"confidence":4},{"trial_n":33,"min":101,"max":154,"target":"present","response":"present","rt":1531.2999999523,"correct":true,"confidence":5},{"trial_n":34,"min":101,"max":154,"target":"absent","response":"present","rt":1278.2999999523,"correct":false,"confidence":3},{"trial_n":35,"min":99,"max":156,"target":"present","response":"present","rt":552,"correct":true,"confidence":4},{"trial_n":36,"min":99,"max":156,"target":"absent","response":"present","rt":736.70000004768,"correct":false,"confidence":4},{"trial_n":37,"min":97,"max":158,"target":"absent","response":"present","rt":719.70000004768,"correct":false,"confidence":4},{"trial_n":38,"min":95,"max":160,"target":"absent","response":"absent","rt":761.09999990463,"correct":true,"confidence":5},{"trial_n":39,"min":95,"max":160,"target":"absent","response":"present","rt":675.60000014305,"correct":false,"confidence":3},{"trial_n":40,"min":93,"max":162,"target":"present","response":"present","rt":736.59999990463,"correct":true,"confidence":4},{"trial_n":41,"min":93,"max":162,"target":"absent","response":"present","rt":796.40000009537,"correct":false,"confidence":3},{"trial_n":42,"min":92,"max":163,"target":"absent","response":"absent","rt":618.20000004768,"correct":true,"confidence":5},{"trial_n":43,"min":92,"max":163,"target":"absent","response":"absent","rt":647.60000014305,"correct":true,"confidence":5},{"trial_n":44,"min":93,"max":162,"target":"absent","response":"present","rt":609.40000009537,"correct":false,"confidence":4},{"trial_n":45,"min":92,"max":163,"target":"present","response":"present","rt":675.19999980927,"correct":true,"confidence":3},{"trial_n":46,"min":92,"max":163,"target":"absent","response":"present","rt":817,"correct":false,"confidence":4},{"trial_n":47,"min":91,"max":164,"target":"present","response":"present","rt":970.70000004768,"correct":true,"confidence":5},{"trial_n":48,"min":91,"max":164,"target":"present","response":"absent","rt":1562.8000001907,"correct":false,"confidence":5},{"trial_n":49,"min":90,"max":165,"target":"present","response":"present","rt":974.09999990463,"correct":true,"confidence":3},{"trial_n":50,"min":90,"max":165,"target":"absent","response":"present","rt":1292.1000001431,"correct":false,"confidence":3},{"trial_n":51,"min":89,"max":166,"target":"present","response":"present","rt":806.09999990463,"correct":true,"confidence":4},{"trial_n":52,"min":89,"max":166,"target":"present","response":"absent","rt":934.79999995232,"correct":false,"confidence":3},{"trial_n":53,"min":88,"max":167,"target":"present","response":"absent","rt":710.59999990463,"correct":false,"confidence":2},{"trial_n":54,"min":87,"max":168,"target":"absent","response":"absent","rt":919.80000019073,"correct":true,"confidence":4},{"trial_n":55,"min":87,"max":168,"target":"present","response":"absent","rt":880.70000004768,"correct":false,"confidence":3},{"trial_n":56,"min":86,"max":169,"target":"absent","response":"absent","rt":1373.2999999523,"correct":true,"confidence":2},{"trial_n":57,"min":86,"max":169,"target":"present","response":"absent","rt":1039.7000000477,"correct":false,"confidence":4},{"trial_n":58,"min":85,"max":170,"target":"present","response":"absent","rt":775,"correct":false,"confidence":3},{"trial_n":59,"min":84,"max":171,"target":"absent","response":"absent","rt":745.30000019073,"correct":true,"confidence":3},{"trial_n":60,"min":84,"max":171,"target":"present","response":"absent","rt":826.69999980927,"correct":false,"confidence":2},{"trial_n":61,"min":83,"max":172,"target":"present","response":"present","rt":775.60000014305,"correct":true,"confidence":5},{"trial_n":62,"min":83,"max":172,"target":"present","response":"present","rt":530.40000009537,"correct":true,"confidence":5},{"trial_n":63,"min":84,"max":171,"target":"present","response":"present","rt":731.70000004768,"correct":true,"confidence":5},{"trial_n":64,"min":84,"max":171,"target":"present","response":"absent","rt":1259.0999999046,"correct":false,"confidence":5},{"trial_n":65,"min":83,"max":172,"target":"absent","response":"present","rt":892.20000004768,"correct":false,"confidence":5},{"trial_n":66,"min":82,"max":173,"target":"present","response":"present","rt":727.5,"correct":true,"confidence":5},{"trial_n":67,"min":82,"max":173,"target":"absent","response":"present","rt":1496.5999999046,"correct":false,"confidence":4},{"trial_n":68,"min":81,"max":174,"target":"absent","response":"present","rt":624.89999985695,"correct":false,"confidence":3},{"trial_n":69,"min":80,"max":175,"target":"absent","response":"present","rt":1022.2000000477,"correct":false,"confidence":3},{"trial_n":70,"min":79,"max":176,"target":"absent","response":"absent","rt":929.5,"correct":true,"confidence":4},{"trial_n":71,"min":41,"max":214,"target":"present","response":"present","rt":1031.8999998569,"correct":true,"confidence":-1},{"trial_n":72,"min":41,"max":214,"target":"present","response":"present","rt":590,"correct":true,"confidence":-1},{"trial_n":73,"min":57,"max":198,"target":"absent","response":"absent","rt":872.09999990463,"correct":true,"confidence":-1},{"trial_n":74,"min":57,"max":198,"target":"absent","response":"absent","rt":1189,"correct":true,"confidence":-1},{"trial_n":75,"min":73,"max":182,"target":"present","response":"present","rt":600.59999990463,"correct":true,"confidence":-1},{"trial_n":76,"min":73,"max":182,"target":"present","response":"present","rt":930.10000014305,"correct":true,"confidence":-1},{"trial_n":77,"min":89,"max":166,"target":"absent","response":"absent","rt":818,"correct":true,"confidence":-1},{"trial_n":78,"min":89,"max":166,"target":"present","response":"present","rt":1093.5999999046,"correct":true,"confidence":-1},{"trial_n":79,"min":105,"max":150,"target":"present","response":"absent","rt":1407.7999999523,"correct":false,"confidence":-1},{"trial_n":80,"min":89,"max":166,"target":"absent","response":"present","rt":1261.4000000954,"correct":false,"confidence":-1},{"trial_n":81,"min":81,"max":174,"target":"absent","response":"absent","rt":1062,"correct":true,"confidence":-1},{"trial_n":82,"min":81,"max":174,"target":"absent","response":"absent","rt":1048.3999998569,"correct":true,"confidence":-1},{"trial_n":83,"min":89,"max":166,"target":"present","response":"present","rt":896.19999980927,"correct":true,"confidence":-1},{"trial_n":84,"min":89,"max":166,"target":"present","response":"present","rt":865,"correct":true,"confidence":-1},{"trial_n":85,"min":97,"max":158,"target":"present","response":"absent","rt":955.5,"correct":false,"confidence":-1},{"trial_n":86,"min":89,"max":166,"target":"absent","response":"absent","rt":959,"correct":true,"confidence":-1},{"trial_n":87,"min":89,"max":166,"target":"absent","response":"absent","rt":779.5,"correct":true,"confidence":-1},{"trial_n":88,"min":97,"max":158,"target":"absent","response":"present","rt":821.5,"correct":false,"confidence":-1},{"trial_n":89,"min":89,"max":166,"target":"absent","response":"absent","rt":858.69999980927,"correct":true,"confidence":-1},{"trial_n":90,"min":89,"max":166,"target":"present","response":"present","rt":821.29999995232,"correct":true,"confidence":-1},{"trial_n":91,"min":93,"max":162,"target":"present","response":"absent","rt":1546.3999998569,"correct":false,"confidence":2},{"trial_n":92,"min":89,"max":166,"target":"absent","response":"present","rt":1113.3000001907,"correct":false,"confidence":2},{"trial_n":93,"min":85,"max":170,"target":"present","response":"present","rt":732.10000014305,"correct":true,"confidence":5},{"trial_n":94,"min":85,"max":170,"target":"present","response":"present","rt":886.09999990463,"correct":true,"confidence":2},{"trial_n":95,"min":89,"max":166,"target":"present","response":"present","rt":715.29999995232,"correct":true,"confidence":4},{"trial_n":96,"min":89,"max":166,"target":"present","response":"present","rt":962,"correct":true,"confidence":3},{"trial_n":97,"min":93,"max":162,"target":"absent","response":"present","rt":842.60000014305,"correct":false,"confidence":2},{"trial_n":98,"min":89,"max":166,"target":"absent","response":"present","rt":1208,"correct":false,"confidence":3},{"trial_n":99,"min":85,"max":170,"target":"absent","response":"absent","rt":1018.0999999046,"correct":true,"confidence":5},{"trial_n":100,"min":85,"max":170,"target":"absent","response":"absent","rt":1032.5,"correct":true,"confidence":4},{"trial_n":101,"min":87,"max":168,"target":"absent","response":"absent","rt":2466.2999999523,"correct":true,"confidence":5},{"trial_n":102,"min":87,"max":168,"target":"present","response":"present","rt":877.89999985695,"correct":true,"confidence":3},{"trial_n":103,"min":89,"max":166,"target":"absent","response":"present","rt":1619,"correct":false,"confidence":2},{"trial_n":104,"min":87,"max":168,"target":"present","response":"present","rt":1135.5,"correct":true,"confidence":5},{"trial_n":105,"min":87,"max":168,"target":"absent","response":"absent","rt":683.59999990463,"correct":true,"confidence":5},{"trial_n":106,"min":89,"max":166,"target":"present","response":"present","rt":1379.7000000477,"correct":true,"confidence":3},{"trial_n":107,"min":89,"max":166,"target":"present","response":"present","rt":866.20000004768,"correct":true,"confidence":3},{"trial_n":108,"min":91,"max":164,"target":"present","response":"present","rt":918,"correct":true,"confidence":4},{"trial_n":109,"min":91,"max":164,"target":"present","response":"present","rt":585.59999990463,"correct":true,"confidence":5},{"trial_n":110,"min":93,"max":162,"target":"present","response":"present","rt":1114.7000000477,"correct":true,"confidence":2},{"trial_n":111,"min":93,"max":162,"target":"present","response":"absent","rt":805.5,"correct":false,"confidence":4},{"trial_n":112,"min":92,"max":163,"target":"present","response":"present","rt":566.20000004768,"correct":true,"confidence":5},{"trial_n":113,"min":92,"max":163,"target":"absent","response":"absent","rt":734.79999995232,"correct":true,"confidence":4},{"trial_n":114,"min":93,"max":162,"target":"absent","response":"absent","rt":1553.2000000477,"correct":true,"confidence":5},{"trial_n":115,"min":93,"max":162,"target":"present","response":"present","rt":969.09999990463,"correct":true,"confidence":2},{"trial_n":116,"min":94,"max":161,"target":"absent","response":"present","rt":756.90000009537,"correct":false,"confidence":2},{"trial_n":117,"min":93,"max":162,"target":"absent","response":"present","rt":677.90000009537,"correct":false,"confidence":2},{"trial_n":118,"min":92,"max":163,"target":"present","response":"present","rt":913,"correct":true,"confidence":3},{"trial_n":119,"min":92,"max":163,"target":"absent","response":"absent","rt":772.70000004768,"correct":true,"confidence":4},{"trial_n":120,"min":93,"max":162,"target":"present","response":"present","rt":861.90000009537,"correct":true,"confidence":4},{"trial_n":121,"min":93,"max":162,"target":"present","response":"present","rt":638.59999990463,"correct":true,"confidence":5},{"trial_n":122,"min":94,"max":161,"target":"present","response":"present","rt":583,"correct":true,"confidence":5},{"trial_n":123,"min":94,"max":161,"target":"absent","response":"present","rt":1132.0999999046,"correct":false,"confidence":3},{"trial_n":124,"min":93,"max":162,"target":"absent","response":"present","rt":949.09999990463,"correct":false,"confidence":4},{"trial_n":125,"min":92,"max":163,"target":"absent","response":"absent","rt":908.5,"correct":true,"confidence":3},{"trial_n":126,"min":92,"max":163,"target":"present","response":"present","rt":626.5,"correct":true,"confidence":5},{"trial_n":127,"min":93,"max":162,"target":"absent","response":"present","rt":721.09999990463,"correct":false,"confidence":2},{"trial_n":128,"min":92,"max":163,"target":"absent","response":"absent","rt":884.10000014305,"correct":true,"confidence":4},{"trial_n":129,"min":92,"max":163,"target":"present","response":"present","rt":855.59999990463,"correct":true,"confidence":5},{"trial_n":130,"min":93,"max":162,"target":"present","response":"present","rt":728.80000019073,"correct":true,"confidence":5},{"trial_n":131,"min":93,"max":162,"target":"absent","response":"present","rt":652.39999985695,"correct":false,"confidence":3},{"trial_n":132,"min":92,"max":163,"target":"present","response":"present","rt":701.69999980927,"correct":true,"confidence":5},{"trial_n":133,"min":92,"max":163,"target":"absent","response":"absent","rt":1408.1000001431,"correct":true,"confidence":4},{"trial_n":134,"min":93,"max":162,"target":"present","response":"present","rt":576.20000004768,"correct":true,"confidence":5},{"trial_n":135,"min":93,"max":162,"target":"absent","response":"present","rt":746.19999980927,"correct":false,"confidence":3},{"trial_n":136,"min":92,"max":163,"target":"absent","response":"present","rt":825.09999990463,"correct":false,"confidence":4},{"trial_n":137,"min":91,"max":164,"target":"present","response":"present","rt":620.40000009537,"correct":true,"confidence":4},{"trial_n":138,"min":91,"max":164,"target":"absent","response":"absent","rt":790.5,"correct":true,"confidence":5},{"trial_n":139,"min":92,"max":163,"target":"absent","response":"present","rt":754.29999995232,"correct":false,"confidence":5},{"trial_n":140,"min":91,"max":164,"target":"present","response":"present","rt":819.70000004768,"correct":true,"confidence":3}]