[{"trial_n":1,"span":8,"encoder":"86485055","distractor":"86455055","target":"present","response":"present","rt":"2458","correct":true,"confidence":-1},{"trial_n":2,"span":8,"encoder":"79905924","distractor":"79905927","target":"present","response":"absent","rt":"2474","correct":false,"confidence":-1},{"trial_n":3,"span":6,"encoder":"891762","distractor":"871762","target":"absent","response":"absent","rt":"1917","correct":true,"confidence":-1},{"trial_n":4,"span":6,"encoder":"263601","distractor":"263681","target":"absent","response":"absent","rt":"2117","correct":true,"confidence":-1},{"trial_n":5,"span":8,"encoder":"00617477","distractor":"01617477","target":"present","response":"absent","rt":"2392","correct":false,"confidence":-1},{"trial_n":6,"span":6,"encoder":"455889","distractor":"445889","target":"present","response":"absent","rt":"2180","correct":false,"confidence":-1},{"trial_n":7,"span":4,"encoder":"2831","distractor":"2331","target":"present","response":"present","rt":"2279","correct":true,"confidence":-1},{"trial_n":8,"span":4,"encoder":"6082","distractor":"1082","target":"absent","response":"absent","rt":"1625","correct":true,"confidence":-1},{"trial_n":9,"span":6,"encoder":"105046","distractor":"175046","target":"present","response":"present","rt":"2399","correct":true,"confidence":-1},{"trial_n":10,"span":6,"encoder":"835956","distractor":"835986","target":"absent","response":"absent","rt":"2919","correct":true,"confidence":-1},{"trial_n":11,"span":8,"encoder":"00565388","distractor":"60565388","target":"present","response":"present","rt":"2426","correct":true,"confidence":-1},{"trial_n":12,"span":8,"encoder":"83694732","distractor":"83694762","target":"present","response":"absent","rt":"961","correct":false,"confidence":-1},{"trial_n":13,"span":7,"encoder":"6488668","distractor":"6488168","target":"absent","response":"absent","rt":"2204","correct":true,"confidence":-1},{"trial_n":14,"span":7,"encoder":"6575741","distractor":"6575771","target":"present","response":"present","rt":"2341","correct":true,"confidence":-1},{"trial_n":15,"span":8,"encoder":"80712547","distractor":"80712597","target":"present","response":"present","rt":"4125","correct":true,"confidence":-1},{"trial_n":16,"span":8,"encoder":"40449523","distractor":"49449523","target":"absent","response":"present","rt":"2809","correct":false,"confidence":-1},{"trial_n":17,"span":7,"encoder":"4902254","distractor":"4904254","target":"present","response":"absent","rt":"7522","correct":false,"confidence":-1},{"trial_n":18,"span":6,"encoder":"607757","distractor":"607767","target":"absent","response":"absent","rt":"2047","correct":true,"confidence":-1},{"trial_n":19,"span":6,"encoder":"316877","distractor":"316897","target":"absent","response":"absent","rt":"2416","correct":true,"confidence":-1},{"trial_n":20,"span":7,"encoder":"6519334","distractor":"4519334","target":"absent","response":"present","rt":"1986","correct":false,"confidence":-1},{"trial_n":21,"span":6,"encoder":"813471","distractor":"813171","target":"absent","response":"present","rt":"3828","correct":false,"confidence":3},{"trial_n":22,"span":5,"encoder":"63126","distractor":"93126","target":"present","response":"present","rt":"2698","correct":true,"confidence":5},{"trial_n":23,"span":5,"encoder":"40172","distractor":"30172","target":"present","response":"present","rt":"2953","correct":true,"confidence":4},{"trial_n":24,"span":6,"encoder":"676277","distractor":"626277","target":"absent","response":"absent","rt":"3372","correct":true,"confidence":3},{"trial_n":25,"span":6,"encoder":"979920","distractor":"979910","target":"present","response":"present","rt":"2892","correct":true,"confidence":5},{"trial_n":26,"span":7,"encoder":"6162822","distractor":"6162862","target":"present","response":"present","rt":"2457","correct":true,"confidence":5},{"trial_n":27,"span":7,"encoder":"9968247","distractor":"9968447","target":"absent","response":"absent","rt":"2907","correct":true,"confidence":5},{"trial_n":28,"span":8,"encoder":"58837578","distractor":"58836578","target":"present","response":"present","rt":"2689","correct":true,"confidence":2},{"trial_n":29,"span":8,"encoder":"73121734","distractor":"73141734","target":"present","response":"absent","rt":"3892","correct":false,"confidence":3},{"trial_n":30,"span":7,"encoder":"4499857","distractor":"4409857","target":"absent","response":"absent","rt":"3904","correct":true,"confidence":3},{"trial_n":31,"span":7,"encoder":"5587271","distractor":"5587241","target":"absent","response":"absent","rt":"2296.0000000001","correct":true,"confidence":3},{"trial_n":32,"span":8,"encoder":"25855936","distractor":"35855936","target":"present","response":"present","rt":"3683.0000000001","correct":true,"confidence":3},{"trial_n":33,"span":8,"encoder":"64208763","distractor":"64708763","target":"absent","response":"present","rt":"2392","correct":false,"confidence":2},{"trial_n":34,"span":7,"encoder":"6424316","distractor":"6924316","target":"present","response":"absent","rt":"2088","correct":false,"confidence":1},{"trial_n":35,"span":6,"encoder":"927966","distractor":"927963","target":"absent","response":"present","rt":"3572","correct":false,"confidence":2},{"trial_n":36,"span":5,"encoder":"61235","distractor":"61265","target":"absent","response":"absent","rt":"4549","correct":true,"confidence":2},{"trial_n":37,"span":5,"encoder":"33402","distractor":"33409","target":"absent","response":"absent","rt":"2099","correct":true,"confidence":5},{"trial_n":38,"span":6,"encoder":"854217","distractor":"854215","target":"absent","response":"absent","rt":"4237","correct":true,"confidence":5},{"trial_n":39,"span":6,"encoder":"262553","distractor":"260553","target":"absent","response":"present","rt":"2503","correct":false,"confidence":3},{"trial_n":40,"span":5,"encoder":"20508","distractor":"20708","target":"absent","response":"absent","rt":"1649","correct":true,"confidence":3},{"trial_n":41,"span":5,"encoder":"76931","distractor":"76938","target":"absent","response":"absent","rt":"3400.9999999999","correct":true,"confidence":4},{"trial_n":42,"span":6,"encoder":"551452","distractor":"501452","target":"present","response":"present","rt":"2486","correct":true,"confidence":4},{"trial_n":43,"span":6,"encoder":"993075","distractor":"493075","target":"present","response":"present","rt":"2340","correct":true,"confidence":4},{"trial_n":44,"span":7,"encoder":"1201057","distractor":"1201067","target":"present","response":"present","rt":"2344","correct":true,"confidence":2},{"trial_n":45,"span":7,"encoder":"3540167","distractor":"3540157","target":"present","response":"present","rt":"3923","correct":true,"confidence":3},{"trial_n":46,"span":8,"encoder":"56971558","distractor":"56971551","target":"present","response":"present","rt":"2511","correct":true,"confidence":4},{"trial_n":47,"span":8,"encoder":"82789462","distractor":"82782462","target":"present","response":"present","rt":"4244","correct":true,"confidence":1},{"trial_n":48,"span":9,"encoder":"672381612","distractor":"602381612","target":"present","response":"present","rt":"2633","correct":true,"confidence":3},{"trial_n":49,"span":9,"encoder":"545346360","distractor":"545344360","target":"absent","response":"present","rt":"1900","correct":false,"confidence":3},{"trial_n":50,"span":8,"encoder":"72557616","distractor":"72557666","target":"absent","response":"absent","rt":"2259","correct":true,"confidence":4},{"trial_n":51,"span":8,"encoder":"29954734","distractor":"29654734","target":"absent","response":"present","rt":"4446","correct":false,"confidence":1},{"trial_n":52,"span":7,"encoder":"3785140","distractor":"3785940","target":"present","response":"present","rt":"9375","correct":true,"confidence":3},{"trial_n":53,"span":7,"encoder":"1092503","distractor":"1192503","target":"absent","response":"absent","rt":"1895","correct":true,"confidence":5},{"trial_n":54,"span":8,"encoder":"04732745","distractor":"04032745","target":"present","response":"present","rt":"2780.9999999999","correct":true,"confidence":2},{"trial_n":55,"span":8,"encoder":"20988938","distractor":"20788938","target":"absent","response":"present","rt":"2893","correct":false,"confidence":2},{"trial_n":56,"span":7,"encoder":"1673094","distractor":"1773094","target":"present","response":"absent","rt":"3323","correct":false,"confidence":3},{"trial_n":57,"span":6,"encoder":"863498","distractor":"863448","target":"present","response":"present","rt":"2971","correct":true,"confidence":2},{"trial_n":58,"span":6,"encoder":"451844","distractor":"451444","target":"absent","response":"absent","rt":"3631.9999999999","correct":true,"confidence":1},{"trial_n":59,"span":7,"encoder":"7825627","distractor":"7825629","target":"present","response":"absent","rt":"1058","correct":false,"confidence":1},{"trial_n":60,"span":6,"encoder":"928341","distractor":"728341","target":"absent","response":"present","rt":"1580.0000000001","correct":false,"confidence":2},{"trial_n":61,"span":5,"encoder":"85812","distractor":"85811","target":"present","response":"present","rt":"2343","correct":true,"confidence":5},{"trial_n":62,"span":5,"encoder":"25176","distractor":"25146","target":"present","response":"present","rt":"22243","correct":true,"confidence":1},{"trial_n":63,"span":6,"encoder":"134748","distractor":"434748","target":"present","response":"present","rt":"2618","correct":true,"confidence":3},{"trial_n":64,"span":6,"encoder":"639156","distractor":"639956","target":"absent","response":"absent","rt":"2194","correct":true,"confidence":2},{"trial_n":65,"span":7,"encoder":"9913780","distractor":"9913784","target":"present","response":"present","rt":"2607","correct":true,"confidence":4},{"trial_n":66,"span":7,"encoder":"2098153","distractor":"2090153","target":"absent","response":"present","rt":"4003","correct":false,"confidence":2},{"trial_n":67,"span":6,"encoder":"915801","distractor":"915809","target":"absent","response":"present","rt":"4582.9999999999","correct":false,"confidence":2},{"trial_n":68,"span":5,"encoder":"39438","distractor":"39138","target":"absent","response":"absent","rt":"3069","correct":true,"confidence":2},{"trial_n":69,"span":5,"encoder":"28280","distractor":"28270","target":"absent","response":"absent","rt":"2232.0000000001","correct":true,"confidence":4},{"trial_n":70,"span":6,"encoder":"658517","distractor":"658567","target":"present","response":"present","rt":"4702","correct":true,"confidence":3},{"trial_n":71,"span":8,"encoder":"40873045","distractor":"30873045","target":"present","response":"absent","rt":"5760","correct":false,"confidence":-1},{"trial_n":72,"span":7,"encoder":"0597124","distractor":"0507124","target":"present","response":"present","rt":"1136.9999999999","correct":true,"confidence":-1},{"trial_n":73,"span":7,"encoder":"9946358","distractor":"9646358","target":"absent","response":"present","rt":"2421","correct":false,"confidence":-1},{"trial_n":74,"span":6,"encoder":"055072","distractor":"025072","target":"absent","response":"present","rt":"1818","correct":false,"confidence":-1},{"trial_n":75,"span":5,"encoder":"47858","distractor":"47058","target":"present","response":"present","rt":"4278","correct":true,"confidence":-1},{"trial_n":76,"span":5,"encoder":"13255","distractor":"13155","target":"present","response":"present","rt":"4610.9999999999","correct":true,"confidence":-1},{"trial_n":77,"span":6,"encoder":"626181","distractor":"826181","target":"present","response":"present","rt":"5783","correct":true,"confidence":-1},{"trial_n":78,"span":6,"encoder":"492023","distractor":"492021","target":"absent","response":"absent","rt":"1584","correct":true,"confidence":-1},{"trial_n":79,"span":7,"encoder":"0991123","distractor":"6991123","target":"absent","response":"present","rt":"2269.0000000001","correct":false,"confidence":-1},{"trial_n":80,"span":6,"encoder":"366769","distractor":"366749","target":"present","response":"present","rt":"5102","correct":true,"confidence":-1},{"trial_n":81,"span":6,"encoder":"803460","distractor":"823460","target":"present","response":"present","rt":"5786.0000000001","correct":true,"confidence":-1},{"trial_n":82,"span":7,"encoder":"3510183","distractor":"3910183","target":"present","response":"present","rt":"1935","correct":true,"confidence":-1},{"trial_n":83,"span":7,"encoder":"1252751","distractor":"1252781","target":"absent","response":"absent","rt":"3336.0000000001","correct":true,"confidence":-1},{"trial_n":84,"span":8,"encoder":"01488005","distractor":"01482005","target":"absent","response":"present","rt":"3547","correct":false,"confidence":-1},{"trial_n":85,"span":7,"encoder":"3176844","distractor":"3176044","target":"present","response":"present","rt":"2503.9999999999","correct":true,"confidence":-1},{"trial_n":86,"span":7,"encoder":"5767963","distractor":"5767993","target":"absent","response":"absent","rt":"2588.0000000002","correct":true,"confidence":-1},{"trial_n":87,"span":8,"encoder":"78139282","distractor":"78839282","target":"absent","response":"present","rt":"7991.9999999999","correct":false,"confidence":-1},{"trial_n":88,"span":7,"encoder":"1512095","distractor":"1312095","target":"present","response":"present","rt":"3085","correct":true,"confidence":-1},{"trial_n":89,"span":7,"encoder":"0689304","distractor":"0682304","target":"present","response":"present","rt":"3760","correct":true,"confidence":-1},{"trial_n":90,"span":8,"encoder":"70253900","distractor":"70250900","target":"absent","response":"absent","rt":"4591","correct":true,"confidence":-1},{"trial_n":91,"span":8,"encoder":"82750092","distractor":"82750095","target":"absent","response":"absent","rt":"2690","correct":true,"confidence":5},{"trial_n":92,"span":9,"encoder":"427346851","distractor":"427346891","target":"present","response":"absent","rt":"2798","correct":false,"confidence":3},{"trial_n":93,"span":8,"encoder":"87608647","distractor":"87608645","target":"present","response":"present","rt":"2874","correct":true,"confidence":2},{"trial_n":94,"span":8,"encoder":"43831895","distractor":"43831815","target":"absent","response":"absent","rt":"1541","correct":true,"confidence":4},{"trial_n":95,"span":9,"encoder":"200726943","distractor":"200726443","target":"absent","response":"present","rt":"5115","correct":false,"confidence":3},{"trial_n":96,"span":8,"encoder":"94046500","distractor":"94049500","target":"absent","response":"present","rt":"5394","correct":false,"confidence":2},{"trial_n":97,"span":7,"encoder":"0419779","distractor":"0419709","target":"absent","response":"present","rt":"4722","correct":false,"confidence":1},{"trial_n":98,"span":6,"encoder":"258855","distractor":"758855","target":"present","response":"absent","rt":"3402","correct":false,"confidence":1},{"trial_n":99,"span":5,"encoder":"15791","distractor":"15691","target":"absent","response":"absent","rt":"1648","correct":true,"confidence":4},{"trial_n":100,"span":5,"encoder":"19175","distractor":"18175","target":"absent","response":"absent","rt":"1632.0000000002","correct":true,"confidence":4},{"trial_n":101,"span":6,"encoder":"283204","distractor":"483204","target":"present","response":"present","rt":"2173","correct":true,"confidence":4},{"trial_n":102,"span":6,"encoder":"191304","distractor":"191704","target":"present","response":"present","rt":"2549","correct":true,"confidence":4},{"trial_n":103,"span":7,"encoder":"8551654","distractor":"8551655","target":"absent","response":"absent","rt":"2021.9999999998","correct":true,"confidence":3},{"trial_n":104,"span":7,"encoder":"0203651","distractor":"0203655","target":"present","response":"present","rt":"2355","correct":true,"confidence":5},{"trial_n":105,"span":8,"encoder":"93757060","distractor":"93787060","target":"absent","response":"absent","rt":"3245","correct":true,"confidence":2},{"trial_n":106,"span":8,"encoder":"57961037","distractor":"57961937","target":"present","response":"present","rt":"5276","correct":true,"confidence":2},{"trial_n":107,"span":9,"encoder":"986041570","distractor":"926041570","target":"present","response":"present","rt":"5609","correct":true,"confidence":1},{"trial_n":108,"span":9,"encoder":"505799136","distractor":"005799136","target":"present","response":"present","rt":"2544.9999999998","correct":true,"confidence":2},{"trial_n":109,"span":10,"encoder":"3982022554","distractor":"3982028554","target":"present","response":"present","rt":"3549.9999999998","correct":true,"confidence":4},{"trial_n":110,"span":10,"encoder":"3857094258","distractor":"3859094258","target":"present","response":"present","rt":"3649","correct":true,"confidence":1},{"trial_n":111,"span":11,"encoder":"41839775764","distractor":"41839725764","target":"present","response":"present","rt":"4045.0000000002","correct":true,"confidence":1},{"trial_n":112,"span":11,"encoder":"31012782686","distractor":"39012782686","target":"present","response":"present","rt":"11287","correct":true,"confidence":1},{"trial_n":113,"span":12,"encoder":"905899462674","distractor":"905499462674","target":"present","response":"absent","rt":"13273","correct":false,"confidence":2},{"trial_n":114,"span":11,"encoder":"12854944512","distractor":"12854944412","target":"absent","response":"absent","rt":"5219","correct":true,"confidence":3},{"trial_n":115,"span":11,"encoder":"91277826780","distractor":"91577826780","target":"absent","response":"absent","rt":"2789","correct":true,"confidence":2},{"trial_n":116,"span":12,"encoder":"343583252032","distractor":"343583452032","target":"present","response":"absent","rt":"10456","correct":false,"confidence":2},{"trial_n":117,"span":11,"encoder":"15175876453","distractor":"15175876455","target":"present","response":"present","rt":"2288.9999999998","correct":true,"confidence":5},{"trial_n":118,"span":11,"encoder":"09950114888","distractor":"09950134888","target":"present","response":"present","rt":"27280","correct":true,"confidence":1},{"trial_n":119,"span":12,"encoder":"651810522566","distractor":"651310522566","target":"present","response":"absent","rt":"8777","correct":false,"confidence":1},{"trial_n":120,"span":11,"encoder":"21948842994","distractor":"21948847994","target":"absent","response":"absent","rt":"4856","correct":true,"confidence":3},{"trial_n":121,"span":11,"encoder":"84544694466","distractor":"84544694416","target":"absent","response":"absent","rt":"2330","correct":true,"confidence":3},{"trial_n":122,"span":12,"encoder":"074711870400","distractor":"074711870410","target":"present","response":"present","rt":"16307","correct":true,"confidence":1},{"trial_n":123,"span":12,"encoder":"813652196558","distractor":"813452196558","target":"present","response":"present","rt":"8912","correct":true,"confidence":2},{"trial_n":124,"span":13,"encoder":"6888517824644","distractor":"6888817824644","target":"present","response":"present","rt":"23175","correct":true,"confidence":1},{"trial_n":125,"span":13,"encoder":"8214233324579","distractor":"8224233324579","target":"present","response":"absent","rt":"2283.9999999998","correct":false,"confidence":4},{"trial_n":126,"span":12,"encoder":"727485568536","distractor":"727485558536","target":"absent","response":"absent","rt":"15376","correct":true,"confidence":1},{"trial_n":127,"span":12,"encoder":"394776398129","distractor":"398776398129","target":"absent","response":"present","rt":"54959","correct":false,"confidence":1},{"trial_n":128,"span":11,"encoder":"99843378612","distractor":"19843378612","target":"present","response":"present","rt":"17780","correct":true,"confidence":1},{"trial_n":129,"span":11,"encoder":"41700850722","distractor":"41705850722","target":"present","response":"present","rt":"7093","correct":true,"confidence":1},{"trial_n":130,"span":12,"encoder":"942872313405","distractor":"942852313405","target":"absent","response":"absent","rt":"6493","correct":true,"confidence":1},{"trial_n":131,"span":12,"encoder":"155807747742","distractor":"105807747742","target":"absent","response":"present","rt":"7852","correct":false,"confidence":2},{"trial_n":132,"span":11,"encoder":"16567689068","distractor":"16567689968","target":"absent","response":"absent","rt":"3557","correct":true,"confidence":1},{"trial_n":133,"span":11,"encoder":"20341308277","distractor":"80341308277","target":"absent","response":"present","rt":"6089.0000000002","correct":false,"confidence":1},{"trial_n":134,"span":10,"encoder":"8401127884","distractor":"8401167884","target":"absent","response":"absent","rt":"4168","correct":true,"confidence":3},{"trial_n":135,"span":10,"encoder":"5351887777","distractor":"5351887757","target":"absent","response":"absent","rt":"3046","correct":true,"confidence":3},{"trial_n":136,"span":11,"encoder":"56119756838","distractor":"56319756838","target":"present","response":"absent","rt":"3674","correct":false,"confidence":1},{"trial_n":137,"span":10,"encoder":"4463521807","distractor":"4463521837","target":"absent","response":"present","rt":"7234","correct":false,"confidence":3},{"trial_n":138,"span":9,"encoder":"864244639","distractor":"064244639","target":"absent","response":"absent","rt":"4310","correct":true,"confidence":2},{"trial_n":139,"span":9,"encoder":"327912646","distractor":"327982646","target":"absent","response":"present","rt":"4579","correct":false,"confidence":3},{"trial_n":140,"span":8,"encoder":"57786547","distractor":"57786747","target":"absent","response":"absent","rt":"2495","correct":true,"confidence":1}]