[{"trial_n":1,"n_dots":4.25,"target":"left","response":"left","rt":7762,"correct":true,"confidence":-1},{"trial_n":2,"n_dots":4.25,"target":"left","response":"left","rt":943,"correct":true,"confidence":-1},{"trial_n":3,"n_dots":3.85,"target":"left","response":"left","rt":1484,"correct":true,"confidence":-1},{"trial_n":4,"n_dots":3.85,"target":"left","response":"right","rt":2161,"correct":false,"confidence":-1},{"trial_n":5,"n_dots":4.25,"target":"left","response":"right","rt":288,"correct":false,"confidence":-1},{"trial_n":6,"n_dots":4.65,"target":"right","response":"right","rt":279,"correct":true,"confidence":-1},{"trial_n":7,"n_dots":4.65,"target":"left","response":"left","rt":1263,"correct":true,"confidence":-1},{"trial_n":8,"n_dots":4.45,"target":"left","response":"left","rt":761,"correct":true,"confidence":-1},{"trial_n":9,"n_dots":4.45,"target":"left","response":"left","rt":195,"correct":true,"confidence":-1},{"trial_n":10,"n_dots":4.25,"target":"right","response":"right","rt":711,"correct":true,"confidence":-1},{"trial_n":11,"n_dots":4.25,"target":"left","response":"right","rt":192,"correct":false,"confidence":-1},{"trial_n":12,"n_dots":4.45,"target":"right","response":"right","rt":88,"correct":true,"confidence":-1},{"trial_n":13,"n_dots":4.45,"target":"right","response":"right","rt":717,"correct":true,"confidence":-1},{"trial_n":14,"n_dots":4.35,"target":"left","response":"right","rt":646,"correct":false,"confidence":-1},{"trial_n":15,"n_dots":4.45,"target":"left","response":"left","rt":303,"correct":true,"confidence":-1},{"trial_n":16,"n_dots":4.45,"target":"right","response":"right","rt":507,"correct":true,"confidence":-1},{"trial_n":17,"n_dots":4.35,"target":"left","response":"left","rt":176.00000000001,"correct":true,"confidence":-1},{"trial_n":18,"n_dots":4.35,"target":"left","response":"left","rt":288.00000000001,"correct":true,"confidence":-1},{"trial_n":19,"n_dots":4.25,"target":"left","response":"left","rt":435.99999999999,"correct":true,"confidence":-1},{"trial_n":20,"n_dots":4.25,"target":"left","response":"left","rt":105.00000000001,"correct":true,"confidence":-1},{"trial_n":21,"n_dots":4.15,"target":"right","response":"right","rt":84.999999999985,"correct":true,"confidence":3},{"trial_n":22,"n_dots":4.15,"target":"right","response":"right","rt":187,"correct":true,"confidence":4},{"trial_n":23,"n_dots":4.05,"target":"right","response":"right","rt":259,"correct":true,"confidence":3},{"trial_n":24,"n_dots":4.05,"target":"right","response":"left","rt":746,"correct":false,"confidence":3},{"trial_n":25,"n_dots":4.15,"target":"right","response":"right","rt":226,"correct":true,"confidence":4},{"trial_n":26,"n_dots":4.15,"target":"left","response":"left","rt":211,"correct":true,"confidence":4},{"trial_n":27,"n_dots":4.05,"target":"right","response":"right","rt":453,"correct":true,"confidence":3},{"trial_n":28,"n_dots":4.05,"target":"right","response":"left","rt":2723,"correct":false,"confidence":1},{"trial_n":29,"n_dots":4.15,"target":"left","response":"left","rt":9943,"correct":true,"confidence":4},{"trial_n":30,"n_dots":4.15,"target":"right","response":"left","rt":77.999999999971,"correct":false,"confidence":3},{"trial_n":31,"n_dots":4.25,"target":"right","response":"right","rt":416,"correct":true,"confidence":3},{"trial_n":32,"n_dots":4.25,"target":"left","response":"left","rt":751,"correct":true,"confidence":5},{"trial_n":33,"n_dots":4.15,"target":"left","response":"left","rt":639.99999999997,"correct":true,"confidence":4},{"trial_n":34,"n_dots":4.15,"target":"left","response":"left","rt":435,"correct":true,"confidence":4},{"trial_n":35,"n_dots":4.05,"target":"right","response":"left","rt":521,"correct":false,"confidence":2},{"trial_n":36,"n_dots":4.15,"target":"right","response":"left","rt":292,"correct":false,"confidence":4},{"trial_n":37,"n_dots":4.25,"target":"right","response":"right","rt":290,"correct":true,"confidence":3},{"trial_n":38,"n_dots":4.25,"target":"right","response":"left","rt":343.99999999997,"correct":false,"confidence":3},{"trial_n":39,"n_dots":4.35,"target":"left","response":"left","rt":268,"correct":true,"confidence":4},{"trial_n":40,"n_dots":4.35,"target":"right","response":"right","rt":335,"correct":true,"confidence":4},{"trial_n":41,"n_dots":4.25,"target":"right","response":"right","rt":508,"correct":true,"confidence":4},{"trial_n":42,"n_dots":4.25,"target":"left","response":"left","rt":1357,"correct":true,"confidence":4},{"trial_n":43,"n_dots":4.15,"target":"right","response":"right","rt":760,"correct":true,"confidence":5},{"trial_n":44,"n_dots":4.15,"target":"left","response":"left","rt":1265,"correct":true,"confidence":4},{"trial_n":45,"n_dots":4.05,"target":"right","response":"right","rt":609.99999999997,"correct":true,"confidence":5},{"trial_n":46,"n_dots":4.05,"target":"right","response":"right","rt":2077,"correct":true,"confidence":5},{"trial_n":47,"n_dots":3.95,"target":"right","response":"right","rt":875,"correct":true,"confidence":5},{"trial_n":48,"n_dots":3.95,"target":"left","response":"right","rt":4636,"correct":false,"confidence":1},{"trial_n":49,"n_dots":4.05,"target":"right","response":"right","rt":5306,"correct":true,"confidence":4},{"trial_n":50,"n_dots":4.05,"target":"left","response":"left","rt":1423,"correct":true,"confidence":5},{"trial_n":51,"n_dots":3.95,"target":"right","response":"right","rt":952,"correct":true,"confidence":5},{"trial_n":52,"n_dots":3.95,"target":"left","response":"left","rt":1435,"correct":true,"confidence":4},{"trial_n":53,"n_dots":3.85,"target":"right","response":"right","rt":972,"correct":true,"confidence":4},{"trial_n":54,"n_dots":3.85,"target":"left","response":"left","rt":1072,"correct":true,"confidence":4},{"trial_n":55,"n_dots":3.75,"target":"left","response":"left","rt":590.00000000006,"correct":true,"confidence":4},{"trial_n":56,"n_dots":3.75,"target":"left","response":"left","rt":866,"correct":true,"confidence":4},{"trial_n":57,"n_dots":3.65,"target":"right","response":"right","rt":1045,"correct":true,"confidence":4},{"trial_n":58,"n_dots":3.65,"target":"right","response":"right","rt":975,"correct":true,"confidence":4},{"trial_n":59,"n_dots":3.55,"target":"right","response":"right","rt":1017.9999999999,"correct":true,"confidence":4},{"trial_n":60,"n_dots":3.55,"target":"left","response":"left","rt":1090,"correct":true,"confidence":4},{"trial_n":61,"n_dots":3.45,"target":"left","response":"left","rt":635,"correct":true,"confidence":5},{"trial_n":62,"n_dots":3.45,"target":"right","response":"right","rt":1404,"correct":true,"confidence":5},{"trial_n":63,"n_dots":3.35,"target":"right","response":"right","rt":810.99999999994,"correct":true,"confidence":3},{"trial_n":64,"n_dots":3.35,"target":"right","response":"left","rt":2582,"correct":false,"confidence":2},{"trial_n":65,"n_dots":3.45,"target":"left","response":"left","rt":349.00000000006,"correct":true,"confidence":4},{"trial_n":66,"n_dots":3.45,"target":"left","response":"left","rt":433,"correct":true,"confidence":4},{"trial_n":67,"n_dots":3.35,"target":"right","response":"left","rt":1008,"correct":false,"confidence":3},{"trial_n":68,"n_dots":3.45,"target":"left","response":"left","rt":117,"correct":true,"confidence":3},{"trial_n":69,"n_dots":3.45,"target":"left","response":"left","rt":122,"correct":true,"confidence":4},{"trial_n":70,"n_dots":3.35,"target":"left","response":"left","rt":1010.9999999999,"correct":true,"confidence":2},{"trial_n":71,"n_dots":3.35,"target":"left","response":"left","rt":888,"correct":true,"confidence":4},{"trial_n":72,"n_dots":3.25,"target":"right","response":"right","rt":1037,"correct":true,"confidence":3},{"trial_n":73,"n_dots":3.25,"target":"right","response":"left","rt":1049.9999999999,"correct":false,"confidence":4},{"trial_n":74,"n_dots":3.35,"target":"right","response":"right","rt":893,"correct":true,"confidence":4},{"trial_n":75,"n_dots":3.35,"target":"right","response":"right","rt":2070,"correct":true,"confidence":2},{"trial_n":76,"n_dots":3.25,"target":"left","response":"left","rt":598.00000000006,"correct":true,"confidence":2},{"trial_n":77,"n_dots":3.25,"target":"right","response":"right","rt":885,"correct":true,"confidence":3},{"trial_n":78,"n_dots":3.15,"target":"right","response":"right","rt":461,"correct":true,"confidence":4},{"trial_n":79,"n_dots":3.15,"target":"right","response":"left","rt":1009,"correct":false,"confidence":3},{"trial_n":80,"n_dots":3.25,"target":"right","response":"right","rt":749.00000000006,"correct":true,"confidence":2},{"trial_n":81,"n_dots":3.25,"target":"left","response":"left","rt":1381,"correct":true,"confidence":4},{"trial_n":82,"n_dots":3.15,"target":"left","response":"left","rt":722,"correct":true,"confidence":3},{"trial_n":83,"n_dots":3.15,"target":"right","response":"right","rt":375,"correct":true,"confidence":4},{"trial_n":84,"n_dots":3.05,"target":"left","response":"left","rt":222,"correct":true,"confidence":3},{"trial_n":85,"n_dots":3.05,"target":"right","response":"right","rt":296.99999999988,"correct":true,"confidence":4},{"trial_n":86,"n_dots":2.95,"target":"left","response":"right","rt":323,"correct":false,"confidence":4},{"trial_n":87,"n_dots":3.05,"target":"left","response":"left","rt":1165,"correct":true,"confidence":3},{"trial_n":88,"n_dots":3.05,"target":"left","response":"left","rt":907.00000000012,"correct":true,"confidence":4},{"trial_n":89,"n_dots":2.95,"target":"left","response":"left","rt":173,"correct":true,"confidence":4},{"trial_n":90,"n_dots":2.95,"target":"left","response":"left","rt":619,"correct":true,"confidence":4},{"trial_n":91,"n_dots":2.85,"target":"left","response":"right","rt":436,"correct":false,"confidence":3},{"trial_n":92,"n_dots":2.95,"target":"right","response":"right","rt":250,"correct":true,"confidence":4},{"trial_n":93,"n_dots":2.95,"target":"left","response":"left","rt":1143,"correct":true,"confidence":3},{"trial_n":94,"n_dots":2.85,"target":"right","response":"right","rt":72.999999999884,"correct":true,"confidence":4},{"trial_n":95,"n_dots":2.85,"target":"right","response":"right","rt":470,"correct":true,"confidence":3},{"trial_n":96,"n_dots":2.75,"target":"left","response":"left","rt":208,"correct":true,"confidence":3},{"trial_n":97,"n_dots":2.75,"target":"right","response":"left","rt":239,"correct":false,"confidence":4},{"trial_n":98,"n_dots":2.85,"target":"left","response":"left","rt":178,"correct":true,"confidence":4},{"trial_n":99,"n_dots":2.85,"target":"left","response":"left","rt":805.00000000012,"correct":true,"confidence":3},{"trial_n":100,"n_dots":2.75,"target":"right","response":"right","rt":167,"correct":true,"confidence":2},{"trial_n":101,"n_dots":2.75,"target":"right","response":"right","rt":680,"correct":true,"confidence":3},{"trial_n":102,"n_dots":2.65,"target":"left","response":"left","rt":446,"correct":true,"confidence":4},{"trial_n":103,"n_dots":2.65,"target":"left","response":"right","rt":1586.9999999999,"correct":false,"confidence":3},{"trial_n":104,"n_dots":2.75,"target":"right","response":"left","rt":394,"correct":false,"confidence":4},{"trial_n":105,"n_dots":2.85,"target":"right","response":"right","rt":641.99999999988,"correct":true,"confidence":4},{"trial_n":106,"n_dots":2.85,"target":"right","response":"left","rt":1843.0000000001,"correct":false,"confidence":3},{"trial_n":107,"n_dots":2.95,"target":"left","response":"right","rt":848.00000000012,"correct":false,"confidence":4},{"trial_n":108,"n_dots":3.05,"target":"left","response":"left","rt":924,"correct":true,"confidence":3},{"trial_n":109,"n_dots":3.05,"target":"left","response":"right","rt":922.00000000012,"correct":false,"confidence":3},{"trial_n":110,"n_dots":3.15,"target":"right","response":"right","rt":1768,"correct":true,"confidence":4},{"trial_n":111,"n_dots":3.15,"target":"right","response":"right","rt":229,"correct":true,"confidence":4},{"trial_n":112,"n_dots":3.05,"target":"right","response":"right","rt":759,"correct":true,"confidence":4},{"trial_n":113,"n_dots":3.05,"target":"right","response":"right","rt":786,"correct":true,"confidence":4},{"trial_n":114,"n_dots":2.95,"target":"left","response":"left","rt":822,"correct":true,"confidence":5},{"trial_n":115,"n_dots":2.95,"target":"left","response":"left","rt":531,"correct":true,"confidence":5},{"trial_n":116,"n_dots":2.85,"target":"right","response":"right","rt":1769,"correct":true,"confidence":2},{"trial_n":117,"n_dots":2.85,"target":"left","response":"left","rt":712,"correct":true,"confidence":4},{"trial_n":118,"n_dots":2.75,"target":"right","response":"left","rt":1506.9999999999,"correct":false,"confidence":2},{"trial_n":119,"n_dots":2.85,"target":"right","response":"right","rt":1251.0000000001,"correct":true,"confidence":3},{"trial_n":120,"n_dots":2.85,"target":"left","response":"left","rt":2017,"correct":true,"confidence":2}]