[{"trial_n":1,"min":25,"max":230,"target":"present","response":"absent","rt":4048,"correct":false,"confidence":-1},{"trial_n":2,"min":25,"max":230,"target":"present","response":"present","rt":5912,"correct":true,"confidence":-1},{"trial_n":3,"min":25,"max":230,"target":"absent","response":"absent","rt":875.99999999999,"correct":true,"confidence":-1},{"trial_n":4,"min":41,"max":214,"target":"absent","response":"absent","rt":762,"correct":true,"confidence":-1},{"trial_n":5,"min":41,"max":214,"target":"present","response":"present","rt":716,"correct":true,"confidence":-1},{"trial_n":6,"min":57,"max":198,"target":"present","response":"present","rt":817,"correct":true,"confidence":-1},{"trial_n":7,"min":57,"max":198,"target":"present","response":"present","rt":746,"correct":true,"confidence":-1},{"trial_n":8,"min":73,"max":182,"target":"present","response":"present","rt":767.00000000001,"correct":true,"confidence":-1},{"trial_n":9,"min":73,"max":182,"target":"present","response":"present","rt":536.99999999999,"correct":true,"confidence":-1},{"trial_n":10,"min":89,"max":166,"target":"present","response":"absent","rt":586,"correct":false,"confidence":-1},{"trial_n":11,"min":81,"max":174,"target":"present","response":"absent","rt":731,"correct":false,"confidence":-1},{"trial_n":12,"min":73,"max":182,"target":"present","response":"present","rt":682.00000000001,"correct":true,"confidence":-1},{"trial_n":13,"min":73,"max":182,"target":"absent","response":"absent","rt":794,"correct":true,"confidence":-1},{"trial_n":14,"min":81,"max":174,"target":"absent","response":"absent","rt":677.99999999999,"correct":true,"confidence":-1},{"trial_n":15,"min":81,"max":174,"target":"present","response":"present","rt":668,"correct":true,"confidence":-1},{"trial_n":16,"min":89,"max":166,"target":"absent","response":"absent","rt":694.99999999999,"correct":true,"confidence":-1},{"trial_n":17,"min":89,"max":166,"target":"absent","response":"absent","rt":659.99999999999,"correct":true,"confidence":-1},{"trial_n":18,"min":97,"max":158,"target":"absent","response":"absent","rt":613,"correct":true,"confidence":-1},{"trial_n":19,"min":97,"max":158,"target":"absent","response":"absent","rt":878.99999999999,"correct":true,"confidence":-1},{"trial_n":20,"min":105,"max":150,"target":"present","response":"absent","rt":534,"correct":false,"confidence":-1},{"trial_n":21,"min":101,"max":154,"target":"present","response":"absent","rt":654,"correct":false,"confidence":5},{"trial_n":22,"min":97,"max":158,"target":"present","response":"absent","rt":1236,"correct":false,"confidence":3},{"trial_n":23,"min":93,"max":162,"target":"present","response":"absent","rt":820,"correct":false,"confidence":2},{"trial_n":24,"min":89,"max":166,"target":"present","response":"present","rt":2123,"correct":true,"confidence":3},{"trial_n":25,"min":89,"max":166,"target":"absent","response":"present","rt":6447,"correct":false,"confidence":2},{"trial_n":26,"min":85,"max":170,"target":"present","response":"present","rt":966.00000000001,"correct":true,"confidence":3},{"trial_n":27,"min":85,"max":170,"target":"present","response":"absent","rt":703,"correct":false,"confidence":3},{"trial_n":28,"min":81,"max":174,"target":"absent","response":"absent","rt":6410,"correct":true,"confidence":1},{"trial_n":29,"min":81,"max":174,"target":"present","response":"present","rt":734,"correct":true,"confidence":5},{"trial_n":30,"min":85,"max":170,"target":"present","response":"absent","rt":1001,"correct":false,"confidence":4},{"trial_n":31,"min":83,"max":172,"target":"absent","response":"present","rt":1211,"correct":false,"confidence":3},{"trial_n":32,"min":81,"max":174,"target":"absent","response":"present","rt":1160,"correct":false,"confidence":3},{"trial_n":33,"min":79,"max":176,"target":"present","response":"present","rt":1502,"correct":true,"confidence":5},{"trial_n":34,"min":79,"max":176,"target":"absent","response":"absent","rt":929.99999999999,"correct":true,"confidence":3},{"trial_n":35,"min":81,"max":174,"target":"present","response":"present","rt":754,"correct":true,"confidence":4},{"trial_n":36,"min":81,"max":174,"target":"absent","response":"absent","rt":664,"correct":true,"confidence":3},{"trial_n":37,"min":83,"max":172,"target":"absent","response":"absent","rt":1048,"correct":true,"confidence":1},{"trial_n":38,"min":83,"max":172,"target":"absent","response":"absent","rt":2046,"correct":true,"confidence":4},{"trial_n":39,"min":85,"max":170,"target":"absent","response":"absent","rt":877,"correct":true,"confidence":3},{"trial_n":40,"min":85,"max":170,"target":"present","response":"present","rt":1189,"correct":true,"confidence":4},{"trial_n":41,"min":86,"max":169,"target":"present","response":"present","rt":789.00000000003,"correct":true,"confidence":5},{"trial_n":42,"min":86,"max":169,"target":"absent","response":"present","rt":1014,"correct":false,"confidence":4},{"trial_n":43,"min":85,"max":170,"target":"absent","response":"absent","rt":777,"correct":true,"confidence":5},{"trial_n":44,"min":85,"max":170,"target":"absent","response":"present","rt":1697,"correct":false,"confidence":3},{"trial_n":45,"min":84,"max":171,"target":"present","response":"absent","rt":768,"correct":false,"confidence":2},{"trial_n":46,"min":83,"max":172,"target":"absent","response":"absent","rt":1297,"correct":true,"confidence":4},{"trial_n":47,"min":83,"max":172,"target":"present","response":"present","rt":830,"correct":true,"confidence":4},{"trial_n":48,"min":84,"max":171,"target":"present","response":"present","rt":809,"correct":true,"confidence":4},{"trial_n":49,"min":84,"max":171,"target":"absent","response":"absent","rt":658,"correct":true,"confidence":5},{"trial_n":50,"min":85,"max":170,"target":"present","response":"present","rt":854,"correct":true,"confidence":4},{"trial_n":51,"min":85,"max":170,"target":"present","response":"present","rt":851,"correct":true,"confidence":5},{"trial_n":52,"min":86,"max":169,"target":"present","response":"present","rt":853,"correct":true,"confidence":4},{"trial_n":53,"min":86,"max":169,"target":"absent","response":"absent","rt":780,"correct":true,"confidence":3},{"trial_n":54,"min":87,"max":168,"target":"absent","response":"absent","rt":1582,"correct":true,"confidence":2},{"trial_n":55,"min":87,"max":168,"target":"absent","response":"absent","rt":1180,"correct":true,"confidence":3},{"trial_n":56,"min":88,"max":167,"target":"absent","response":"absent","rt":776,"correct":true,"confidence":3},{"trial_n":57,"min":88,"max":167,"target":"present","response":"absent","rt":1351,"correct":false,"confidence":2},{"trial_n":58,"min":87,"max":168,"target":"present","response":"present","rt":845.99999999997,"correct":true,"confidence":4},{"trial_n":59,"min":87,"max":168,"target":"absent","response":"absent","rt":1112,"correct":true,"confidence":2},{"trial_n":60,"min":88,"max":167,"target":"present","response":"absent","rt":1651,"correct":false,"confidence":3},{"trial_n":61,"min":87,"max":168,"target":"present","response":"absent","rt":1025,"correct":false,"confidence":3},{"trial_n":62,"min":86,"max":169,"target":"absent","response":"absent","rt":695,"correct":true,"confidence":4},{"trial_n":63,"min":86,"max":169,"target":"absent","response":"absent","rt":714,"correct":true,"confidence":4},{"trial_n":64,"min":87,"max":168,"target":"absent","response":"absent","rt":2062,"correct":true,"confidence":3},{"trial_n":65,"min":87,"max":168,"target":"absent","response":"absent","rt":943.00000000003,"correct":true,"confidence":2},{"trial_n":66,"min":88,"max":167,"target":"absent","response":"absent","rt":781,"correct":true,"confidence":4},{"trial_n":67,"min":88,"max":167,"target":"present","response":"absent","rt":1345,"correct":false,"confidence":3},{"trial_n":68,"min":87,"max":168,"target":"absent","response":"absent","rt":678,"correct":true,"confidence":4},{"trial_n":69,"min":87,"max":168,"target":"absent","response":"absent","rt":731,"correct":true,"confidence":3},{"trial_n":70,"min":88,"max":167,"target":"present","response":"present","rt":734.00000000003,"correct":true,"confidence":4},{"trial_n":71,"min":41,"max":214,"target":"present","response":"present","rt":2502,"correct":true,"confidence":-1},{"trial_n":72,"min":41,"max":214,"target":"present","response":"present","rt":1227,"correct":true,"confidence":-1},{"trial_n":73,"min":57,"max":198,"target":"absent","response":"absent","rt":1232,"correct":true,"confidence":-1},{"trial_n":74,"min":57,"max":198,"target":"absent","response":"absent","rt":867,"correct":true,"confidence":-1},{"trial_n":75,"min":73,"max":182,"target":"present","response":"present","rt":746,"correct":true,"confidence":-1},{"trial_n":76,"min":73,"max":182,"target":"present","response":"present","rt":595,"correct":true,"confidence":-1},{"trial_n":77,"min":89,"max":166,"target":"present","response":"present","rt":916,"correct":true,"confidence":-1},{"trial_n":78,"min":89,"max":166,"target":"absent","response":"absent","rt":2285,"correct":true,"confidence":-1},{"trial_n":79,"min":105,"max":150,"target":"absent","response":"present","rt":1797.9999999999,"correct":false,"confidence":-1},{"trial_n":80,"min":89,"max":166,"target":"absent","response":"present","rt":2094,"correct":false,"confidence":-1},{"trial_n":81,"min":81,"max":174,"target":"present","response":"absent","rt":1787,"correct":false,"confidence":-1},{"trial_n":82,"min":73,"max":182,"target":"absent","response":"present","rt":3743,"correct":false,"confidence":-1},{"trial_n":83,"min":65,"max":190,"target":"present","response":"present","rt":782,"correct":true,"confidence":-1},{"trial_n":84,"min":65,"max":190,"target":"present","response":"present","rt":1686,"correct":true,"confidence":-1},{"trial_n":85,"min":73,"max":182,"target":"absent","response":"absent","rt":782,"correct":true,"confidence":-1},{"trial_n":86,"min":73,"max":182,"target":"absent","response":"absent","rt":713,"correct":true,"confidence":-1},{"trial_n":87,"min":81,"max":174,"target":"absent","response":"absent","rt":1533,"correct":true,"confidence":-1},{"trial_n":88,"min":81,"max":174,"target":"absent","response":"present","rt":861,"correct":false,"confidence":-1},{"trial_n":89,"min":73,"max":182,"target":"absent","response":"absent","rt":755,"correct":true,"confidence":-1},{"trial_n":90,"min":73,"max":182,"target":"present","response":"present","rt":649,"correct":true,"confidence":-1},{"trial_n":91,"min":77,"max":178,"target":"present","response":"present","rt":914,"correct":true,"confidence":4},{"trial_n":92,"min":77,"max":178,"target":"absent","response":"absent","rt":1081,"correct":true,"confidence":2},{"trial_n":93,"min":81,"max":174,"target":"absent","response":"present","rt":2796.0000000001,"correct":false,"confidence":2},{"trial_n":94,"min":77,"max":178,"target":"absent","response":"present","rt":1499,"correct":false,"confidence":2},{"trial_n":95,"min":73,"max":182,"target":"present","response":"present","rt":603,"correct":true,"confidence":5},{"trial_n":96,"min":73,"max":182,"target":"absent","response":"absent","rt":668,"correct":true,"confidence":5},{"trial_n":97,"min":77,"max":178,"target":"absent","response":"absent","rt":751,"correct":true,"confidence":5},{"trial_n":98,"min":77,"max":178,"target":"present","response":"present","rt":684,"correct":true,"confidence":5},{"trial_n":99,"min":81,"max":174,"target":"present","response":"present","rt":782,"correct":true,"confidence":1},{"trial_n":100,"min":81,"max":174,"target":"present","response":"absent","rt":2403,"correct":false,"confidence":2},{"trial_n":101,"min":79,"max":176,"target":"present","response":"present","rt":633,"correct":true,"confidence":5},{"trial_n":102,"min":79,"max":176,"target":"present","response":"present","rt":1232,"correct":true,"confidence":4},{"trial_n":103,"min":81,"max":174,"target":"absent","response":"present","rt":2758.9999999999,"correct":false,"confidence":2},{"trial_n":104,"min":79,"max":176,"target":"absent","response":"absent","rt":799.00000000006,"correct":true,"confidence":1},{"trial_n":105,"min":79,"max":176,"target":"present","response":"present","rt":2119,"correct":true,"confidence":3},{"trial_n":106,"min":81,"max":174,"target":"absent","response":"absent","rt":1079,"correct":true,"confidence":4},{"trial_n":107,"min":81,"max":174,"target":"absent","response":"present","rt":2412.9999999999,"correct":false,"confidence":1},{"trial_n":108,"min":79,"max":176,"target":"absent","response":"present","rt":2513.9999999999,"correct":false,"confidence":3},{"trial_n":109,"min":77,"max":178,"target":"present","response":"present","rt":584,"correct":true,"confidence":5},{"trial_n":110,"min":77,"max":178,"target":"absent","response":"absent","rt":1382,"correct":true,"confidence":3},{"trial_n":111,"min":78,"max":177,"target":"present","response":"present","rt":856,"correct":true,"confidence":4},{"trial_n":112,"min":78,"max":177,"target":"present","response":"present","rt":932,"correct":true,"confidence":5},{"trial_n":113,"min":79,"max":176,"target":"present","response":"absent","rt":1117,"correct":false,"confidence":2},{"trial_n":114,"min":78,"max":177,"target":"absent","response":"present","rt":984,"correct":false,"confidence":3},{"trial_n":115,"min":77,"max":178,"target":"absent","response":"present","rt":2182,"correct":false,"confidence":2},{"trial_n":116,"min":76,"max":179,"target":"present","response":"present","rt":969,"correct":true,"confidence":3},{"trial_n":117,"min":76,"max":179,"target":"absent","response":"present","rt":1242.0000000001,"correct":false,"confidence":2},{"trial_n":118,"min":75,"max":180,"target":"present","response":"present","rt":997.00000000006,"correct":true,"confidence":5},{"trial_n":119,"min":75,"max":180,"target":"absent","response":"absent","rt":1683.0000000001,"correct":true,"confidence":2},{"trial_n":120,"min":76,"max":179,"target":"absent","response":"absent","rt":1833,"correct":true,"confidence":4},{"trial_n":121,"min":76,"max":179,"target":"present","response":"present","rt":731,"correct":true,"confidence":4},{"trial_n":122,"min":77,"max":178,"target":"present","response":"absent","rt":950,"correct":false,"confidence":1},{"trial_n":123,"min":76,"max":179,"target":"absent","response":"present","rt":766,"correct":false,"confidence":3},{"trial_n":124,"min":75,"max":180,"target":"present","response":"present","rt":696,"correct":true,"confidence":4},{"trial_n":125,"min":75,"max":180,"target":"present","response":"present","rt":600,"correct":true,"confidence":5},{"trial_n":126,"min":76,"max":179,"target":"absent","response":"absent","rt":1533,"correct":true,"confidence":2},{"trial_n":127,"min":76,"max":179,"target":"present","response":"present","rt":749,"correct":true,"confidence":3},{"trial_n":128,"min":77,"max":178,"target":"present","response":"absent","rt":5331,"correct":false,"confidence":3},{"trial_n":129,"min":76,"max":179,"target":"present","response":"present","rt":711,"correct":true,"confidence":4},{"trial_n":130,"min":76,"max":179,"target":"present","response":"present","rt":1300,"correct":true,"confidence":4},{"trial_n":131,"min":77,"max":178,"target":"present","response":"present","rt":569,"correct":true,"confidence":4},{"trial_n":132,"min":77,"max":178,"target":"absent","response":"absent","rt":882,"correct":true,"confidence":5},{"trial_n":133,"min":78,"max":177,"target":"absent","response":"absent","rt":1279.9999999999,"correct":true,"confidence":4},{"trial_n":134,"min":78,"max":177,"target":"present","response":"present","rt":700,"correct":true,"confidence":5},{"trial_n":135,"min":79,"max":176,"target":"present","response":"present","rt":1354,"correct":true,"confidence":3},{"trial_n":136,"min":79,"max":176,"target":"present","response":"absent","rt":894,"correct":false,"confidence":1},{"trial_n":137,"min":78,"max":177,"target":"absent","response":"present","rt":2580,"correct":false,"confidence":3},{"trial_n":138,"min":77,"max":178,"target":"absent","response":"absent","rt":1201,"correct":true,"confidence":1},{"trial_n":139,"min":77,"max":178,"target":"absent","response":"absent","rt":3063.0000000001,"correct":true,"confidence":1},{"trial_n":140,"min":78,"max":177,"target":"present","response":"present","rt":2232,"correct":true,"confidence":2}]