[{"trial_n":1,"span":8,"encoder":"00604643","distractor":"00504643","target":"present","response":"present","rt":"5342","correct":true,"confidence":-1},{"trial_n":2,"span":8,"encoder":"92474254","distractor":"92474250","target":"present","response":"present","rt":"2636","correct":true,"confidence":-1},{"trial_n":3,"span":10,"encoder":"2252448675","distractor":"5252448675","target":"absent","response":"absent","rt":"2968","correct":true,"confidence":-1},{"trial_n":4,"span":10,"encoder":"5670873292","distractor":"7670873292","target":"absent","response":"present","rt":"2142","correct":false,"confidence":-1},{"trial_n":5,"span":8,"encoder":"67935288","distractor":"67935088","target":"present","response":"present","rt":"1489","correct":true,"confidence":-1},{"trial_n":6,"span":8,"encoder":"79888732","distractor":"79838732","target":"absent","response":"absent","rt":"1826","correct":true,"confidence":-1},{"trial_n":7,"span":10,"encoder":"0199039674","distractor":"0179039674","target":"absent","response":"absent","rt":"2768","correct":true,"confidence":-1},{"trial_n":8,"span":10,"encoder":"0045034037","distractor":"0045434037","target":"absent","response":"present","rt":"1896","correct":false,"confidence":-1},{"trial_n":9,"span":8,"encoder":"72564258","distractor":"92564258","target":"present","response":"present","rt":"1842","correct":true,"confidence":-1},{"trial_n":10,"span":8,"encoder":"50678508","distractor":"50678548","target":"present","response":"present","rt":"2177","correct":true,"confidence":-1},{"trial_n":11,"span":10,"encoder":"8206102157","distractor":"8206172157","target":"absent","response":"present","rt":"2334","correct":false,"confidence":-1},{"trial_n":12,"span":9,"encoder":"762416405","distractor":"762411405","target":"present","response":"absent","rt":"1844","correct":false,"confidence":-1},{"trial_n":13,"span":8,"encoder":"21517526","distractor":"24517526","target":"present","response":"present","rt":"2433","correct":true,"confidence":-1},{"trial_n":14,"span":8,"encoder":"12770239","distractor":"12770039","target":"present","response":"present","rt":"2513","correct":true,"confidence":-1},{"trial_n":15,"span":9,"encoder":"414765076","distractor":"414762076","target":"present","response":"absent","rt":"3064","correct":false,"confidence":-1},{"trial_n":16,"span":8,"encoder":"41732144","distractor":"41532144","target":"absent","response":"absent","rt":"2001","correct":true,"confidence":-1},{"trial_n":17,"span":8,"encoder":"98447336","distractor":"38447336","target":"absent","response":"present","rt":"1525","correct":false,"confidence":-1},{"trial_n":18,"span":7,"encoder":"8148229","distractor":"8148029","target":"absent","response":"absent","rt":"3005","correct":true,"confidence":-1},{"trial_n":19,"span":7,"encoder":"2170973","distractor":"7170973","target":"present","response":"present","rt":"1531","correct":true,"confidence":-1},{"trial_n":20,"span":8,"encoder":"88501918","distractor":"88531918","target":"absent","response":"absent","rt":"2406","correct":true,"confidence":-1},{"trial_n":21,"span":8,"encoder":"18478766","distractor":"14478766","target":"present","response":"present","rt":"3086","correct":true,"confidence":3},{"trial_n":22,"span":9,"encoder":"954383395","distractor":"953383395","target":"present","response":"present","rt":"2733","correct":true,"confidence":4},{"trial_n":23,"span":9,"encoder":"975190131","distractor":"975190135","target":"absent","response":"absent","rt":"3548","correct":true,"confidence":3},{"trial_n":24,"span":10,"encoder":"9621394938","distractor":"9721394938","target":"present","response":"present","rt":"2928","correct":true,"confidence":4},{"trial_n":25,"span":10,"encoder":"7553586340","distractor":"7553583340","target":"absent","response":"present","rt":"2017","correct":false,"confidence":4},{"trial_n":26,"span":9,"encoder":"468001766","distractor":"468004766","target":"present","response":"present","rt":"1764.0000000001","correct":true,"confidence":4},{"trial_n":27,"span":9,"encoder":"887469379","distractor":"887469309","target":"absent","response":"present","rt":"3463","correct":false,"confidence":3},{"trial_n":28,"span":8,"encoder":"86993181","distractor":"86693181","target":"absent","response":"absent","rt":"2756","correct":true,"confidence":3},{"trial_n":29,"span":8,"encoder":"56085263","distractor":"56085863","target":"present","response":"present","rt":"2458","correct":true,"confidence":3},{"trial_n":30,"span":9,"encoder":"258289729","distractor":"258239729","target":"absent","response":"present","rt":"2686","correct":false,"confidence":2},{"trial_n":31,"span":8,"encoder":"49705575","distractor":"49705875","target":"absent","response":"absent","rt":"1546","correct":true,"confidence":5},{"trial_n":32,"span":8,"encoder":"25702483","distractor":"35702483","target":"present","response":"present","rt":"2482","correct":true,"confidence":4},{"trial_n":33,"span":9,"encoder":"293606890","distractor":"293604890","target":"absent","response":"present","rt":"4219","correct":false,"confidence":3},{"trial_n":34,"span":8,"encoder":"56397597","distractor":"56397590","target":"present","response":"present","rt":"2421","correct":true,"confidence":4},{"trial_n":35,"span":8,"encoder":"21913224","distractor":"24913224","target":"absent","response":"absent","rt":"3497","correct":true,"confidence":3},{"trial_n":36,"span":9,"encoder":"569855869","distractor":"369855869","target":"absent","response":"present","rt":"3042","correct":false,"confidence":3},{"trial_n":37,"span":8,"encoder":"61910894","distractor":"61910891","target":"absent","response":"present","rt":"2359.9999999999","correct":false,"confidence":4},{"trial_n":38,"span":7,"encoder":"6624913","distractor":"6624973","target":"present","response":"present","rt":"2278","correct":true,"confidence":5},{"trial_n":39,"span":7,"encoder":"7917354","distractor":"7910354","target":"absent","response":"absent","rt":"1909","correct":true,"confidence":3},{"trial_n":40,"span":8,"encoder":"34130382","distractor":"34130482","target":"absent","response":"present","rt":"4056","correct":false,"confidence":3},{"trial_n":41,"span":7,"encoder":"5747399","distractor":"6747399","target":"present","response":"present","rt":"1641.0000000001","correct":true,"confidence":5},{"trial_n":42,"span":7,"encoder":"6598873","distractor":"6598875","target":"absent","response":"absent","rt":"1622","correct":true,"confidence":3},{"trial_n":43,"span":8,"encoder":"14696940","distractor":"14696920","target":"present","response":"present","rt":"2323","correct":true,"confidence":4},{"trial_n":44,"span":8,"encoder":"96138858","distractor":"96438858","target":"present","response":"present","rt":"4314.0000000001","correct":true,"confidence":3},{"trial_n":45,"span":9,"encoder":"799158771","distractor":"799158371","target":"absent","response":"present","rt":"2284","correct":false,"confidence":2},{"trial_n":46,"span":8,"encoder":"31524019","distractor":"30524019","target":"absent","response":"present","rt":"2956","correct":false,"confidence":3},{"trial_n":47,"span":7,"encoder":"0192660","distractor":"1192660","target":"absent","response":"present","rt":"2490","correct":false,"confidence":3},{"trial_n":48,"span":6,"encoder":"035522","distractor":"035532","target":"absent","response":"absent","rt":"2251","correct":true,"confidence":4},{"trial_n":49,"span":6,"encoder":"963243","distractor":"962243","target":"absent","response":"absent","rt":"1883","correct":true,"confidence":3},{"trial_n":50,"span":7,"encoder":"7010761","distractor":"7010701","target":"absent","response":"absent","rt":"2425","correct":true,"confidence":3},{"trial_n":51,"span":7,"encoder":"2541455","distractor":"2547455","target":"present","response":"present","rt":"2510","correct":true,"confidence":3},{"trial_n":52,"span":8,"encoder":"01414576","distractor":"01414776","target":"present","response":"present","rt":"5195","correct":true,"confidence":2},{"trial_n":53,"span":8,"encoder":"87185269","distractor":"86185269","target":"present","response":"present","rt":"2391","correct":true,"confidence":3},{"trial_n":54,"span":9,"encoder":"359795101","distractor":"359775101","target":"present","response":"present","rt":"5198","correct":true,"confidence":2},{"trial_n":55,"span":9,"encoder":"682156213","distractor":"682156233","target":"absent","response":"absent","rt":"3584.9999999999","correct":true,"confidence":3},{"trial_n":56,"span":10,"encoder":"6905211916","distractor":"2905211916","target":"absent","response":"present","rt":"2553","correct":false,"confidence":3},{"trial_n":57,"span":9,"encoder":"314600102","distractor":"317600102","target":"present","response":"present","rt":"4164","correct":true,"confidence":1},{"trial_n":58,"span":9,"encoder":"133183567","distractor":"333183567","target":"absent","response":"absent","rt":"3650","correct":true,"confidence":3},{"trial_n":59,"span":10,"encoder":"0984957214","distractor":"0184957214","target":"present","response":"present","rt":"2415","correct":true,"confidence":2},{"trial_n":60,"span":10,"encoder":"8588700121","distractor":"8588700151","target":"absent","response":"present","rt":"1801","correct":false,"confidence":3},{"trial_n":61,"span":9,"encoder":"913531078","distractor":"913731078","target":"present","response":"present","rt":"2184","correct":true,"confidence":3},{"trial_n":62,"span":9,"encoder":"174390812","distractor":"174398812","target":"present","response":"present","rt":"2329.0000000001","correct":true,"confidence":2},{"trial_n":63,"span":10,"encoder":"2939469713","distractor":"5939469713","target":"present","response":"absent","rt":"2803.9999999999","correct":false,"confidence":3},{"trial_n":64,"span":9,"encoder":"690411217","distractor":"690411117","target":"present","response":"absent","rt":"3101","correct":false,"confidence":2},{"trial_n":65,"span":8,"encoder":"15962550","distractor":"15962580","target":"absent","response":"absent","rt":"5979","correct":true,"confidence":3},{"trial_n":66,"span":8,"encoder":"30050949","distractor":"30950949","target":"present","response":"present","rt":"2466","correct":true,"confidence":4},{"trial_n":67,"span":9,"encoder":"831675508","distractor":"831675568","target":"present","response":"present","rt":"2949","correct":true,"confidence":3},{"trial_n":68,"span":9,"encoder":"039862828","distractor":"539862828","target":"present","response":"present","rt":"3500","correct":true,"confidence":3},{"trial_n":69,"span":10,"encoder":"1025604289","distractor":"1025604589","target":"present","response":"present","rt":"4248","correct":true,"confidence":2},{"trial_n":70,"span":10,"encoder":"3755049520","distractor":"8755049520","target":"present","response":"present","rt":"2971","correct":true,"confidence":3},{"trial_n":71,"span":8,"encoder":"80722233","distractor":"82722233","target":"present","response":"absent","rt":"-1253601","correct":false,"confidence":-1},{"trial_n":72,"span":7,"encoder":"4604703","distractor":"4604903","target":"present","response":"present","rt":"-1263541","correct":true,"confidence":-1},{"trial_n":73,"span":7,"encoder":"2218463","distractor":"2218663","target":"absent","response":"absent","rt":"-1270769","correct":true,"confidence":-1},{"trial_n":74,"span":8,"encoder":"39922970","distractor":"39222970","target":"absent","response":"absent","rt":"-1282957","correct":true,"confidence":-1},{"trial_n":75,"span":8,"encoder":"50308434","distractor":"50308424","target":"present","response":"present","rt":"-1295540","correct":true,"confidence":-1},{"trial_n":76,"span":9,"encoder":"881115815","distractor":"881115915","target":"present","response":"absent","rt":"-1306328","correct":false,"confidence":-1},{"trial_n":77,"span":8,"encoder":"14851186","distractor":"14151186","target":"absent","response":"absent","rt":"-1316947","correct":true,"confidence":-1},{"trial_n":78,"span":8,"encoder":"72196772","distractor":"72196972","target":"absent","response":"present","rt":"-1327443","correct":false,"confidence":-1},{"trial_n":79,"span":7,"encoder":"8510012","distractor":"8560012","target":"absent","response":"present","rt":"-1335047","correct":false,"confidence":-1},{"trial_n":80,"span":6,"encoder":"539938","distractor":"539638","target":"absent","response":"absent","rt":"-1343195","correct":true,"confidence":-1},{"trial_n":81,"span":6,"encoder":"708937","distractor":"758937","target":"present","response":"present","rt":"-1350348","correct":true,"confidence":-1},{"trial_n":82,"span":7,"encoder":"7804087","distractor":"7804047","target":"present","response":"present","rt":"-1358586","correct":true,"confidence":-1},{"trial_n":83,"span":7,"encoder":"1827102","distractor":"1857102","target":"present","response":"present","rt":"-1366369","correct":true,"confidence":-1},{"trial_n":84,"span":8,"encoder":"30467996","distractor":"30465996","target":"present","response":"present","rt":"-1375007","correct":true,"confidence":-1},{"trial_n":85,"span":8,"encoder":"12637635","distractor":"12630635","target":"absent","response":"absent","rt":"-1382309","correct":true,"confidence":-1},{"trial_n":86,"span":9,"encoder":"376963680","distractor":"376763680","target":"present","response":"present","rt":"-1391684","correct":true,"confidence":-1},{"trial_n":87,"span":9,"encoder":"024351528","distractor":"024341528","target":"absent","response":"absent","rt":"-1402214","correct":true,"confidence":-1},{"trial_n":88,"span":10,"encoder":"2930303100","distractor":"2930003100","target":"present","response":"present","rt":"-1412190","correct":true,"confidence":-1},{"trial_n":89,"span":10,"encoder":"9143617564","distractor":"8143617564","target":"present","response":"present","rt":"-1420971","correct":true,"confidence":-1},{"trial_n":90,"span":11,"encoder":"83615787059","distractor":"83685787059","target":"present","response":"present","rt":"-1431412","correct":true,"confidence":-1},{"trial_n":91,"span":11,"encoder":"65909648054","distractor":"65902648054","target":"present","response":"present","rt":"-1475237","correct":true,"confidence":3},{"trial_n":92,"span":12,"encoder":"771136058247","distractor":"771536058247","target":"present","response":"present","rt":"-1492308","correct":true,"confidence":3},{"trial_n":93,"span":12,"encoder":"384977576764","distractor":"384977546764","target":"absent","response":"present","rt":"-1507555","correct":false,"confidence":3},{"trial_n":94,"span":11,"encoder":"22580293120","distractor":"62580293120","target":"present","response":"present","rt":"-1524949","correct":true,"confidence":4},{"trial_n":95,"span":11,"encoder":"54245592271","distractor":"54245692271","target":"absent","response":"absent","rt":"-1538516","correct":true,"confidence":3},{"trial_n":96,"span":12,"encoder":"492325063252","distractor":"472325063252","target":"absent","response":"absent","rt":"-1551041","correct":true,"confidence":2},{"trial_n":97,"span":12,"encoder":"573836728312","distractor":"573836728812","target":"present","response":"present","rt":"-1566231","correct":true,"confidence":3},{"trial_n":98,"span":13,"encoder":"4410947745398","distractor":"4410947045398","target":"present","response":"present","rt":"-1584905","correct":true,"confidence":3},{"trial_n":99,"span":13,"encoder":"7131934093736","distractor":"7131994093736","target":"absent","response":"absent","rt":"-1605997","correct":true,"confidence":3},{"trial_n":100,"span":14,"encoder":"02829743541400","distractor":"05829743541400","target":"absent","response":"present","rt":"-1624241","correct":false,"confidence":2},{"trial_n":101,"span":13,"encoder":"7859481786906","distractor":"7859481783906","target":"absent","response":"present","rt":"-1645631","correct":false,"confidence":2},{"trial_n":102,"span":12,"encoder":"794756844162","distractor":"764756844162","target":"absent","response":"absent","rt":"-1658804","correct":true,"confidence":2},{"trial_n":103,"span":12,"encoder":"512737293308","distractor":"512737243308","target":"absent","response":"absent","rt":"-1670715","correct":true,"confidence":2},{"trial_n":104,"span":13,"encoder":"5323586375888","distractor":"5323586305888","target":"present","response":"absent","rt":"-1689690","correct":false,"confidence":2},{"trial_n":105,"span":12,"encoder":"973093665901","distractor":"953093665901","target":"present","response":"present","rt":"-1707007","correct":true,"confidence":2},{"trial_n":106,"span":12,"encoder":"157066835429","distractor":"127066835429","target":"present","response":"present","rt":"-1720253","correct":true,"confidence":2},{"trial_n":107,"span":13,"encoder":"4255140333715","distractor":"4215140333715","target":"absent","response":"present","rt":"-1735745","correct":false,"confidence":2},{"trial_n":108,"span":12,"encoder":"443803927528","distractor":"443803027528","target":"present","response":"present","rt":"-1748256","correct":true,"confidence":2},{"trial_n":109,"span":12,"encoder":"505162888548","distractor":"505862888548","target":"absent","response":"absent","rt":"-1761324","correct":true,"confidence":2},{"trial_n":110,"span":13,"encoder":"8874106383953","distractor":"8874106383753","target":"present","response":"present","rt":"-1775780","correct":true,"confidence":2},{"trial_n":111,"span":13,"encoder":"2292466469893","distractor":"2292466479893","target":"present","response":"present","rt":"-1798886","correct":true,"confidence":3},{"trial_n":112,"span":14,"encoder":"00373494278495","distractor":"00373494278095","target":"absent","response":"present","rt":"-1819660","correct":false,"confidence":1},{"trial_n":113,"span":13,"encoder":"3132091446746","distractor":"3162091446746","target":"present","response":"absent","rt":"-1831938","correct":false,"confidence":1},{"trial_n":114,"span":12,"encoder":"475355408017","distractor":"475351408017","target":"absent","response":"absent","rt":"-1842212","correct":true,"confidence":1},{"trial_n":115,"span":12,"encoder":"062281470525","distractor":"067281470525","target":"absent","response":"present","rt":"-1854272","correct":false,"confidence":1},{"trial_n":116,"span":11,"encoder":"25777754182","distractor":"95777754182","target":"absent","response":"absent","rt":"-1867392","correct":true,"confidence":2},{"trial_n":117,"span":11,"encoder":"41486034034","distractor":"41486034064","target":"present","response":"absent","rt":"-1878736","correct":false,"confidence":2},{"trial_n":118,"span":10,"encoder":"9595222473","distractor":"9595222973","target":"absent","response":"absent","rt":"-1891320","correct":true,"confidence":2},{"trial_n":119,"span":10,"encoder":"6245751046","distractor":"6245751146","target":"present","response":"present","rt":"-1902067","correct":true,"confidence":2},{"trial_n":120,"span":11,"encoder":"62016162258","distractor":"62016162238","target":"present","response":"present","rt":"-1911895","correct":true,"confidence":3},{"trial_n":121,"span":11,"encoder":"90982834464","distractor":"90882834464","target":"absent","response":"absent","rt":"-1925055","correct":true,"confidence":1},{"trial_n":122,"span":12,"encoder":"084616691479","distractor":"084616291479","target":"present","response":"present","rt":"-1939016","correct":true,"confidence":2},{"trial_n":123,"span":12,"encoder":"418001135691","distractor":"418001139691","target":"absent","response":"present","rt":"-1951610","correct":false,"confidence":2},{"trial_n":124,"span":11,"encoder":"25534289701","distractor":"25534289709","target":"absent","response":"absent","rt":"-1965138","correct":true,"confidence":4},{"trial_n":125,"span":11,"encoder":"60330683277","distractor":"63330683277","target":"present","response":"present","rt":"-1977935","correct":true,"confidence":3},{"trial_n":126,"span":12,"encoder":"938600194189","distractor":"936600194189","target":"absent","response":"absent","rt":"-1990947","correct":true,"confidence":2},{"trial_n":127,"span":12,"encoder":"543308768130","distractor":"543328768130","target":"present","response":"present","rt":"-2009526","correct":true,"confidence":3},{"trial_n":128,"span":13,"encoder":"8753364655442","distractor":"8753364655447","target":"absent","response":"absent","rt":"-2026768","correct":true,"confidence":2},{"trial_n":129,"span":13,"encoder":"9679713783427","distractor":"9679713763427","target":"present","response":"present","rt":"-2049234","correct":true,"confidence":2},{"trial_n":130,"span":14,"encoder":"61248846193849","distractor":"65248846193849","target":"absent","response":"absent","rt":"-2061901","correct":true,"confidence":3},{"trial_n":131,"span":14,"encoder":"41038923272308","distractor":"41038923276308","target":"present","response":"present","rt":"-2076337","correct":true,"confidence":2},{"trial_n":132,"span":15,"encoder":"242863273519199","distractor":"242863673519199","target":"absent","response":"absent","rt":"-2088187","correct":true,"confidence":2},{"trial_n":133,"span":15,"encoder":"295496227925658","distractor":"295496227925458","target":"present","response":"present","rt":"-2102520","correct":true,"confidence":2},{"trial_n":134,"span":16,"encoder":"6066814505929899","distractor":"6066814505929699","target":"absent","response":"absent","rt":"-2118441","correct":true,"confidence":2},{"trial_n":135,"span":16,"encoder":"5514983406598459","distractor":"5514983404598459","target":"absent","response":"present","rt":"-2138117","correct":false,"confidence":2},{"trial_n":136,"span":15,"encoder":"573020771363087","distractor":"578020771363087","target":"present","response":"present","rt":"-2153001","correct":true,"confidence":1},{"trial_n":137,"span":15,"encoder":"367772387432019","distractor":"366772387432019","target":"present","response":"present","rt":"-2168944","correct":true,"confidence":2},{"trial_n":138,"span":16,"encoder":"5410012779269878","distractor":"5010012779269878","target":"present","response":"present","rt":"-2184523","correct":true,"confidence":2},{"trial_n":139,"span":16,"encoder":"3490828691782960","distractor":"3490828691782900","target":"absent","response":"absent","rt":"-2201310","correct":true,"confidence":4},{"trial_n":140,"span":17,"encoder":"20263599010304539","distractor":"20263599010304519","target":"absent","response":"absent","rt":"-2213638","correct":true,"confidence":3}]