[{"trial_n":1,"span":8,"encoder":"91997384","distractor":"91297384","target":"present","response":"present","rt":"4470","correct":true,"confidence":-1},{"trial_n":2,"span":8,"encoder":"22763729","distractor":"24763729","target":"present","response":"present","rt":"2874","correct":true,"confidence":-1},{"trial_n":3,"span":10,"encoder":"5350592788","distractor":"5450592788","target":"absent","response":"present","rt":"2511","correct":false,"confidence":-1},{"trial_n":4,"span":8,"encoder":"19983976","distractor":"17983976","target":"absent","response":"present","rt":"3398","correct":false,"confidence":-1},{"trial_n":5,"span":6,"encoder":"312547","distractor":"712547","target":"present","response":"present","rt":"2495","correct":true,"confidence":-1},{"trial_n":6,"span":6,"encoder":"101995","distractor":"121995","target":"absent","response":"absent","rt":"3054","correct":true,"confidence":-1},{"trial_n":7,"span":8,"encoder":"73206234","distractor":"23206234","target":"present","response":"present","rt":"1942","correct":true,"confidence":-1},{"trial_n":8,"span":8,"encoder":"87408332","distractor":"87458332","target":"present","response":"present","rt":"2480","correct":true,"confidence":-1},{"trial_n":9,"span":10,"encoder":"6889802769","distractor":"6882802769","target":"absent","response":"present","rt":"2686","correct":false,"confidence":-1},{"trial_n":10,"span":8,"encoder":"29917786","distractor":"29907786","target":"present","response":"present","rt":"1372","correct":true,"confidence":-1},{"trial_n":11,"span":8,"encoder":"81562182","distractor":"85562182","target":"present","response":"present","rt":"1846","correct":true,"confidence":-1},{"trial_n":12,"span":9,"encoder":"072459727","distractor":"072459717","target":"absent","response":"absent","rt":"1681","correct":true,"confidence":-1},{"trial_n":13,"span":9,"encoder":"435400752","distractor":"435400742","target":"absent","response":"present","rt":"1553","correct":false,"confidence":-1},{"trial_n":14,"span":8,"encoder":"54152280","distractor":"54152283","target":"present","response":"present","rt":"2144","correct":true,"confidence":-1},{"trial_n":15,"span":8,"encoder":"55208194","distractor":"55208794","target":"absent","response":"absent","rt":"3097","correct":true,"confidence":-1},{"trial_n":16,"span":9,"encoder":"386530251","distractor":"316530251","target":"present","response":"present","rt":"2137","correct":true,"confidence":-1},{"trial_n":17,"span":9,"encoder":"550219149","distractor":"540219149","target":"present","response":"present","rt":"1005","correct":true,"confidence":-1},{"trial_n":18,"span":10,"encoder":"2391847478","distractor":"2396847478","target":"present","response":"present","rt":"1368","correct":true,"confidence":-1},{"trial_n":19,"span":10,"encoder":"6655785282","distractor":"3655785282","target":"absent","response":"present","rt":"1494","correct":false,"confidence":-1},{"trial_n":20,"span":9,"encoder":"001136074","distractor":"051136074","target":"present","response":"present","rt":"1860","correct":true,"confidence":-1},{"trial_n":21,"span":9,"encoder":"439588666","distractor":"439588066","target":"absent","response":"absent","rt":"3043","correct":true,"confidence":3},{"trial_n":22,"span":10,"encoder":"7078120579","distractor":"7078120570","target":"absent","response":"present","rt":"2217","correct":false,"confidence":4},{"trial_n":23,"span":9,"encoder":"698076624","distractor":"998076624","target":"present","response":"absent","rt":"4603","correct":false,"confidence":3},{"trial_n":24,"span":8,"encoder":"83184170","distractor":"82184170","target":"present","response":"present","rt":"2517","correct":true,"confidence":5},{"trial_n":25,"span":8,"encoder":"57655253","distractor":"27655253","target":"absent","response":"present","rt":"1406","correct":false,"confidence":1},{"trial_n":26,"span":7,"encoder":"8558863","distractor":"2558863","target":"present","response":"absent","rt":"1532","correct":false,"confidence":2},{"trial_n":27,"span":6,"encoder":"085153","distractor":"085953","target":"present","response":"present","rt":"1859","correct":true,"confidence":5},{"trial_n":28,"span":6,"encoder":"049896","distractor":"044896","target":"absent","response":"present","rt":"6034","correct":false,"confidence":3},{"trial_n":29,"span":5,"encoder":"77754","distractor":"97754","target":"absent","response":"absent","rt":"2610","correct":true,"confidence":5},{"trial_n":30,"span":5,"encoder":"06089","distractor":"06289","target":"absent","response":"present","rt":"1821","correct":false,"confidence":5},{"trial_n":31,"span":4,"encoder":"1427","distractor":"1497","target":"absent","response":"present","rt":"1836","correct":false,"confidence":5},{"trial_n":32,"span":3,"encoder":"491","distractor":"401","target":"absent","response":"present","rt":"1479.9999999999","correct":false,"confidence":5},{"trial_n":33,"span":2,"encoder":"07","distractor":"04","target":"absent","response":"absent","rt":"1662.0000000001","correct":true,"confidence":5},{"trial_n":34,"span":2,"encoder":"93","distractor":"91","target":"absent","response":"absent","rt":"1568","correct":true,"confidence":5},{"trial_n":35,"span":3,"encoder":"214","distractor":"014","target":"present","response":"present","rt":"1327","correct":true,"confidence":5},{"trial_n":36,"span":3,"encoder":"764","distractor":"464","target":"present","response":"present","rt":"1205","correct":true,"confidence":5},{"trial_n":37,"span":4,"encoder":"2236","distractor":"2238","target":"present","response":"absent","rt":"1427","correct":false,"confidence":5},{"trial_n":38,"span":3,"encoder":"879","distractor":"875","target":"absent","response":"absent","rt":"1943.9999999999","correct":true,"confidence":5},{"trial_n":39,"span":3,"encoder":"861","distractor":"881","target":"absent","response":"absent","rt":"1169","correct":true,"confidence":5},{"trial_n":40,"span":4,"encoder":"8153","distractor":"8123","target":"present","response":"present","rt":"1491","correct":true,"confidence":5},{"trial_n":41,"span":4,"encoder":"1333","distractor":"1332","target":"absent","response":"absent","rt":"1875","correct":true,"confidence":5},{"trial_n":42,"span":5,"encoder":"19009","distractor":"18009","target":"present","response":"absent","rt":"1244","correct":false,"confidence":5},{"trial_n":43,"span":4,"encoder":"5387","distractor":"5787","target":"absent","response":"present","rt":"4886","correct":false,"confidence":5},{"trial_n":44,"span":3,"encoder":"076","distractor":"086","target":"present","response":"present","rt":"1480","correct":true,"confidence":5},{"trial_n":45,"span":3,"encoder":"236","distractor":"336","target":"present","response":"present","rt":"1175","correct":true,"confidence":5},{"trial_n":46,"span":4,"encoder":"2028","distractor":"2023","target":"present","response":"present","rt":"1353","correct":true,"confidence":5},{"trial_n":47,"span":4,"encoder":"9197","distractor":"9199","target":"present","response":"present","rt":"999","correct":true,"confidence":5},{"trial_n":48,"span":5,"encoder":"47903","distractor":"47503","target":"present","response":"present","rt":"813","correct":true,"confidence":5},{"trial_n":49,"span":5,"encoder":"13692","distractor":"23692","target":"present","response":"present","rt":"2766","correct":true,"confidence":5},{"trial_n":50,"span":6,"encoder":"053842","distractor":"050842","target":"absent","response":"present","rt":"2824","correct":false,"confidence":4},{"trial_n":51,"span":5,"encoder":"75127","distractor":"75129","target":"present","response":"present","rt":"2353","correct":true,"confidence":5},{"trial_n":52,"span":5,"encoder":"37439","distractor":"39439","target":"present","response":"absent","rt":"4439.0000000001","correct":false,"confidence":3},{"trial_n":53,"span":4,"encoder":"7187","distractor":"7197","target":"absent","response":"absent","rt":"1350","correct":true,"confidence":5},{"trial_n":54,"span":4,"encoder":"9894","distractor":"9891","target":"present","response":"present","rt":"1506","correct":true,"confidence":5},{"trial_n":55,"span":5,"encoder":"01125","distractor":"01025","target":"present","response":"absent","rt":"1526","correct":false,"confidence":4},{"trial_n":56,"span":4,"encoder":"8680","distractor":"8630","target":"absent","response":"absent","rt":"2289.9999999999","correct":true,"confidence":4},{"trial_n":57,"span":4,"encoder":"8648","distractor":"8148","target":"absent","response":"absent","rt":"1463","correct":true,"confidence":5},{"trial_n":58,"span":5,"encoder":"81786","distractor":"82786","target":"absent","response":"absent","rt":"1154","correct":true,"confidence":5},{"trial_n":59,"span":5,"encoder":"57327","distractor":"57527","target":"present","response":"present","rt":"2548.0000000001","correct":true,"confidence":4},{"trial_n":60,"span":6,"encoder":"021160","distractor":"011160","target":"present","response":"absent","rt":"1434","correct":false,"confidence":3},{"trial_n":61,"span":5,"encoder":"38434","distractor":"98434","target":"absent","response":"present","rt":"2001","correct":false,"confidence":4},{"trial_n":62,"span":4,"encoder":"8032","distractor":"8332","target":"absent","response":"absent","rt":"1347","correct":true,"confidence":4},{"trial_n":63,"span":4,"encoder":"4972","distractor":"4970","target":"present","response":"present","rt":"1534","correct":true,"confidence":5},{"trial_n":64,"span":5,"encoder":"36981","distractor":"76981","target":"present","response":"present","rt":"1996","correct":true,"confidence":5},{"trial_n":65,"span":5,"encoder":"56032","distractor":"66032","target":"present","response":"present","rt":"2290","correct":true,"confidence":3},{"trial_n":66,"span":6,"encoder":"422367","distractor":"452367","target":"absent","response":"absent","rt":"2942","correct":true,"confidence":2},{"trial_n":67,"span":6,"encoder":"449261","distractor":"479261","target":"absent","response":"absent","rt":"1995","correct":true,"confidence":4},{"trial_n":68,"span":7,"encoder":"2138660","distractor":"2138661","target":"absent","response":"absent","rt":"1642","correct":true,"confidence":5},{"trial_n":69,"span":7,"encoder":"0921456","distractor":"0921452","target":"absent","response":"absent","rt":"1427","correct":true,"confidence":4},{"trial_n":70,"span":8,"encoder":"72131644","distractor":"72134644","target":"absent","response":"absent","rt":"1494","correct":true,"confidence":4},{"trial_n":71,"span":8,"encoder":"97636354","distractor":"97636350","target":"present","response":"present","rt":"7334","correct":true,"confidence":-1},{"trial_n":72,"span":8,"encoder":"62749340","distractor":"62747340","target":"present","response":"absent","rt":"1955","correct":false,"confidence":-1},{"trial_n":73,"span":7,"encoder":"5562467","distractor":"9562467","target":"absent","response":"absent","rt":"4339","correct":true,"confidence":-1},{"trial_n":74,"span":7,"encoder":"5302859","distractor":"8302859","target":"absent","response":"absent","rt":"2423","correct":true,"confidence":-1},{"trial_n":75,"span":8,"encoder":"11708530","distractor":"11768530","target":"present","response":"absent","rt":"4710","correct":false,"confidence":-1},{"trial_n":76,"span":7,"encoder":"0799754","distractor":"7799754","target":"present","response":"present","rt":"3734","correct":true,"confidence":-1},{"trial_n":77,"span":7,"encoder":"6264554","distractor":"6294554","target":"absent","response":"present","rt":"4802","correct":false,"confidence":-1},{"trial_n":78,"span":6,"encoder":"529421","distractor":"520421","target":"present","response":"present","rt":"1797","correct":true,"confidence":-1},{"trial_n":79,"span":6,"encoder":"527621","distractor":"527620","target":"present","response":"present","rt":"594.00000000012","correct":true,"confidence":-1},{"trial_n":80,"span":7,"encoder":"9900479","distractor":"9907479","target":"absent","response":"absent","rt":"6361","correct":true,"confidence":-1},{"trial_n":81,"span":7,"encoder":"0285616","distractor":"0285816","target":"absent","response":"absent","rt":"4723.9999999999","correct":true,"confidence":-1},{"trial_n":82,"span":8,"encoder":"74085549","distractor":"74085649","target":"present","response":"present","rt":"4586.9999999999","correct":true,"confidence":-1},{"trial_n":83,"span":8,"encoder":"56859719","distractor":"96859719","target":"present","response":"present","rt":"3233","correct":true,"confidence":-1},{"trial_n":84,"span":9,"encoder":"444799090","distractor":"444798090","target":"absent","response":"present","rt":"4710","correct":false,"confidence":-1},{"trial_n":85,"span":8,"encoder":"01893664","distractor":"01393664","target":"absent","response":"present","rt":"664.00000000012","correct":false,"confidence":-1},{"trial_n":86,"span":7,"encoder":"0779107","distractor":"4779107","target":"absent","response":"present","rt":"2560","correct":false,"confidence":-1},{"trial_n":87,"span":6,"encoder":"345740","distractor":"305740","target":"present","response":"present","rt":"1283","correct":true,"confidence":-1},{"trial_n":88,"span":6,"encoder":"435414","distractor":"445414","target":"present","response":"absent","rt":"1917","correct":false,"confidence":-1},{"trial_n":89,"span":5,"encoder":"22760","distractor":"22770","target":"present","response":"present","rt":"1163","correct":true,"confidence":-1},{"trial_n":90,"span":5,"encoder":"53580","distractor":"55580","target":"absent","response":"absent","rt":"4227","correct":true,"confidence":-1},{"trial_n":91,"span":6,"encoder":"043286","distractor":"003286","target":"absent","response":"absent","rt":"1903","correct":true,"confidence":5},{"trial_n":92,"span":6,"encoder":"520746","distractor":"527746","target":"present","response":"present","rt":"3388.9999999999","correct":true,"confidence":4},{"trial_n":93,"span":7,"encoder":"7168135","distractor":"7168139","target":"absent","response":"absent","rt":"2875","correct":true,"confidence":4},{"trial_n":94,"span":7,"encoder":"9958334","distractor":"9958344","target":"absent","response":"present","rt":"6965.0000000001","correct":false,"confidence":3},{"trial_n":95,"span":6,"encoder":"767336","distractor":"967336","target":"present","response":"present","rt":"3920.9999999998","correct":true,"confidence":5},{"trial_n":96,"span":6,"encoder":"712851","distractor":"712852","target":"absent","response":"absent","rt":"2729","correct":true,"confidence":4},{"trial_n":97,"span":7,"encoder":"3994952","distractor":"3994955","target":"absent","response":"absent","rt":"2180","correct":true,"confidence":4},{"trial_n":98,"span":7,"encoder":"2932555","distractor":"2932558","target":"absent","response":"absent","rt":"6137","correct":true,"confidence":3},{"trial_n":99,"span":8,"encoder":"56794898","distractor":"56794808","target":"present","response":"present","rt":"4515","correct":true,"confidence":4},{"trial_n":100,"span":8,"encoder":"10534683","distractor":"70534683","target":"present","response":"present","rt":"3118","correct":true,"confidence":1},{"trial_n":101,"span":9,"encoder":"607880097","distractor":"607800097","target":"absent","response":"absent","rt":"4088","correct":true,"confidence":3},{"trial_n":102,"span":9,"encoder":"515829918","distractor":"515229918","target":"absent","response":"absent","rt":"6041.9999999998","correct":true,"confidence":2},{"trial_n":103,"span":10,"encoder":"5806092440","distractor":"5806095440","target":"absent","response":"present","rt":"6043","correct":false,"confidence":3},{"trial_n":104,"span":9,"encoder":"348240764","distractor":"348240774","target":"present","response":"present","rt":"2571","correct":true,"confidence":5},{"trial_n":105,"span":9,"encoder":"547208240","distractor":"517208240","target":"present","response":"present","rt":"3738","correct":true,"confidence":3},{"trial_n":106,"span":10,"encoder":"6181314227","distractor":"6181318227","target":"present","response":"present","rt":"3741","correct":true,"confidence":5},{"trial_n":107,"span":10,"encoder":"4098368570","distractor":"4098068570","target":"present","response":"absent","rt":"14187","correct":false,"confidence":1},{"trial_n":108,"span":9,"encoder":"749158315","distractor":"749156315","target":"present","response":"present","rt":"5593.0000000002","correct":true,"confidence":3},{"trial_n":109,"span":9,"encoder":"185197981","distractor":"385197981","target":"absent","response":"present","rt":"6459.9999999998","correct":false,"confidence":4},{"trial_n":110,"span":8,"encoder":"87985689","distractor":"84985689","target":"absent","response":"absent","rt":"2359","correct":true,"confidence":5},{"trial_n":111,"span":8,"encoder":"53037920","distractor":"53537920","target":"present","response":"present","rt":"5781","correct":true,"confidence":2},{"trial_n":112,"span":9,"encoder":"648564403","distractor":"648564483","target":"absent","response":"absent","rt":"2155","correct":true,"confidence":5},{"trial_n":113,"span":9,"encoder":"394956508","distractor":"391956508","target":"present","response":"present","rt":"5016","correct":true,"confidence":4},{"trial_n":114,"span":10,"encoder":"0537522501","distractor":"0237522501","target":"absent","response":"absent","rt":"7096","correct":true,"confidence":3},{"trial_n":115,"span":10,"encoder":"4589893755","distractor":"4589893754","target":"present","response":"present","rt":"2334","correct":true,"confidence":5},{"trial_n":116,"span":11,"encoder":"33323714760","distractor":"53323714760","target":"present","response":"present","rt":"2694","correct":true,"confidence":5},{"trial_n":117,"span":11,"encoder":"64406072251","distractor":"64406072211","target":"absent","response":"absent","rt":"4282","correct":true,"confidence":4},{"trial_n":118,"span":12,"encoder":"906266229732","distractor":"906266289732","target":"absent","response":"present","rt":"5357","correct":false,"confidence":3},{"trial_n":119,"span":11,"encoder":"55427874939","distractor":"55426874939","target":"present","response":"absent","rt":"4444","correct":false,"confidence":2},{"trial_n":120,"span":10,"encoder":"1776255830","distractor":"1776255820","target":"present","response":"present","rt":"3225.9999999998","correct":true,"confidence":5},{"trial_n":121,"span":10,"encoder":"4877179307","distractor":"4877179507","target":"present","response":"present","rt":"4943.9999999998","correct":true,"confidence":3},{"trial_n":122,"span":11,"encoder":"01807995708","distractor":"01807965708","target":"present","response":"absent","rt":"5855","correct":false,"confidence":1},{"trial_n":123,"span":10,"encoder":"4939247514","distractor":"4939249514","target":"absent","response":"absent","rt":"3901","correct":true,"confidence":4},{"trial_n":124,"span":10,"encoder":"6572014836","distractor":"6574014836","target":"present","response":"absent","rt":"2931","correct":false,"confidence":3},{"trial_n":125,"span":9,"encoder":"325720683","distractor":"325720083","target":"present","response":"present","rt":"4276","correct":true,"confidence":2},{"trial_n":126,"span":9,"encoder":"764716985","distractor":"064716985","target":"present","response":"present","rt":"5590","correct":true,"confidence":3},{"trial_n":127,"span":10,"encoder":"5690174329","distractor":"7690174329","target":"absent","response":"present","rt":"5279","correct":false,"confidence":4},{"trial_n":128,"span":9,"encoder":"573548604","distractor":"573542604","target":"present","response":"present","rt":"3413","correct":true,"confidence":3},{"trial_n":129,"span":9,"encoder":"047775861","distractor":"047375861","target":"absent","response":"present","rt":"4646.9999999998","correct":false,"confidence":3},{"trial_n":130,"span":8,"encoder":"10750086","distractor":"16750086","target":"present","response":"present","rt":"5841.9999999998","correct":true,"confidence":3},{"trial_n":131,"span":8,"encoder":"57291106","distractor":"57291606","target":"present","response":"absent","rt":"6281","correct":false,"confidence":3},{"trial_n":132,"span":7,"encoder":"6115726","distractor":"6115722","target":"absent","response":"absent","rt":"4380","correct":true,"confidence":5},{"trial_n":133,"span":7,"encoder":"1841754","distractor":"1848754","target":"absent","response":"absent","rt":"5699","correct":true,"confidence":4},{"trial_n":134,"span":8,"encoder":"72373127","distractor":"70373127","target":"absent","response":"absent","rt":"8023","correct":true,"confidence":2},{"trial_n":135,"span":8,"encoder":"57000531","distractor":"57000831","target":"absent","response":"absent","rt":"4995","correct":true,"confidence":3},{"trial_n":136,"span":9,"encoder":"215996124","distractor":"215996144","target":"present","response":"present","rt":"3307","correct":true,"confidence":5},{"trial_n":137,"span":9,"encoder":"619946524","distractor":"619947524","target":"absent","response":"present","rt":"5416","correct":false,"confidence":4},{"trial_n":138,"span":8,"encoder":"82849405","distractor":"80849405","target":"absent","response":"present","rt":"4104","correct":false,"confidence":1},{"trial_n":139,"span":7,"encoder":"3916571","distractor":"3316571","target":"absent","response":"absent","rt":"4909.9999999998","correct":true,"confidence":3},{"trial_n":140,"span":7,"encoder":"1165407","distractor":"1125407","target":"present","response":"present","rt":"4653","correct":true,"confidence":5}]