[{"trial_n":1,"n_dots":4.25,"target":"right","response":"right","rt":32842,"correct":true,"confidence":-1},{"trial_n":2,"n_dots":4.25,"target":"left","response":"left","rt":2423,"correct":true,"confidence":-1},{"trial_n":3,"n_dots":3.85,"target":"left","response":"right","rt":1271,"correct":false,"confidence":-1},{"trial_n":4,"n_dots":4.25,"target":"right","response":"right","rt":886.00000000001,"correct":true,"confidence":-1},{"trial_n":5,"n_dots":4.25,"target":"left","response":"left","rt":655,"correct":true,"confidence":-1},{"trial_n":6,"n_dots":3.85,"target":"right","response":"right","rt":439,"correct":true,"confidence":-1},{"trial_n":7,"n_dots":3.85,"target":"right","response":"right","rt":520,"correct":true,"confidence":-1},{"trial_n":8,"n_dots":3.65,"target":"left","response":"left","rt":573,"correct":true,"confidence":-1},{"trial_n":9,"n_dots":3.65,"target":"right","response":"left","rt":672,"correct":false,"confidence":-1},{"trial_n":10,"n_dots":3.85,"target":"left","response":"right","rt":724,"correct":false,"confidence":-1},{"trial_n":11,"n_dots":4.05,"target":"left","response":"left","rt":687,"correct":true,"confidence":-1},{"trial_n":12,"n_dots":4.05,"target":"right","response":"left","rt":20699,"correct":false,"confidence":-1},{"trial_n":13,"n_dots":4.15,"target":"right","response":"right","rt":593,"correct":true,"confidence":-1},{"trial_n":14,"n_dots":4.15,"target":"left","response":"left","rt":435.00000000001,"correct":true,"confidence":-1},{"trial_n":15,"n_dots":4.05,"target":"left","response":"left","rt":410,"correct":true,"confidence":-1},{"trial_n":16,"n_dots":4.05,"target":"right","response":"right","rt":388,"correct":true,"confidence":-1},{"trial_n":17,"n_dots":3.95,"target":"left","response":"left","rt":438,"correct":true,"confidence":-1},{"trial_n":18,"n_dots":3.95,"target":"left","response":"left","rt":321,"correct":true,"confidence":-1},{"trial_n":19,"n_dots":3.85,"target":"left","response":"left","rt":657.00000000001,"correct":true,"confidence":-1},{"trial_n":20,"n_dots":3.85,"target":"left","response":"left","rt":569,"correct":true,"confidence":-1},{"trial_n":21,"n_dots":3.75,"target":"right","response":"right","rt":757,"correct":true,"confidence":3},{"trial_n":22,"n_dots":3.75,"target":"left","response":"right","rt":687.99999999999,"correct":false,"confidence":4},{"trial_n":23,"n_dots":3.85,"target":"right","response":"right","rt":1038,"correct":true,"confidence":1},{"trial_n":24,"n_dots":3.85,"target":"left","response":"left","rt":520,"correct":true,"confidence":4},{"trial_n":25,"n_dots":3.75,"target":"left","response":"left","rt":772,"correct":true,"confidence":3},{"trial_n":26,"n_dots":3.75,"target":"left","response":"right","rt":755,"correct":false,"confidence":4},{"trial_n":27,"n_dots":3.85,"target":"left","response":"left","rt":838,"correct":true,"confidence":4},{"trial_n":28,"n_dots":3.85,"target":"right","response":"right","rt":686,"correct":true,"confidence":2},{"trial_n":29,"n_dots":3.75,"target":"right","response":"right","rt":705,"correct":true,"confidence":4},{"trial_n":30,"n_dots":3.75,"target":"left","response":"left","rt":852,"correct":true,"confidence":3},{"trial_n":31,"n_dots":3.65,"target":"right","response":"right","rt":789,"correct":true,"confidence":2},{"trial_n":32,"n_dots":3.65,"target":"left","response":"left","rt":740,"correct":true,"confidence":4},{"trial_n":33,"n_dots":3.55,"target":"right","response":"right","rt":555,"correct":true,"confidence":4},{"trial_n":34,"n_dots":3.55,"target":"right","response":"right","rt":505,"correct":true,"confidence":3},{"trial_n":35,"n_dots":3.45,"target":"left","response":"left","rt":834.99999999997,"correct":true,"confidence":2},{"trial_n":36,"n_dots":3.45,"target":"right","response":"right","rt":705,"correct":true,"confidence":4},{"trial_n":37,"n_dots":3.35,"target":"right","response":"right","rt":659,"correct":true,"confidence":3},{"trial_n":38,"n_dots":3.35,"target":"right","response":"left","rt":840,"correct":false,"confidence":2},{"trial_n":39,"n_dots":3.45,"target":"left","response":"right","rt":972.99999999997,"correct":false,"confidence":1},{"trial_n":40,"n_dots":3.55,"target":"right","response":"right","rt":1084,"correct":true,"confidence":3},{"trial_n":41,"n_dots":3.55,"target":"right","response":"right","rt":1408,"correct":true,"confidence":3},{"trial_n":42,"n_dots":3.45,"target":"left","response":"left","rt":815,"correct":true,"confidence":4},{"trial_n":43,"n_dots":3.45,"target":"right","response":"right","rt":790,"correct":true,"confidence":3},{"trial_n":44,"n_dots":3.35,"target":"left","response":"left","rt":1643,"correct":true,"confidence":1},{"trial_n":45,"n_dots":3.35,"target":"right","response":"right","rt":705,"correct":true,"confidence":2},{"trial_n":46,"n_dots":3.25,"target":"right","response":"right","rt":906.00000000012,"correct":true,"confidence":3},{"trial_n":47,"n_dots":3.25,"target":"right","response":"right","rt":1539,"correct":true,"confidence":4},{"trial_n":48,"n_dots":3.15,"target":"left","response":"left","rt":736,"correct":true,"confidence":4},{"trial_n":49,"n_dots":3.15,"target":"left","response":"left","rt":740,"correct":true,"confidence":3},{"trial_n":50,"n_dots":3.05,"target":"left","response":"left","rt":769,"correct":true,"confidence":5},{"trial_n":51,"n_dots":3.05,"target":"left","response":"right","rt":956,"correct":false,"confidence":3},{"trial_n":52,"n_dots":3.15,"target":"right","response":"right","rt":1151,"correct":true,"confidence":2},{"trial_n":53,"n_dots":3.15,"target":"right","response":"right","rt":618,"correct":true,"confidence":4},{"trial_n":54,"n_dots":3.05,"target":"left","response":"left","rt":753,"correct":true,"confidence":3},{"trial_n":55,"n_dots":3.05,"target":"left","response":"left","rt":524,"correct":true,"confidence":4},{"trial_n":56,"n_dots":2.95,"target":"right","response":"right","rt":7255,"correct":true,"confidence":1},{"trial_n":57,"n_dots":2.95,"target":"right","response":"right","rt":672,"correct":true,"confidence":3},{"trial_n":58,"n_dots":2.85,"target":"right","response":"left","rt":738,"correct":false,"confidence":2},{"trial_n":59,"n_dots":2.95,"target":"left","response":"left","rt":6207,"correct":true,"confidence":3},{"trial_n":60,"n_dots":2.95,"target":"left","response":"right","rt":670,"correct":false,"confidence":3},{"trial_n":61,"n_dots":3.05,"target":"left","response":"left","rt":508,"correct":true,"confidence":4},{"trial_n":62,"n_dots":3.05,"target":"right","response":"right","rt":285,"correct":true,"confidence":4},{"trial_n":63,"n_dots":2.95,"target":"left","response":"left","rt":423,"correct":true,"confidence":4},{"trial_n":64,"n_dots":2.95,"target":"left","response":"left","rt":571,"correct":true,"confidence":3},{"trial_n":65,"n_dots":2.85,"target":"left","response":"left","rt":539,"correct":true,"confidence":3},{"trial_n":66,"n_dots":2.85,"target":"right","response":"right","rt":557,"correct":true,"confidence":2},{"trial_n":67,"n_dots":2.75,"target":"right","response":"left","rt":611.00000000023,"correct":false,"confidence":3},{"trial_n":68,"n_dots":2.85,"target":"right","response":"right","rt":501.00000000023,"correct":true,"confidence":2},{"trial_n":69,"n_dots":2.85,"target":"right","response":"right","rt":53322,"correct":true,"confidence":1},{"trial_n":70,"n_dots":2.75,"target":"left","response":"left","rt":636,"correct":true,"confidence":3},{"trial_n":71,"n_dots":2.75,"target":"right","response":"right","rt":271,"correct":true,"confidence":3},{"trial_n":72,"n_dots":2.65,"target":"left","response":"left","rt":659,"correct":true,"confidence":4},{"trial_n":73,"n_dots":2.65,"target":"left","response":"left","rt":624,"correct":true,"confidence":4},{"trial_n":74,"n_dots":2.55,"target":"right","response":"right","rt":538,"correct":true,"confidence":2},{"trial_n":75,"n_dots":2.55,"target":"right","response":"right","rt":569,"correct":true,"confidence":3},{"trial_n":76,"n_dots":2.45,"target":"right","response":"left","rt":556.00000000023,"correct":false,"confidence":3},{"trial_n":77,"n_dots":2.55,"target":"right","response":"right","rt":856,"correct":true,"confidence":2},{"trial_n":78,"n_dots":2.55,"target":"right","response":"left","rt":919.00000000023,"correct":false,"confidence":3},{"trial_n":79,"n_dots":2.65,"target":"right","response":"right","rt":641,"correct":true,"confidence":4},{"trial_n":80,"n_dots":2.65,"target":"left","response":"left","rt":625.99999999977,"correct":true,"confidence":3},{"trial_n":81,"n_dots":2.55,"target":"left","response":"right","rt":521,"correct":false,"confidence":3},{"trial_n":82,"n_dots":2.65,"target":"right","response":"left","rt":405.99999999977,"correct":false,"confidence":2},{"trial_n":83,"n_dots":2.75,"target":"right","response":"left","rt":1027.0000000002,"correct":false,"confidence":3},{"trial_n":84,"n_dots":2.85,"target":"right","response":"right","rt":123,"correct":true,"confidence":3},{"trial_n":85,"n_dots":2.85,"target":"right","response":"left","rt":906,"correct":false,"confidence":1},{"trial_n":86,"n_dots":2.95,"target":"left","response":"left","rt":538,"correct":true,"confidence":3},{"trial_n":87,"n_dots":2.95,"target":"right","response":"right","rt":874,"correct":true,"confidence":3},{"trial_n":88,"n_dots":2.85,"target":"right","response":"left","rt":359,"correct":false,"confidence":4},{"trial_n":89,"n_dots":2.95,"target":"left","response":"left","rt":587,"correct":true,"confidence":2},{"trial_n":90,"n_dots":2.95,"target":"right","response":"right","rt":1317,"correct":true,"confidence":1},{"trial_n":91,"n_dots":2.85,"target":"right","response":"right","rt":438,"correct":true,"confidence":4},{"trial_n":92,"n_dots":2.85,"target":"right","response":"right","rt":340,"correct":true,"confidence":4},{"trial_n":93,"n_dots":2.75,"target":"left","response":"left","rt":320.99999999977,"correct":true,"confidence":4},{"trial_n":94,"n_dots":2.75,"target":"left","response":"right","rt":212,"correct":false,"confidence":2},{"trial_n":95,"n_dots":2.85,"target":"right","response":"left","rt":541.00000000023,"correct":false,"confidence":4},{"trial_n":96,"n_dots":2.95,"target":"left","response":"left","rt":541,"correct":true,"confidence":3},{"trial_n":97,"n_dots":2.95,"target":"left","response":"left","rt":812,"correct":true,"confidence":3},{"trial_n":98,"n_dots":2.85,"target":"right","response":"right","rt":794,"correct":true,"confidence":4},{"trial_n":99,"n_dots":2.85,"target":"left","response":"right","rt":357,"correct":false,"confidence":3},{"trial_n":100,"n_dots":2.95,"target":"left","response":"left","rt":8285.9999999998,"correct":true,"confidence":1},{"trial_n":101,"n_dots":2.95,"target":"left","response":"left","rt":703,"correct":true,"confidence":3},{"trial_n":102,"n_dots":2.85,"target":"left","response":"right","rt":640,"correct":false,"confidence":1},{"trial_n":103,"n_dots":2.95,"target":"left","response":"left","rt":460,"correct":true,"confidence":4},{"trial_n":104,"n_dots":2.95,"target":"left","response":"right","rt":1618,"correct":false,"confidence":1},{"trial_n":105,"n_dots":3.05,"target":"right","response":"right","rt":569,"correct":true,"confidence":3},{"trial_n":106,"n_dots":3.05,"target":"left","response":"left","rt":922,"correct":true,"confidence":4},{"trial_n":107,"n_dots":2.95,"target":"right","response":"right","rt":1420,"correct":true,"confidence":1},{"trial_n":108,"n_dots":2.95,"target":"right","response":"right","rt":653,"correct":true,"confidence":3},{"trial_n":109,"n_dots":2.85,"target":"right","response":"right","rt":6238.9999999998,"correct":true,"confidence":1},{"trial_n":110,"n_dots":2.85,"target":"left","response":"left","rt":539,"correct":true,"confidence":3},{"trial_n":111,"n_dots":2.75,"target":"right","response":"right","rt":275,"correct":true,"confidence":4},{"trial_n":112,"n_dots":2.75,"target":"left","response":"left","rt":658,"correct":true,"confidence":3},{"trial_n":113,"n_dots":2.65,"target":"left","response":"left","rt":308,"correct":true,"confidence":3},{"trial_n":114,"n_dots":2.65,"target":"left","response":"right","rt":590,"correct":false,"confidence":1},{"trial_n":115,"n_dots":2.75,"target":"right","response":"left","rt":489.00000000023,"correct":false,"confidence":3},{"trial_n":116,"n_dots":2.85,"target":"left","response":"right","rt":340.99999999977,"correct":false,"confidence":3},{"trial_n":117,"n_dots":2.95,"target":"left","response":"left","rt":273.99999999977,"correct":true,"confidence":2},{"trial_n":118,"n_dots":2.95,"target":"left","response":"left","rt":506,"correct":true,"confidence":3},{"trial_n":119,"n_dots":2.85,"target":"right","response":"right","rt":839,"correct":true,"confidence":4},{"trial_n":120,"n_dots":2.85,"target":"right","response":"left","rt":157,"correct":false,"confidence":3}]