[{"trial_n":1,"min":25,"max":230,"target":"present","response":"present","rt":3584,"correct":true,"confidence":-1},{"trial_n":2,"min":25,"max":230,"target":"present","response":"present","rt":1255,"correct":true,"confidence":-1},{"trial_n":3,"min":41,"max":214,"target":"absent","response":"absent","rt":835,"correct":true,"confidence":-1},{"trial_n":4,"min":41,"max":214,"target":"absent","response":"absent","rt":677,"correct":true,"confidence":-1},{"trial_n":5,"min":57,"max":198,"target":"present","response":"present","rt":831,"correct":true,"confidence":-1},{"trial_n":6,"min":57,"max":198,"target":"present","response":"present","rt":843,"correct":true,"confidence":-1},{"trial_n":7,"min":73,"max":182,"target":"absent","response":"absent","rt":628.99999999997,"correct":true,"confidence":-1},{"trial_n":8,"min":73,"max":182,"target":"absent","response":"absent","rt":644,"correct":true,"confidence":-1},{"trial_n":9,"min":89,"max":166,"target":"absent","response":"absent","rt":611,"correct":true,"confidence":-1},{"trial_n":10,"min":89,"max":166,"target":"absent","response":"absent","rt":544,"correct":true,"confidence":-1},{"trial_n":11,"min":97,"max":158,"target":"present","response":"present","rt":1230,"correct":true,"confidence":-1},{"trial_n":12,"min":97,"max":158,"target":"present","response":"absent","rt":578,"correct":false,"confidence":-1},{"trial_n":13,"min":89,"max":166,"target":"absent","response":"present","rt":825,"correct":false,"confidence":-1},{"trial_n":14,"min":81,"max":174,"target":"absent","response":"absent","rt":664,"correct":true,"confidence":-1},{"trial_n":15,"min":81,"max":174,"target":"present","response":"present","rt":994,"correct":true,"confidence":-1},{"trial_n":16,"min":89,"max":166,"target":"present","response":"absent","rt":724.99999999997,"correct":false,"confidence":-1},{"trial_n":17,"min":81,"max":174,"target":"absent","response":"absent","rt":778,"correct":true,"confidence":-1},{"trial_n":18,"min":81,"max":174,"target":"absent","response":"present","rt":-218245,"correct":false,"confidence":-1},{"trial_n":19,"min":73,"max":182,"target":"present","response":"present","rt":-221498,"correct":true,"confidence":-1},{"trial_n":20,"min":73,"max":182,"target":"absent","response":"absent","rt":-223009,"correct":true,"confidence":-1},{"trial_n":21,"min":77,"max":178,"target":"absent","response":"absent","rt":-232938,"correct":true,"confidence":2},{"trial_n":22,"min":77,"max":178,"target":"absent","response":"absent","rt":-242388,"correct":true,"confidence":3},{"trial_n":23,"min":81,"max":174,"target":"present","response":"absent","rt":-244902,"correct":false,"confidence":3},{"trial_n":24,"min":77,"max":178,"target":"absent","response":"absent","rt":619,"correct":true,"confidence":3},{"trial_n":25,"min":77,"max":178,"target":"absent","response":"absent","rt":769,"correct":true,"confidence":3},{"trial_n":26,"min":81,"max":174,"target":"absent","response":"absent","rt":1077,"correct":true,"confidence":2},{"trial_n":27,"min":81,"max":174,"target":"present","response":"present","rt":-255485,"correct":true,"confidence":3},{"trial_n":28,"min":85,"max":170,"target":"absent","response":"absent","rt":618,"correct":true,"confidence":3},{"trial_n":29,"min":85,"max":170,"target":"present","response":"absent","rt":787.99999999997,"correct":false,"confidence":2},{"trial_n":30,"min":81,"max":174,"target":"absent","response":"absent","rt":1331,"correct":true,"confidence":2},{"trial_n":31,"min":81,"max":174,"target":"absent","response":"absent","rt":-281132,"correct":true,"confidence":2},{"trial_n":32,"min":83,"max":172,"target":"absent","response":"absent","rt":-284926,"correct":true,"confidence":2},{"trial_n":33,"min":83,"max":172,"target":"present","response":"present","rt":-288513,"correct":true,"confidence":3},{"trial_n":34,"min":85,"max":170,"target":"absent","response":"absent","rt":-291885,"correct":true,"confidence":1},{"trial_n":35,"min":85,"max":170,"target":"present","response":"absent","rt":-293738,"correct":false,"confidence":1},{"trial_n":36,"min":83,"max":172,"target":"present","response":"present","rt":-299282,"correct":true,"confidence":3},{"trial_n":37,"min":83,"max":172,"target":"absent","response":"absent","rt":-302414,"correct":true,"confidence":2},{"trial_n":38,"min":85,"max":170,"target":"present","response":"absent","rt":-306016,"correct":false,"confidence":2},{"trial_n":39,"min":83,"max":172,"target":"present","response":"present","rt":-309169,"correct":true,"confidence":2},{"trial_n":40,"min":83,"max":172,"target":"present","response":"present","rt":-312214,"correct":true,"confidence":2},{"trial_n":41,"min":84,"max":171,"target":"present","response":"present","rt":-320640,"correct":true,"confidence":4},{"trial_n":42,"min":84,"max":171,"target":"present","response":"absent","rt":-324106,"correct":false,"confidence":2},{"trial_n":43,"min":83,"max":172,"target":"present","response":"absent","rt":-326408,"correct":false,"confidence":3},{"trial_n":44,"min":82,"max":173,"target":"present","response":"absent","rt":-329013,"correct":false,"confidence":3},{"trial_n":45,"min":81,"max":174,"target":"present","response":"present","rt":-332419,"correct":true,"confidence":3},{"trial_n":46,"min":81,"max":174,"target":"absent","response":"absent","rt":-334998,"correct":true,"confidence":3},{"trial_n":47,"min":82,"max":173,"target":"present","response":"present","rt":-337268,"correct":true,"confidence":3},{"trial_n":48,"min":82,"max":173,"target":"present","response":"absent","rt":-339487,"correct":false,"confidence":3},{"trial_n":49,"min":81,"max":174,"target":"present","response":"present","rt":-342529,"correct":true,"confidence":2},{"trial_n":50,"min":81,"max":174,"target":"absent","response":"absent","rt":-344942,"correct":true,"confidence":3},{"trial_n":51,"min":82,"max":173,"target":"absent","response":"absent","rt":-352266,"correct":true,"confidence":2},{"trial_n":52,"min":82,"max":173,"target":"absent","response":"absent","rt":-354782,"correct":true,"confidence":2},{"trial_n":53,"min":83,"max":172,"target":"absent","response":"absent","rt":-358068,"correct":true,"confidence":2},{"trial_n":54,"min":83,"max":172,"target":"present","response":"present","rt":-359882,"correct":true,"confidence":2},{"trial_n":55,"min":84,"max":171,"target":"present","response":"absent","rt":-361726,"correct":false,"confidence":2},{"trial_n":56,"min":83,"max":172,"target":"present","response":"absent","rt":-363361,"correct":false,"confidence":2},{"trial_n":57,"min":82,"max":173,"target":"absent","response":"absent","rt":-366244,"correct":true,"confidence":2},{"trial_n":58,"min":82,"max":173,"target":"absent","response":"absent","rt":-368402,"correct":true,"confidence":2},{"trial_n":59,"min":83,"max":172,"target":"present","response":"present","rt":-370238,"correct":true,"confidence":2},{"trial_n":60,"min":83,"max":172,"target":"absent","response":"absent","rt":-372167,"correct":true,"confidence":2},{"trial_n":61,"min":84,"max":171,"target":"absent","response":"absent","rt":-375676,"correct":true,"confidence":2},{"trial_n":62,"min":84,"max":171,"target":"absent","response":"absent","rt":-378158,"correct":true,"confidence":3},{"trial_n":63,"min":85,"max":170,"target":"present","response":"present","rt":-380345,"correct":true,"confidence":1},{"trial_n":64,"min":85,"max":170,"target":"present","response":"present","rt":-382266,"correct":true,"confidence":2},{"trial_n":65,"min":86,"max":169,"target":"present","response":"present","rt":-384555,"correct":true,"confidence":2},{"trial_n":66,"min":86,"max":169,"target":"present","response":"absent","rt":-386904,"correct":false,"confidence":2},{"trial_n":67,"min":85,"max":170,"target":"absent","response":"absent","rt":-388592,"correct":true,"confidence":2},{"trial_n":68,"min":85,"max":170,"target":"present","response":"present","rt":-390168,"correct":true,"confidence":2},{"trial_n":69,"min":86,"max":169,"target":"absent","response":"absent","rt":-392753,"correct":true,"confidence":2},{"trial_n":70,"min":86,"max":169,"target":"present","response":"absent","rt":-394621,"correct":false,"confidence":2},{"trial_n":71,"min":41,"max":214,"target":"present","response":"present","rt":-413431,"correct":true,"confidence":-1},{"trial_n":72,"min":41,"max":214,"target":"present","response":"present","rt":-416731,"correct":true,"confidence":-1},{"trial_n":73,"min":57,"max":198,"target":"absent","response":"absent","rt":-418918,"correct":true,"confidence":-1},{"trial_n":74,"min":57,"max":198,"target":"absent","response":"absent","rt":-421213,"correct":true,"confidence":-1},{"trial_n":75,"min":73,"max":182,"target":"present","response":"present","rt":-422968,"correct":true,"confidence":-1},{"trial_n":76,"min":73,"max":182,"target":"absent","response":"absent","rt":-424560,"correct":true,"confidence":-1},{"trial_n":77,"min":89,"max":166,"target":"present","response":"present","rt":-426444,"correct":true,"confidence":-1},{"trial_n":78,"min":89,"max":166,"target":"absent","response":"absent","rt":-428012,"correct":true,"confidence":-1},{"trial_n":79,"min":105,"max":150,"target":"present","response":"present","rt":-430144,"correct":true,"confidence":-1},{"trial_n":80,"min":105,"max":150,"target":"absent","response":"absent","rt":-431875,"correct":true,"confidence":-1},{"trial_n":81,"min":113,"max":142,"target":"absent","response":"absent","rt":-434217,"correct":true,"confidence":-1},{"trial_n":82,"min":113,"max":142,"target":"absent","response":"absent","rt":-436275,"correct":true,"confidence":-1},{"trial_n":83,"min":121,"max":134,"target":"present","response":"present","rt":-438223,"correct":true,"confidence":-1},{"trial_n":84,"min":121,"max":134,"target":"absent","response":"present","rt":-440208,"correct":false,"confidence":-1},{"trial_n":85,"min":121,"max":134,"target":"present","response":"present","rt":-442046,"correct":true,"confidence":-1},{"trial_n":86,"min":121,"max":134,"target":"present","response":"absent","rt":-444395,"correct":false,"confidence":-1},{"trial_n":87,"min":121,"max":134,"target":"present","response":"present","rt":-446642,"correct":true,"confidence":-1},{"trial_n":88,"min":121,"max":134,"target":"present","response":"present","rt":-448336,"correct":true,"confidence":-1},{"trial_n":89,"min":121,"max":134,"target":"present","response":"present","rt":-450175,"correct":true,"confidence":-1},{"trial_n":90,"min":121,"max":134,"target":"absent","response":"present","rt":-451770,"correct":false,"confidence":-1},{"trial_n":91,"min":117,"max":138,"target":"absent","response":"present","rt":-461208,"correct":false,"confidence":3},{"trial_n":92,"min":113,"max":142,"target":"present","response":"present","rt":-465405,"correct":true,"confidence":3},{"trial_n":93,"min":113,"max":142,"target":"absent","response":"present","rt":-468145,"correct":false,"confidence":3},{"trial_n":94,"min":109,"max":146,"target":"present","response":"present","rt":-471029,"correct":true,"confidence":3},{"trial_n":95,"min":109,"max":146,"target":"absent","response":"present","rt":-474045,"correct":false,"confidence":3},{"trial_n":96,"min":105,"max":150,"target":"absent","response":"absent","rt":-476861,"correct":true,"confidence":2},{"trial_n":97,"min":105,"max":150,"target":"absent","response":"present","rt":-479696,"correct":false,"confidence":1},{"trial_n":98,"min":101,"max":154,"target":"absent","response":"present","rt":-481874,"correct":false,"confidence":2},{"trial_n":99,"min":97,"max":158,"target":"present","response":"present","rt":-484226,"correct":true,"confidence":2},{"trial_n":100,"min":97,"max":158,"target":"absent","response":"present","rt":-486775,"correct":false,"confidence":2},{"trial_n":101,"min":95,"max":160,"target":"present","response":"present","rt":-491623,"correct":true,"confidence":2},{"trial_n":102,"min":95,"max":160,"target":"present","response":"absent","rt":-494247,"correct":false,"confidence":2},{"trial_n":103,"min":93,"max":162,"target":"absent","response":"absent","rt":-496231,"correct":true,"confidence":2},{"trial_n":104,"min":93,"max":162,"target":"absent","response":"absent","rt":-498106,"correct":true,"confidence":2},{"trial_n":105,"min":95,"max":160,"target":"present","response":"absent","rt":-500109,"correct":false,"confidence":2},{"trial_n":106,"min":93,"max":162,"target":"absent","response":"absent","rt":-502501,"correct":true,"confidence":2},{"trial_n":107,"min":93,"max":162,"target":"absent","response":"present","rt":-505241,"correct":false,"confidence":2},{"trial_n":108,"min":91,"max":164,"target":"present","response":"present","rt":-507057,"correct":true,"confidence":2},{"trial_n":109,"min":91,"max":164,"target":"absent","response":"present","rt":-509171,"correct":false,"confidence":2},{"trial_n":110,"min":89,"max":166,"target":"absent","response":"absent","rt":-511532,"correct":true,"confidence":1},{"trial_n":111,"min":89,"max":166,"target":"present","response":"present","rt":-516796,"correct":true,"confidence":1},{"trial_n":112,"min":90,"max":165,"target":"absent","response":"absent","rt":-518706,"correct":true,"confidence":1},{"trial_n":113,"min":90,"max":165,"target":"present","response":"present","rt":-520586,"correct":true,"confidence":1},{"trial_n":114,"min":91,"max":164,"target":"present","response":"present","rt":-522964,"correct":true,"confidence":1},{"trial_n":115,"min":91,"max":164,"target":"present","response":"absent","rt":-525060,"correct":false,"confidence":1},{"trial_n":116,"min":90,"max":165,"target":"present","response":"present","rt":-527042,"correct":true,"confidence":1},{"trial_n":117,"min":90,"max":165,"target":"present","response":"absent","rt":-529465,"correct":false,"confidence":1},{"trial_n":118,"min":89,"max":166,"target":"present","response":"absent","rt":-531258,"correct":false,"confidence":1},{"trial_n":119,"min":88,"max":167,"target":"present","response":"absent","rt":-533057,"correct":false,"confidence":1},{"trial_n":120,"min":87,"max":168,"target":"absent","response":"absent","rt":-534717,"correct":true,"confidence":1},{"trial_n":121,"min":87,"max":168,"target":"absent","response":"absent","rt":-542404,"correct":true,"confidence":2},{"trial_n":122,"min":88,"max":167,"target":"present","response":"present","rt":-545580,"correct":true,"confidence":2},{"trial_n":123,"min":88,"max":167,"target":"absent","response":"absent","rt":-547619,"correct":true,"confidence":2},{"trial_n":124,"min":89,"max":166,"target":"present","response":"present","rt":-549970,"correct":true,"confidence":2},{"trial_n":125,"min":89,"max":166,"target":"absent","response":"absent","rt":-552973,"correct":true,"confidence":1},{"trial_n":126,"min":90,"max":165,"target":"present","response":"present","rt":-555515,"correct":true,"confidence":2},{"trial_n":127,"min":90,"max":165,"target":"absent","response":"present","rt":-559332,"correct":false,"confidence":2},{"trial_n":128,"min":89,"max":166,"target":"absent","response":"present","rt":-562142,"correct":false,"confidence":1},{"trial_n":129,"min":88,"max":167,"target":"absent","response":"absent","rt":-564733,"correct":true,"confidence":1},{"trial_n":130,"min":88,"max":167,"target":"absent","response":"absent","rt":-566297,"correct":true,"confidence":1},{"trial_n":131,"min":89,"max":166,"target":"present","response":"present","rt":-570719,"correct":true,"confidence":2},{"trial_n":132,"min":89,"max":166,"target":"present","response":"present","rt":-573379,"correct":true,"confidence":3},{"trial_n":133,"min":90,"max":165,"target":"absent","response":"present","rt":-576866,"correct":false,"confidence":2},{"trial_n":134,"min":89,"max":166,"target":"present","response":"present","rt":-580157,"correct":true,"confidence":3},{"trial_n":135,"min":89,"max":166,"target":"present","response":"present","rt":-583165,"correct":true,"confidence":2},{"trial_n":136,"min":90,"max":165,"target":"absent","response":"absent","rt":-586061,"correct":true,"confidence":2},{"trial_n":137,"min":90,"max":165,"target":"present","response":"present","rt":-588579,"correct":true,"confidence":2},{"trial_n":138,"min":91,"max":164,"target":"present","response":"present","rt":-591031,"correct":true,"confidence":2},{"trial_n":139,"min":91,"max":164,"target":"absent","response":"present","rt":-593943,"correct":false,"confidence":2},{"trial_n":140,"min":90,"max":165,"target":"present","response":"absent","rt":-596255,"correct":false,"confidence":2}]