[{"trial_n":1,"n_dots":4.25,"target":"left","response":"left","rt":8120.9999999999,"correct":true,"confidence":-1},{"trial_n":2,"n_dots":4.25,"target":"left","response":"left","rt":366,"correct":true,"confidence":-1},{"trial_n":3,"n_dots":3.85,"target":"left","response":"right","rt":322,"correct":false,"confidence":-1},{"trial_n":4,"n_dots":4.25,"target":"right","response":"right","rt":1761,"correct":true,"confidence":-1},{"trial_n":5,"n_dots":4.25,"target":"right","response":"right","rt":864.00000000006,"correct":true,"confidence":-1},{"trial_n":6,"n_dots":3.85,"target":"right","response":"left","rt":1250,"correct":false,"confidence":-1},{"trial_n":7,"n_dots":4.25,"target":"right","response":"right","rt":604,"correct":true,"confidence":-1},{"trial_n":8,"n_dots":4.25,"target":"right","response":"right","rt":222.00000000006,"correct":true,"confidence":-1},{"trial_n":9,"n_dots":4.05,"target":"right","response":"left","rt":224,"correct":false,"confidence":-1},{"trial_n":10,"n_dots":4.25,"target":"left","response":"left","rt":335.00000000006,"correct":true,"confidence":-1},{"trial_n":11,"n_dots":4.25,"target":"left","response":"left","rt":266,"correct":true,"confidence":-1},{"trial_n":12,"n_dots":4.05,"target":"left","response":"left","rt":87.000000000058,"correct":true,"confidence":-1},{"trial_n":13,"n_dots":4.05,"target":"right","response":"right","rt":256,"correct":true,"confidence":-1},{"trial_n":14,"n_dots":3.95,"target":"left","response":"left","rt":233,"correct":true,"confidence":-1},{"trial_n":15,"n_dots":3.95,"target":"left","response":"left","rt":784,"correct":true,"confidence":-1},{"trial_n":16,"n_dots":3.85,"target":"left","response":"left","rt":470,"correct":true,"confidence":-1},{"trial_n":17,"n_dots":3.85,"target":"right","response":"right","rt":132,"correct":true,"confidence":-1},{"trial_n":18,"n_dots":3.75,"target":"left","response":"left","rt":211,"correct":true,"confidence":-1},{"trial_n":19,"n_dots":3.75,"target":"left","response":"left","rt":976,"correct":true,"confidence":-1},{"trial_n":20,"n_dots":3.65,"target":"right","response":"right","rt":121,"correct":true,"confidence":-1},{"trial_n":21,"n_dots":3.65,"target":"left","response":"left","rt":536,"correct":true,"confidence":4},{"trial_n":22,"n_dots":3.55,"target":"left","response":"left","rt":94,"correct":true,"confidence":5},{"trial_n":23,"n_dots":3.55,"target":"left","response":"left","rt":531,"correct":true,"confidence":5},{"trial_n":24,"n_dots":3.45,"target":"right","response":"right","rt":97,"correct":true,"confidence":5},{"trial_n":25,"n_dots":3.45,"target":"left","response":"left","rt":190,"correct":true,"confidence":5},{"trial_n":26,"n_dots":3.35,"target":"right","response":"left","rt":412,"correct":false,"confidence":5},{"trial_n":27,"n_dots":3.45,"target":"right","response":"right","rt":499,"correct":true,"confidence":5},{"trial_n":28,"n_dots":3.45,"target":"left","response":"left","rt":96,"correct":true,"confidence":5},{"trial_n":29,"n_dots":3.35,"target":"left","response":"left","rt":440,"correct":true,"confidence":5},{"trial_n":30,"n_dots":3.35,"target":"right","response":"left","rt":121.99999999994,"correct":false,"confidence":4},{"trial_n":31,"n_dots":3.45,"target":"left","response":"left","rt":112,"correct":true,"confidence":5},{"trial_n":32,"n_dots":3.45,"target":"left","response":"left","rt":258.99999999994,"correct":true,"confidence":5},{"trial_n":33,"n_dots":3.35,"target":"left","response":"left","rt":185.99999999994,"correct":true,"confidence":5},{"trial_n":34,"n_dots":3.35,"target":"left","response":"left","rt":234,"correct":true,"confidence":5},{"trial_n":35,"n_dots":3.25,"target":"left","response":"left","rt":159.99999999994,"correct":true,"confidence":4},{"trial_n":36,"n_dots":3.25,"target":"left","response":"left","rt":304,"correct":true,"confidence":5},{"trial_n":37,"n_dots":3.15,"target":"right","response":"left","rt":150,"correct":false,"confidence":4},{"trial_n":38,"n_dots":3.25,"target":"left","response":"right","rt":1043,"correct":false,"confidence":4},{"trial_n":39,"n_dots":3.35,"target":"left","response":"left","rt":780.99999999994,"correct":true,"confidence":5},{"trial_n":40,"n_dots":3.35,"target":"right","response":"left","rt":317,"correct":false,"confidence":5},{"trial_n":41,"n_dots":3.45,"target":"right","response":"right","rt":739,"correct":true,"confidence":5},{"trial_n":42,"n_dots":3.45,"target":"right","response":"right","rt":765,"correct":true,"confidence":5},{"trial_n":43,"n_dots":3.35,"target":"left","response":"left","rt":400.00000000012,"correct":true,"confidence":5},{"trial_n":44,"n_dots":3.35,"target":"left","response":"left","rt":171,"correct":true,"confidence":5},{"trial_n":45,"n_dots":3.25,"target":"left","response":"left","rt":117,"correct":true,"confidence":5},{"trial_n":46,"n_dots":3.25,"target":"left","response":"left","rt":193,"correct":true,"confidence":5},{"trial_n":47,"n_dots":3.15,"target":"right","response":"right","rt":445.99999999988,"correct":true,"confidence":5},{"trial_n":48,"n_dots":3.15,"target":"right","response":"left","rt":122,"correct":false,"confidence":5},{"trial_n":49,"n_dots":3.25,"target":"left","response":"left","rt":398,"correct":true,"confidence":4},{"trial_n":50,"n_dots":3.25,"target":"left","response":"left","rt":158,"correct":true,"confidence":5},{"trial_n":51,"n_dots":3.15,"target":"left","response":"right","rt":266,"correct":false,"confidence":3},{"trial_n":52,"n_dots":3.25,"target":"right","response":"right","rt":303,"correct":true,"confidence":5},{"trial_n":53,"n_dots":3.25,"target":"right","response":"left","rt":126,"correct":false,"confidence":5},{"trial_n":54,"n_dots":3.35,"target":"left","response":"right","rt":793,"correct":false,"confidence":5},{"trial_n":55,"n_dots":3.45,"target":"left","response":"left","rt":155,"correct":true,"confidence":5},{"trial_n":56,"n_dots":3.45,"target":"right","response":"right","rt":780,"correct":true,"confidence":4},{"trial_n":57,"n_dots":3.35,"target":"right","response":"left","rt":142.99999999988,"correct":false,"confidence":3},{"trial_n":58,"n_dots":3.45,"target":"right","response":"left","rt":666,"correct":false,"confidence":5},{"trial_n":59,"n_dots":3.55,"target":"right","response":"right","rt":254,"correct":true,"confidence":5},{"trial_n":60,"n_dots":3.55,"target":"right","response":"right","rt":231,"correct":true,"confidence":5},{"trial_n":61,"n_dots":3.45,"target":"right","response":"right","rt":319,"correct":true,"confidence":5},{"trial_n":62,"n_dots":3.45,"target":"left","response":"left","rt":250,"correct":true,"confidence":5},{"trial_n":63,"n_dots":3.35,"target":"right","response":"right","rt":226,"correct":true,"confidence":5},{"trial_n":64,"n_dots":3.35,"target":"left","response":"left","rt":115.99999999988,"correct":true,"confidence":5},{"trial_n":65,"n_dots":3.25,"target":"left","response":"left","rt":120,"correct":true,"confidence":5},{"trial_n":66,"n_dots":3.25,"target":"left","response":"left","rt":391,"correct":true,"confidence":5},{"trial_n":67,"n_dots":3.15,"target":"right","response":"right","rt":1416,"correct":true,"confidence":4},{"trial_n":68,"n_dots":3.15,"target":"right","response":"left","rt":166,"correct":false,"confidence":4},{"trial_n":69,"n_dots":3.25,"target":"right","response":"left","rt":420,"correct":false,"confidence":4},{"trial_n":70,"n_dots":3.35,"target":"left","response":"left","rt":568,"correct":true,"confidence":5},{"trial_n":71,"n_dots":3.35,"target":"right","response":"right","rt":279,"correct":true,"confidence":5},{"trial_n":72,"n_dots":3.25,"target":"right","response":"right","rt":296,"correct":true,"confidence":5},{"trial_n":73,"n_dots":3.25,"target":"left","response":"left","rt":396,"correct":true,"confidence":5},{"trial_n":74,"n_dots":3.15,"target":"right","response":"left","rt":95,"correct":false,"confidence":5},{"trial_n":75,"n_dots":3.25,"target":"left","response":"left","rt":238,"correct":true,"confidence":5},{"trial_n":76,"n_dots":3.25,"target":"left","response":"left","rt":99,"correct":true,"confidence":5},{"trial_n":77,"n_dots":3.15,"target":"left","response":"left","rt":451,"correct":true,"confidence":4},{"trial_n":78,"n_dots":3.15,"target":"right","response":"right","rt":1379,"correct":true,"confidence":4},{"trial_n":79,"n_dots":3.05,"target":"right","response":"right","rt":96,"correct":true,"confidence":5},{"trial_n":80,"n_dots":3.05,"target":"left","response":"right","rt":276.00000000012,"correct":false,"confidence":5},{"trial_n":81,"n_dots":3.15,"target":"right","response":"right","rt":1455,"correct":true,"confidence":5},{"trial_n":82,"n_dots":3.15,"target":"left","response":"left","rt":527,"correct":true,"confidence":5},{"trial_n":83,"n_dots":3.05,"target":"right","response":"left","rt":215,"correct":false,"confidence":5},{"trial_n":84,"n_dots":3.15,"target":"left","response":"left","rt":111.99999999988,"correct":true,"confidence":5},{"trial_n":85,"n_dots":3.15,"target":"right","response":"left","rt":148,"correct":false,"confidence":5},{"trial_n":86,"n_dots":3.25,"target":"right","response":"left","rt":559,"correct":false,"confidence":5},{"trial_n":87,"n_dots":3.35,"target":"right","response":"right","rt":535,"correct":true,"confidence":5},{"trial_n":88,"n_dots":3.35,"target":"right","response":"right","rt":600,"correct":true,"confidence":3},{"trial_n":89,"n_dots":3.25,"target":"left","response":"left","rt":121,"correct":true,"confidence":4},{"trial_n":90,"n_dots":3.25,"target":"right","response":"right","rt":268,"correct":true,"confidence":5},{"trial_n":91,"n_dots":3.15,"target":"left","response":"left","rt":407,"correct":true,"confidence":3},{"trial_n":92,"n_dots":3.15,"target":"left","response":"left","rt":129.00000000012,"correct":true,"confidence":5},{"trial_n":93,"n_dots":3.05,"target":"right","response":"right","rt":990,"correct":true,"confidence":5},{"trial_n":94,"n_dots":3.05,"target":"right","response":"left","rt":223,"correct":false,"confidence":5},{"trial_n":95,"n_dots":3.15,"target":"right","response":"left","rt":231,"correct":false,"confidence":4},{"trial_n":96,"n_dots":3.25,"target":"right","response":"right","rt":622,"correct":true,"confidence":3},{"trial_n":97,"n_dots":3.25,"target":"right","response":"left","rt":889,"correct":false,"confidence":2},{"trial_n":98,"n_dots":3.35,"target":"right","response":"right","rt":284,"correct":true,"confidence":4},{"trial_n":99,"n_dots":3.35,"target":"right","response":"right","rt":173,"correct":true,"confidence":4},{"trial_n":100,"n_dots":3.25,"target":"left","response":"left","rt":483,"correct":true,"confidence":4},{"trial_n":101,"n_dots":3.25,"target":"left","response":"right","rt":1440.9999999999,"correct":false,"confidence":1},{"trial_n":102,"n_dots":3.35,"target":"left","response":"left","rt":477.00000000012,"correct":true,"confidence":5},{"trial_n":103,"n_dots":3.35,"target":"left","response":"left","rt":1315,"correct":true,"confidence":2},{"trial_n":104,"n_dots":3.25,"target":"left","response":"left","rt":641,"correct":true,"confidence":4},{"trial_n":105,"n_dots":3.25,"target":"left","response":"left","rt":229,"correct":true,"confidence":4},{"trial_n":106,"n_dots":3.15,"target":"right","response":"left","rt":137.99999999988,"correct":false,"confidence":3},{"trial_n":107,"n_dots":3.25,"target":"right","response":"right","rt":100,"correct":true,"confidence":5},{"trial_n":108,"n_dots":3.25,"target":"right","response":"right","rt":217,"correct":true,"confidence":4},{"trial_n":109,"n_dots":3.15,"target":"right","response":"right","rt":1016,"correct":true,"confidence":5},{"trial_n":110,"n_dots":3.15,"target":"right","response":"right","rt":422.00000000012,"correct":true,"confidence":5},{"trial_n":111,"n_dots":3.05,"target":"left","response":"left","rt":281,"correct":true,"confidence":4},{"trial_n":112,"n_dots":3.05,"target":"right","response":"right","rt":202.99999999988,"correct":true,"confidence":4},{"trial_n":113,"n_dots":2.95,"target":"left","response":"left","rt":151.99999999988,"correct":true,"confidence":5},{"trial_n":114,"n_dots":2.95,"target":"right","response":"left","rt":919,"correct":false,"confidence":2},{"trial_n":115,"n_dots":3.05,"target":"right","response":"right","rt":143,"correct":true,"confidence":3},{"trial_n":116,"n_dots":3.05,"target":"left","response":"right","rt":572,"correct":false,"confidence":4},{"trial_n":117,"n_dots":3.15,"target":"left","response":"left","rt":132,"correct":true,"confidence":4},{"trial_n":118,"n_dots":3.15,"target":"left","response":"left","rt":222,"correct":true,"confidence":5},{"trial_n":119,"n_dots":3.05,"target":"right","response":"right","rt":171,"correct":true,"confidence":5},{"trial_n":120,"n_dots":3.05,"target":"right","response":"right","rt":595.00000000012,"correct":true,"confidence":4}]