[{"trial_n":1,"min":25,"max":230,"target":"present","response":"present","rt":6365,"correct":true,"confidence":-1},{"trial_n":2,"min":25,"max":230,"target":"present","response":"present","rt":2235,"correct":true,"confidence":-1},{"trial_n":3,"min":41,"max":214,"target":"absent","response":"absent","rt":1164,"correct":true,"confidence":-1},{"trial_n":4,"min":41,"max":214,"target":"absent","response":"absent","rt":889,"correct":true,"confidence":-1},{"trial_n":5,"min":57,"max":198,"target":"present","response":"absent","rt":1388,"correct":false,"confidence":-1},{"trial_n":6,"min":41,"max":214,"target":"absent","response":"absent","rt":619,"correct":true,"confidence":-1},{"trial_n":7,"min":41,"max":214,"target":"absent","response":"absent","rt":476,"correct":true,"confidence":-1},{"trial_n":8,"min":57,"max":198,"target":"absent","response":"absent","rt":397,"correct":true,"confidence":-1},{"trial_n":9,"min":57,"max":198,"target":"present","response":"present","rt":496,"correct":true,"confidence":-1},{"trial_n":10,"min":73,"max":182,"target":"absent","response":"absent","rt":384,"correct":true,"confidence":-1},{"trial_n":11,"min":73,"max":182,"target":"present","response":"present","rt":387,"correct":true,"confidence":-1},{"trial_n":12,"min":81,"max":174,"target":"present","response":"present","rt":541,"correct":true,"confidence":-1},{"trial_n":13,"min":81,"max":174,"target":"absent","response":"absent","rt":490.99999999999,"correct":true,"confidence":-1},{"trial_n":14,"min":89,"max":166,"target":"present","response":"present","rt":483.00000000001,"correct":true,"confidence":-1},{"trial_n":15,"min":89,"max":166,"target":"absent","response":"absent","rt":633,"correct":true,"confidence":-1},{"trial_n":16,"min":97,"max":158,"target":"absent","response":"absent","rt":427,"correct":true,"confidence":-1},{"trial_n":17,"min":97,"max":158,"target":"present","response":"present","rt":517.00000000001,"correct":true,"confidence":-1},{"trial_n":18,"min":105,"max":150,"target":"absent","response":"present","rt":1197,"correct":false,"confidence":-1},{"trial_n":19,"min":97,"max":158,"target":"present","response":"absent","rt":787.99999999999,"correct":false,"confidence":-1},{"trial_n":20,"min":89,"max":166,"target":"absent","response":"present","rt":556.00000000001,"correct":false,"confidence":-1},{"trial_n":21,"min":85,"max":170,"target":"absent","response":"absent","rt":652,"correct":true,"confidence":3},{"trial_n":22,"min":85,"max":170,"target":"present","response":"present","rt":707,"correct":true,"confidence":4},{"trial_n":23,"min":89,"max":166,"target":"present","response":"present","rt":1002,"correct":true,"confidence":3},{"trial_n":24,"min":89,"max":166,"target":"present","response":"absent","rt":958.99999999999,"correct":false,"confidence":3},{"trial_n":25,"min":85,"max":170,"target":"present","response":"present","rt":553,"correct":true,"confidence":5},{"trial_n":26,"min":85,"max":170,"target":"present","response":"absent","rt":771.00000000001,"correct":false,"confidence":3},{"trial_n":27,"min":81,"max":174,"target":"present","response":"present","rt":565,"correct":true,"confidence":2},{"trial_n":28,"min":81,"max":174,"target":"present","response":"present","rt":1171,"correct":true,"confidence":5},{"trial_n":29,"min":85,"max":170,"target":"present","response":"present","rt":3028,"correct":true,"confidence":5},{"trial_n":30,"min":85,"max":170,"target":"present","response":"absent","rt":650,"correct":false,"confidence":4},{"trial_n":31,"min":83,"max":172,"target":"present","response":"present","rt":613.99999999999,"correct":true,"confidence":5},{"trial_n":32,"min":83,"max":172,"target":"present","response":"present","rt":1912,"correct":true,"confidence":3},{"trial_n":33,"min":85,"max":170,"target":"absent","response":"absent","rt":764,"correct":true,"confidence":3},{"trial_n":34,"min":85,"max":170,"target":"absent","response":"absent","rt":722,"correct":true,"confidence":5},{"trial_n":35,"min":87,"max":168,"target":"absent","response":"present","rt":909,"correct":false,"confidence":2},{"trial_n":36,"min":85,"max":170,"target":"present","response":"absent","rt":1566,"correct":false,"confidence":4},{"trial_n":37,"min":83,"max":172,"target":"present","response":"present","rt":893,"correct":true,"confidence":5},{"trial_n":38,"min":83,"max":172,"target":"present","response":"absent","rt":833,"correct":false,"confidence":5},{"trial_n":39,"min":81,"max":174,"target":"present","response":"present","rt":539,"correct":true,"confidence":4},{"trial_n":40,"min":81,"max":174,"target":"absent","response":"present","rt":677.99999999999,"correct":false,"confidence":4},{"trial_n":41,"min":80,"max":175,"target":"absent","response":"absent","rt":987,"correct":true,"confidence":5},{"trial_n":42,"min":80,"max":175,"target":"absent","response":"absent","rt":661,"correct":true,"confidence":5},{"trial_n":43,"min":81,"max":174,"target":"present","response":"present","rt":910,"correct":true,"confidence":5},{"trial_n":44,"min":81,"max":174,"target":"absent","response":"absent","rt":602,"correct":true,"confidence":5},{"trial_n":45,"min":82,"max":173,"target":"absent","response":"absent","rt":1225,"correct":true,"confidence":4},{"trial_n":46,"min":82,"max":173,"target":"present","response":"present","rt":1408,"correct":true,"confidence":4},{"trial_n":47,"min":83,"max":172,"target":"absent","response":"absent","rt":2061,"correct":true,"confidence":4},{"trial_n":48,"min":83,"max":172,"target":"absent","response":"present","rt":1134,"correct":false,"confidence":3},{"trial_n":49,"min":82,"max":173,"target":"present","response":"present","rt":519,"correct":true,"confidence":5},{"trial_n":50,"min":82,"max":173,"target":"absent","response":"absent","rt":1248,"correct":true,"confidence":2},{"trial_n":51,"min":83,"max":172,"target":"present","response":"present","rt":1131,"correct":true,"confidence":5},{"trial_n":52,"min":83,"max":172,"target":"absent","response":"absent","rt":1198,"correct":true,"confidence":3},{"trial_n":53,"min":84,"max":171,"target":"absent","response":"absent","rt":949,"correct":true,"confidence":3},{"trial_n":54,"min":84,"max":171,"target":"absent","response":"absent","rt":1399,"correct":true,"confidence":3},{"trial_n":55,"min":85,"max":170,"target":"absent","response":"absent","rt":882,"correct":true,"confidence":4},{"trial_n":56,"min":85,"max":170,"target":"present","response":"absent","rt":958,"correct":false,"confidence":4},{"trial_n":57,"min":84,"max":171,"target":"present","response":"present","rt":1011,"correct":true,"confidence":5},{"trial_n":58,"min":84,"max":171,"target":"absent","response":"absent","rt":881,"correct":true,"confidence":4},{"trial_n":59,"min":85,"max":170,"target":"present","response":"present","rt":1109,"correct":true,"confidence":5},{"trial_n":60,"min":85,"max":170,"target":"present","response":"present","rt":1059,"correct":true,"confidence":4},{"trial_n":61,"min":86,"max":169,"target":"present","response":"present","rt":895.99999999997,"correct":true,"confidence":4},{"trial_n":62,"min":86,"max":169,"target":"absent","response":"absent","rt":780,"correct":true,"confidence":5},{"trial_n":63,"min":87,"max":168,"target":"present","response":"present","rt":487,"correct":true,"confidence":5},{"trial_n":64,"min":87,"max":168,"target":"absent","response":"absent","rt":1033,"correct":true,"confidence":4},{"trial_n":65,"min":88,"max":167,"target":"present","response":"present","rt":993.00000000003,"correct":true,"confidence":5},{"trial_n":66,"min":88,"max":167,"target":"absent","response":"absent","rt":930.99999999997,"correct":true,"confidence":4},{"trial_n":67,"min":89,"max":166,"target":"absent","response":"absent","rt":834,"correct":true,"confidence":4},{"trial_n":68,"min":89,"max":166,"target":"absent","response":"absent","rt":897,"correct":true,"confidence":3},{"trial_n":69,"min":90,"max":165,"target":"present","response":"present","rt":960,"correct":true,"confidence":2},{"trial_n":70,"min":90,"max":165,"target":"absent","response":"absent","rt":796.99999999997,"correct":true,"confidence":3},{"trial_n":71,"min":41,"max":214,"target":"present","response":"present","rt":2669,"correct":true,"confidence":-1},{"trial_n":72,"min":41,"max":214,"target":"present","response":"present","rt":1514,"correct":true,"confidence":-1},{"trial_n":73,"min":57,"max":198,"target":"absent","response":"absent","rt":617,"correct":true,"confidence":-1},{"trial_n":74,"min":57,"max":198,"target":"absent","response":"absent","rt":538,"correct":true,"confidence":-1},{"trial_n":75,"min":73,"max":182,"target":"present","response":"present","rt":508,"correct":true,"confidence":-1},{"trial_n":76,"min":73,"max":182,"target":"present","response":"present","rt":406.99999999997,"correct":true,"confidence":-1},{"trial_n":77,"min":89,"max":166,"target":"present","response":"present","rt":476.99999999997,"correct":true,"confidence":-1},{"trial_n":78,"min":89,"max":166,"target":"absent","response":"absent","rt":617,"correct":true,"confidence":-1},{"trial_n":79,"min":105,"max":150,"target":"absent","response":"absent","rt":1155,"correct":true,"confidence":-1},{"trial_n":80,"min":105,"max":150,"target":"absent","response":"absent","rt":731,"correct":true,"confidence":-1},{"trial_n":81,"min":113,"max":142,"target":"present","response":"present","rt":625,"correct":true,"confidence":-1},{"trial_n":82,"min":113,"max":142,"target":"absent","response":"absent","rt":561.99999999994,"correct":true,"confidence":-1},{"trial_n":83,"min":121,"max":134,"target":"absent","response":"present","rt":790.99999999997,"correct":false,"confidence":-1},{"trial_n":84,"min":121,"max":134,"target":"present","response":"present","rt":591,"correct":true,"confidence":-1},{"trial_n":85,"min":121,"max":134,"target":"present","response":"present","rt":485,"correct":true,"confidence":-1},{"trial_n":86,"min":121,"max":134,"target":"present","response":"present","rt":487,"correct":true,"confidence":-1},{"trial_n":87,"min":121,"max":134,"target":"present","response":"present","rt":589,"correct":true,"confidence":-1},{"trial_n":88,"min":121,"max":134,"target":"present","response":"present","rt":1021.0000000001,"correct":true,"confidence":-1},{"trial_n":89,"min":121,"max":134,"target":"absent","response":"present","rt":476,"correct":false,"confidence":-1},{"trial_n":90,"min":121,"max":134,"target":"present","response":"present","rt":409,"correct":true,"confidence":-1},{"trial_n":91,"min":121,"max":134,"target":"absent","response":"absent","rt":691,"correct":true,"confidence":3},{"trial_n":92,"min":125,"max":130,"target":"absent","response":"present","rt":451,"correct":false,"confidence":4},{"trial_n":93,"min":125,"max":130,"target":"present","response":"present","rt":509,"correct":true,"confidence":2},{"trial_n":94,"min":125,"max":130,"target":"absent","response":"present","rt":876,"correct":false,"confidence":4},{"trial_n":95,"min":125,"max":130,"target":"absent","response":"absent","rt":643,"correct":true,"confidence":3},{"trial_n":96,"min":125,"max":130,"target":"present","response":"absent","rt":718,"correct":false,"confidence":3},{"trial_n":97,"min":125,"max":130,"target":"present","response":"present","rt":341,"correct":true,"confidence":2},{"trial_n":98,"min":125,"max":130,"target":"absent","response":"present","rt":911,"correct":false,"confidence":5},{"trial_n":99,"min":125,"max":130,"target":"absent","response":"present","rt":647,"correct":false,"confidence":3},{"trial_n":100,"min":125,"max":130,"target":"absent","response":"present","rt":548,"correct":false,"confidence":3},{"trial_n":101,"min":125,"max":130,"target":"present","response":"present","rt":631,"correct":true,"confidence":3},{"trial_n":102,"min":125,"max":130,"target":"absent","response":"present","rt":399,"correct":false,"confidence":3},{"trial_n":103,"min":125,"max":130,"target":"absent","response":"present","rt":467,"correct":false,"confidence":3},{"trial_n":104,"min":125,"max":130,"target":"absent","response":"present","rt":979,"correct":false,"confidence":3},{"trial_n":105,"min":125,"max":130,"target":"absent","response":"present","rt":798.99999999994,"correct":false,"confidence":3},{"trial_n":106,"min":125,"max":130,"target":"present","response":"absent","rt":675,"correct":false,"confidence":4},{"trial_n":107,"min":125,"max":130,"target":"present","response":"present","rt":573,"correct":true,"confidence":5},{"trial_n":108,"min":125,"max":130,"target":"absent","response":"absent","rt":535,"correct":true,"confidence":2},{"trial_n":109,"min":125,"max":130,"target":"present","response":"present","rt":387,"correct":true,"confidence":3},{"trial_n":110,"min":125,"max":130,"target":"present","response":"present","rt":394,"correct":true,"confidence":5},{"trial_n":111,"min":126,"max":128,"target":"absent","response":"absent","rt":535,"correct":true,"confidence":3},{"trial_n":112,"min":126,"max":128,"target":"present","response":"absent","rt":375,"correct":false,"confidence":3},{"trial_n":113,"min":126,"max":128,"target":"absent","response":"present","rt":532,"correct":false,"confidence":2},{"trial_n":114,"min":126,"max":128,"target":"present","response":"present","rt":500,"correct":true,"confidence":4},{"trial_n":115,"min":126,"max":128,"target":"present","response":"absent","rt":430,"correct":false,"confidence":4},{"trial_n":116,"min":126,"max":128,"target":"present","response":"present","rt":383,"correct":true,"confidence":4},{"trial_n":117,"min":126,"max":128,"target":"present","response":"present","rt":383,"correct":true,"confidence":4},{"trial_n":118,"min":126,"max":128,"target":"absent","response":"absent","rt":593,"correct":true,"confidence":4},{"trial_n":119,"min":126,"max":128,"target":"absent","response":"absent","rt":537,"correct":true,"confidence":4},{"trial_n":120,"min":126,"max":128,"target":"absent","response":"present","rt":512,"correct":false,"confidence":4},{"trial_n":121,"min":126,"max":128,"target":"absent","response":"absent","rt":3884,"correct":true,"confidence":3},{"trial_n":122,"min":126,"max":128,"target":"absent","response":"present","rt":568,"correct":false,"confidence":4},{"trial_n":123,"min":126,"max":128,"target":"present","response":"absent","rt":366,"correct":false,"confidence":3},{"trial_n":124,"min":126,"max":128,"target":"absent","response":"present","rt":530.99999999994,"correct":false,"confidence":3},{"trial_n":125,"min":126,"max":128,"target":"absent","response":"present","rt":624,"correct":false,"confidence":3},{"trial_n":126,"min":126,"max":128,"target":"absent","response":"absent","rt":695,"correct":true,"confidence":3},{"trial_n":127,"min":126,"max":128,"target":"absent","response":"absent","rt":497,"correct":true,"confidence":4},{"trial_n":128,"min":126,"max":128,"target":"present","response":"present","rt":375,"correct":true,"confidence":3},{"trial_n":129,"min":126,"max":128,"target":"absent","response":"absent","rt":425,"correct":true,"confidence":4},{"trial_n":130,"min":126,"max":128,"target":"absent","response":"present","rt":588,"correct":false,"confidence":5},{"trial_n":131,"min":126,"max":128,"target":"present","response":"absent","rt":675,"correct":false,"confidence":3},{"trial_n":132,"min":126,"max":128,"target":"present","response":"present","rt":424,"correct":true,"confidence":2},{"trial_n":133,"min":126,"max":128,"target":"present","response":"present","rt":331,"correct":true,"confidence":1},{"trial_n":134,"min":126,"max":128,"target":"absent","response":"absent","rt":426,"correct":true,"confidence":1},{"trial_n":135,"min":126,"max":128,"target":"present","response":"present","rt":453.00000000006,"correct":true,"confidence":1},{"trial_n":136,"min":126,"max":128,"target":"present","response":"present","rt":378.00000000006,"correct":true,"confidence":1},{"trial_n":137,"min":126,"max":128,"target":"present","response":"absent","rt":359,"correct":false,"confidence":4},{"trial_n":138,"min":126,"max":128,"target":"present","response":"present","rt":346,"correct":true,"confidence":3},{"trial_n":139,"min":126,"max":128,"target":"present","response":"absent","rt":374,"correct":false,"confidence":2},{"trial_n":140,"min":126,"max":128,"target":"present","response":"absent","rt":136,"correct":false,"confidence":4}]