[{"trial_n":1,"n_dots":4.25,"target":"right","response":"left","rt":3603,"correct":false,"confidence":-1},{"trial_n":2,"n_dots":4.25,"target":"right","response":"right","rt":1579,"correct":true,"confidence":-1},{"trial_n":3,"n_dots":4.25,"target":"left","response":"left","rt":466,"correct":true,"confidence":-1},{"trial_n":4,"n_dots":3.85,"target":"right","response":"right","rt":481,"correct":true,"confidence":-1},{"trial_n":5,"n_dots":3.85,"target":"right","response":"left","rt":431,"correct":false,"confidence":-1},{"trial_n":6,"n_dots":4.25,"target":"right","response":"right","rt":293,"correct":true,"confidence":-1},{"trial_n":7,"n_dots":4.25,"target":"left","response":"left","rt":419,"correct":true,"confidence":-1},{"trial_n":8,"n_dots":4.05,"target":"right","response":"right","rt":418,"correct":true,"confidence":-1},{"trial_n":9,"n_dots":4.05,"target":"right","response":"left","rt":1068,"correct":false,"confidence":-1},{"trial_n":10,"n_dots":4.25,"target":"right","response":"right","rt":438,"correct":true,"confidence":-1},{"trial_n":11,"n_dots":4.25,"target":"right","response":"right","rt":473,"correct":true,"confidence":-1},{"trial_n":12,"n_dots":4.05,"target":"right","response":"right","rt":556,"correct":true,"confidence":-1},{"trial_n":13,"n_dots":4.05,"target":"left","response":"left","rt":456.00000000001,"correct":true,"confidence":-1},{"trial_n":14,"n_dots":3.95,"target":"left","response":"left","rt":504,"correct":true,"confidence":-1},{"trial_n":15,"n_dots":3.95,"target":"left","response":"right","rt":557.00000000001,"correct":false,"confidence":-1},{"trial_n":16,"n_dots":4.05,"target":"left","response":"right","rt":490,"correct":false,"confidence":-1},{"trial_n":17,"n_dots":4.15,"target":"right","response":"right","rt":424.99999999999,"correct":true,"confidence":-1},{"trial_n":18,"n_dots":4.15,"target":"left","response":"right","rt":355.00000000001,"correct":false,"confidence":-1},{"trial_n":19,"n_dots":4.25,"target":"left","response":"left","rt":705,"correct":true,"confidence":-1},{"trial_n":20,"n_dots":4.25,"target":"left","response":"right","rt":957,"correct":false,"confidence":-1},{"trial_n":21,"n_dots":4.35,"target":"left","response":"left","rt":524,"correct":true,"confidence":4},{"trial_n":22,"n_dots":4.35,"target":"right","response":"left","rt":776,"correct":false,"confidence":2},{"trial_n":23,"n_dots":4.45,"target":"right","response":"right","rt":360.99999999999,"correct":true,"confidence":5},{"trial_n":24,"n_dots":4.45,"target":"right","response":"right","rt":442,"correct":true,"confidence":5},{"trial_n":25,"n_dots":4.35,"target":"right","response":"right","rt":426,"correct":true,"confidence":5},{"trial_n":26,"n_dots":4.35,"target":"right","response":"right","rt":391,"correct":true,"confidence":5},{"trial_n":27,"n_dots":4.25,"target":"right","response":"right","rt":323.00000000001,"correct":true,"confidence":5},{"trial_n":28,"n_dots":4.25,"target":"right","response":"right","rt":576,"correct":true,"confidence":5},{"trial_n":29,"n_dots":4.15,"target":"right","response":"right","rt":559,"correct":true,"confidence":5},{"trial_n":30,"n_dots":4.15,"target":"left","response":"left","rt":524.00000000001,"correct":true,"confidence":5},{"trial_n":31,"n_dots":4.05,"target":"right","response":"right","rt":408,"correct":true,"confidence":4},{"trial_n":32,"n_dots":4.05,"target":"right","response":"right","rt":574.00000000001,"correct":true,"confidence":4},{"trial_n":33,"n_dots":3.95,"target":"left","response":"left","rt":390,"correct":true,"confidence":3},{"trial_n":34,"n_dots":3.95,"target":"right","response":"right","rt":526,"correct":true,"confidence":3},{"trial_n":35,"n_dots":3.85,"target":"left","response":"left","rt":593,"correct":true,"confidence":3},{"trial_n":36,"n_dots":3.85,"target":"left","response":"left","rt":442.00000000001,"correct":true,"confidence":3},{"trial_n":37,"n_dots":3.75,"target":"left","response":"left","rt":290.99999999999,"correct":true,"confidence":3},{"trial_n":38,"n_dots":3.75,"target":"left","response":"left","rt":441,"correct":true,"confidence":4},{"trial_n":39,"n_dots":3.65,"target":"right","response":"right","rt":1058,"correct":true,"confidence":3},{"trial_n":40,"n_dots":3.65,"target":"right","response":"left","rt":529,"correct":false,"confidence":3},{"trial_n":41,"n_dots":3.75,"target":"right","response":"right","rt":477,"correct":true,"confidence":3},{"trial_n":42,"n_dots":3.75,"target":"left","response":"left","rt":242,"correct":true,"confidence":3},{"trial_n":43,"n_dots":3.65,"target":"left","response":"left","rt":426,"correct":true,"confidence":1},{"trial_n":44,"n_dots":3.65,"target":"right","response":"right","rt":630,"correct":true,"confidence":4},{"trial_n":45,"n_dots":3.55,"target":"right","response":"left","rt":2077,"correct":false,"confidence":2},{"trial_n":46,"n_dots":3.65,"target":"left","response":"left","rt":543,"correct":true,"confidence":4},{"trial_n":47,"n_dots":3.65,"target":"right","response":"left","rt":4342,"correct":false,"confidence":1},{"trial_n":48,"n_dots":3.75,"target":"left","response":"left","rt":1809,"correct":true,"confidence":2},{"trial_n":49,"n_dots":3.75,"target":"left","response":"left","rt":3130,"correct":true,"confidence":4},{"trial_n":50,"n_dots":3.65,"target":"left","response":"left","rt":3694,"correct":true,"confidence":2},{"trial_n":51,"n_dots":3.65,"target":"left","response":"left","rt":180,"correct":true,"confidence":3},{"trial_n":52,"n_dots":3.55,"target":"right","response":"right","rt":627,"correct":true,"confidence":4},{"trial_n":53,"n_dots":3.55,"target":"left","response":"left","rt":431.00000000003,"correct":true,"confidence":3},{"trial_n":54,"n_dots":3.45,"target":"right","response":"right","rt":263.99999999997,"correct":true,"confidence":4},{"trial_n":55,"n_dots":3.45,"target":"left","response":"right","rt":333,"correct":false,"confidence":3},{"trial_n":56,"n_dots":3.55,"target":"right","response":"right","rt":282,"correct":true,"confidence":3},{"trial_n":57,"n_dots":3.55,"target":"right","response":"left","rt":281.00000000003,"correct":false,"confidence":2},{"trial_n":58,"n_dots":3.65,"target":"left","response":"left","rt":548,"correct":true,"confidence":4},{"trial_n":59,"n_dots":3.65,"target":"right","response":"right","rt":164,"correct":true,"confidence":3},{"trial_n":60,"n_dots":3.55,"target":"left","response":"right","rt":631,"correct":false,"confidence":5},{"trial_n":61,"n_dots":3.65,"target":"right","response":"right","rt":417,"correct":true,"confidence":4},{"trial_n":62,"n_dots":3.65,"target":"left","response":"left","rt":1045,"correct":true,"confidence":3},{"trial_n":63,"n_dots":3.55,"target":"left","response":"left","rt":575,"correct":true,"confidence":3},{"trial_n":64,"n_dots":3.55,"target":"left","response":"right","rt":375,"correct":false,"confidence":2},{"trial_n":65,"n_dots":3.65,"target":"left","response":"left","rt":273,"correct":true,"confidence":5},{"trial_n":66,"n_dots":3.65,"target":"right","response":"left","rt":425,"correct":false,"confidence":2},{"trial_n":67,"n_dots":3.75,"target":"right","response":"left","rt":408.00000000006,"correct":false,"confidence":3},{"trial_n":68,"n_dots":3.85,"target":"right","response":"right","rt":392.99999999994,"correct":true,"confidence":3},{"trial_n":69,"n_dots":3.85,"target":"right","response":"right","rt":626,"correct":true,"confidence":3},{"trial_n":70,"n_dots":3.75,"target":"right","response":"left","rt":193,"correct":false,"confidence":3},{"trial_n":71,"n_dots":3.85,"target":"left","response":"left","rt":79,"correct":true,"confidence":3},{"trial_n":72,"n_dots":3.85,"target":"right","response":"right","rt":44,"correct":true,"confidence":4},{"trial_n":73,"n_dots":3.75,"target":"right","response":"right","rt":307.00000000006,"correct":true,"confidence":2},{"trial_n":74,"n_dots":3.75,"target":"left","response":"left","rt":575.00000000006,"correct":true,"confidence":3},{"trial_n":75,"n_dots":3.65,"target":"right","response":"right","rt":144,"correct":true,"confidence":3},{"trial_n":76,"n_dots":3.65,"target":"left","response":"left","rt":-5,"correct":true,"confidence":3},{"trial_n":77,"n_dots":3.55,"target":"left","response":"left","rt":409,"correct":true,"confidence":4},{"trial_n":78,"n_dots":3.55,"target":"right","response":"right","rt":140,"correct":true,"confidence":3},{"trial_n":79,"n_dots":3.45,"target":"left","response":"left","rt":209,"correct":true,"confidence":3},{"trial_n":80,"n_dots":3.45,"target":"right","response":"left","rt":160,"correct":false,"confidence":4},{"trial_n":81,"n_dots":3.55,"target":"right","response":"right","rt":110.00000000006,"correct":true,"confidence":5},{"trial_n":82,"n_dots":3.55,"target":"right","response":"right","rt":606,"correct":true,"confidence":3},{"trial_n":83,"n_dots":3.45,"target":"left","response":"left","rt":276,"correct":true,"confidence":3},{"trial_n":84,"n_dots":3.45,"target":"right","response":"right","rt":459,"correct":true,"confidence":2},{"trial_n":85,"n_dots":3.35,"target":"left","response":"left","rt":190.99999999994,"correct":true,"confidence":5},{"trial_n":86,"n_dots":3.35,"target":"left","response":"left","rt":1264,"correct":true,"confidence":5},{"trial_n":87,"n_dots":3.25,"target":"right","response":"right","rt":1083,"correct":true,"confidence":5},{"trial_n":88,"n_dots":3.25,"target":"right","response":"left","rt":983,"correct":false,"confidence":3},{"trial_n":89,"n_dots":3.35,"target":"left","response":"left","rt":611,"correct":true,"confidence":3},{"trial_n":90,"n_dots":3.35,"target":"left","response":"left","rt":240.00000000006,"correct":true,"confidence":3},{"trial_n":91,"n_dots":3.25,"target":"right","response":"left","rt":291,"correct":false,"confidence":2},{"trial_n":92,"n_dots":3.35,"target":"left","response":"left","rt":324.00000000006,"correct":true,"confidence":4},{"trial_n":93,"n_dots":3.35,"target":"left","response":"left","rt":74,"correct":true,"confidence":4},{"trial_n":94,"n_dots":3.25,"target":"right","response":"left","rt":78,"correct":false,"confidence":3},{"trial_n":95,"n_dots":3.35,"target":"left","response":"left","rt":660,"correct":true,"confidence":4},{"trial_n":96,"n_dots":3.35,"target":"right","response":"right","rt":292.99999999994,"correct":true,"confidence":4},{"trial_n":97,"n_dots":3.25,"target":"left","response":"right","rt":277,"correct":false,"confidence":3},{"trial_n":98,"n_dots":3.35,"target":"left","response":"right","rt":243,"correct":false,"confidence":2},{"trial_n":99,"n_dots":3.45,"target":"right","response":"right","rt":193.99999999994,"correct":true,"confidence":3},{"trial_n":100,"n_dots":3.45,"target":"right","response":"right","rt":93.000000000116,"correct":true,"confidence":3},{"trial_n":101,"n_dots":3.35,"target":"left","response":"left","rt":245,"correct":true,"confidence":2},{"trial_n":102,"n_dots":3.35,"target":"left","response":"right","rt":59,"correct":false,"confidence":3},{"trial_n":103,"n_dots":3.45,"target":"right","response":"right","rt":77,"correct":true,"confidence":3},{"trial_n":104,"n_dots":3.45,"target":"left","response":"left","rt":193,"correct":true,"confidence":2},{"trial_n":105,"n_dots":3.35,"target":"left","response":"left","rt":242,"correct":true,"confidence":4},{"trial_n":106,"n_dots":3.35,"target":"left","response":"left","rt":193,"correct":true,"confidence":3},{"trial_n":107,"n_dots":3.25,"target":"right","response":"left","rt":509,"correct":false,"confidence":3},{"trial_n":108,"n_dots":3.35,"target":"left","response":"left","rt":27,"correct":true,"confidence":4},{"trial_n":109,"n_dots":3.35,"target":"left","response":"right","rt":322.99999999988,"correct":false,"confidence":4},{"trial_n":110,"n_dots":3.45,"target":"left","response":"right","rt":524.99999999988,"correct":false,"confidence":2},{"trial_n":111,"n_dots":3.55,"target":"right","response":"left","rt":226,"correct":false,"confidence":1},{"trial_n":112,"n_dots":3.65,"target":"left","response":"right","rt":491,"correct":false,"confidence":1},{"trial_n":113,"n_dots":3.75,"target":"right","response":"right","rt":59,"correct":true,"confidence":1},{"trial_n":114,"n_dots":3.75,"target":"right","response":"left","rt":559,"correct":false,"confidence":1},{"trial_n":115,"n_dots":3.85,"target":"left","response":"left","rt":376,"correct":true,"confidence":4},{"trial_n":116,"n_dots":3.85,"target":"left","response":"right","rt":292,"correct":false,"confidence":1},{"trial_n":117,"n_dots":3.95,"target":"left","response":"right","rt":409,"correct":false,"confidence":1},{"trial_n":118,"n_dots":4.05,"target":"right","response":"right","rt":525,"correct":true,"confidence":3},{"trial_n":119,"n_dots":4.05,"target":"left","response":"left","rt":426,"correct":true,"confidence":3},{"trial_n":120,"n_dots":3.95,"target":"left","response":"left","rt":296,"correct":true,"confidence":3}]