[{"trial_n":1,"span":8,"encoder":"16581546","distractor":"16581596","target":"present","response":"present","rt":"1678.5","correct":true,"confidence":-1},{"trial_n":2,"span":8,"encoder":"06939894","distractor":"06989894","target":"present","response":"present","rt":"1590.200000003","correct":true,"confidence":-1},{"trial_n":3,"span":10,"encoder":"7589146671","distractor":"7589146677","target":"absent","response":"present","rt":"1397.099999994","correct":false,"confidence":-1},{"trial_n":4,"span":8,"encoder":"87223965","distractor":"47223965","target":"absent","response":"present","rt":"2116.5","correct":false,"confidence":-1},{"trial_n":5,"span":6,"encoder":"933134","distractor":"933034","target":"present","response":"present","rt":"1014.5","correct":true,"confidence":-1},{"trial_n":6,"span":6,"encoder":"863636","distractor":"863736","target":"present","response":"present","rt":"766.79999999702","correct":true,"confidence":-1},{"trial_n":7,"span":8,"encoder":"41027306","distractor":"46027306","target":"present","response":"present","rt":"872.39999999106","correct":true,"confidence":-1},{"trial_n":8,"span":8,"encoder":"92220603","distractor":"92120603","target":"present","response":"present","rt":"859","correct":true,"confidence":-1},{"trial_n":9,"span":10,"encoder":"7017243512","distractor":"7917243512","target":"present","response":"present","rt":"2942.099999994","correct":true,"confidence":-1},{"trial_n":10,"span":10,"encoder":"5274988825","distractor":"6274988825","target":"present","response":"present","rt":"1077.799999997","correct":true,"confidence":-1},{"trial_n":11,"span":12,"encoder":"595363658421","distractor":"595363655421","target":"absent","response":"absent","rt":"4384.6999999881","correct":true,"confidence":-1},{"trial_n":12,"span":12,"encoder":"623985985352","distractor":"623985983352","target":"absent","response":"absent","rt":"3328.900000006","correct":true,"confidence":-1},{"trial_n":13,"span":13,"encoder":"6652501189623","distractor":"6653501189623","target":"present","response":"absent","rt":"2462.200000003","correct":false,"confidence":-1},{"trial_n":14,"span":12,"encoder":"941710333205","distractor":"941710333235","target":"present","response":"present","rt":"2415.400000006","correct":true,"confidence":-1},{"trial_n":15,"span":12,"encoder":"777923865800","distractor":"777123865800","target":"absent","response":"absent","rt":"2036.200000003","correct":true,"confidence":-1},{"trial_n":16,"span":13,"encoder":"2553425074732","distractor":"2553420074732","target":"present","response":"present","rt":"1190.900000006","correct":true,"confidence":-1},{"trial_n":17,"span":13,"encoder":"8154261881693","distractor":"8954261881693","target":"absent","response":"present","rt":"2450.8000000119","correct":false,"confidence":-1},{"trial_n":18,"span":12,"encoder":"007577629068","distractor":"007577229068","target":"absent","response":"present","rt":"1297.8999999911","correct":false,"confidence":-1},{"trial_n":19,"span":11,"encoder":"37102304542","distractor":"37102304572","target":"present","response":"present","rt":"1030.700000003","correct":true,"confidence":-1},{"trial_n":20,"span":11,"encoder":"65450721304","distractor":"55450721304","target":"absent","response":"present","rt":"3865.299999997","correct":false,"confidence":-1},{"trial_n":21,"span":10,"encoder":"3566528637","distractor":"3516528637","target":"absent","response":"present","rt":"849.5","correct":false,"confidence":3},{"trial_n":22,"span":9,"encoder":"939355663","distractor":"932355663","target":"absent","response":"present","rt":"1014.799999997","correct":false,"confidence":4},{"trial_n":23,"span":8,"encoder":"33215809","distractor":"43215809","target":"absent","response":"present","rt":"1041.6000000089","correct":false,"confidence":4},{"trial_n":24,"span":7,"encoder":"0749897","distractor":"0749827","target":"absent","response":"absent","rt":"2499.900000006","correct":true,"confidence":3},{"trial_n":25,"span":7,"encoder":"8325734","distractor":"8321734","target":"absent","response":"present","rt":"1969","correct":false,"confidence":2},{"trial_n":26,"span":6,"encoder":"824084","distractor":"821084","target":"absent","response":"present","rt":"1307.099999994","correct":false,"confidence":5},{"trial_n":27,"span":5,"encoder":"87941","distractor":"17941","target":"absent","response":"absent","rt":"1434","correct":true,"confidence":5},{"trial_n":28,"span":5,"encoder":"86895","distractor":"86875","target":"absent","response":"absent","rt":"2943","correct":true,"confidence":3},{"trial_n":29,"span":6,"encoder":"599895","distractor":"699895","target":"absent","response":"absent","rt":"2606.5","correct":true,"confidence":5},{"trial_n":30,"span":6,"encoder":"843100","distractor":"343100","target":"present","response":"present","rt":"1819","correct":true,"confidence":5},{"trial_n":31,"span":7,"encoder":"4618405","distractor":"4628405","target":"present","response":"present","rt":"1150.799999997","correct":true,"confidence":5},{"trial_n":32,"span":7,"encoder":"6473550","distractor":"6473557","target":"present","response":"present","rt":"1283.1999999881","correct":true,"confidence":5},{"trial_n":33,"span":8,"encoder":"56696546","distractor":"56696046","target":"absent","response":"present","rt":"2014.3999999911","correct":false,"confidence":5},{"trial_n":34,"span":7,"encoder":"3536013","distractor":"3536213","target":"absent","response":"absent","rt":"2788.3999999911","correct":true,"confidence":5},{"trial_n":35,"span":7,"encoder":"5961351","distractor":"5961551","target":"present","response":"present","rt":"2289.1000000089","correct":true,"confidence":5},{"trial_n":36,"span":8,"encoder":"75184247","distractor":"75124247","target":"present","response":"present","rt":"2428.3000000119","correct":true,"confidence":4},{"trial_n":37,"span":8,"encoder":"93540862","distractor":"93540162","target":"absent","response":"present","rt":"2367.5","correct":false,"confidence":4},{"trial_n":38,"span":7,"encoder":"7301764","distractor":"7101764","target":"absent","response":"present","rt":"4957","correct":false,"confidence":3},{"trial_n":39,"span":6,"encoder":"021038","distractor":"023038","target":"absent","response":"absent","rt":"2366.799999997","correct":true,"confidence":5},{"trial_n":40,"span":6,"encoder":"780551","distractor":"880551","target":"present","response":"present","rt":"1478.900000006","correct":true,"confidence":5},{"trial_n":41,"span":7,"encoder":"9393020","distractor":"9993020","target":"absent","response":"absent","rt":"2323.599999994","correct":true,"confidence":5},{"trial_n":42,"span":7,"encoder":"7394178","distractor":"7394478","target":"absent","response":"absent","rt":"2643.299999997","correct":true,"confidence":5},{"trial_n":43,"span":8,"encoder":"83450047","distractor":"83450007","target":"present","response":"present","rt":"3606.900000006","correct":true,"confidence":5},{"trial_n":44,"span":8,"encoder":"47741674","distractor":"47741174","target":"present","response":"present","rt":"2654.099999994","correct":true,"confidence":5},{"trial_n":45,"span":9,"encoder":"642673363","distractor":"647673363","target":"absent","response":"absent","rt":"3404.700000003","correct":true,"confidence":5},{"trial_n":46,"span":9,"encoder":"628283790","distractor":"628283740","target":"absent","response":"absent","rt":"4822.299999997","correct":true,"confidence":4},{"trial_n":47,"span":10,"encoder":"1992255848","distractor":"1992255808","target":"absent","response":"present","rt":"4788.099999994","correct":false,"confidence":4},{"trial_n":48,"span":9,"encoder":"579265163","distractor":"579275163","target":"present","response":"present","rt":"4058.799999997","correct":true,"confidence":5},{"trial_n":49,"span":9,"encoder":"764823963","distractor":"764123963","target":"present","response":"present","rt":"3643.1999999881","correct":true,"confidence":5},{"trial_n":50,"span":10,"encoder":"6395493163","distractor":"6396493163","target":"present","response":"absent","rt":"5285.400000006","correct":false,"confidence":4},{"trial_n":51,"span":9,"encoder":"159330210","distractor":"159330214","target":"present","response":"present","rt":"2748.099999994","correct":true,"confidence":5},{"trial_n":52,"span":9,"encoder":"158547031","distractor":"108547031","target":"absent","response":"absent","rt":"3297.700000003","correct":true,"confidence":3},{"trial_n":53,"span":10,"encoder":"9079724044","distractor":"9079724944","target":"present","response":"absent","rt":"6397.200000003","correct":false,"confidence":3},{"trial_n":54,"span":9,"encoder":"415013505","distractor":"215013505","target":"absent","response":"absent","rt":"1851.700000003","correct":true,"confidence":5},{"trial_n":55,"span":9,"encoder":"403518306","distractor":"403018306","target":"present","response":"present","rt":"2412.3999999911","correct":true,"confidence":5},{"trial_n":56,"span":10,"encoder":"7836027220","distractor":"7536027220","target":"present","response":"present","rt":"3572.3999999911","correct":true,"confidence":5},{"trial_n":57,"span":10,"encoder":"3831663507","distractor":"3831263507","target":"present","response":"absent","rt":"7236.900000006","correct":false,"confidence":4},{"trial_n":58,"span":9,"encoder":"053577480","distractor":"053577180","target":"present","response":"present","rt":"3305.900000006","correct":true,"confidence":5},{"trial_n":59,"span":9,"encoder":"086362708","distractor":"086362768","target":"absent","response":"absent","rt":"4163.599999994","correct":true,"confidence":4},{"trial_n":60,"span":10,"encoder":"6393630777","distractor":"6391630777","target":"present","response":"present","rt":"3254.299999997","correct":true,"confidence":4},{"trial_n":61,"span":10,"encoder":"4823632255","distractor":"7823632255","target":"present","response":"present","rt":"3589.700000003","correct":true,"confidence":5},{"trial_n":62,"span":11,"encoder":"36481666114","distractor":"36481626114","target":"present","response":"absent","rt":"5129.700000003","correct":false,"confidence":4},{"trial_n":63,"span":10,"encoder":"0324881434","distractor":"0394881434","target":"absent","response":"present","rt":"6288.1999999881","correct":false,"confidence":4},{"trial_n":64,"span":9,"encoder":"553281262","distractor":"553291262","target":"present","response":"present","rt":"4756.299999997","correct":true,"confidence":5},{"trial_n":65,"span":9,"encoder":"393010392","distractor":"363010392","target":"absent","response":"absent","rt":"4903.3999999911","correct":true,"confidence":3},{"trial_n":66,"span":10,"encoder":"4646671551","distractor":"4646673551","target":"absent","response":"absent","rt":"5425.599999994","correct":true,"confidence":2},{"trial_n":67,"span":10,"encoder":"6483817615","distractor":"6483817515","target":"present","response":"present","rt":"4931","correct":true,"confidence":3},{"trial_n":68,"span":11,"encoder":"78440450865","distractor":"78440450860","target":"present","response":"present","rt":"6938","correct":true,"confidence":3},{"trial_n":69,"span":11,"encoder":"26751972855","distractor":"26751972854","target":"absent","response":"absent","rt":"5666.700000003","correct":true,"confidence":4},{"trial_n":70,"span":12,"encoder":"341744783816","distractor":"341744785816","target":"present","response":"present","rt":"5474","correct":true,"confidence":4},{"trial_n":71,"span":8,"encoder":"76184969","distractor":"76181969","target":"present","response":"present","rt":"7669.599999994","correct":true,"confidence":-1},{"trial_n":72,"span":8,"encoder":"70863683","distractor":"70865683","target":"present","response":"present","rt":"3124.900000006","correct":true,"confidence":-1},{"trial_n":73,"span":9,"encoder":"792712814","distractor":"782712814","target":"absent","response":"present","rt":"9322.799999997","correct":false,"confidence":-1},{"trial_n":74,"span":8,"encoder":"88491483","distractor":"88491493","target":"absent","response":"absent","rt":"7964.799999997","correct":true,"confidence":-1},{"trial_n":75,"span":8,"encoder":"44675464","distractor":"44675364","target":"present","response":"present","rt":"3617.900000006","correct":true,"confidence":-1},{"trial_n":76,"span":9,"encoder":"443079269","distractor":"443071269","target":"absent","response":"absent","rt":"2783.599999994","correct":true,"confidence":-1},{"trial_n":77,"span":9,"encoder":"983454394","distractor":"984454394","target":"present","response":"absent","rt":"5086.200000003","correct":false,"confidence":-1},{"trial_n":78,"span":8,"encoder":"75484671","distractor":"75474671","target":"absent","response":"absent","rt":"2072.700000003","correct":true,"confidence":-1},{"trial_n":79,"span":8,"encoder":"37400742","distractor":"37402742","target":"present","response":"present","rt":"2407.700000003","correct":true,"confidence":-1},{"trial_n":80,"span":9,"encoder":"959081446","distractor":"959081442","target":"absent","response":"absent","rt":"2552.3999999911","correct":true,"confidence":-1},{"trial_n":81,"span":9,"encoder":"143954432","distractor":"143954832","target":"present","response":"present","rt":"5684.3999999911","correct":true,"confidence":-1},{"trial_n":82,"span":10,"encoder":"4293581399","distractor":"5293581399","target":"present","response":"absent","rt":"4127.5","correct":false,"confidence":-1},{"trial_n":83,"span":9,"encoder":"053776592","distractor":"053786592","target":"present","response":"present","rt":"3285.299999997","correct":true,"confidence":-1},{"trial_n":84,"span":9,"encoder":"127632513","distractor":"127612513","target":"absent","response":"absent","rt":"3796.200000003","correct":true,"confidence":-1},{"trial_n":85,"span":10,"encoder":"3358200917","distractor":"3356200917","target":"absent","response":"absent","rt":"2463.3000000119","correct":true,"confidence":-1},{"trial_n":86,"span":10,"encoder":"8314997644","distractor":"8314997694","target":"absent","response":"present","rt":"4112.6999999881","correct":false,"confidence":-1},{"trial_n":87,"span":9,"encoder":"468978728","distractor":"468998728","target":"absent","response":"absent","rt":"3164.099999994","correct":true,"confidence":-1},{"trial_n":88,"span":9,"encoder":"911606199","distractor":"951606199","target":"absent","response":"absent","rt":"3068.8999999911","correct":true,"confidence":-1},{"trial_n":89,"span":10,"encoder":"4977263136","distractor":"4977263836","target":"present","response":"present","rt":"3269.8999999911","correct":true,"confidence":-1},{"trial_n":90,"span":10,"encoder":"4670706589","distractor":"4670206589","target":"present","response":"present","rt":"7384.6000000089","correct":true,"confidence":-1},{"trial_n":91,"span":11,"encoder":"42538273795","distractor":"62538273795","target":"present","response":"present","rt":"4513","correct":true,"confidence":3},{"trial_n":92,"span":11,"encoder":"50944587357","distractor":"50944587557","target":"present","response":"present","rt":"3429.599999994","correct":true,"confidence":5},{"trial_n":93,"span":12,"encoder":"375280825950","distractor":"375280826950","target":"absent","response":"absent","rt":"11562.899999991","correct":true,"confidence":3},{"trial_n":94,"span":12,"encoder":"130677204322","distractor":"130677204722","target":"present","response":"present","rt":"4632","correct":true,"confidence":4},{"trial_n":95,"span":13,"encoder":"0135993318993","distractor":"0135993318493","target":"present","response":"present","rt":"7850.3999999911","correct":true,"confidence":4},{"trial_n":96,"span":13,"encoder":"1740492468865","distractor":"1740492468855","target":"absent","response":"present","rt":"20366.600000009","correct":false,"confidence":2},{"trial_n":97,"span":12,"encoder":"690843799540","distractor":"695843799540","target":"present","response":"present","rt":"15311.100000009","correct":true,"confidence":3},{"trial_n":98,"span":12,"encoder":"933419850970","distractor":"933419650970","target":"present","response":"present","rt":"8794.1000000089","correct":true,"confidence":5},{"trial_n":99,"span":13,"encoder":"7711469378477","distractor":"7711169378477","target":"present","response":"present","rt":"5408.799999997","correct":true,"confidence":4},{"trial_n":100,"span":13,"encoder":"9162378959612","distractor":"9182378959612","target":"absent","response":"present","rt":"21673.300000012","correct":false,"confidence":4},{"trial_n":101,"span":12,"encoder":"887659295617","distractor":"887658295617","target":"present","response":"absent","rt":"613.20000000298","correct":false,"confidence":2},{"trial_n":102,"span":11,"encoder":"83419295559","distractor":"83419295554","target":"present","response":"absent","rt":"358.69999998808","correct":false,"confidence":3},{"trial_n":103,"span":10,"encoder":"5606148349","distractor":"5606108349","target":"present","response":"present","rt":"472","correct":true,"confidence":3},{"trial_n":104,"span":10,"encoder":"5534521529","distractor":"5534521589","target":"present","response":"absent","rt":"429.39999999106","correct":false,"confidence":4},{"trial_n":105,"span":9,"encoder":"621959897","distractor":"621956897","target":"absent","response":"present","rt":"866.90000000596","correct":false,"confidence":2},{"trial_n":106,"span":8,"encoder":"58651236","distractor":"58851236","target":"present","response":"absent","rt":"584.59999999404","correct":false,"confidence":4},{"trial_n":107,"span":7,"encoder":"7647442","distractor":"7647441","target":"absent","response":"present","rt":"744.20000000298","correct":false,"confidence":3},{"trial_n":108,"span":6,"encoder":"418410","distractor":"418400","target":"absent","response":"present","rt":"716","correct":false,"confidence":2},{"trial_n":109,"span":5,"encoder":"04218","distractor":"04211","target":"absent","response":"absent","rt":"1714.799999997","correct":true,"confidence":5},{"trial_n":110,"span":5,"encoder":"71031","distractor":"77031","target":"present","response":"present","rt":"2539.1000000089","correct":true,"confidence":5},{"trial_n":111,"span":6,"encoder":"612522","distractor":"612822","target":"absent","response":"absent","rt":"1618.799999997","correct":true,"confidence":5},{"trial_n":112,"span":6,"encoder":"845717","distractor":"846717","target":"absent","response":"absent","rt":"1599","correct":true,"confidence":5},{"trial_n":113,"span":7,"encoder":"8436963","distractor":"8436263","target":"present","response":"present","rt":"2637.3999999911","correct":true,"confidence":5},{"trial_n":114,"span":7,"encoder":"6381386","distractor":"6381396","target":"present","response":"present","rt":"2038.6000000089","correct":true,"confidence":5},{"trial_n":115,"span":8,"encoder":"32637152","distractor":"32697152","target":"absent","response":"absent","rt":"4207.1999999881","correct":true,"confidence":4},{"trial_n":116,"span":8,"encoder":"01074908","distractor":"01074408","target":"absent","response":"absent","rt":"4266.299999997","correct":true,"confidence":4},{"trial_n":117,"span":9,"encoder":"934804471","distractor":"934834471","target":"absent","response":"present","rt":"10038.5","correct":false,"confidence":1},{"trial_n":118,"span":8,"encoder":"63744619","distractor":"63734619","target":"present","response":"present","rt":"2419.8999999911","correct":true,"confidence":5},{"trial_n":119,"span":8,"encoder":"44502587","distractor":"44502567","target":"absent","response":"absent","rt":"6377.299999997","correct":true,"confidence":4},{"trial_n":120,"span":9,"encoder":"090312613","distractor":"090312643","target":"present","response":"absent","rt":"810.90000000596","correct":false,"confidence":3},{"trial_n":121,"span":8,"encoder":"35496502","distractor":"38496502","target":"absent","response":"absent","rt":"3443.400000006","correct":true,"confidence":5},{"trial_n":122,"span":8,"encoder":"55169676","distractor":"55168676","target":"absent","response":"present","rt":"2634.8000000119","correct":false,"confidence":5},{"trial_n":123,"span":7,"encoder":"2625433","distractor":"2825433","target":"absent","response":"absent","rt":"3536","correct":true,"confidence":5},{"trial_n":124,"span":7,"encoder":"3232270","distractor":"3232240","target":"absent","response":"absent","rt":"2064.400000006","correct":true,"confidence":5},{"trial_n":125,"span":8,"encoder":"15170898","distractor":"15110898","target":"absent","response":"absent","rt":"1660.5","correct":true,"confidence":5},{"trial_n":126,"span":8,"encoder":"00890910","distractor":"00890970","target":"absent","response":"absent","rt":"1746.299999997","correct":true,"confidence":5},{"trial_n":127,"span":9,"encoder":"544577272","distractor":"544576272","target":"absent","response":"absent","rt":"4191.1999999881","correct":true,"confidence":4},{"trial_n":128,"span":9,"encoder":"355001415","distractor":"355007415","target":"present","response":"present","rt":"2782.6999999881","correct":true,"confidence":5},{"trial_n":129,"span":10,"encoder":"1572734586","distractor":"1572744586","target":"present","response":"present","rt":"2674.8999999911","correct":true,"confidence":5},{"trial_n":130,"span":10,"encoder":"7124329069","distractor":"7124329089","target":"absent","response":"absent","rt":"8900.200000003","correct":true,"confidence":5},{"trial_n":131,"span":11,"encoder":"44313926776","distractor":"44313026776","target":"absent","response":"absent","rt":"6960.200000003","correct":true,"confidence":5},{"trial_n":132,"span":11,"encoder":"77720165839","distractor":"77720165439","target":"absent","response":"absent","rt":"401.5","correct":true,"confidence":3},{"trial_n":133,"span":12,"encoder":"394887528097","distractor":"395887528097","target":"present","response":"present","rt":"6145.6000000089","correct":true,"confidence":3},{"trial_n":134,"span":12,"encoder":"385972255417","distractor":"385972655417","target":"present","response":"present","rt":"4956.8999999911","correct":true,"confidence":5},{"trial_n":135,"span":13,"encoder":"8912292137524","distractor":"8912282137524","target":"present","response":"absent","rt":"4646.599999994","correct":false,"confidence":2},{"trial_n":136,"span":12,"encoder":"145904451396","distractor":"145908451396","target":"present","response":"absent","rt":"1320.599999994","correct":false,"confidence":1},{"trial_n":137,"span":11,"encoder":"43506986021","distractor":"43506986091","target":"absent","response":"absent","rt":"6867.200000003","correct":true,"confidence":1},{"trial_n":138,"span":11,"encoder":"72511560766","distractor":"42511560766","target":"present","response":"present","rt":"4916","correct":true,"confidence":4},{"trial_n":139,"span":12,"encoder":"372436677515","distractor":"372436607515","target":"present","response":"present","rt":"887.5","correct":true,"confidence":3},{"trial_n":140,"span":12,"encoder":"871048009602","distractor":"891048009602","target":"present","response":"present","rt":"1000.5","correct":true,"confidence":1}]