[{"trial_n":1,"span":8,"encoder":"88437430","distractor":"88037430","target":"present","response":"present","rt":"3642","correct":true,"confidence":-1},{"trial_n":2,"span":8,"encoder":"00027696","distractor":"00027656","target":"present","response":"present","rt":"1950","correct":true,"confidence":-1},{"trial_n":3,"span":10,"encoder":"1504792839","distractor":"1504792809","target":"absent","response":"absent","rt":"1569","correct":true,"confidence":-1},{"trial_n":4,"span":10,"encoder":"9564137117","distractor":"9564117117","target":"absent","response":"present","rt":"2230","correct":false,"confidence":-1},{"trial_n":5,"span":8,"encoder":"66346836","distractor":"86346836","target":"present","response":"present","rt":"1488","correct":true,"confidence":-1},{"trial_n":6,"span":8,"encoder":"31862744","distractor":"91862744","target":"present","response":"absent","rt":"2282","correct":false,"confidence":-1},{"trial_n":7,"span":6,"encoder":"614153","distractor":"614163","target":"present","response":"present","rt":"1252","correct":true,"confidence":-1},{"trial_n":8,"span":6,"encoder":"682625","distractor":"182625","target":"present","response":"present","rt":"964","correct":true,"confidence":-1},{"trial_n":9,"span":8,"encoder":"70470376","distractor":"70470976","target":"present","response":"present","rt":"2395","correct":true,"confidence":-1},{"trial_n":10,"span":8,"encoder":"57023583","distractor":"37023583","target":"absent","response":"present","rt":"1972","correct":false,"confidence":-1},{"trial_n":11,"span":6,"encoder":"002773","distractor":"002743","target":"absent","response":"present","rt":"1338","correct":false,"confidence":-1},{"trial_n":12,"span":5,"encoder":"35546","distractor":"35549","target":"absent","response":"absent","rt":"2336","correct":true,"confidence":-1},{"trial_n":13,"span":5,"encoder":"44538","distractor":"45538","target":"absent","response":"present","rt":"1366","correct":false,"confidence":-1},{"trial_n":14,"span":4,"encoder":"8686","distractor":"8684","target":"absent","response":"present","rt":"906","correct":false,"confidence":-1},{"trial_n":15,"span":3,"encoder":"774","distractor":"574","target":"present","response":"present","rt":"1484","correct":true,"confidence":-1},{"trial_n":16,"span":3,"encoder":"910","distractor":"510","target":"absent","response":"absent","rt":"1131","correct":true,"confidence":-1},{"trial_n":17,"span":4,"encoder":"4774","distractor":"4773","target":"present","response":"present","rt":"1018","correct":true,"confidence":-1},{"trial_n":18,"span":4,"encoder":"2860","distractor":"2960","target":"present","response":"present","rt":"683","correct":true,"confidence":-1},{"trial_n":19,"span":5,"encoder":"85992","distractor":"85492","target":"present","response":"present","rt":"548","correct":true,"confidence":-1},{"trial_n":20,"span":5,"encoder":"80525","distractor":"84525","target":"absent","response":"present","rt":"482","correct":false,"confidence":-1},{"trial_n":21,"span":4,"encoder":"1596","distractor":"1566","target":"absent","response":"absent","rt":"2955","correct":true,"confidence":4},{"trial_n":22,"span":4,"encoder":"1093","distractor":"9093","target":"absent","response":"absent","rt":"1039","correct":true,"confidence":5},{"trial_n":23,"span":5,"encoder":"55984","distractor":"55944","target":"present","response":"present","rt":"1815","correct":true,"confidence":5},{"trial_n":24,"span":5,"encoder":"72158","distractor":"72157","target":"present","response":"absent","rt":"3316","correct":false,"confidence":4},{"trial_n":25,"span":4,"encoder":"8289","distractor":"8889","target":"absent","response":"absent","rt":"2024","correct":true,"confidence":5},{"trial_n":26,"span":4,"encoder":"0859","distractor":"0559","target":"absent","response":"absent","rt":"1495","correct":true,"confidence":5},{"trial_n":27,"span":5,"encoder":"27667","distractor":"27647","target":"absent","response":"absent","rt":"1548","correct":true,"confidence":5},{"trial_n":28,"span":5,"encoder":"23816","distractor":"13816","target":"present","response":"present","rt":"1167","correct":true,"confidence":4},{"trial_n":29,"span":6,"encoder":"621787","distractor":"622787","target":"present","response":"present","rt":"2231","correct":true,"confidence":4},{"trial_n":30,"span":6,"encoder":"352332","distractor":"352732","target":"absent","response":"absent","rt":"2094","correct":true,"confidence":4},{"trial_n":31,"span":7,"encoder":"9487699","distractor":"5487699","target":"present","response":"present","rt":"1965","correct":true,"confidence":3},{"trial_n":32,"span":7,"encoder":"8334196","distractor":"8354196","target":"absent","response":"absent","rt":"4343","correct":true,"confidence":3},{"trial_n":33,"span":8,"encoder":"23915637","distractor":"33915637","target":"present","response":"absent","rt":"3056","correct":false,"confidence":2},{"trial_n":34,"span":7,"encoder":"8967147","distractor":"8927147","target":"absent","response":"present","rt":"2128","correct":false,"confidence":3},{"trial_n":35,"span":6,"encoder":"169074","distractor":"169077","target":"absent","response":"absent","rt":"1309","correct":true,"confidence":5},{"trial_n":36,"span":6,"encoder":"915639","distractor":"015639","target":"absent","response":"absent","rt":"3956","correct":true,"confidence":1},{"trial_n":37,"span":7,"encoder":"2166193","distractor":"0166193","target":"absent","response":"absent","rt":"1488","correct":true,"confidence":5},{"trial_n":38,"span":7,"encoder":"4902780","distractor":"4900780","target":"present","response":"present","rt":"1592","correct":true,"confidence":3},{"trial_n":39,"span":8,"encoder":"29857893","distractor":"19857893","target":"present","response":"present","rt":"3628","correct":true,"confidence":5},{"trial_n":40,"span":8,"encoder":"08469131","distractor":"08569131","target":"absent","response":"present","rt":"2021.0000000001","correct":false,"confidence":3},{"trial_n":41,"span":7,"encoder":"6455607","distractor":"6455627","target":"present","response":"present","rt":"2138","correct":true,"confidence":3},{"trial_n":42,"span":7,"encoder":"0191385","distractor":"0891385","target":"absent","response":"present","rt":"1592","correct":false,"confidence":3},{"trial_n":43,"span":6,"encoder":"456142","distractor":"457142","target":"absent","response":"absent","rt":"2150.9999999999","correct":true,"confidence":3},{"trial_n":44,"span":6,"encoder":"497234","distractor":"497238","target":"present","response":"present","rt":"1769","correct":true,"confidence":5},{"trial_n":45,"span":7,"encoder":"6940127","distractor":"6910127","target":"absent","response":"absent","rt":"4855","correct":true,"confidence":2},{"trial_n":46,"span":7,"encoder":"4012415","distractor":"4012115","target":"absent","response":"absent","rt":"2048","correct":true,"confidence":3},{"trial_n":47,"span":8,"encoder":"59815803","distractor":"59815843","target":"present","response":"present","rt":"2592.0000000001","correct":true,"confidence":5},{"trial_n":48,"span":8,"encoder":"06282907","distractor":"36282907","target":"present","response":"present","rt":"1959","correct":true,"confidence":4},{"trial_n":49,"span":9,"encoder":"120334724","distractor":"120334774","target":"present","response":"present","rt":"4095","correct":true,"confidence":3},{"trial_n":50,"span":9,"encoder":"074507114","distractor":"674507114","target":"present","response":"present","rt":"3031.0000000001","correct":true,"confidence":3},{"trial_n":51,"span":10,"encoder":"9889278748","distractor":"9889778748","target":"absent","response":"present","rt":"2732","correct":false,"confidence":2},{"trial_n":52,"span":9,"encoder":"326349646","distractor":"326349346","target":"present","response":"present","rt":"1891","correct":true,"confidence":3},{"trial_n":53,"span":9,"encoder":"007343380","distractor":"008343380","target":"absent","response":"absent","rt":"1195","correct":true,"confidence":4},{"trial_n":54,"span":10,"encoder":"7219827151","distractor":"7215827151","target":"present","response":"present","rt":"1769.0000000001","correct":true,"confidence":2},{"trial_n":55,"span":10,"encoder":"5062066123","distractor":"5060066123","target":"absent","response":"present","rt":"3500","correct":false,"confidence":3},{"trial_n":56,"span":9,"encoder":"533409422","distractor":"533409432","target":"present","response":"present","rt":"2582","correct":true,"confidence":3},{"trial_n":57,"span":9,"encoder":"133961249","distractor":"233961249","target":"present","response":"present","rt":"2360","correct":true,"confidence":5},{"trial_n":58,"span":10,"encoder":"9208493929","distractor":"9208493129","target":"absent","response":"present","rt":"4327.9999999999","correct":false,"confidence":4},{"trial_n":59,"span":9,"encoder":"817100466","distractor":"717100466","target":"absent","response":"present","rt":"4075","correct":false,"confidence":1},{"trial_n":60,"span":8,"encoder":"54870829","distractor":"54878829","target":"absent","response":"absent","rt":"2473","correct":true,"confidence":4},{"trial_n":61,"span":8,"encoder":"87280584","distractor":"85280584","target":"present","response":"present","rt":"1764","correct":true,"confidence":3},{"trial_n":62,"span":9,"encoder":"736889341","distractor":"836889341","target":"absent","response":"absent","rt":"1476.9999999999","correct":true,"confidence":4},{"trial_n":63,"span":9,"encoder":"670438176","distractor":"570438176","target":"present","response":"present","rt":"2496","correct":true,"confidence":4},{"trial_n":64,"span":10,"encoder":"7703989022","distractor":"7706989022","target":"present","response":"present","rt":"3899","correct":true,"confidence":2},{"trial_n":65,"span":10,"encoder":"1816438490","distractor":"1816438690","target":"present","response":"present","rt":"2229","correct":true,"confidence":4},{"trial_n":66,"span":11,"encoder":"70500303783","distractor":"70500303743","target":"absent","response":"absent","rt":"1569","correct":true,"confidence":5},{"trial_n":67,"span":11,"encoder":"39993059997","distractor":"39973059997","target":"present","response":"present","rt":"1739","correct":true,"confidence":4},{"trial_n":68,"span":12,"encoder":"260232571491","distractor":"260232271491","target":"absent","response":"absent","rt":"3103","correct":true,"confidence":2},{"trial_n":69,"span":12,"encoder":"076476419786","distractor":"776476419786","target":"present","response":"present","rt":"1557","correct":true,"confidence":2},{"trial_n":70,"span":13,"encoder":"5073552182929","distractor":"5073592182929","target":"present","response":"present","rt":"2365","correct":true,"confidence":1},{"trial_n":71,"span":8,"encoder":"73701631","distractor":"73701638","target":"present","response":"present","rt":"1634","correct":true,"confidence":-1},{"trial_n":72,"span":8,"encoder":"28430557","distractor":"28431557","target":"present","response":"present","rt":"2554","correct":true,"confidence":-1},{"trial_n":73,"span":9,"encoder":"205308393","distractor":"208308393","target":"absent","response":"absent","rt":"5361","correct":true,"confidence":-1},{"trial_n":74,"span":9,"encoder":"787470594","distractor":"786470594","target":"absent","response":"absent","rt":"2078","correct":true,"confidence":-1},{"trial_n":75,"span":10,"encoder":"3723444013","distractor":"3723444713","target":"present","response":"present","rt":"1786","correct":true,"confidence":-1},{"trial_n":76,"span":10,"encoder":"6389128536","distractor":"6386128536","target":"present","response":"present","rt":"7811","correct":true,"confidence":-1},{"trial_n":77,"span":11,"encoder":"46581608217","distractor":"46581648217","target":"present","response":"present","rt":"2432","correct":true,"confidence":-1},{"trial_n":78,"span":11,"encoder":"33284450831","distractor":"33284450835","target":"absent","response":"absent","rt":"2301","correct":true,"confidence":-1},{"trial_n":79,"span":12,"encoder":"342769245507","distractor":"342729245507","target":"present","response":"present","rt":"6013","correct":true,"confidence":-1},{"trial_n":80,"span":12,"encoder":"554287296649","distractor":"554277296649","target":"absent","response":"absent","rt":"4663","correct":true,"confidence":-1},{"trial_n":81,"span":13,"encoder":"0837024299276","distractor":"0837024299226","target":"present","response":"present","rt":"3815.0000000001","correct":true,"confidence":-1},{"trial_n":82,"span":13,"encoder":"8032628647002","distractor":"8032688647002","target":"present","response":"absent","rt":"6798.9999999999","correct":false,"confidence":-1},{"trial_n":83,"span":12,"encoder":"376243790841","distractor":"376243710841","target":"absent","response":"present","rt":"2278","correct":false,"confidence":-1},{"trial_n":84,"span":11,"encoder":"33993600545","distractor":"38993600545","target":"absent","response":"absent","rt":"4259.0000000001","correct":true,"confidence":-1},{"trial_n":85,"span":11,"encoder":"06249665667","distractor":"06249661667","target":"present","response":"present","rt":"1971","correct":true,"confidence":-1},{"trial_n":86,"span":12,"encoder":"876224195987","distractor":"876624195987","target":"absent","response":"present","rt":"3091","correct":false,"confidence":-1},{"trial_n":87,"span":11,"encoder":"99980191117","distractor":"99980198117","target":"absent","response":"absent","rt":"10111","correct":true,"confidence":-1},{"trial_n":88,"span":11,"encoder":"68469037421","distractor":"68469037821","target":"present","response":"present","rt":"1428","correct":true,"confidence":-1},{"trial_n":89,"span":12,"encoder":"152938308367","distractor":"152938308167","target":"absent","response":"present","rt":"4607","correct":false,"confidence":-1},{"trial_n":90,"span":11,"encoder":"16792269899","distractor":"16792269839","target":"absent","response":"absent","rt":"1439","correct":true,"confidence":-1},{"trial_n":91,"span":11,"encoder":"58371676042","distractor":"58371656042","target":"absent","response":"absent","rt":"7085","correct":true,"confidence":1},{"trial_n":92,"span":12,"encoder":"726998946697","distractor":"726998941697","target":"absent","response":"absent","rt":"1795.9999999999","correct":true,"confidence":4},{"trial_n":93,"span":12,"encoder":"716818590042","distractor":"716818590142","target":"absent","response":"absent","rt":"1986","correct":true,"confidence":3},{"trial_n":94,"span":13,"encoder":"8262679655620","distractor":"8262649655620","target":"absent","response":"absent","rt":"1920","correct":true,"confidence":1},{"trial_n":95,"span":13,"encoder":"7250990417360","distractor":"7250990117360","target":"present","response":"present","rt":"3132","correct":true,"confidence":1},{"trial_n":96,"span":14,"encoder":"11322173764775","distractor":"11322173764735","target":"absent","response":"absent","rt":"1923","correct":true,"confidence":4},{"trial_n":97,"span":14,"encoder":"85485673698464","distractor":"85481673698464","target":"absent","response":"absent","rt":"2416.9999999999","correct":true,"confidence":1},{"trial_n":98,"span":15,"encoder":"189843457511855","distractor":"189843457511851","target":"present","response":"absent","rt":"5652","correct":false,"confidence":1},{"trial_n":99,"span":14,"encoder":"28305314035442","distractor":"28305311035442","target":"absent","response":"absent","rt":"1727","correct":true,"confidence":1},{"trial_n":100,"span":14,"encoder":"22800189606184","distractor":"22800189606188","target":"present","response":"present","rt":"1735","correct":true,"confidence":4},{"trial_n":101,"span":15,"encoder":"077344877502002","distractor":"077384877502002","target":"absent","response":"present","rt":"3947.0000000001","correct":false,"confidence":2},{"trial_n":102,"span":14,"encoder":"40309180933640","distractor":"47309180933640","target":"absent","response":"absent","rt":"13505","correct":true,"confidence":1},{"trial_n":103,"span":14,"encoder":"02830349584855","distractor":"02830349504855","target":"absent","response":"absent","rt":"10151","correct":true,"confidence":1},{"trial_n":104,"span":15,"encoder":"545302410055507","distractor":"541302410055507","target":"present","response":"present","rt":"6023","correct":true,"confidence":3},{"trial_n":105,"span":15,"encoder":"919460596892336","distractor":"919466596892336","target":"absent","response":"absent","rt":"4998.0000000001","correct":true,"confidence":1},{"trial_n":106,"span":16,"encoder":"7551155899522931","distractor":"7551155899522991","target":"present","response":"absent","rt":"1996","correct":false,"confidence":2},{"trial_n":107,"span":15,"encoder":"216673249182934","distractor":"216673049182934","target":"present","response":"present","rt":"3858.9999999999","correct":true,"confidence":1},{"trial_n":108,"span":15,"encoder":"154951151445541","distractor":"154951751445541","target":"present","response":"present","rt":"5166","correct":true,"confidence":2},{"trial_n":109,"span":16,"encoder":"8198971531049969","distractor":"8198971531045969","target":"present","response":"absent","rt":"4407","correct":false,"confidence":3},{"trial_n":110,"span":15,"encoder":"510016492145625","distractor":"510026492145625","target":"present","response":"present","rt":"6219.0000000002","correct":true,"confidence":3},{"trial_n":111,"span":15,"encoder":"524007309129744","distractor":"924007309129744","target":"present","response":"absent","rt":"7261","correct":false,"confidence":1},{"trial_n":112,"span":14,"encoder":"00812048494766","distractor":"00812048498766","target":"present","response":"absent","rt":"5950.0000000002","correct":false,"confidence":1},{"trial_n":113,"span":13,"encoder":"3520345170030","distractor":"3521345170030","target":"present","response":"absent","rt":"4042","correct":false,"confidence":1},{"trial_n":114,"span":12,"encoder":"273629131135","distractor":"273629031135","target":"absent","response":"absent","rt":"4797","correct":true,"confidence":1},{"trial_n":115,"span":12,"encoder":"364845283654","distractor":"364845283684","target":"absent","response":"absent","rt":"13574","correct":true,"confidence":3},{"trial_n":116,"span":13,"encoder":"2203544383210","distractor":"2203544389210","target":"present","response":"present","rt":"3256","correct":true,"confidence":1},{"trial_n":117,"span":13,"encoder":"3529596993023","distractor":"3529596993723","target":"present","response":"present","rt":"4990","correct":true,"confidence":3},{"trial_n":118,"span":14,"encoder":"45905854358918","distractor":"45905854358118","target":"absent","response":"absent","rt":"1272","correct":true,"confidence":3},{"trial_n":119,"span":14,"encoder":"42374109043018","distractor":"44374109043018","target":"absent","response":"present","rt":"3761","correct":false,"confidence":1},{"trial_n":120,"span":13,"encoder":"1051172693132","distractor":"1051172698132","target":"absent","response":"absent","rt":"7528","correct":true,"confidence":1},{"trial_n":121,"span":13,"encoder":"2218168531643","distractor":"2218168131643","target":"absent","response":"absent","rt":"2991","correct":true,"confidence":1},{"trial_n":122,"span":14,"encoder":"17387270072559","distractor":"17387270070559","target":"present","response":"present","rt":"1710.0000000002","correct":true,"confidence":1},{"trial_n":123,"span":14,"encoder":"08044285132586","distractor":"08043285132586","target":"absent","response":"present","rt":"4319.9999999998","correct":false,"confidence":1},{"trial_n":124,"span":13,"encoder":"6915238882125","distractor":"6915238482125","target":"absent","response":"present","rt":"4559","correct":false,"confidence":1},{"trial_n":125,"span":12,"encoder":"751643774385","distractor":"851643774385","target":"absent","response":"absent","rt":"2478","correct":true,"confidence":3},{"trial_n":126,"span":12,"encoder":"406344592956","distractor":"406344592946","target":"present","response":"present","rt":"11004","correct":true,"confidence":1},{"trial_n":127,"span":13,"encoder":"0021567121280","distractor":"0021567128280","target":"present","response":"present","rt":"5552","correct":true,"confidence":1},{"trial_n":128,"span":13,"encoder":"0210596898108","distractor":"0210556898108","target":"present","response":"present","rt":"5279","correct":true,"confidence":1},{"trial_n":129,"span":14,"encoder":"75620397338127","distractor":"75620397335127","target":"present","response":"present","rt":"4453","correct":true,"confidence":1},{"trial_n":130,"span":14,"encoder":"94405737734415","distractor":"94407737734415","target":"absent","response":"absent","rt":"9819","correct":true,"confidence":1},{"trial_n":131,"span":15,"encoder":"334254170587138","distractor":"334554170587138","target":"present","response":"present","rt":"1400","correct":true,"confidence":1},{"trial_n":132,"span":15,"encoder":"382696533104577","distractor":"382696533104677","target":"present","response":"present","rt":"1793","correct":true,"confidence":1},{"trial_n":133,"span":16,"encoder":"3304402145500813","distractor":"3304432145500813","target":"present","response":"absent","rt":"4662","correct":false,"confidence":1},{"trial_n":134,"span":15,"encoder":"428654530879673","distractor":"428656530879673","target":"present","response":"present","rt":"2185","correct":true,"confidence":1},{"trial_n":135,"span":15,"encoder":"905365274918984","distractor":"905361274918984","target":"absent","response":"present","rt":"2549","correct":false,"confidence":1},{"trial_n":136,"span":14,"encoder":"17043370114904","distractor":"17043370114924","target":"present","response":"present","rt":"2174.9999999998","correct":true,"confidence":3},{"trial_n":137,"span":14,"encoder":"49909993466365","distractor":"49909993266365","target":"absent","response":"absent","rt":"5314","correct":true,"confidence":1},{"trial_n":138,"span":15,"encoder":"349935578713131","distractor":"349965578713131","target":"present","response":"present","rt":"2651","correct":true,"confidence":3},{"trial_n":139,"span":15,"encoder":"401843965021201","distractor":"401803965021201","target":"absent","response":"present","rt":"10670","correct":false,"confidence":2},{"trial_n":140,"span":14,"encoder":"06763969969197","distractor":"04763969969197","target":"present","response":"present","rt":"3497.9999999998","correct":true,"confidence":4}]