[{"trial_n":1,"span":8,"encoder":"71711001","distractor":"74711001","target":"present","response":"present","rt":"1706.700000003","correct":true,"confidence":-1},{"trial_n":2,"span":8,"encoder":"67434022","distractor":"37434022","target":"present","response":"present","rt":"1037.799999997","correct":true,"confidence":-1},{"trial_n":3,"span":10,"encoder":"4166993491","distractor":"4166999491","target":"absent","response":"absent","rt":"1521.700000003","correct":true,"confidence":-1},{"trial_n":4,"span":10,"encoder":"1923847613","distractor":"1923847633","target":"absent","response":"absent","rt":"1169.5","correct":true,"confidence":-1},{"trial_n":5,"span":12,"encoder":"829508285903","distractor":"824508285903","target":"present","response":"present","rt":"1299.900000006","correct":true,"confidence":-1},{"trial_n":6,"span":12,"encoder":"703656100380","distractor":"703656100382","target":"present","response":"present","rt":"1470.3999999911","correct":true,"confidence":-1},{"trial_n":7,"span":14,"encoder":"41917577769965","distractor":"41917577769465","target":"absent","response":"present","rt":"682.60000000894","correct":false,"confidence":-1},{"trial_n":8,"span":12,"encoder":"698497421440","distractor":"698491421440","target":"present","response":"absent","rt":"697.59999999404","correct":false,"confidence":-1},{"trial_n":9,"span":10,"encoder":"0190759735","distractor":"9190759735","target":"present","response":"present","rt":"773.09999999404","correct":true,"confidence":-1},{"trial_n":10,"span":10,"encoder":"4813388916","distractor":"4813385916","target":"absent","response":"absent","rt":"764.5","correct":true,"confidence":-1},{"trial_n":11,"span":12,"encoder":"958049161312","distractor":"958044161312","target":"absent","response":"absent","rt":"1010","correct":true,"confidence":-1},{"trial_n":12,"span":12,"encoder":"010267375794","distractor":"010267373794","target":"absent","response":"present","rt":"1476.5","correct":false,"confidence":-1},{"trial_n":13,"span":11,"encoder":"82737655038","distractor":"82737655538","target":"present","response":"present","rt":"887.10000000894","correct":true,"confidence":-1},{"trial_n":14,"span":11,"encoder":"19164942185","distractor":"19164942155","target":"present","response":"present","rt":"788.10000000894","correct":true,"confidence":-1},{"trial_n":15,"span":12,"encoder":"211450064066","distractor":"211450064036","target":"present","response":"present","rt":"910.40000000596","correct":true,"confidence":-1},{"trial_n":16,"span":12,"encoder":"712440344464","distractor":"712440344164","target":"present","response":"present","rt":"915.30000001192","correct":true,"confidence":-1},{"trial_n":17,"span":13,"encoder":"3731019879236","distractor":"3738019879236","target":"absent","response":"absent","rt":"415.09999999404","correct":true,"confidence":-1},{"trial_n":18,"span":13,"encoder":"7472260177052","distractor":"7472260177056","target":"present","response":"present","rt":"656.79999999702","correct":true,"confidence":-1},{"trial_n":19,"span":14,"encoder":"77251033850111","distractor":"77251033850151","target":"present","response":"present","rt":"527","correct":true,"confidence":-1},{"trial_n":20,"span":14,"encoder":"13820562394906","distractor":"13820562394206","target":"absent","response":"present","rt":"673.40000000596","correct":false,"confidence":-1},{"trial_n":21,"span":13,"encoder":"8375856806315","distractor":"8385856806315","target":"present","response":"present","rt":"789.90000000596","correct":true,"confidence":4},{"trial_n":22,"span":13,"encoder":"3484196407206","distractor":"3484196487206","target":"present","response":"present","rt":"3267.700000003","correct":true,"confidence":3},{"trial_n":23,"span":14,"encoder":"39835829981697","distractor":"39835829981698","target":"absent","response":"absent","rt":"1175.6999999881","correct":true,"confidence":5},{"trial_n":24,"span":14,"encoder":"75178458213786","distractor":"75178458213766","target":"present","response":"present","rt":"895.40000000596","correct":true,"confidence":3},{"trial_n":25,"span":15,"encoder":"382239000929823","distractor":"372239000929823","target":"present","response":"present","rt":"2178.6999999881","correct":true,"confidence":3},{"trial_n":26,"span":15,"encoder":"562820002034238","distractor":"562820002031238","target":"absent","response":"absent","rt":"3450.5","correct":true,"confidence":3},{"trial_n":27,"span":16,"encoder":"1311438378126369","distractor":"2311438378126369","target":"present","response":"absent","rt":"1126","correct":false,"confidence":1},{"trial_n":28,"span":15,"encoder":"562827684278567","distractor":"562827584278567","target":"present","response":"absent","rt":"1879.8999999911","correct":false,"confidence":3},{"trial_n":29,"span":14,"encoder":"86409970342298","distractor":"86409970352298","target":"absent","response":"absent","rt":"4189.1000000089","correct":true,"confidence":2},{"trial_n":30,"span":14,"encoder":"10833832350405","distractor":"10830832350405","target":"present","response":"present","rt":"4163","correct":true,"confidence":2},{"trial_n":31,"span":15,"encoder":"891445643582732","distractor":"891945643582732","target":"absent","response":"present","rt":"1599.599999994","correct":false,"confidence":2},{"trial_n":32,"span":14,"encoder":"24760452676870","distractor":"24760452076870","target":"present","response":"absent","rt":"1741.5","correct":false,"confidence":3},{"trial_n":33,"span":13,"encoder":"7163789553507","distractor":"7163749553507","target":"absent","response":"present","rt":"1394.400000006","correct":false,"confidence":4},{"trial_n":34,"span":12,"encoder":"242040733771","distractor":"242040733791","target":"absent","response":"absent","rt":"1973.900000006","correct":true,"confidence":3},{"trial_n":35,"span":12,"encoder":"838109143139","distractor":"838129143139","target":"absent","response":"absent","rt":"2651.799999997","correct":true,"confidence":2},{"trial_n":36,"span":13,"encoder":"6002882837100","distractor":"6002887837100","target":"absent","response":"absent","rt":"4274.3000000119","correct":true,"confidence":3},{"trial_n":37,"span":13,"encoder":"6083314287911","distractor":"6083314287961","target":"present","response":"absent","rt":"3536.1000000089","correct":false,"confidence":3},{"trial_n":38,"span":12,"encoder":"171433089360","distractor":"371433089360","target":"present","response":"present","rt":"4157.5","correct":true,"confidence":3},{"trial_n":39,"span":12,"encoder":"401939407313","distractor":"201939407313","target":"absent","response":"absent","rt":"1634","correct":true,"confidence":3},{"trial_n":40,"span":13,"encoder":"2750104699491","distractor":"2750104629491","target":"present","response":"present","rt":"1972.200000003","correct":true,"confidence":2},{"trial_n":41,"span":13,"encoder":"8287212709916","distractor":"8287212709906","target":"present","response":"absent","rt":"2390.3000000119","correct":false,"confidence":3},{"trial_n":42,"span":12,"encoder":"345114447762","distractor":"345114447662","target":"absent","response":"present","rt":"1925","correct":false,"confidence":3},{"trial_n":43,"span":11,"encoder":"10536880934","distractor":"10526880934","target":"present","response":"absent","rt":"4901.299999997","correct":false,"confidence":3},{"trial_n":44,"span":10,"encoder":"9288636111","distractor":"9285636111","target":"present","response":"present","rt":"1530.3999999911","correct":true,"confidence":2},{"trial_n":45,"span":10,"encoder":"5336533147","distractor":"5336133147","target":"present","response":"present","rt":"2048.5","correct":true,"confidence":1},{"trial_n":46,"span":11,"encoder":"80623889761","distractor":"80623889721","target":"absent","response":"absent","rt":"1392.5","correct":true,"confidence":3},{"trial_n":47,"span":11,"encoder":"23984042451","distractor":"23984042051","target":"absent","response":"absent","rt":"1666","correct":true,"confidence":4},{"trial_n":48,"span":12,"encoder":"396327472728","distractor":"396327472748","target":"absent","response":"present","rt":"3194.700000003","correct":false,"confidence":3},{"trial_n":49,"span":11,"encoder":"19668273446","distractor":"19658273446","target":"present","response":"present","rt":"2073.799999997","correct":true,"confidence":3},{"trial_n":50,"span":11,"encoder":"09398102117","distractor":"09398102127","target":"absent","response":"present","rt":"3080.200000003","correct":false,"confidence":3},{"trial_n":51,"span":10,"encoder":"7124117618","distractor":"7124117218","target":"absent","response":"present","rt":"1202","correct":false,"confidence":2},{"trial_n":52,"span":9,"encoder":"836559493","distractor":"831559493","target":"absent","response":"present","rt":"1220.3999999911","correct":false,"confidence":3},{"trial_n":53,"span":8,"encoder":"31631141","distractor":"31431141","target":"present","response":"present","rt":"760.09999999404","correct":true,"confidence":1},{"trial_n":54,"span":8,"encoder":"80754582","distractor":"80774582","target":"present","response":"present","rt":"918.79999999702","correct":true,"confidence":4},{"trial_n":55,"span":9,"encoder":"419145507","distractor":"419845507","target":"present","response":"present","rt":"673.79999999702","correct":true,"confidence":4},{"trial_n":56,"span":9,"encoder":"693798973","distractor":"643798973","target":"absent","response":"present","rt":"647.70000000298","correct":false,"confidence":4},{"trial_n":57,"span":8,"encoder":"50740083","distractor":"50740080","target":"absent","response":"absent","rt":"1781","correct":true,"confidence":5},{"trial_n":58,"span":8,"encoder":"49120073","distractor":"49120083","target":"absent","response":"present","rt":"1155.6000000089","correct":false,"confidence":4},{"trial_n":59,"span":7,"encoder":"4416645","distractor":"4516645","target":"absent","response":"present","rt":"858.09999999404","correct":false,"confidence":4},{"trial_n":60,"span":6,"encoder":"905966","distractor":"905166","target":"absent","response":"present","rt":"717.5","correct":false,"confidence":4},{"trial_n":61,"span":5,"encoder":"54928","distractor":"58928","target":"absent","response":"present","rt":"1034","correct":false,"confidence":5},{"trial_n":62,"span":4,"encoder":"5903","distractor":"6903","target":"absent","response":"absent","rt":"2813.1999999881","correct":true,"confidence":5},{"trial_n":63,"span":4,"encoder":"0606","distractor":"6606","target":"absent","response":"absent","rt":"1806.099999994","correct":true,"confidence":5},{"trial_n":64,"span":5,"encoder":"93114","distractor":"95114","target":"present","response":"present","rt":"1256.5","correct":true,"confidence":5},{"trial_n":65,"span":5,"encoder":"23293","distractor":"23233","target":"present","response":"present","rt":"1096.900000006","correct":true,"confidence":5},{"trial_n":66,"span":6,"encoder":"101988","distractor":"101968","target":"absent","response":"absent","rt":"1781.200000003","correct":true,"confidence":5},{"trial_n":67,"span":6,"encoder":"831877","distractor":"831977","target":"present","response":"absent","rt":"11029.299999997","correct":false,"confidence":3},{"trial_n":68,"span":5,"encoder":"16056","distractor":"10056","target":"present","response":"present","rt":"1518.3999999911","correct":true,"confidence":5},{"trial_n":69,"span":5,"encoder":"07219","distractor":"07519","target":"present","response":"present","rt":"1248","correct":true,"confidence":5},{"trial_n":70,"span":6,"encoder":"092955","distractor":"092255","target":"absent","response":"absent","rt":"2141.3999999911","correct":true,"confidence":5},{"trial_n":71,"span":8,"encoder":"00972515","distractor":"00972525","target":"present","response":"present","rt":"4704.299999997","correct":true,"confidence":-1},{"trial_n":72,"span":8,"encoder":"56724408","distractor":"52724408","target":"present","response":"present","rt":"14691.399999991","correct":true,"confidence":-1},{"trial_n":73,"span":9,"encoder":"376829214","distractor":"376859214","target":"absent","response":"absent","rt":"3879.3999999911","correct":true,"confidence":-1},{"trial_n":74,"span":9,"encoder":"911405758","distractor":"911405756","target":"absent","response":"present","rt":"1731","correct":false,"confidence":-1},{"trial_n":75,"span":8,"encoder":"55117298","distractor":"55117296","target":"present","response":"present","rt":"1055.5","correct":true,"confidence":-1},{"trial_n":76,"span":8,"encoder":"88021074","distractor":"88021072","target":"present","response":"present","rt":"916.79999999702","correct":true,"confidence":-1},{"trial_n":77,"span":9,"encoder":"249819390","distractor":"249812390","target":"present","response":"present","rt":"2282.599999994","correct":true,"confidence":-1},{"trial_n":78,"span":9,"encoder":"465038773","distractor":"965038773","target":"present","response":"present","rt":"4015.6999999881","correct":true,"confidence":-1},{"trial_n":79,"span":10,"encoder":"7168859373","distractor":"7168852373","target":"present","response":"present","rt":"3060.900000006","correct":true,"confidence":-1},{"trial_n":80,"span":10,"encoder":"5692900661","distractor":"5692960661","target":"present","response":"present","rt":"2100.1999999881","correct":true,"confidence":-1},{"trial_n":81,"span":11,"encoder":"90670495973","distractor":"98670495973","target":"absent","response":"present","rt":"5314.700000003","correct":false,"confidence":-1},{"trial_n":82,"span":10,"encoder":"0777822593","distractor":"0477822593","target":"present","response":"present","rt":"5611","correct":true,"confidence":-1},{"trial_n":83,"span":10,"encoder":"3725665016","distractor":"3722665016","target":"absent","response":"present","rt":"3348.200000003","correct":false,"confidence":-1},{"trial_n":84,"span":9,"encoder":"679999154","distractor":"639999154","target":"absent","response":"absent","rt":"2854.599999994","correct":true,"confidence":-1},{"trial_n":85,"span":9,"encoder":"922173388","distractor":"922113388","target":"absent","response":"absent","rt":"3448.400000006","correct":true,"confidence":-1},{"trial_n":86,"span":10,"encoder":"9439856893","distractor":"9939856893","target":"present","response":"present","rt":"4933.900000006","correct":true,"confidence":-1},{"trial_n":87,"span":10,"encoder":"2844708781","distractor":"7844708781","target":"present","response":"absent","rt":"1505.799999997","correct":false,"confidence":-1},{"trial_n":88,"span":9,"encoder":"889387900","distractor":"889387940","target":"present","response":"present","rt":"1394.200000003","correct":true,"confidence":-1},{"trial_n":89,"span":9,"encoder":"250904683","distractor":"250924683","target":"present","response":"present","rt":"3709","correct":true,"confidence":-1},{"trial_n":90,"span":10,"encoder":"6659522771","distractor":"6653522771","target":"present","response":"present","rt":"2695.799999997","correct":true,"confidence":-1},{"trial_n":91,"span":10,"encoder":"9735896580","distractor":"2735896580","target":"absent","response":"absent","rt":"2980.099999994","correct":true,"confidence":4},{"trial_n":92,"span":11,"encoder":"53401993509","distractor":"53201993509","target":"present","response":"present","rt":"3864.400000006","correct":true,"confidence":2},{"trial_n":93,"span":11,"encoder":"91092567414","distractor":"91092561414","target":"present","response":"present","rt":"2125.1000000089","correct":true,"confidence":1},{"trial_n":94,"span":12,"encoder":"072203880778","distractor":"078203880778","target":"present","response":"present","rt":"3252.799999997","correct":true,"confidence":3},{"trial_n":95,"span":12,"encoder":"408668687512","distractor":"408628687512","target":"absent","response":"absent","rt":"4090.700000003","correct":true,"confidence":3},{"trial_n":96,"span":13,"encoder":"5126241754721","distractor":"1126241754721","target":"absent","response":"absent","rt":"3557.799999997","correct":true,"confidence":4},{"trial_n":97,"span":13,"encoder":"8851805562335","distractor":"8851105562335","target":"absent","response":"absent","rt":"3864.299999997","correct":true,"confidence":4},{"trial_n":98,"span":14,"encoder":"93149933950183","distractor":"93549933950183","target":"absent","response":"present","rt":"2455.299999997","correct":false,"confidence":1},{"trial_n":99,"span":13,"encoder":"1017616485039","distractor":"1011616485039","target":"absent","response":"absent","rt":"3474.5","correct":true,"confidence":2},{"trial_n":100,"span":13,"encoder":"8000484044910","distractor":"8000484047910","target":"present","response":"present","rt":"5612.200000003","correct":true,"confidence":2},{"trial_n":101,"span":14,"encoder":"79090346254094","distractor":"79090346254494","target":"absent","response":"present","rt":"5176.900000006","correct":false,"confidence":3},{"trial_n":102,"span":13,"encoder":"5399806645036","distractor":"5399306645036","target":"present","response":"present","rt":"4474.200000003","correct":true,"confidence":1},{"trial_n":103,"span":13,"encoder":"4418986844419","distractor":"4418989844419","target":"absent","response":"absent","rt":"8164.599999994","correct":true,"confidence":2},{"trial_n":104,"span":14,"encoder":"05760069080738","distractor":"05760069080758","target":"absent","response":"absent","rt":"3215.599999994","correct":true,"confidence":5},{"trial_n":105,"span":14,"encoder":"28256891247854","distractor":"29256891247854","target":"absent","response":"absent","rt":"3151.299999997","correct":true,"confidence":1},{"trial_n":106,"span":15,"encoder":"614039816853818","distractor":"614039216853818","target":"present","response":"absent","rt":"2431.299999997","correct":false,"confidence":2},{"trial_n":107,"span":14,"encoder":"79437314899344","distractor":"79437314899354","target":"present","response":"present","rt":"2071.8999999911","correct":true,"confidence":2},{"trial_n":108,"span":14,"encoder":"42125842510774","distractor":"42125842512774","target":"present","response":"present","rt":"3408","correct":true,"confidence":3},{"trial_n":109,"span":15,"encoder":"485833118686002","distractor":"485833418686002","target":"absent","response":"absent","rt":"2685.099999994","correct":true,"confidence":4},{"trial_n":110,"span":15,"encoder":"027473800829205","distractor":"027473800829305","target":"absent","response":"absent","rt":"5634.900000006","correct":true,"confidence":1},{"trial_n":111,"span":16,"encoder":"5267180168675698","distractor":"5267180168675598","target":"absent","response":"present","rt":"1980","correct":false,"confidence":1},{"trial_n":112,"span":15,"encoder":"963828187148687","distractor":"963808187148687","target":"present","response":"absent","rt":"2398.6999999881","correct":false,"confidence":1},{"trial_n":113,"span":14,"encoder":"07368242240062","distractor":"07368242241062","target":"absent","response":"absent","rt":"2959.099999994","correct":true,"confidence":3},{"trial_n":114,"span":14,"encoder":"89722765329799","distractor":"89322765329799","target":"present","response":"present","rt":"8037.400000006","correct":true,"confidence":2},{"trial_n":115,"span":15,"encoder":"158079392540657","distractor":"151079392540657","target":"absent","response":"present","rt":"4981.6000000089","correct":false,"confidence":1},{"trial_n":116,"span":14,"encoder":"34360109632542","distractor":"34360109633542","target":"absent","response":"absent","rt":"3193.3999999911","correct":true,"confidence":3},{"trial_n":117,"span":14,"encoder":"75210118798142","distractor":"75210115798142","target":"present","response":"absent","rt":"4069.200000003","correct":false,"confidence":1},{"trial_n":118,"span":13,"encoder":"9093887070512","distractor":"9093847070512","target":"absent","response":"absent","rt":"1882.3999999911","correct":true,"confidence":1},{"trial_n":119,"span":13,"encoder":"8741370525496","distractor":"8741370585496","target":"present","response":"absent","rt":"5921.5","correct":false,"confidence":3},{"trial_n":120,"span":12,"encoder":"675746720432","distractor":"475746720432","target":"present","response":"present","rt":"1751.099999994","correct":true,"confidence":4},{"trial_n":121,"span":12,"encoder":"590911771496","distractor":"590911776496","target":"absent","response":"present","rt":"1688.900000006","correct":false,"confidence":1},{"trial_n":122,"span":11,"encoder":"65110803002","distractor":"65010803002","target":"absent","response":"present","rt":"6939.299999997","correct":false,"confidence":2},{"trial_n":123,"span":10,"encoder":"9926577112","distractor":"9926537112","target":"absent","response":"present","rt":"4032.200000003","correct":false,"confidence":3},{"trial_n":124,"span":9,"encoder":"057683219","distractor":"057623219","target":"present","response":"absent","rt":"7955","correct":false,"confidence":1},{"trial_n":125,"span":8,"encoder":"24006821","distractor":"24006823","target":"absent","response":"absent","rt":"3744.299999997","correct":true,"confidence":4},{"trial_n":126,"span":8,"encoder":"74604349","distractor":"74704349","target":"present","response":"present","rt":"3839.6999999881","correct":true,"confidence":1},{"trial_n":127,"span":9,"encoder":"320510858","distractor":"320510898","target":"absent","response":"absent","rt":"1531","correct":true,"confidence":5},{"trial_n":128,"span":9,"encoder":"425887554","distractor":"425887544","target":"absent","response":"absent","rt":"1535.799999997","correct":true,"confidence":5},{"trial_n":129,"span":10,"encoder":"0663013439","distractor":"0063013439","target":"present","response":"present","rt":"7980.5","correct":true,"confidence":1},{"trial_n":130,"span":10,"encoder":"8930026649","distractor":"8930026149","target":"absent","response":"absent","rt":"2238.599999994","correct":true,"confidence":3},{"trial_n":131,"span":11,"encoder":"26014800651","distractor":"22014800651","target":"absent","response":"absent","rt":"3688.099999994","correct":true,"confidence":2},{"trial_n":132,"span":11,"encoder":"14392818002","distractor":"14392818004","target":"absent","response":"absent","rt":"1600.5","correct":true,"confidence":4},{"trial_n":133,"span":12,"encoder":"577094402545","distractor":"577094202545","target":"present","response":"absent","rt":"4118.700000003","correct":false,"confidence":1},{"trial_n":134,"span":11,"encoder":"74189791163","distractor":"78189791163","target":"present","response":"absent","rt":"4257.599999994","correct":false,"confidence":1},{"trial_n":135,"span":10,"encoder":"6778180398","distractor":"6778180798","target":"present","response":"absent","rt":"4594.1999999881","correct":false,"confidence":1},{"trial_n":136,"span":9,"encoder":"607483761","distractor":"607413761","target":"present","response":"absent","rt":"3928.700000003","correct":false,"confidence":1},{"trial_n":137,"span":8,"encoder":"37485991","distractor":"30485991","target":"absent","response":"present","rt":"2838.299999997","correct":false,"confidence":3},{"trial_n":138,"span":7,"encoder":"6421864","distractor":"6421264","target":"absent","response":"absent","rt":"2259.900000006","correct":true,"confidence":1},{"trial_n":139,"span":7,"encoder":"6106173","distractor":"6146173","target":"present","response":"absent","rt":"1505.6000000089","correct":false,"confidence":3},{"trial_n":140,"span":6,"encoder":"504069","distractor":"504079","target":"present","response":"present","rt":"2421.799999997","correct":true,"confidence":5}]