[{"trial_n":1,"n_dots":4.25,"target":"left","response":"right","rt":2097,"correct":false,"confidence":-1},{"trial_n":2,"n_dots":4.25,"target":"left","response":"left","rt":4629,"correct":true,"confidence":-1},{"trial_n":3,"n_dots":4.25,"target":"right","response":"right","rt":416,"correct":true,"confidence":-1},{"trial_n":4,"n_dots":3.85,"target":"right","response":"right","rt":238,"correct":true,"confidence":-1},{"trial_n":5,"n_dots":3.85,"target":"right","response":"right","rt":660,"correct":true,"confidence":-1},{"trial_n":6,"n_dots":3.45,"target":"right","response":"left","rt":239,"correct":false,"confidence":-1},{"trial_n":7,"n_dots":3.85,"target":"left","response":"left","rt":881,"correct":true,"confidence":-1},{"trial_n":8,"n_dots":3.85,"target":"left","response":"right","rt":503.99999999997,"correct":false,"confidence":-1},{"trial_n":9,"n_dots":4.05,"target":"left","response":"right","rt":283.00000000003,"correct":false,"confidence":-1},{"trial_n":10,"n_dots":4.25,"target":"right","response":"right","rt":175.00000000003,"correct":true,"confidence":-1},{"trial_n":11,"n_dots":4.25,"target":"right","response":"right","rt":238,"correct":true,"confidence":-1},{"trial_n":12,"n_dots":4.05,"target":"left","response":"left","rt":152.00000000003,"correct":true,"confidence":-1},{"trial_n":13,"n_dots":4.05,"target":"right","response":"right","rt":262,"correct":true,"confidence":-1},{"trial_n":14,"n_dots":3.95,"target":"left","response":"left","rt":263,"correct":true,"confidence":-1},{"trial_n":15,"n_dots":3.95,"target":"left","response":"right","rt":837,"correct":false,"confidence":-1},{"trial_n":16,"n_dots":4.05,"target":"left","response":"left","rt":194.99999999997,"correct":true,"confidence":-1},{"trial_n":17,"n_dots":4.05,"target":"left","response":"left","rt":263,"correct":true,"confidence":-1},{"trial_n":18,"n_dots":3.95,"target":"right","response":"right","rt":108,"correct":true,"confidence":-1},{"trial_n":19,"n_dots":3.95,"target":"right","response":"right","rt":307,"correct":true,"confidence":-1},{"trial_n":20,"n_dots":3.85,"target":"right","response":"right","rt":374,"correct":true,"confidence":-1},{"trial_n":21,"n_dots":3.85,"target":"right","response":"right","rt":896.00000000003,"correct":true,"confidence":2},{"trial_n":22,"n_dots":3.75,"target":"left","response":"right","rt":387,"correct":false,"confidence":2},{"trial_n":23,"n_dots":3.85,"target":"right","response":"right","rt":277,"correct":true,"confidence":3},{"trial_n":24,"n_dots":3.85,"target":"right","response":"right","rt":1095,"correct":true,"confidence":2},{"trial_n":25,"n_dots":3.75,"target":"left","response":"left","rt":1713,"correct":true,"confidence":2},{"trial_n":26,"n_dots":3.75,"target":"left","response":"right","rt":540,"correct":false,"confidence":4},{"trial_n":27,"n_dots":3.85,"target":"left","response":"left","rt":939.00000000003,"correct":true,"confidence":3},{"trial_n":28,"n_dots":3.85,"target":"right","response":"right","rt":1313,"correct":true,"confidence":4},{"trial_n":29,"n_dots":3.75,"target":"right","response":"right","rt":898,"correct":true,"confidence":3},{"trial_n":30,"n_dots":3.75,"target":"right","response":"right","rt":544,"correct":true,"confidence":4},{"trial_n":31,"n_dots":3.65,"target":"right","response":"right","rt":785,"correct":true,"confidence":3},{"trial_n":32,"n_dots":3.65,"target":"left","response":"left","rt":1357,"correct":true,"confidence":3},{"trial_n":33,"n_dots":3.55,"target":"right","response":"right","rt":323,"correct":true,"confidence":1},{"trial_n":34,"n_dots":3.55,"target":"left","response":"left","rt":1824,"correct":true,"confidence":5},{"trial_n":35,"n_dots":3.45,"target":"right","response":"right","rt":476.99999999997,"correct":true,"confidence":2},{"trial_n":36,"n_dots":3.45,"target":"right","response":"right","rt":1559,"correct":true,"confidence":2},{"trial_n":37,"n_dots":3.35,"target":"left","response":"left","rt":786,"correct":true,"confidence":4},{"trial_n":38,"n_dots":3.35,"target":"left","response":"right","rt":1272,"correct":false,"confidence":1},{"trial_n":39,"n_dots":3.45,"target":"left","response":"left","rt":1117,"correct":true,"confidence":2},{"trial_n":40,"n_dots":3.45,"target":"left","response":"left","rt":962,"correct":true,"confidence":3},{"trial_n":41,"n_dots":3.35,"target":"right","response":"left","rt":961,"correct":false,"confidence":2},{"trial_n":42,"n_dots":3.45,"target":"left","response":"left","rt":1384,"correct":true,"confidence":2},{"trial_n":43,"n_dots":3.45,"target":"right","response":"right","rt":655,"correct":true,"confidence":3},{"trial_n":44,"n_dots":3.35,"target":"right","response":"right","rt":1029.9999999999,"correct":true,"confidence":1},{"trial_n":45,"n_dots":3.35,"target":"right","response":"right","rt":476,"correct":true,"confidence":3},{"trial_n":46,"n_dots":3.25,"target":"right","response":"right","rt":257.99999999994,"correct":true,"confidence":3},{"trial_n":47,"n_dots":3.25,"target":"right","response":"right","rt":1849,"correct":true,"confidence":1},{"trial_n":48,"n_dots":3.15,"target":"left","response":"left","rt":565,"correct":true,"confidence":2},{"trial_n":49,"n_dots":3.15,"target":"right","response":"right","rt":699,"correct":true,"confidence":3},{"trial_n":50,"n_dots":3.05,"target":"right","response":"right","rt":257,"correct":true,"confidence":3},{"trial_n":51,"n_dots":3.05,"target":"left","response":"right","rt":323,"correct":false,"confidence":3},{"trial_n":52,"n_dots":3.15,"target":"left","response":"left","rt":2003,"correct":true,"confidence":3},{"trial_n":53,"n_dots":3.15,"target":"right","response":"right","rt":522,"correct":true,"confidence":4},{"trial_n":54,"n_dots":3.05,"target":"right","response":"right","rt":672.00000000006,"correct":true,"confidence":3},{"trial_n":55,"n_dots":3.05,"target":"left","response":"left","rt":767,"correct":true,"confidence":2},{"trial_n":56,"n_dots":2.95,"target":"left","response":"left","rt":833,"correct":true,"confidence":1},{"trial_n":57,"n_dots":2.95,"target":"right","response":"right","rt":522,"correct":true,"confidence":3},{"trial_n":58,"n_dots":2.85,"target":"left","response":"left","rt":832,"correct":true,"confidence":3},{"trial_n":59,"n_dots":2.85,"target":"right","response":"right","rt":1075.0000000001,"correct":true,"confidence":2},{"trial_n":60,"n_dots":2.75,"target":"left","response":"left","rt":632,"correct":true,"confidence":4},{"trial_n":61,"n_dots":2.75,"target":"right","response":"left","rt":875,"correct":false,"confidence":2},{"trial_n":62,"n_dots":2.85,"target":"left","response":"left","rt":277,"correct":true,"confidence":4},{"trial_n":63,"n_dots":2.85,"target":"left","response":"left","rt":341,"correct":true,"confidence":2},{"trial_n":64,"n_dots":2.75,"target":"right","response":"left","rt":741.00000000006,"correct":false,"confidence":3},{"trial_n":65,"n_dots":2.85,"target":"left","response":"left","rt":234,"correct":true,"confidence":4},{"trial_n":66,"n_dots":2.85,"target":"left","response":"right","rt":1473,"correct":false,"confidence":3},{"trial_n":67,"n_dots":2.95,"target":"right","response":"left","rt":1297,"correct":false,"confidence":2},{"trial_n":68,"n_dots":3.05,"target":"left","response":"left","rt":1186.9999999999,"correct":true,"confidence":2},{"trial_n":69,"n_dots":3.05,"target":"left","response":"left","rt":922.00000000006,"correct":true,"confidence":3},{"trial_n":70,"n_dots":2.95,"target":"left","response":"left","rt":748,"correct":true,"confidence":1},{"trial_n":71,"n_dots":2.95,"target":"left","response":"right","rt":591,"correct":false,"confidence":3},{"trial_n":72,"n_dots":3.05,"target":"right","response":"right","rt":901.99999999994,"correct":true,"confidence":3},{"trial_n":73,"n_dots":3.05,"target":"right","response":"right","rt":461.00000000006,"correct":true,"confidence":1},{"trial_n":74,"n_dots":2.95,"target":"right","response":"right","rt":460,"correct":true,"confidence":2},{"trial_n":75,"n_dots":2.95,"target":"left","response":"left","rt":659,"correct":true,"confidence":3},{"trial_n":76,"n_dots":2.85,"target":"left","response":"right","rt":441.00000000012,"correct":false,"confidence":1},{"trial_n":77,"n_dots":2.95,"target":"right","response":"right","rt":284,"correct":true,"confidence":3},{"trial_n":78,"n_dots":2.95,"target":"right","response":"left","rt":1236,"correct":false,"confidence":1},{"trial_n":79,"n_dots":3.05,"target":"left","response":"right","rt":990,"correct":false,"confidence":1},{"trial_n":80,"n_dots":3.15,"target":"right","response":"right","rt":636,"correct":true,"confidence":1},{"trial_n":81,"n_dots":3.15,"target":"right","response":"right","rt":1298,"correct":true,"confidence":2},{"trial_n":82,"n_dots":3.05,"target":"left","response":"right","rt":1125,"correct":false,"confidence":1},{"trial_n":83,"n_dots":3.15,"target":"left","response":"left","rt":285,"correct":true,"confidence":2},{"trial_n":84,"n_dots":3.15,"target":"left","response":"left","rt":241.99999999988,"correct":true,"confidence":4},{"trial_n":85,"n_dots":3.05,"target":"left","response":"left","rt":748,"correct":true,"confidence":2},{"trial_n":86,"n_dots":3.05,"target":"left","response":"left","rt":263,"correct":true,"confidence":3},{"trial_n":87,"n_dots":2.95,"target":"right","response":"right","rt":241,"correct":true,"confidence":3},{"trial_n":88,"n_dots":2.95,"target":"left","response":"left","rt":351,"correct":true,"confidence":3},{"trial_n":89,"n_dots":2.85,"target":"left","response":"right","rt":858,"correct":false,"confidence":2},{"trial_n":90,"n_dots":2.95,"target":"right","response":"right","rt":552,"correct":true,"confidence":1},{"trial_n":91,"n_dots":2.95,"target":"right","response":"right","rt":305.00000000012,"correct":true,"confidence":3},{"trial_n":92,"n_dots":2.85,"target":"left","response":"right","rt":307,"correct":false,"confidence":1},{"trial_n":93,"n_dots":2.95,"target":"right","response":"right","rt":328,"correct":true,"confidence":1},{"trial_n":94,"n_dots":2.95,"target":"right","response":"right","rt":395,"correct":true,"confidence":1},{"trial_n":95,"n_dots":2.85,"target":"right","response":"right","rt":461.00000000012,"correct":true,"confidence":2},{"trial_n":96,"n_dots":2.85,"target":"left","response":"left","rt":439,"correct":true,"confidence":3},{"trial_n":97,"n_dots":2.75,"target":"right","response":"left","rt":550,"correct":false,"confidence":1},{"trial_n":98,"n_dots":2.85,"target":"right","response":"left","rt":595,"correct":false,"confidence":1},{"trial_n":99,"n_dots":2.95,"target":"left","response":"right","rt":636.99999999988,"correct":false,"confidence":1},{"trial_n":100,"n_dots":3.05,"target":"right","response":"right","rt":352,"correct":true,"confidence":1},{"trial_n":101,"n_dots":3.05,"target":"right","response":"left","rt":1832,"correct":false,"confidence":1},{"trial_n":102,"n_dots":3.15,"target":"right","response":"right","rt":769,"correct":true,"confidence":2},{"trial_n":103,"n_dots":3.15,"target":"right","response":"right","rt":330.00000000012,"correct":true,"confidence":1},{"trial_n":104,"n_dots":3.05,"target":"right","response":"right","rt":397.00000000012,"correct":true,"confidence":2},{"trial_n":105,"n_dots":3.05,"target":"right","response":"right","rt":595,"correct":true,"confidence":2},{"trial_n":106,"n_dots":2.95,"target":"right","response":"right","rt":374,"correct":true,"confidence":3},{"trial_n":107,"n_dots":2.95,"target":"left","response":"left","rt":440,"correct":true,"confidence":2},{"trial_n":108,"n_dots":2.85,"target":"left","response":"left","rt":2606,"correct":true,"confidence":1},{"trial_n":109,"n_dots":2.85,"target":"left","response":"left","rt":528,"correct":true,"confidence":3},{"trial_n":110,"n_dots":2.75,"target":"left","response":"left","rt":573,"correct":true,"confidence":1},{"trial_n":111,"n_dots":2.75,"target":"left","response":"left","rt":352.99999999988,"correct":true,"confidence":2},{"trial_n":112,"n_dots":2.65,"target":"right","response":"right","rt":505,"correct":true,"confidence":3},{"trial_n":113,"n_dots":2.65,"target":"left","response":"left","rt":1080.9999999999,"correct":true,"confidence":2},{"trial_n":114,"n_dots":2.55,"target":"left","response":"left","rt":706,"correct":true,"confidence":1},{"trial_n":115,"n_dots":2.55,"target":"right","response":"right","rt":570,"correct":true,"confidence":3},{"trial_n":116,"n_dots":2.45,"target":"left","response":"left","rt":1567,"correct":true,"confidence":2},{"trial_n":117,"n_dots":2.45,"target":"left","response":"left","rt":638,"correct":true,"confidence":3},{"trial_n":118,"n_dots":2.35,"target":"left","response":"left","rt":1102.9999999999,"correct":true,"confidence":2},{"trial_n":119,"n_dots":2.35,"target":"left","response":"left","rt":374.00000000012,"correct":true,"confidence":3},{"trial_n":120,"n_dots":2.25,"target":"right","response":"right","rt":795,"correct":true,"confidence":1}]