[{"trial_n":1,"min":25,"max":230,"target":"present","response":"absent","rt":2868.6000000089,"correct":false,"confidence":-1},{"trial_n":2,"min":25,"max":230,"target":"present","response":"present","rt":1078.099999994,"correct":true,"confidence":-1},{"trial_n":3,"min":25,"max":230,"target":"absent","response":"absent","rt":682.40000000596,"correct":true,"confidence":-1},{"trial_n":4,"min":41,"max":214,"target":"absent","response":"absent","rt":507.90000000596,"correct":true,"confidence":-1},{"trial_n":5,"min":41,"max":214,"target":"present","response":"present","rt":661.59999999404,"correct":true,"confidence":-1},{"trial_n":6,"min":57,"max":198,"target":"present","response":"present","rt":518.09999999404,"correct":true,"confidence":-1},{"trial_n":7,"min":57,"max":198,"target":"absent","response":"absent","rt":723.40000000596,"correct":true,"confidence":-1},{"trial_n":8,"min":73,"max":182,"target":"absent","response":"absent","rt":767.29999999702,"correct":true,"confidence":-1},{"trial_n":9,"min":73,"max":182,"target":"present","response":"present","rt":1145.1999999881,"correct":true,"confidence":-1},{"trial_n":10,"min":89,"max":166,"target":"absent","response":"present","rt":734.40000000596,"correct":false,"confidence":-1},{"trial_n":11,"min":81,"max":174,"target":"present","response":"absent","rt":1536.3999999911,"correct":false,"confidence":-1},{"trial_n":12,"min":73,"max":182,"target":"absent","response":"absent","rt":1478,"correct":true,"confidence":-1},{"trial_n":13,"min":73,"max":182,"target":"present","response":"present","rt":1273.8999999911,"correct":true,"confidence":-1},{"trial_n":14,"min":81,"max":174,"target":"present","response":"present","rt":833.40000000596,"correct":true,"confidence":-1},{"trial_n":15,"min":81,"max":174,"target":"absent","response":"absent","rt":523.39999999106,"correct":true,"confidence":-1},{"trial_n":16,"min":89,"max":166,"target":"absent","response":"absent","rt":529.29999999702,"correct":true,"confidence":-1},{"trial_n":17,"min":89,"max":166,"target":"absent","response":"absent","rt":469.40000000596,"correct":true,"confidence":-1},{"trial_n":18,"min":97,"max":158,"target":"absent","response":"absent","rt":452.19999998808,"correct":true,"confidence":-1},{"trial_n":19,"min":97,"max":158,"target":"present","response":"absent","rt":418.40000000596,"correct":false,"confidence":-1},{"trial_n":20,"min":89,"max":166,"target":"present","response":"absent","rt":1085.200000003,"correct":false,"confidence":-1},{"trial_n":21,"min":85,"max":170,"target":"present","response":"present","rt":700.90000000596,"correct":true,"confidence":1},{"trial_n":22,"min":85,"max":170,"target":"absent","response":"present","rt":597.59999999404,"correct":false,"confidence":1},{"trial_n":23,"min":81,"max":174,"target":"absent","response":"present","rt":648.09999999404,"correct":false,"confidence":1},{"trial_n":24,"min":77,"max":178,"target":"present","response":"present","rt":634.70000000298,"correct":true,"confidence":1},{"trial_n":25,"min":77,"max":178,"target":"absent","response":"absent","rt":623.5,"correct":true,"confidence":1},{"trial_n":26,"min":81,"max":174,"target":"present","response":"present","rt":2098.200000003,"correct":true,"confidence":1},{"trial_n":27,"min":81,"max":174,"target":"present","response":"present","rt":905.20000000298,"correct":true,"confidence":3},{"trial_n":28,"min":85,"max":170,"target":"absent","response":"present","rt":804.70000000298,"correct":false,"confidence":3},{"trial_n":29,"min":81,"max":174,"target":"absent","response":"absent","rt":802.20000000298,"correct":true,"confidence":5},{"trial_n":30,"min":81,"max":174,"target":"absent","response":"present","rt":1034.6999999881,"correct":false,"confidence":5},{"trial_n":31,"min":79,"max":176,"target":"present","response":"present","rt":910.59999999404,"correct":true,"confidence":3},{"trial_n":32,"min":79,"max":176,"target":"present","response":"present","rt":730,"correct":true,"confidence":3},{"trial_n":33,"min":81,"max":174,"target":"present","response":"present","rt":733.59999999404,"correct":true,"confidence":5},{"trial_n":34,"min":81,"max":174,"target":"present","response":"present","rt":598.59999999404,"correct":true,"confidence":5},{"trial_n":35,"min":83,"max":172,"target":"present","response":"present","rt":574.09999999404,"correct":true,"confidence":4},{"trial_n":36,"min":83,"max":172,"target":"absent","response":"absent","rt":974.59999999404,"correct":true,"confidence":5},{"trial_n":37,"min":85,"max":170,"target":"absent","response":"absent","rt":4306.400000006,"correct":true,"confidence":1},{"trial_n":38,"min":85,"max":170,"target":"absent","response":"absent","rt":6860.099999994,"correct":true,"confidence":1},{"trial_n":39,"min":87,"max":168,"target":"absent","response":"absent","rt":19984.099999994,"correct":true,"confidence":1},{"trial_n":40,"min":87,"max":168,"target":"absent","response":"absent","rt":1887,"correct":true,"confidence":1},{"trial_n":41,"min":88,"max":167,"target":"present","response":"absent","rt":873.79999999702,"correct":false,"confidence":4},{"trial_n":42,"min":87,"max":168,"target":"absent","response":"absent","rt":758.59999999404,"correct":true,"confidence":4},{"trial_n":43,"min":87,"max":168,"target":"absent","response":"absent","rt":928.29999999702,"correct":true,"confidence":4},{"trial_n":44,"min":88,"max":167,"target":"absent","response":"present","rt":732.89999999106,"correct":false,"confidence":5},{"trial_n":45,"min":87,"max":168,"target":"present","response":"present","rt":29554,"correct":true,"confidence":1},{"trial_n":46,"min":87,"max":168,"target":"present","response":"present","rt":857.29999999702,"correct":true,"confidence":5},{"trial_n":47,"min":88,"max":167,"target":"present","response":"absent","rt":1765.299999997,"correct":false,"confidence":4},{"trial_n":48,"min":87,"max":168,"target":"present","response":"present","rt":690.5,"correct":true,"confidence":5},{"trial_n":49,"min":87,"max":168,"target":"present","response":"present","rt":1144.700000003,"correct":true,"confidence":4},{"trial_n":50,"min":88,"max":167,"target":"present","response":"present","rt":769,"correct":true,"confidence":4},{"trial_n":51,"min":88,"max":167,"target":"present","response":"absent","rt":687.20000000298,"correct":false,"confidence":3},{"trial_n":52,"min":87,"max":168,"target":"absent","response":"absent","rt":1886.700000003,"correct":true,"confidence":3},{"trial_n":53,"min":87,"max":168,"target":"absent","response":"present","rt":722.79999999702,"correct":false,"confidence":4},{"trial_n":54,"min":86,"max":169,"target":"absent","response":"present","rt":3442.599999994,"correct":false,"confidence":4},{"trial_n":55,"min":85,"max":170,"target":"present","response":"absent","rt":818.29999999702,"correct":false,"confidence":3},{"trial_n":56,"min":84,"max":171,"target":"present","response":"present","rt":1007.900000006,"correct":true,"confidence":4},{"trial_n":57,"min":84,"max":171,"target":"present","response":"present","rt":872.79999999702,"correct":true,"confidence":4},{"trial_n":58,"min":85,"max":170,"target":"absent","response":"present","rt":964.29999999702,"correct":false,"confidence":4},{"trial_n":59,"min":84,"max":171,"target":"present","response":"absent","rt":1255.200000003,"correct":false,"confidence":3},{"trial_n":60,"min":83,"max":172,"target":"absent","response":"absent","rt":12818,"correct":true,"confidence":5},{"trial_n":61,"min":83,"max":172,"target":"absent","response":"absent","rt":666.5,"correct":true,"confidence":5},{"trial_n":62,"min":84,"max":171,"target":"absent","response":"present","rt":1000.8999999911,"correct":false,"confidence":1},{"trial_n":63,"min":83,"max":172,"target":"present","response":"absent","rt":703,"correct":false,"confidence":5},{"trial_n":64,"min":82,"max":173,"target":"present","response":"absent","rt":1010.700000003,"correct":false,"confidence":5},{"trial_n":65,"min":81,"max":174,"target":"absent","response":"absent","rt":706.20000000298,"correct":true,"confidence":5},{"trial_n":66,"min":81,"max":174,"target":"present","response":"present","rt":847.20000000298,"correct":true,"confidence":4},{"trial_n":67,"min":82,"max":173,"target":"absent","response":"present","rt":717.5,"correct":false,"confidence":1},{"trial_n":68,"min":81,"max":174,"target":"present","response":"present","rt":947.79999999702,"correct":true,"confidence":4},{"trial_n":69,"min":81,"max":174,"target":"present","response":"absent","rt":2310.900000006,"correct":false,"confidence":2},{"trial_n":70,"min":80,"max":175,"target":"absent","response":"absent","rt":986.10000000894,"correct":true,"confidence":4},{"trial_n":71,"min":41,"max":214,"target":"present","response":"present","rt":5588.1000000089,"correct":true,"confidence":-1},{"trial_n":72,"min":41,"max":214,"target":"present","response":"present","rt":1377.099999994,"correct":true,"confidence":-1},{"trial_n":73,"min":57,"max":198,"target":"absent","response":"absent","rt":588.40000000596,"correct":true,"confidence":-1},{"trial_n":74,"min":57,"max":198,"target":"absent","response":"absent","rt":650,"correct":true,"confidence":-1},{"trial_n":75,"min":73,"max":182,"target":"present","response":"present","rt":699.59999999404,"correct":true,"confidence":-1},{"trial_n":76,"min":73,"max":182,"target":"absent","response":"absent","rt":640.19999998808,"correct":true,"confidence":-1},{"trial_n":77,"min":89,"max":166,"target":"present","response":"present","rt":613.5,"correct":true,"confidence":-1},{"trial_n":78,"min":89,"max":166,"target":"absent","response":"absent","rt":771.79999999702,"correct":true,"confidence":-1},{"trial_n":79,"min":105,"max":150,"target":"present","response":"present","rt":907.20000000298,"correct":true,"confidence":-1},{"trial_n":80,"min":105,"max":150,"target":"present","response":"present","rt":1253.6000000089,"correct":true,"confidence":-1},{"trial_n":81,"min":113,"max":142,"target":"present","response":"present","rt":618.79999999702,"correct":true,"confidence":-1},{"trial_n":82,"min":113,"max":142,"target":"absent","response":"present","rt":798,"correct":false,"confidence":-1},{"trial_n":83,"min":105,"max":150,"target":"absent","response":"present","rt":591.79999999702,"correct":false,"confidence":-1},{"trial_n":84,"min":97,"max":158,"target":"absent","response":"present","rt":1146.400000006,"correct":false,"confidence":-1},{"trial_n":85,"min":89,"max":166,"target":"absent","response":"absent","rt":614.79999999702,"correct":true,"confidence":-1},{"trial_n":86,"min":89,"max":166,"target":"present","response":"absent","rt":770.10000000894,"correct":false,"confidence":-1},{"trial_n":87,"min":81,"max":174,"target":"absent","response":"absent","rt":938.70000000298,"correct":true,"confidence":-1},{"trial_n":88,"min":81,"max":174,"target":"present","response":"present","rt":1101.3000000119,"correct":true,"confidence":-1},{"trial_n":89,"min":89,"max":166,"target":"absent","response":"present","rt":548.5,"correct":false,"confidence":-1},{"trial_n":90,"min":81,"max":174,"target":"absent","response":"absent","rt":749.89999999106,"correct":true,"confidence":-1},{"trial_n":91,"min":81,"max":174,"target":"present","response":"present","rt":728,"correct":true,"confidence":5},{"trial_n":92,"min":85,"max":170,"target":"absent","response":"absent","rt":770.70000000298,"correct":true,"confidence":5},{"trial_n":93,"min":85,"max":170,"target":"present","response":"present","rt":889.39999999106,"correct":true,"confidence":4},{"trial_n":94,"min":89,"max":166,"target":"absent","response":"absent","rt":1093.599999994,"correct":true,"confidence":5},{"trial_n":95,"min":89,"max":166,"target":"absent","response":"present","rt":925.09999999404,"correct":false,"confidence":2},{"trial_n":96,"min":85,"max":170,"target":"present","response":"present","rt":842,"correct":true,"confidence":4},{"trial_n":97,"min":85,"max":170,"target":"present","response":"present","rt":670,"correct":true,"confidence":4},{"trial_n":98,"min":89,"max":166,"target":"absent","response":"present","rt":878,"correct":false,"confidence":4},{"trial_n":99,"min":85,"max":170,"target":"absent","response":"present","rt":820.79999999702,"correct":false,"confidence":2},{"trial_n":100,"min":81,"max":174,"target":"absent","response":"present","rt":939.90000000596,"correct":false,"confidence":4},{"trial_n":101,"min":79,"max":176,"target":"absent","response":"present","rt":1074.799999997,"correct":false,"confidence":2},{"trial_n":102,"min":77,"max":178,"target":"absent","response":"present","rt":840.70000000298,"correct":false,"confidence":2},{"trial_n":103,"min":75,"max":180,"target":"present","response":"present","rt":800.79999999702,"correct":true,"confidence":5},{"trial_n":104,"min":75,"max":180,"target":"present","response":"present","rt":763.69999998808,"correct":true,"confidence":5},{"trial_n":105,"min":77,"max":178,"target":"present","response":"present","rt":761.39999999106,"correct":true,"confidence":5},{"trial_n":106,"min":77,"max":178,"target":"present","response":"present","rt":1538.8000000119,"correct":true,"confidence":4},{"trial_n":107,"min":79,"max":176,"target":"present","response":"present","rt":825,"correct":true,"confidence":5},{"trial_n":108,"min":79,"max":176,"target":"absent","response":"present","rt":1909.299999997,"correct":false,"confidence":5},{"trial_n":109,"min":77,"max":178,"target":"present","response":"present","rt":900.90000000596,"correct":true,"confidence":5},{"trial_n":110,"min":77,"max":178,"target":"present","response":"present","rt":618.39999999106,"correct":true,"confidence":5},{"trial_n":111,"min":78,"max":177,"target":"present","response":"present","rt":599.89999999106,"correct":true,"confidence":1},{"trial_n":112,"min":78,"max":177,"target":"present","response":"present","rt":1833.200000003,"correct":true,"confidence":1},{"trial_n":113,"min":79,"max":176,"target":"absent","response":"absent","rt":1128.700000003,"correct":true,"confidence":4},{"trial_n":114,"min":79,"max":176,"target":"present","response":"present","rt":902.89999999106,"correct":true,"confidence":5},{"trial_n":115,"min":80,"max":175,"target":"absent","response":"absent","rt":890.79999999702,"correct":true,"confidence":5},{"trial_n":116,"min":80,"max":175,"target":"present","response":"present","rt":951.59999999404,"correct":true,"confidence":5},{"trial_n":117,"min":81,"max":174,"target":"absent","response":"present","rt":898.60000000894,"correct":false,"confidence":5},{"trial_n":118,"min":80,"max":175,"target":"present","response":"present","rt":1333.8999999911,"correct":true,"confidence":5},{"trial_n":119,"min":80,"max":175,"target":"present","response":"present","rt":616.10000000894,"correct":true,"confidence":5},{"trial_n":120,"min":81,"max":174,"target":"present","response":"present","rt":1227.5,"correct":true,"confidence":5},{"trial_n":121,"min":81,"max":174,"target":"present","response":"present","rt":461.70000000298,"correct":true,"confidence":1},{"trial_n":122,"min":82,"max":173,"target":"absent","response":"present","rt":892.79999999702,"correct":false,"confidence":5},{"trial_n":123,"min":81,"max":174,"target":"present","response":"present","rt":604.5,"correct":true,"confidence":5},{"trial_n":124,"min":81,"max":174,"target":"absent","response":"absent","rt":769.79999999702,"correct":true,"confidence":5},{"trial_n":125,"min":82,"max":173,"target":"absent","response":"absent","rt":1326.400000006,"correct":true,"confidence":4},{"trial_n":126,"min":82,"max":173,"target":"present","response":"present","rt":684.79999999702,"correct":true,"confidence":4},{"trial_n":127,"min":83,"max":172,"target":"absent","response":"absent","rt":836.89999999106,"correct":true,"confidence":4},{"trial_n":128,"min":83,"max":172,"target":"present","response":"absent","rt":12067.099999994,"correct":false,"confidence":1},{"trial_n":129,"min":82,"max":173,"target":"absent","response":"absent","rt":4875.6000000089,"correct":true,"confidence":2},{"trial_n":130,"min":82,"max":173,"target":"absent","response":"present","rt":921.09999999404,"correct":false,"confidence":3},{"trial_n":131,"min":81,"max":174,"target":"present","response":"present","rt":760.70000000298,"correct":true,"confidence":4},{"trial_n":132,"min":81,"max":174,"target":"absent","response":"absent","rt":911.59999999404,"correct":true,"confidence":4},{"trial_n":133,"min":82,"max":173,"target":"absent","response":"absent","rt":1065.599999994,"correct":true,"confidence":4},{"trial_n":134,"min":82,"max":173,"target":"present","response":"absent","rt":831,"correct":false,"confidence":4},{"trial_n":135,"min":81,"max":174,"target":"present","response":"absent","rt":1142,"correct":false,"confidence":4},{"trial_n":136,"min":80,"max":175,"target":"present","response":"absent","rt":702.5,"correct":false,"confidence":4},{"trial_n":137,"min":79,"max":176,"target":"absent","response":"present","rt":1351,"correct":false,"confidence":4},{"trial_n":138,"min":78,"max":177,"target":"absent","response":"absent","rt":716.5,"correct":true,"confidence":4},{"trial_n":139,"min":78,"max":177,"target":"absent","response":"present","rt":933.30000001192,"correct":false,"confidence":1},{"trial_n":140,"min":77,"max":178,"target":"present","response":"present","rt":737.20000000298,"correct":true,"confidence":5}]