[{"trial_n":1,"n_dots":4.25,"target":"right","response":"left","rt":8059.8000000007,"correct":false,"confidence":-1},{"trial_n":2,"n_dots":4.25,"target":"right","response":"right","rt":641.60000000149,"correct":true,"confidence":-1},{"trial_n":3,"n_dots":4.25,"target":"left","response":"left","rt":668.19999999925,"correct":true,"confidence":-1},{"trial_n":4,"n_dots":3.85,"target":"left","response":"left","rt":477.30000000075,"correct":true,"confidence":-1},{"trial_n":5,"n_dots":3.85,"target":"right","response":"right","rt":390.60000000149,"correct":true,"confidence":-1},{"trial_n":6,"n_dots":3.45,"target":"right","response":"right","rt":739.69999999925,"correct":true,"confidence":-1},{"trial_n":7,"n_dots":3.45,"target":"left","response":"left","rt":443.19999999925,"correct":true,"confidence":-1},{"trial_n":8,"n_dots":3.25,"target":"right","response":"left","rt":931.80000000075,"correct":false,"confidence":-1},{"trial_n":9,"n_dots":3.45,"target":"right","response":"right","rt":296.60000000149,"correct":true,"confidence":-1},{"trial_n":10,"n_dots":3.45,"target":"right","response":"right","rt":364.39999999851,"correct":true,"confidence":-1},{"trial_n":11,"n_dots":3.25,"target":"right","response":"right","rt":503.60000000149,"correct":true,"confidence":-1},{"trial_n":12,"n_dots":3.25,"target":"right","response":"right","rt":415,"correct":true,"confidence":-1},{"trial_n":13,"n_dots":3.15,"target":"left","response":"left","rt":370.39999999851,"correct":true,"confidence":-1},{"trial_n":14,"n_dots":3.15,"target":"right","response":"right","rt":415.5,"correct":true,"confidence":-1},{"trial_n":15,"n_dots":3.05,"target":"right","response":"right","rt":380.5,"correct":true,"confidence":-1},{"trial_n":16,"n_dots":3.05,"target":"left","response":"left","rt":393.40000000224,"correct":true,"confidence":-1},{"trial_n":17,"n_dots":2.95,"target":"left","response":"left","rt":446.19999999925,"correct":true,"confidence":-1},{"trial_n":18,"n_dots":2.95,"target":"left","response":"left","rt":411.60000000149,"correct":true,"confidence":-1},{"trial_n":19,"n_dots":2.85,"target":"left","response":"left","rt":534.69999999925,"correct":true,"confidence":-1},{"trial_n":20,"n_dots":2.85,"target":"right","response":"left","rt":508.5,"correct":false,"confidence":-1},{"trial_n":21,"n_dots":2.95,"target":"left","response":"left","rt":366.70000000298,"correct":true,"confidence":3},{"trial_n":22,"n_dots":2.95,"target":"right","response":"right","rt":649.19999999925,"correct":true,"confidence":3},{"trial_n":23,"n_dots":2.85,"target":"left","response":"left","rt":674.70000000298,"correct":true,"confidence":3},{"trial_n":24,"n_dots":2.85,"target":"left","response":"left","rt":584.5,"correct":true,"confidence":4},{"trial_n":25,"n_dots":2.75,"target":"left","response":"left","rt":521.29999999702,"correct":true,"confidence":5},{"trial_n":26,"n_dots":2.75,"target":"right","response":"left","rt":494.30000000075,"correct":false,"confidence":4},{"trial_n":27,"n_dots":2.85,"target":"right","response":"right","rt":886.90000000224,"correct":true,"confidence":2},{"trial_n":28,"n_dots":2.85,"target":"right","response":"right","rt":599.5,"correct":true,"confidence":5},{"trial_n":29,"n_dots":2.75,"target":"right","response":"right","rt":605.40000000224,"correct":true,"confidence":5},{"trial_n":30,"n_dots":2.75,"target":"left","response":"left","rt":774.69999999925,"correct":true,"confidence":4},{"trial_n":31,"n_dots":2.65,"target":"right","response":"right","rt":510.19999999925,"correct":true,"confidence":4},{"trial_n":32,"n_dots":2.65,"target":"left","response":"right","rt":683.10000000149,"correct":false,"confidence":4},{"trial_n":33,"n_dots":2.75,"target":"left","response":"right","rt":920.19999999925,"correct":false,"confidence":4},{"trial_n":34,"n_dots":2.85,"target":"right","response":"right","rt":834.5,"correct":true,"confidence":4},{"trial_n":35,"n_dots":2.85,"target":"left","response":"right","rt":766.40000000224,"correct":false,"confidence":3},{"trial_n":36,"n_dots":2.95,"target":"left","response":"right","rt":627.20000000298,"correct":false,"confidence":4},{"trial_n":37,"n_dots":3.05,"target":"left","response":"left","rt":973.70000000298,"correct":true,"confidence":3},{"trial_n":38,"n_dots":3.05,"target":"left","response":"right","rt":1375.8000000007,"correct":false,"confidence":1},{"trial_n":39,"n_dots":3.15,"target":"right","response":"right","rt":549.89999999851,"correct":true,"confidence":5},{"trial_n":40,"n_dots":3.15,"target":"left","response":"left","rt":717.89999999851,"correct":true,"confidence":3},{"trial_n":41,"n_dots":3.05,"target":"left","response":"right","rt":471.39999999851,"correct":false,"confidence":4},{"trial_n":42,"n_dots":3.15,"target":"left","response":"right","rt":436.70000000298,"correct":false,"confidence":4},{"trial_n":43,"n_dots":3.25,"target":"left","response":"right","rt":482.60000000149,"correct":false,"confidence":3},{"trial_n":44,"n_dots":3.35,"target":"left","response":"left","rt":413.80000000075,"correct":true,"confidence":5},{"trial_n":45,"n_dots":3.35,"target":"right","response":"right","rt":382.39999999851,"correct":true,"confidence":5},{"trial_n":46,"n_dots":3.25,"target":"left","response":"left","rt":410.19999999925,"correct":true,"confidence":5},{"trial_n":47,"n_dots":3.25,"target":"left","response":"left","rt":890.19999999925,"correct":true,"confidence":3},{"trial_n":48,"n_dots":3.15,"target":"left","response":"left","rt":822.89999999851,"correct":true,"confidence":1},{"trial_n":49,"n_dots":3.15,"target":"left","response":"left","rt":624.79999999702,"correct":true,"confidence":2},{"trial_n":50,"n_dots":3.05,"target":"left","response":"left","rt":846.89999999851,"correct":true,"confidence":2},{"trial_n":51,"n_dots":3.05,"target":"right","response":"right","rt":653.10000000149,"correct":true,"confidence":3},{"trial_n":52,"n_dots":2.95,"target":"right","response":"right","rt":343.19999999925,"correct":true,"confidence":4},{"trial_n":53,"n_dots":2.95,"target":"right","response":"right","rt":651.20000000298,"correct":true,"confidence":3},{"trial_n":54,"n_dots":2.85,"target":"right","response":"right","rt":457.5,"correct":true,"confidence":3},{"trial_n":55,"n_dots":2.85,"target":"right","response":"right","rt":494.09999999776,"correct":true,"confidence":3},{"trial_n":56,"n_dots":2.75,"target":"right","response":"right","rt":506.89999999851,"correct":true,"confidence":3},{"trial_n":57,"n_dots":2.75,"target":"left","response":"left","rt":682.5,"correct":true,"confidence":2},{"trial_n":58,"n_dots":2.65,"target":"left","response":"left","rt":443.5,"correct":true,"confidence":4},{"trial_n":59,"n_dots":2.65,"target":"left","response":"left","rt":622.40000000224,"correct":true,"confidence":4},{"trial_n":60,"n_dots":2.55,"target":"left","response":"left","rt":5858.3000000007,"correct":true,"confidence":1},{"trial_n":61,"n_dots":2.55,"target":"right","response":"left","rt":483.39999999851,"correct":false,"confidence":4},{"trial_n":62,"n_dots":2.65,"target":"right","response":"right","rt":958.69999999925,"correct":true,"confidence":3},{"trial_n":63,"n_dots":2.65,"target":"left","response":"left","rt":252.70000000298,"correct":true,"confidence":3},{"trial_n":64,"n_dots":2.55,"target":"right","response":"left","rt":36.599999997765,"correct":false,"confidence":1},{"trial_n":65,"n_dots":2.65,"target":"right","response":"right","rt":16.5,"correct":true,"confidence":5},{"trial_n":66,"n_dots":2.65,"target":"left","response":"left","rt":569.39999999851,"correct":true,"confidence":4},{"trial_n":67,"n_dots":2.55,"target":"right","response":"left","rt":247.60000000149,"correct":false,"confidence":4},{"trial_n":68,"n_dots":2.65,"target":"right","response":"right","rt":15.5,"correct":true,"confidence":4},{"trial_n":69,"n_dots":2.65,"target":"left","response":"left","rt":29.5,"correct":true,"confidence":3},{"trial_n":70,"n_dots":2.55,"target":"right","response":"left","rt":1505.0999999978,"correct":false,"confidence":1},{"trial_n":71,"n_dots":2.65,"target":"right","response":"right","rt":160.10000000149,"correct":true,"confidence":4},{"trial_n":72,"n_dots":2.65,"target":"left","response":"right","rt":972.80000000075,"correct":false,"confidence":1},{"trial_n":73,"n_dots":2.75,"target":"left","response":"left","rt":556.5,"correct":true,"confidence":4},{"trial_n":74,"n_dots":2.75,"target":"right","response":"right","rt":1472.8000000007,"correct":true,"confidence":1},{"trial_n":75,"n_dots":2.65,"target":"right","response":"left","rt":279.39999999851,"correct":false,"confidence":1},{"trial_n":76,"n_dots":2.75,"target":"left","response":"right","rt":40.800000000745,"correct":false,"confidence":1},{"trial_n":77,"n_dots":2.85,"target":"left","response":"right","rt":360.60000000149,"correct":false,"confidence":3},{"trial_n":78,"n_dots":2.95,"target":"left","response":"left","rt":38.79999999702,"correct":true,"confidence":3},{"trial_n":79,"n_dots":2.95,"target":"right","response":"right","rt":246.89999999851,"correct":true,"confidence":3},{"trial_n":80,"n_dots":2.85,"target":"left","response":"left","rt":750.59999999776,"correct":true,"confidence":5},{"trial_n":81,"n_dots":2.85,"target":"left","response":"left","rt":73.099999997765,"correct":true,"confidence":5},{"trial_n":82,"n_dots":2.75,"target":"left","response":"left","rt":1097.8999999985,"correct":true,"confidence":4},{"trial_n":83,"n_dots":2.75,"target":"right","response":"left","rt":121.39999999851,"correct":false,"confidence":4},{"trial_n":84,"n_dots":2.85,"target":"right","response":"right","rt":187.19999999925,"correct":true,"confidence":2},{"trial_n":85,"n_dots":2.85,"target":"right","response":"left","rt":682.5,"correct":false,"confidence":3},{"trial_n":86,"n_dots":2.95,"target":"left","response":"left","rt":575.29999999702,"correct":true,"confidence":4},{"trial_n":87,"n_dots":2.95,"target":"left","response":"left","rt":629.19999999925,"correct":true,"confidence":5},{"trial_n":88,"n_dots":2.85,"target":"left","response":"left","rt":32.39999999851,"correct":true,"confidence":5},{"trial_n":89,"n_dots":2.85,"target":"right","response":"right","rt":398.5,"correct":true,"confidence":2},{"trial_n":90,"n_dots":2.75,"target":"left","response":"left","rt":307.69999999925,"correct":true,"confidence":5},{"trial_n":91,"n_dots":2.75,"target":"right","response":"left","rt":1149.8999999985,"correct":false,"confidence":1},{"trial_n":92,"n_dots":2.85,"target":"left","response":"right","rt":482.30000000075,"correct":false,"confidence":3},{"trial_n":93,"n_dots":2.95,"target":"left","response":"left","rt":73.5,"correct":true,"confidence":4},{"trial_n":94,"n_dots":2.95,"target":"left","response":"left","rt":604.19999999925,"correct":true,"confidence":5},{"trial_n":95,"n_dots":2.85,"target":"right","response":"left","rt":778.40000000224,"correct":false,"confidence":3},{"trial_n":96,"n_dots":2.95,"target":"right","response":"left","rt":366.40000000224,"correct":false,"confidence":4},{"trial_n":97,"n_dots":3.05,"target":"right","response":"left","rt":520.39999999851,"correct":false,"confidence":3},{"trial_n":98,"n_dots":3.15,"target":"right","response":"right","rt":668.59999999776,"correct":true,"confidence":5},{"trial_n":99,"n_dots":3.15,"target":"right","response":"left","rt":903.90000000224,"correct":false,"confidence":3},{"trial_n":100,"n_dots":3.25,"target":"right","response":"right","rt":49.199999999255,"correct":true,"confidence":2},{"trial_n":101,"n_dots":3.25,"target":"left","response":"left","rt":516.59999999776,"correct":true,"confidence":5},{"trial_n":102,"n_dots":3.15,"target":"right","response":"left","rt":264.59999999776,"correct":false,"confidence":5},{"trial_n":103,"n_dots":3.25,"target":"right","response":"right","rt":477.5,"correct":true,"confidence":5},{"trial_n":104,"n_dots":3.25,"target":"right","response":"left","rt":478.89999999851,"correct":false,"confidence":5},{"trial_n":105,"n_dots":3.35,"target":"left","response":"left","rt":428.30000000075,"correct":true,"confidence":5},{"trial_n":106,"n_dots":3.35,"target":"left","response":"left","rt":484.5,"correct":true,"confidence":5},{"trial_n":107,"n_dots":3.25,"target":"left","response":"left","rt":0.10000000149012,"correct":true,"confidence":5},{"trial_n":108,"n_dots":3.25,"target":"right","response":"left","rt":213.30000000075,"correct":false,"confidence":1},{"trial_n":109,"n_dots":3.35,"target":"left","response":"left","rt":54.199999999255,"correct":true,"confidence":5},{"trial_n":110,"n_dots":3.35,"target":"right","response":"right","rt":140.10000000149,"correct":true,"confidence":4},{"trial_n":111,"n_dots":3.25,"target":"right","response":"right","rt":482.5,"correct":true,"confidence":5},{"trial_n":112,"n_dots":3.25,"target":"left","response":"left","rt":298.19999999925,"correct":true,"confidence":5},{"trial_n":113,"n_dots":3.15,"target":"left","response":"left","rt":483.5,"correct":true,"confidence":3},{"trial_n":114,"n_dots":3.15,"target":"left","response":"left","rt":426.69999999925,"correct":true,"confidence":5},{"trial_n":115,"n_dots":3.05,"target":"right","response":"right","rt":959.5,"correct":true,"confidence":4},{"trial_n":116,"n_dots":3.05,"target":"right","response":"right","rt":901.10000000149,"correct":true,"confidence":3},{"trial_n":117,"n_dots":2.95,"target":"right","response":"right","rt":1297.8000000007,"correct":true,"confidence":2},{"trial_n":118,"n_dots":2.95,"target":"left","response":"left","rt":485.10000000149,"correct":true,"confidence":5},{"trial_n":119,"n_dots":2.85,"target":"right","response":"left","rt":526.10000000149,"correct":false,"confidence":2},{"trial_n":120,"n_dots":2.95,"target":"right","response":"left","rt":619.60000000149,"correct":false,"confidence":4}]