[{"trial_n":1,"span":8,"encoder":"54700224","distractor":"64700224","target":"present","response":"present","rt":"10929","correct":true,"confidence":-1},{"trial_n":2,"span":8,"encoder":"23381101","distractor":"23386101","target":"present","response":"present","rt":"1785","correct":true,"confidence":-1},{"trial_n":3,"span":10,"encoder":"4584586628","distractor":"4884586628","target":"absent","response":"present","rt":"2074","correct":false,"confidence":-1},{"trial_n":4,"span":8,"encoder":"45273982","distractor":"45272982","target":"absent","response":"present","rt":"2076","correct":false,"confidence":-1},{"trial_n":5,"span":6,"encoder":"937038","distractor":"937068","target":"present","response":"present","rt":"614","correct":true,"confidence":-1},{"trial_n":6,"span":6,"encoder":"771416","distractor":"772416","target":"absent","response":"absent","rt":"1854","correct":true,"confidence":-1},{"trial_n":7,"span":8,"encoder":"53162557","distractor":"53462557","target":"present","response":"present","rt":"2651","correct":true,"confidence":-1},{"trial_n":8,"span":8,"encoder":"16430284","distractor":"16430084","target":"absent","response":"absent","rt":"5330","correct":true,"confidence":-1},{"trial_n":9,"span":10,"encoder":"1034835858","distractor":"1134835858","target":"present","response":"present","rt":"3078","correct":true,"confidence":-1},{"trial_n":10,"span":10,"encoder":"2014623870","distractor":"2044623870","target":"present","response":"absent","rt":"1291","correct":false,"confidence":-1},{"trial_n":11,"span":8,"encoder":"34767210","distractor":"34767250","target":"absent","response":"absent","rt":"2069","correct":true,"confidence":-1},{"trial_n":12,"span":8,"encoder":"73823143","distractor":"74823143","target":"present","response":"present","rt":"3416","correct":true,"confidence":-1},{"trial_n":13,"span":9,"encoder":"262735596","distractor":"262735598","target":"present","response":"present","rt":"1648","correct":true,"confidence":-1},{"trial_n":14,"span":9,"encoder":"861633383","distractor":"861633333","target":"absent","response":"absent","rt":"1670","correct":true,"confidence":-1},{"trial_n":15,"span":10,"encoder":"3033001626","distractor":"3033001826","target":"present","response":"present","rt":"1683","correct":true,"confidence":-1},{"trial_n":16,"span":10,"encoder":"3650510629","distractor":"3650519629","target":"absent","response":"present","rt":"910.00000000003","correct":false,"confidence":-1},{"trial_n":17,"span":9,"encoder":"298401258","distractor":"298401058","target":"present","response":"present","rt":"1333","correct":true,"confidence":-1},{"trial_n":18,"span":9,"encoder":"695191707","distractor":"695191407","target":"absent","response":"absent","rt":"1651","correct":true,"confidence":-1},{"trial_n":19,"span":10,"encoder":"4849012334","distractor":"4849012333","target":"present","response":"absent","rt":"2754","correct":false,"confidence":-1},{"trial_n":20,"span":9,"encoder":"182470860","distractor":"182470866","target":"absent","response":"absent","rt":"1455","correct":true,"confidence":-1},{"trial_n":21,"span":9,"encoder":"657072811","distractor":"657062811","target":"present","response":"present","rt":"4336","correct":true,"confidence":4},{"trial_n":22,"span":10,"encoder":"4880595490","distractor":"4880595090","target":"present","response":"absent","rt":"3040","correct":false,"confidence":5},{"trial_n":23,"span":9,"encoder":"764964561","distractor":"264964561","target":"present","response":"absent","rt":"4479","correct":false,"confidence":2},{"trial_n":24,"span":8,"encoder":"67568456","distractor":"67568457","target":"absent","response":"absent","rt":"2899","correct":true,"confidence":5},{"trial_n":25,"span":8,"encoder":"51962655","distractor":"51962652","target":"absent","response":"absent","rt":"2459","correct":true,"confidence":5},{"trial_n":26,"span":9,"encoder":"278881657","distractor":"278081657","target":"present","response":"present","rt":"2847","correct":true,"confidence":4},{"trial_n":27,"span":9,"encoder":"892958965","distractor":"893958965","target":"present","response":"present","rt":"4741.0000000001","correct":true,"confidence":3},{"trial_n":28,"span":10,"encoder":"2494628172","distractor":"2498628172","target":"absent","response":"present","rt":"4347","correct":false,"confidence":3},{"trial_n":29,"span":9,"encoder":"352731487","distractor":"352731482","target":"present","response":"absent","rt":"4130","correct":false,"confidence":4},{"trial_n":30,"span":8,"encoder":"02394570","distractor":"02694570","target":"absent","response":"absent","rt":"2558","correct":true,"confidence":5},{"trial_n":31,"span":8,"encoder":"85670559","distractor":"88670559","target":"present","response":"present","rt":"2958","correct":true,"confidence":5},{"trial_n":32,"span":9,"encoder":"203242973","distractor":"203242773","target":"absent","response":"absent","rt":"2509","correct":true,"confidence":5},{"trial_n":33,"span":9,"encoder":"411699490","distractor":"471699490","target":"present","response":"present","rt":"3144.0000000001","correct":true,"confidence":2},{"trial_n":34,"span":10,"encoder":"6885987664","distractor":"6885687664","target":"present","response":"present","rt":"7798","correct":true,"confidence":4},{"trial_n":35,"span":10,"encoder":"4344943081","distractor":"4344943091","target":"absent","response":"present","rt":"11821","correct":false,"confidence":3},{"trial_n":36,"span":9,"encoder":"303262674","distractor":"303262074","target":"absent","response":"absent","rt":"3721","correct":true,"confidence":5},{"trial_n":37,"span":9,"encoder":"694048466","distractor":"694048465","target":"present","response":"present","rt":"4840.9999999999","correct":true,"confidence":3},{"trial_n":38,"span":10,"encoder":"1866943244","distractor":"1866933244","target":"present","response":"absent","rt":"3740","correct":false,"confidence":4},{"trial_n":39,"span":9,"encoder":"644535726","distractor":"644435726","target":"absent","response":"absent","rt":"5764","correct":true,"confidence":5},{"trial_n":40,"span":9,"encoder":"244350037","distractor":"244370037","target":"absent","response":"present","rt":"3018","correct":false,"confidence":4},{"trial_n":41,"span":8,"encoder":"70610697","distractor":"74610697","target":"present","response":"present","rt":"2514","correct":true,"confidence":5},{"trial_n":42,"span":8,"encoder":"01351816","distractor":"03351816","target":"absent","response":"absent","rt":"5908.9999999999","correct":true,"confidence":3},{"trial_n":43,"span":9,"encoder":"538824440","distractor":"538820440","target":"absent","response":"present","rt":"3886","correct":false,"confidence":4},{"trial_n":44,"span":8,"encoder":"45003600","distractor":"46003600","target":"absent","response":"present","rt":"3190","correct":false,"confidence":5},{"trial_n":45,"span":7,"encoder":"4541294","distractor":"4581294","target":"present","response":"present","rt":"4881","correct":true,"confidence":3},{"trial_n":46,"span":7,"encoder":"3631600","distractor":"3631680","target":"present","response":"present","rt":"2550","correct":true,"confidence":5},{"trial_n":47,"span":8,"encoder":"99954772","distractor":"79954772","target":"absent","response":"present","rt":"3063","correct":false,"confidence":3},{"trial_n":48,"span":7,"encoder":"7567585","distractor":"7567555","target":"absent","response":"absent","rt":"1645.0000000001","correct":true,"confidence":5},{"trial_n":49,"span":7,"encoder":"6997447","distractor":"6997440","target":"absent","response":"present","rt":"2470.9999999999","correct":false,"confidence":4},{"trial_n":50,"span":6,"encoder":"773538","distractor":"173538","target":"absent","response":"absent","rt":"3036.0000000001","correct":true,"confidence":5},{"trial_n":51,"span":6,"encoder":"894082","distractor":"898082","target":"present","response":"present","rt":"2505","correct":true,"confidence":5},{"trial_n":52,"span":7,"encoder":"3859186","distractor":"7859186","target":"absent","response":"present","rt":"2643","correct":false,"confidence":5},{"trial_n":53,"span":6,"encoder":"419295","distractor":"419245","target":"present","response":"absent","rt":"3317","correct":false,"confidence":2},{"trial_n":54,"span":5,"encoder":"83357","distractor":"83387","target":"present","response":"present","rt":"2123.9999999999","correct":true,"confidence":5},{"trial_n":55,"span":5,"encoder":"86145","distractor":"56145","target":"absent","response":"present","rt":"1285","correct":false,"confidence":5},{"trial_n":56,"span":4,"encoder":"0334","distractor":"4334","target":"present","response":"present","rt":"1632","correct":true,"confidence":5},{"trial_n":57,"span":4,"encoder":"5754","distractor":"5454","target":"present","response":"present","rt":"1209","correct":true,"confidence":5},{"trial_n":58,"span":5,"encoder":"76328","distractor":"86328","target":"absent","response":"present","rt":"1427","correct":false,"confidence":5},{"trial_n":59,"span":4,"encoder":"1228","distractor":"1226","target":"present","response":"present","rt":"1401","correct":true,"confidence":5},{"trial_n":60,"span":4,"encoder":"5915","distractor":"3915","target":"absent","response":"absent","rt":"1597","correct":true,"confidence":5},{"trial_n":61,"span":5,"encoder":"33325","distractor":"33345","target":"absent","response":"absent","rt":"2212","correct":true,"confidence":5},{"trial_n":62,"span":5,"encoder":"28083","distractor":"28383","target":"present","response":"present","rt":"1224.9999999999","correct":true,"confidence":5},{"trial_n":63,"span":6,"encoder":"509216","distractor":"809216","target":"absent","response":"present","rt":"1886","correct":false,"confidence":5},{"trial_n":64,"span":5,"encoder":"75763","distractor":"75563","target":"absent","response":"absent","rt":"1616","correct":true,"confidence":5},{"trial_n":65,"span":5,"encoder":"22071","distractor":"62071","target":"present","response":"present","rt":"1236.0000000001","correct":true,"confidence":5},{"trial_n":66,"span":6,"encoder":"127778","distractor":"126778","target":"absent","response":"absent","rt":"1987.0000000002","correct":true,"confidence":5},{"trial_n":67,"span":6,"encoder":"821438","distractor":"821468","target":"present","response":"present","rt":"2187","correct":true,"confidence":5},{"trial_n":68,"span":7,"encoder":"3972234","distractor":"3992234","target":"present","response":"present","rt":"2947","correct":true,"confidence":5},{"trial_n":69,"span":7,"encoder":"0704065","distractor":"9704065","target":"absent","response":"present","rt":"3623","correct":false,"confidence":5},{"trial_n":70,"span":6,"encoder":"954498","distractor":"959498","target":"present","response":"absent","rt":"4194.9999999998","correct":false,"confidence":2},{"trial_n":71,"span":8,"encoder":"15008005","distractor":"11008005","target":"present","response":"present","rt":"4728","correct":true,"confidence":-1},{"trial_n":72,"span":8,"encoder":"91188496","distractor":"91188456","target":"present","response":"present","rt":"3251","correct":true,"confidence":-1},{"trial_n":73,"span":9,"encoder":"435169721","distractor":"437169721","target":"absent","response":"present","rt":"6063","correct":false,"confidence":-1},{"trial_n":74,"span":8,"encoder":"56536657","distractor":"55536657","target":"absent","response":"absent","rt":"2959","correct":true,"confidence":-1},{"trial_n":75,"span":8,"encoder":"75137997","distractor":"75137993","target":"present","response":"present","rt":"1848","correct":true,"confidence":-1},{"trial_n":76,"span":9,"encoder":"096819538","distractor":"056819538","target":"present","response":"absent","rt":"5953","correct":false,"confidence":-1},{"trial_n":77,"span":8,"encoder":"93607327","distractor":"92607327","target":"absent","response":"present","rt":"4949","correct":false,"confidence":-1},{"trial_n":78,"span":7,"encoder":"7048992","distractor":"7048982","target":"present","response":"present","rt":"2678","correct":true,"confidence":-1},{"trial_n":79,"span":7,"encoder":"1035626","distractor":"1035623","target":"present","response":"present","rt":"4370","correct":true,"confidence":-1},{"trial_n":80,"span":8,"encoder":"31548461","distractor":"31548361","target":"present","response":"present","rt":"2310","correct":true,"confidence":-1},{"trial_n":81,"span":8,"encoder":"29203938","distractor":"59203938","target":"absent","response":"present","rt":"2727","correct":false,"confidence":-1},{"trial_n":82,"span":7,"encoder":"3524855","distractor":"3529855","target":"present","response":"present","rt":"3938","correct":true,"confidence":-1},{"trial_n":83,"span":7,"encoder":"4698852","distractor":"4608852","target":"absent","response":"absent","rt":"778","correct":true,"confidence":-1},{"trial_n":84,"span":8,"encoder":"23232307","distractor":"83232307","target":"present","response":"present","rt":"3817","correct":true,"confidence":-1},{"trial_n":85,"span":8,"encoder":"77222639","distractor":"27222639","target":"present","response":"present","rt":"1881.9999999998","correct":true,"confidence":-1},{"trial_n":86,"span":9,"encoder":"018700902","distractor":"018770902","target":"absent","response":"present","rt":"1533","correct":false,"confidence":-1},{"trial_n":87,"span":8,"encoder":"26963299","distractor":"56963299","target":"absent","response":"absent","rt":"2779","correct":true,"confidence":-1},{"trial_n":88,"span":8,"encoder":"21966712","distractor":"24966712","target":"present","response":"absent","rt":"109823","correct":false,"confidence":-1},{"trial_n":89,"span":7,"encoder":"3424197","distractor":"3464197","target":"absent","response":"present","rt":"6423","correct":false,"confidence":-1},{"trial_n":90,"span":6,"encoder":"906217","distractor":"956217","target":"absent","response":"absent","rt":"4188","correct":true,"confidence":-1},{"trial_n":91,"span":6,"encoder":"845556","distractor":"845550","target":"absent","response":"absent","rt":"2167.9999999998","correct":true,"confidence":5},{"trial_n":92,"span":7,"encoder":"1240643","distractor":"1230643","target":"present","response":"present","rt":"4561","correct":true,"confidence":3},{"trial_n":93,"span":7,"encoder":"0724483","distractor":"0724983","target":"absent","response":"absent","rt":"2471","correct":true,"confidence":5},{"trial_n":94,"span":8,"encoder":"14466593","distractor":"14566593","target":"absent","response":"present","rt":"6607.0000000002","correct":false,"confidence":3},{"trial_n":95,"span":7,"encoder":"6994120","distractor":"9994120","target":"present","response":"present","rt":"1712","correct":true,"confidence":5},{"trial_n":96,"span":7,"encoder":"7005123","distractor":"7005124","target":"absent","response":"absent","rt":"3590","correct":true,"confidence":5},{"trial_n":97,"span":8,"encoder":"97528555","distractor":"97528255","target":"present","response":"present","rt":"9751","correct":true,"confidence":2},{"trial_n":98,"span":8,"encoder":"85165540","distractor":"55165540","target":"absent","response":"present","rt":"2248.9999999998","correct":false,"confidence":2},{"trial_n":99,"span":7,"encoder":"3942792","distractor":"3972792","target":"absent","response":"absent","rt":"6263.9999999998","correct":true,"confidence":4},{"trial_n":100,"span":7,"encoder":"3214428","distractor":"3214728","target":"present","response":"present","rt":"3094","correct":true,"confidence":5},{"trial_n":101,"span":8,"encoder":"87556458","distractor":"87556858","target":"absent","response":"absent","rt":"3275","correct":true,"confidence":5},{"trial_n":102,"span":8,"encoder":"89252591","distractor":"89253591","target":"absent","response":"absent","rt":"16175","correct":true,"confidence":1},{"trial_n":103,"span":9,"encoder":"062235009","distractor":"062234009","target":"present","response":"present","rt":"3318","correct":true,"confidence":5},{"trial_n":104,"span":9,"encoder":"819559646","distractor":"889559646","target":"present","response":"present","rt":"6132.9999999998","correct":true,"confidence":5},{"trial_n":105,"span":10,"encoder":"5089851000","distractor":"5089851300","target":"present","response":"present","rt":"3652","correct":true,"confidence":4},{"trial_n":106,"span":10,"encoder":"3621006200","distractor":"3621006208","target":"absent","response":"absent","rt":"3354","correct":true,"confidence":5},{"trial_n":107,"span":11,"encoder":"66511907721","distractor":"66511997721","target":"absent","response":"absent","rt":"4836.0000000002","correct":true,"confidence":4},{"trial_n":108,"span":11,"encoder":"32037670525","distractor":"32137670525","target":"present","response":"present","rt":"8099","correct":true,"confidence":5},{"trial_n":109,"span":12,"encoder":"478838646306","distractor":"448838646306","target":"present","response":"present","rt":"8578","correct":true,"confidence":4},{"trial_n":110,"span":12,"encoder":"208749248468","distractor":"208249248468","target":"present","response":"absent","rt":"8197","correct":false,"confidence":2},{"trial_n":111,"span":11,"encoder":"16269532173","distractor":"16469532173","target":"present","response":"present","rt":"6657","correct":true,"confidence":3},{"trial_n":112,"span":11,"encoder":"79320680052","distractor":"79320620052","target":"absent","response":"absent","rt":"3901","correct":true,"confidence":5},{"trial_n":113,"span":12,"encoder":"020573774836","distractor":"020573774834","target":"absent","response":"absent","rt":"12462","correct":true,"confidence":5},{"trial_n":114,"span":12,"encoder":"605441730138","distractor":"605441730133","target":"present","response":"present","rt":"3111","correct":true,"confidence":5},{"trial_n":115,"span":13,"encoder":"6126670356374","distractor":"6126670556374","target":"absent","response":"absent","rt":"3262.9999999995","correct":true,"confidence":4},{"trial_n":116,"span":13,"encoder":"1022598640154","distractor":"1622598640154","target":"absent","response":"present","rt":"7520","correct":false,"confidence":4},{"trial_n":117,"span":12,"encoder":"837028862411","distractor":"830028862411","target":"absent","response":"absent","rt":"4534","correct":true,"confidence":3},{"trial_n":118,"span":12,"encoder":"763559634728","distractor":"763549634728","target":"absent","response":"absent","rt":"6413","correct":true,"confidence":5},{"trial_n":119,"span":13,"encoder":"5265259964265","distractor":"5268259964265","target":"absent","response":"absent","rt":"9236","correct":true,"confidence":5},{"trial_n":120,"span":13,"encoder":"1807279269761","distractor":"1802279269761","target":"present","response":"present","rt":"4653.0000000005","correct":true,"confidence":2},{"trial_n":121,"span":14,"encoder":"61250242680200","distractor":"61250202680200","target":"present","response":"present","rt":"9029","correct":true,"confidence":3},{"trial_n":122,"span":14,"encoder":"32254559855010","distractor":"32254589855010","target":"absent","response":"absent","rt":"7052.9999999995","correct":true,"confidence":4},{"trial_n":123,"span":15,"encoder":"223644147552174","distractor":"223644147552574","target":"present","response":"absent","rt":"6061","correct":false,"confidence":2},{"trial_n":124,"span":14,"encoder":"89861084499483","distractor":"89861087499483","target":"absent","response":"absent","rt":"6476.9999999995","correct":true,"confidence":1},{"trial_n":125,"span":14,"encoder":"60100590005123","distractor":"60109590005123","target":"absent","response":"present","rt":"5563","correct":false,"confidence":3},{"trial_n":126,"span":13,"encoder":"3204572775812","distractor":"5204572775812","target":"present","response":"present","rt":"5914","correct":true,"confidence":5},{"trial_n":127,"span":13,"encoder":"5722845713377","distractor":"5722845717377","target":"present","response":"absent","rt":"3151","correct":false,"confidence":4},{"trial_n":128,"span":12,"encoder":"173016411901","distractor":"173016811901","target":"absent","response":"present","rt":"2839","correct":false,"confidence":2},{"trial_n":129,"span":11,"encoder":"48723547385","distractor":"48023547385","target":"present","response":"present","rt":"5329","correct":true,"confidence":5},{"trial_n":130,"span":11,"encoder":"16373456343","distractor":"16373456543","target":"present","response":"present","rt":"2579","correct":true,"confidence":4},{"trial_n":131,"span":12,"encoder":"656593733224","distractor":"656193733224","target":"present","response":"absent","rt":"5623","correct":false,"confidence":2},{"trial_n":132,"span":11,"encoder":"67664681029","distractor":"67364681029","target":"absent","response":"absent","rt":"2865","correct":true,"confidence":5},{"trial_n":133,"span":11,"encoder":"72297094727","distractor":"72297094707","target":"present","response":"present","rt":"1985","correct":true,"confidence":5},{"trial_n":134,"span":12,"encoder":"852842417911","distractor":"852842412911","target":"absent","response":"absent","rt":"10131","correct":true,"confidence":4},{"trial_n":135,"span":12,"encoder":"898603411431","distractor":"198603411431","target":"present","response":"absent","rt":"5533","correct":false,"confidence":5},{"trial_n":136,"span":11,"encoder":"09305792403","distractor":"09305762403","target":"present","response":"present","rt":"7062","correct":true,"confidence":1},{"trial_n":137,"span":11,"encoder":"50197813114","distractor":"50197813134","target":"absent","response":"absent","rt":"2422","correct":true,"confidence":5},{"trial_n":138,"span":12,"encoder":"728165517573","distractor":"728165517173","target":"present","response":"present","rt":"3595","correct":true,"confidence":5},{"trial_n":139,"span":12,"encoder":"231005688994","distractor":"231005638994","target":"absent","response":"absent","rt":"2221","correct":true,"confidence":5},{"trial_n":140,"span":13,"encoder":"0522597716363","distractor":"0522597713363","target":"present","response":"present","rt":"1655","correct":true,"confidence":5}]