[{"trial_n":1,"n_dots":4.25,"target":"right","response":"left","rt":3761.8999999911,"correct":false,"confidence":-1},{"trial_n":2,"n_dots":4.25,"target":"right","response":"right","rt":5573.3999999911,"correct":true,"confidence":-1},{"trial_n":3,"n_dots":4.25,"target":"right","response":"right","rt":605.59999999404,"correct":true,"confidence":-1},{"trial_n":4,"n_dots":3.85,"target":"left","response":"left","rt":698.90000000596,"correct":true,"confidence":-1},{"trial_n":5,"n_dots":3.85,"target":"right","response":"right","rt":338.59999999404,"correct":true,"confidence":-1},{"trial_n":6,"n_dots":3.45,"target":"left","response":"left","rt":353.70000000298,"correct":true,"confidence":-1},{"trial_n":7,"n_dots":3.45,"target":"right","response":"right","rt":310.59999999404,"correct":true,"confidence":-1},{"trial_n":8,"n_dots":3.25,"target":"left","response":"left","rt":351.69999998808,"correct":true,"confidence":-1},{"trial_n":9,"n_dots":3.25,"target":"right","response":"left","rt":307.90000000596,"correct":false,"confidence":-1},{"trial_n":10,"n_dots":3.45,"target":"right","response":"right","rt":379.5,"correct":true,"confidence":-1},{"trial_n":11,"n_dots":3.45,"target":"left","response":"left","rt":429.30000001192,"correct":true,"confidence":-1},{"trial_n":12,"n_dots":3.25,"target":"right","response":"right","rt":263,"correct":true,"confidence":-1},{"trial_n":13,"n_dots":3.25,"target":"left","response":"left","rt":266.10000000894,"correct":true,"confidence":-1},{"trial_n":14,"n_dots":3.15,"target":"left","response":"right","rt":332.79999999702,"correct":false,"confidence":-1},{"trial_n":15,"n_dots":3.25,"target":"right","response":"right","rt":401.59999999404,"correct":true,"confidence":-1},{"trial_n":16,"n_dots":3.25,"target":"left","response":"left","rt":493.70000000298,"correct":true,"confidence":-1},{"trial_n":17,"n_dots":3.15,"target":"left","response":"left","rt":376.90000000596,"correct":true,"confidence":-1},{"trial_n":18,"n_dots":3.15,"target":"left","response":"left","rt":306.89999999106,"correct":true,"confidence":-1},{"trial_n":19,"n_dots":3.05,"target":"right","response":"left","rt":312.79999999702,"correct":false,"confidence":-1},{"trial_n":20,"n_dots":3.15,"target":"left","response":"left","rt":269,"correct":true,"confidence":-1},{"trial_n":21,"n_dots":3.15,"target":"left","response":"left","rt":240.40000000596,"correct":true,"confidence":3},{"trial_n":22,"n_dots":3.05,"target":"right","response":"right","rt":1156.900000006,"correct":true,"confidence":2},{"trial_n":23,"n_dots":3.05,"target":"left","response":"left","rt":869.09999999404,"correct":true,"confidence":3},{"trial_n":24,"n_dots":2.95,"target":"left","response":"left","rt":253.79999999702,"correct":true,"confidence":3},{"trial_n":25,"n_dots":2.95,"target":"right","response":"right","rt":820.09999999404,"correct":true,"confidence":1},{"trial_n":26,"n_dots":2.85,"target":"right","response":"right","rt":681.40000000596,"correct":true,"confidence":3},{"trial_n":27,"n_dots":2.85,"target":"right","response":"left","rt":414.89999999106,"correct":false,"confidence":2},{"trial_n":28,"n_dots":2.95,"target":"right","response":"left","rt":308.10000000894,"correct":false,"confidence":1},{"trial_n":29,"n_dots":3.05,"target":"right","response":"right","rt":986.59999999404,"correct":true,"confidence":3},{"trial_n":30,"n_dots":3.05,"target":"right","response":"right","rt":1254.1000000089,"correct":true,"confidence":3},{"trial_n":31,"n_dots":2.95,"target":"right","response":"left","rt":576.5,"correct":false,"confidence":2},{"trial_n":32,"n_dots":3.05,"target":"right","response":"left","rt":465.89999999106,"correct":false,"confidence":1},{"trial_n":33,"n_dots":3.15,"target":"right","response":"left","rt":382.90000000596,"correct":false,"confidence":2},{"trial_n":34,"n_dots":3.25,"target":"left","response":"left","rt":392.09999999404,"correct":true,"confidence":4},{"trial_n":35,"n_dots":3.25,"target":"left","response":"left","rt":371.5,"correct":true,"confidence":3},{"trial_n":36,"n_dots":3.15,"target":"right","response":"left","rt":1081,"correct":false,"confidence":2},{"trial_n":37,"n_dots":3.25,"target":"right","response":"right","rt":638.89999999106,"correct":true,"confidence":2},{"trial_n":38,"n_dots":3.25,"target":"left","response":"left","rt":2023.1000000089,"correct":true,"confidence":3},{"trial_n":39,"n_dots":3.15,"target":"left","response":"left","rt":316.10000000894,"correct":true,"confidence":4},{"trial_n":40,"n_dots":3.15,"target":"left","response":"left","rt":337.5,"correct":true,"confidence":4},{"trial_n":41,"n_dots":3.05,"target":"right","response":"right","rt":598.40000000596,"correct":true,"confidence":2},{"trial_n":42,"n_dots":3.05,"target":"left","response":"left","rt":329.59999999404,"correct":true,"confidence":4},{"trial_n":43,"n_dots":2.95,"target":"right","response":"left","rt":497.70000000298,"correct":false,"confidence":1},{"trial_n":44,"n_dots":3.05,"target":"left","response":"left","rt":309.5,"correct":true,"confidence":3},{"trial_n":45,"n_dots":3.05,"target":"right","response":"right","rt":552.09999999404,"correct":true,"confidence":3},{"trial_n":46,"n_dots":2.95,"target":"right","response":"right","rt":908.90000000596,"correct":true,"confidence":2},{"trial_n":47,"n_dots":2.95,"target":"left","response":"left","rt":780.59999999404,"correct":true,"confidence":3},{"trial_n":48,"n_dots":2.85,"target":"left","response":"left","rt":390.89999999106,"correct":true,"confidence":2},{"trial_n":49,"n_dots":2.85,"target":"left","response":"left","rt":500,"correct":true,"confidence":2},{"trial_n":50,"n_dots":2.75,"target":"right","response":"right","rt":366.90000000596,"correct":true,"confidence":1},{"trial_n":51,"n_dots":2.75,"target":"left","response":"left","rt":307.79999999702,"correct":true,"confidence":3},{"trial_n":52,"n_dots":2.65,"target":"left","response":"left","rt":261.70000000298,"correct":true,"confidence":2},{"trial_n":53,"n_dots":2.65,"target":"right","response":"right","rt":514.79999999702,"correct":true,"confidence":1},{"trial_n":54,"n_dots":2.55,"target":"right","response":"left","rt":515.70000000298,"correct":false,"confidence":1},{"trial_n":55,"n_dots":2.65,"target":"right","response":"left","rt":540.20000000298,"correct":false,"confidence":1},{"trial_n":56,"n_dots":2.75,"target":"left","response":"left","rt":532.70000000298,"correct":true,"confidence":3},{"trial_n":57,"n_dots":2.75,"target":"right","response":"left","rt":218.80000001192,"correct":false,"confidence":1},{"trial_n":58,"n_dots":2.85,"target":"right","response":"left","rt":258,"correct":false,"confidence":1},{"trial_n":59,"n_dots":2.95,"target":"right","response":"right","rt":867.70000000298,"correct":true,"confidence":2},{"trial_n":60,"n_dots":2.95,"target":"left","response":"left","rt":674.40000000596,"correct":true,"confidence":2},{"trial_n":61,"n_dots":2.85,"target":"left","response":"left","rt":475.39999999106,"correct":true,"confidence":2},{"trial_n":62,"n_dots":2.85,"target":"right","response":"left","rt":454,"correct":false,"confidence":2},{"trial_n":63,"n_dots":2.95,"target":"left","response":"left","rt":770.30000001192,"correct":true,"confidence":3},{"trial_n":64,"n_dots":2.95,"target":"left","response":"left","rt":353.69999998808,"correct":true,"confidence":3},{"trial_n":65,"n_dots":2.85,"target":"left","response":"left","rt":496.90000000596,"correct":true,"confidence":3},{"trial_n":66,"n_dots":2.85,"target":"right","response":"right","rt":438.59999999404,"correct":true,"confidence":3},{"trial_n":67,"n_dots":2.75,"target":"right","response":"right","rt":2407.8999999911,"correct":true,"confidence":1},{"trial_n":68,"n_dots":2.75,"target":"left","response":"left","rt":327.29999999702,"correct":true,"confidence":2},{"trial_n":69,"n_dots":2.65,"target":"left","response":"left","rt":1142,"correct":true,"confidence":2},{"trial_n":70,"n_dots":2.65,"target":"right","response":"left","rt":321.5,"correct":false,"confidence":3},{"trial_n":71,"n_dots":2.75,"target":"right","response":"left","rt":352.09999999404,"correct":false,"confidence":4},{"trial_n":72,"n_dots":2.85,"target":"left","response":"left","rt":375.30000001192,"correct":true,"confidence":4},{"trial_n":73,"n_dots":2.85,"target":"left","response":"left","rt":307.70000000298,"correct":true,"confidence":3},{"trial_n":74,"n_dots":2.75,"target":"right","response":"right","rt":595.10000000894,"correct":true,"confidence":2},{"trial_n":75,"n_dots":2.75,"target":"left","response":"left","rt":354.20000000298,"correct":true,"confidence":2},{"trial_n":76,"n_dots":2.65,"target":"left","response":"left","rt":288.70000000298,"correct":true,"confidence":4},{"trial_n":77,"n_dots":2.65,"target":"left","response":"left","rt":731.60000000894,"correct":true,"confidence":4},{"trial_n":78,"n_dots":2.55,"target":"left","response":"left","rt":599.5,"correct":true,"confidence":2},{"trial_n":79,"n_dots":2.55,"target":"left","response":"left","rt":304.59999999404,"correct":true,"confidence":3},{"trial_n":80,"n_dots":2.45,"target":"left","response":"left","rt":335,"correct":true,"confidence":3},{"trial_n":81,"n_dots":2.45,"target":"right","response":"left","rt":344.19999998808,"correct":false,"confidence":2},{"trial_n":82,"n_dots":2.55,"target":"right","response":"left","rt":315.70000000298,"correct":false,"confidence":3},{"trial_n":83,"n_dots":2.65,"target":"right","response":"left","rt":291.20000000298,"correct":false,"confidence":1},{"trial_n":84,"n_dots":2.75,"target":"right","response":"left","rt":245.70000000298,"correct":false,"confidence":1},{"trial_n":85,"n_dots":2.85,"target":"left","response":"left","rt":369.70000000298,"correct":true,"confidence":2},{"trial_n":86,"n_dots":2.85,"target":"right","response":"left","rt":617,"correct":false,"confidence":2},{"trial_n":87,"n_dots":2.95,"target":"right","response":"right","rt":1030.200000003,"correct":true,"confidence":3},{"trial_n":88,"n_dots":2.95,"target":"left","response":"left","rt":806.90000000596,"correct":true,"confidence":1},{"trial_n":89,"n_dots":2.85,"target":"right","response":"right","rt":453.10000000894,"correct":true,"confidence":2},{"trial_n":90,"n_dots":2.85,"target":"right","response":"right","rt":1247,"correct":true,"confidence":1},{"trial_n":91,"n_dots":2.75,"target":"left","response":"left","rt":411.39999999106,"correct":true,"confidence":2},{"trial_n":92,"n_dots":2.75,"target":"left","response":"left","rt":1163.599999994,"correct":true,"confidence":2},{"trial_n":93,"n_dots":2.65,"target":"left","response":"left","rt":946.10000000894,"correct":true,"confidence":2},{"trial_n":94,"n_dots":2.65,"target":"right","response":"left","rt":502.59999999404,"correct":false,"confidence":1},{"trial_n":95,"n_dots":2.75,"target":"left","response":"left","rt":286.29999999702,"correct":true,"confidence":1},{"trial_n":96,"n_dots":2.75,"target":"left","response":"left","rt":348,"correct":true,"confidence":3},{"trial_n":97,"n_dots":2.65,"target":"right","response":"left","rt":413.20000000298,"correct":false,"confidence":1},{"trial_n":98,"n_dots":2.75,"target":"right","response":"right","rt":1823.5,"correct":true,"confidence":2},{"trial_n":99,"n_dots":2.75,"target":"left","response":"left","rt":239.70000000298,"correct":true,"confidence":3},{"trial_n":100,"n_dots":2.65,"target":"left","response":"left","rt":929.59999999404,"correct":true,"confidence":2},{"trial_n":101,"n_dots":2.65,"target":"right","response":"right","rt":1734.799999997,"correct":true,"confidence":3},{"trial_n":102,"n_dots":2.55,"target":"right","response":"left","rt":421.09999999404,"correct":false,"confidence":2},{"trial_n":103,"n_dots":2.65,"target":"left","response":"left","rt":729.79999999702,"correct":true,"confidence":2},{"trial_n":104,"n_dots":2.65,"target":"left","response":"left","rt":285.30000001192,"correct":true,"confidence":4},{"trial_n":105,"n_dots":2.55,"target":"left","response":"left","rt":296.40000000596,"correct":true,"confidence":1},{"trial_n":106,"n_dots":2.55,"target":"right","response":"left","rt":347.20000000298,"correct":false,"confidence":1},{"trial_n":107,"n_dots":2.65,"target":"right","response":"right","rt":482,"correct":true,"confidence":5},{"trial_n":108,"n_dots":2.65,"target":"right","response":"right","rt":804.29999999702,"correct":true,"confidence":4},{"trial_n":109,"n_dots":2.55,"target":"left","response":"left","rt":735.39999999106,"correct":true,"confidence":4},{"trial_n":110,"n_dots":2.55,"target":"right","response":"right","rt":1047.200000003,"correct":true,"confidence":1},{"trial_n":111,"n_dots":2.45,"target":"left","response":"left","rt":348.40000000596,"correct":true,"confidence":3},{"trial_n":112,"n_dots":2.45,"target":"left","response":"right","rt":717.80000001192,"correct":false,"confidence":2},{"trial_n":113,"n_dots":2.55,"target":"left","response":"left","rt":137.69999998808,"correct":true,"confidence":4},{"trial_n":114,"n_dots":2.55,"target":"right","response":"left","rt":1498.3999999911,"correct":false,"confidence":1},{"trial_n":115,"n_dots":2.65,"target":"left","response":"left","rt":356.79999999702,"correct":true,"confidence":2},{"trial_n":116,"n_dots":2.65,"target":"right","response":"left","rt":368.20000000298,"correct":false,"confidence":2},{"trial_n":117,"n_dots":2.75,"target":"right","response":"right","rt":282.70000000298,"correct":true,"confidence":1},{"trial_n":118,"n_dots":2.75,"target":"left","response":"left","rt":113.30000001192,"correct":true,"confidence":3},{"trial_n":119,"n_dots":2.65,"target":"right","response":"right","rt":327,"correct":true,"confidence":1},{"trial_n":120,"n_dots":2.65,"target":"left","response":"left","rt":237.19999998808,"correct":true,"confidence":4}]