[{"trial_n":1,"span":8,"encoder":"77628169","distractor":"77628869","target":"present","response":"present","rt":"4965","correct":true,"confidence":-1},{"trial_n":2,"span":8,"encoder":"49227117","distractor":"49227119","target":"present","response":"absent","rt":"2581","correct":false,"confidence":-1},{"trial_n":3,"span":6,"encoder":"265521","distractor":"266521","target":"absent","response":"present","rt":"1461","correct":false,"confidence":-1},{"trial_n":4,"span":4,"encoder":"3651","distractor":"3657","target":"absent","response":"absent","rt":"1182","correct":true,"confidence":-1},{"trial_n":5,"span":4,"encoder":"8562","distractor":"8262","target":"present","response":"present","rt":"1609","correct":true,"confidence":-1},{"trial_n":6,"span":6,"encoder":"698091","distractor":"998091","target":"absent","response":"absent","rt":"1450","correct":true,"confidence":-1},{"trial_n":7,"span":6,"encoder":"792779","distractor":"792739","target":"absent","response":"absent","rt":"2510","correct":true,"confidence":-1},{"trial_n":8,"span":8,"encoder":"06762937","distractor":"02762937","target":"absent","response":"absent","rt":"1258","correct":true,"confidence":-1},{"trial_n":9,"span":8,"encoder":"11822105","distractor":"16822105","target":"present","response":"absent","rt":"1379","correct":false,"confidence":-1},{"trial_n":10,"span":6,"encoder":"322879","distractor":"332879","target":"absent","response":"absent","rt":"2546","correct":true,"confidence":-1},{"trial_n":11,"span":6,"encoder":"508859","distractor":"508849","target":"absent","response":"present","rt":"33886","correct":false,"confidence":-1},{"trial_n":12,"span":5,"encoder":"20208","distractor":"21208","target":"absent","response":"absent","rt":"1923","correct":true,"confidence":-1},{"trial_n":13,"span":5,"encoder":"71865","distractor":"71861","target":"present","response":"present","rt":"2165","correct":true,"confidence":-1},{"trial_n":14,"span":6,"encoder":"435380","distractor":"435389","target":"absent","response":"absent","rt":"4461","correct":true,"confidence":-1},{"trial_n":15,"span":6,"encoder":"195813","distractor":"195853","target":"absent","response":"absent","rt":"3664","correct":true,"confidence":-1},{"trial_n":16,"span":7,"encoder":"9337473","distractor":"9307473","target":"absent","response":"absent","rt":"2084","correct":true,"confidence":-1},{"trial_n":17,"span":7,"encoder":"1412777","distractor":"0412777","target":"present","response":"present","rt":"3949","correct":true,"confidence":-1},{"trial_n":18,"span":8,"encoder":"33090302","distractor":"33090372","target":"absent","response":"absent","rt":"1729","correct":true,"confidence":-1},{"trial_n":19,"span":8,"encoder":"03148166","distractor":"03148666","target":"present","response":"absent","rt":"1140","correct":false,"confidence":-1},{"trial_n":20,"span":7,"encoder":"8339493","distractor":"8339293","target":"present","response":"present","rt":"1345","correct":true,"confidence":-1},{"trial_n":21,"span":7,"encoder":"2203155","distractor":"2202155","target":"absent","response":"present","rt":"1661","correct":false,"confidence":3},{"trial_n":22,"span":6,"encoder":"564412","distractor":"464412","target":"present","response":"present","rt":"2662","correct":true,"confidence":5},{"trial_n":23,"span":6,"encoder":"067129","distractor":"067109","target":"present","response":"present","rt":"1615","correct":true,"confidence":5},{"trial_n":24,"span":7,"encoder":"0272777","distractor":"0272774","target":"absent","response":"present","rt":"1383","correct":false,"confidence":2},{"trial_n":25,"span":6,"encoder":"583202","distractor":"583002","target":"absent","response":"absent","rt":"1892","correct":true,"confidence":4},{"trial_n":26,"span":6,"encoder":"168747","distractor":"168797","target":"absent","response":"absent","rt":"2849","correct":true,"confidence":5},{"trial_n":27,"span":7,"encoder":"5284065","distractor":"2284065","target":"absent","response":"absent","rt":"1921","correct":true,"confidence":4},{"trial_n":28,"span":7,"encoder":"3973998","distractor":"3973978","target":"absent","response":"absent","rt":"2368","correct":true,"confidence":4},{"trial_n":29,"span":8,"encoder":"18738906","distractor":"18738706","target":"present","response":"present","rt":"2201","correct":true,"confidence":5},{"trial_n":30,"span":8,"encoder":"43131871","distractor":"43131471","target":"absent","response":"present","rt":"2243","correct":false,"confidence":3},{"trial_n":31,"span":7,"encoder":"4093617","distractor":"4098617","target":"absent","response":"absent","rt":"3826","correct":true,"confidence":5},{"trial_n":32,"span":7,"encoder":"9542040","distractor":"9542740","target":"absent","response":"absent","rt":"2254.0000000001","correct":true,"confidence":5},{"trial_n":33,"span":8,"encoder":"70182776","distractor":"70182736","target":"present","response":"absent","rt":"2129.0000000001","correct":false,"confidence":4},{"trial_n":34,"span":7,"encoder":"6306892","distractor":"6306896","target":"present","response":"present","rt":"4719","correct":true,"confidence":5},{"trial_n":35,"span":7,"encoder":"7323737","distractor":"7353737","target":"present","response":"present","rt":"2367","correct":true,"confidence":3},{"trial_n":36,"span":8,"encoder":"47612574","distractor":"47612674","target":"present","response":"present","rt":"4886","correct":true,"confidence":5},{"trial_n":37,"span":8,"encoder":"66417056","distractor":"66418056","target":"absent","response":"absent","rt":"2628","correct":true,"confidence":5},{"trial_n":38,"span":9,"encoder":"352617459","distractor":"352677459","target":"absent","response":"absent","rt":"1821.0000000001","correct":true,"confidence":4},{"trial_n":39,"span":9,"encoder":"236552733","distractor":"236452733","target":"absent","response":"absent","rt":"2619","correct":true,"confidence":4},{"trial_n":40,"span":10,"encoder":"6053649149","distractor":"6053643149","target":"present","response":"absent","rt":"4922","correct":false,"confidence":3},{"trial_n":41,"span":9,"encoder":"553085126","distractor":"553085156","target":"absent","response":"present","rt":"1938","correct":false,"confidence":2},{"trial_n":42,"span":8,"encoder":"79101732","distractor":"79101733","target":"absent","response":"present","rt":"2146.0000000001","correct":false,"confidence":5},{"trial_n":43,"span":7,"encoder":"5428758","distractor":"4428758","target":"present","response":"present","rt":"3073","correct":true,"confidence":4},{"trial_n":44,"span":7,"encoder":"7515064","distractor":"2515064","target":"present","response":"absent","rt":"1189","correct":false,"confidence":3},{"trial_n":45,"span":6,"encoder":"909078","distractor":"909071","target":"present","response":"present","rt":"1686","correct":true,"confidence":5},{"trial_n":46,"span":6,"encoder":"305525","distractor":"307525","target":"absent","response":"present","rt":"1853.9999999999","correct":false,"confidence":5},{"trial_n":47,"span":5,"encoder":"80596","distractor":"80566","target":"present","response":"present","rt":"1702","correct":true,"confidence":5},{"trial_n":48,"span":5,"encoder":"91764","distractor":"91464","target":"absent","response":"present","rt":"1618.9999999999","correct":false,"confidence":5},{"trial_n":49,"span":4,"encoder":"1899","distractor":"6899","target":"absent","response":"absent","rt":"2846","correct":true,"confidence":5},{"trial_n":50,"span":4,"encoder":"8147","distractor":"8142","target":"present","response":"present","rt":"1997","correct":true,"confidence":5},{"trial_n":51,"span":5,"encoder":"82603","distractor":"81603","target":"present","response":"present","rt":"2941.0000000001","correct":true,"confidence":5},{"trial_n":52,"span":5,"encoder":"96285","distractor":"98285","target":"present","response":"present","rt":"3202","correct":true,"confidence":5},{"trial_n":53,"span":6,"encoder":"514927","distractor":"514127","target":"present","response":"present","rt":"6686.0000000001","correct":true,"confidence":4},{"trial_n":54,"span":6,"encoder":"067604","distractor":"067684","target":"present","response":"present","rt":"3756","correct":true,"confidence":5},{"trial_n":55,"span":7,"encoder":"8729517","distractor":"8729587","target":"present","response":"present","rt":"3924","correct":true,"confidence":5},{"trial_n":56,"span":7,"encoder":"9208205","distractor":"9202205","target":"present","response":"present","rt":"4260","correct":true,"confidence":4},{"trial_n":57,"span":8,"encoder":"22478221","distractor":"22468221","target":"absent","response":"absent","rt":"3200","correct":true,"confidence":4},{"trial_n":58,"span":8,"encoder":"60651544","distractor":"60657544","target":"present","response":"present","rt":"3285","correct":true,"confidence":5},{"trial_n":59,"span":9,"encoder":"074472803","distractor":"074772803","target":"present","response":"absent","rt":"2205","correct":false,"confidence":2},{"trial_n":60,"span":8,"encoder":"54909481","distractor":"54009481","target":"present","response":"present","rt":"2703","correct":true,"confidence":4},{"trial_n":61,"span":8,"encoder":"19761588","distractor":"19767588","target":"present","response":"absent","rt":"2089","correct":false,"confidence":4},{"trial_n":62,"span":7,"encoder":"1519447","distractor":"1519647","target":"absent","response":"present","rt":"1528","correct":false,"confidence":2},{"trial_n":63,"span":6,"encoder":"597950","distractor":"597970","target":"absent","response":"present","rt":"1561","correct":false,"confidence":4},{"trial_n":64,"span":5,"encoder":"56195","distractor":"36195","target":"present","response":"present","rt":"1401","correct":true,"confidence":5},{"trial_n":65,"span":5,"encoder":"31858","distractor":"31852","target":"present","response":"present","rt":"1322","correct":true,"confidence":4},{"trial_n":66,"span":6,"encoder":"850029","distractor":"650029","target":"present","response":"present","rt":"1444","correct":true,"confidence":5},{"trial_n":67,"span":6,"encoder":"874405","distractor":"824405","target":"absent","response":"absent","rt":"1790","correct":true,"confidence":4},{"trial_n":68,"span":7,"encoder":"2815861","distractor":"2805861","target":"present","response":"present","rt":"2247","correct":true,"confidence":4},{"trial_n":69,"span":7,"encoder":"8208783","distractor":"0208783","target":"absent","response":"absent","rt":"3647","correct":true,"confidence":3},{"trial_n":70,"span":8,"encoder":"55123278","distractor":"55123276","target":"present","response":"absent","rt":"2055","correct":false,"confidence":5},{"trial_n":71,"span":8,"encoder":"18935927","distractor":"18935925","target":"present","response":"absent","rt":"8380","correct":false,"confidence":-1},{"trial_n":72,"span":7,"encoder":"7629004","distractor":"8629004","target":"present","response":"present","rt":"451","correct":true,"confidence":-1},{"trial_n":73,"span":7,"encoder":"5283940","distractor":"4283940","target":"absent","response":"present","rt":"335","correct":false,"confidence":-1},{"trial_n":74,"span":6,"encoder":"084720","distractor":"074720","target":"absent","response":"absent","rt":"1439","correct":true,"confidence":-1},{"trial_n":75,"span":6,"encoder":"557171","distractor":"657171","target":"present","response":"present","rt":"1581","correct":true,"confidence":-1},{"trial_n":76,"span":7,"encoder":"0016656","distractor":"0016456","target":"absent","response":"absent","rt":"2551.0000000001","correct":true,"confidence":-1},{"trial_n":77,"span":7,"encoder":"7257539","distractor":"7257039","target":"absent","response":"present","rt":"985","correct":false,"confidence":-1},{"trial_n":78,"span":6,"encoder":"899481","distractor":"899381","target":"absent","response":"absent","rt":"3097.0000000001","correct":true,"confidence":-1},{"trial_n":79,"span":6,"encoder":"613297","distractor":"673297","target":"present","response":"absent","rt":"2578","correct":false,"confidence":-1},{"trial_n":80,"span":5,"encoder":"01475","distractor":"71475","target":"absent","response":"present","rt":"857.00000000012","correct":false,"confidence":-1},{"trial_n":81,"span":4,"encoder":"1578","distractor":"1577","target":"present","response":"present","rt":"1683","correct":true,"confidence":-1},{"trial_n":82,"span":4,"encoder":"0052","distractor":"0057","target":"present","response":"present","rt":"1247","correct":true,"confidence":-1},{"trial_n":83,"span":5,"encoder":"03309","distractor":"03339","target":"present","response":"present","rt":"782","correct":true,"confidence":-1},{"trial_n":84,"span":5,"encoder":"67382","distractor":"67302","target":"present","response":"absent","rt":"2122","correct":false,"confidence":-1},{"trial_n":85,"span":4,"encoder":"7831","distractor":"7331","target":"absent","response":"present","rt":"526.00000000012","correct":false,"confidence":-1},{"trial_n":86,"span":3,"encoder":"032","distractor":"432","target":"present","response":"present","rt":"1004","correct":true,"confidence":-1},{"trial_n":87,"span":3,"encoder":"948","distractor":"448","target":"present","response":"present","rt":"1028","correct":true,"confidence":-1},{"trial_n":88,"span":4,"encoder":"4963","distractor":"4960","target":"absent","response":"absent","rt":"915.00000000012","correct":true,"confidence":-1},{"trial_n":89,"span":4,"encoder":"0000","distractor":"0200","target":"absent","response":"absent","rt":"1535","correct":true,"confidence":-1},{"trial_n":90,"span":5,"encoder":"71300","distractor":"71330","target":"absent","response":"present","rt":"1323","correct":false,"confidence":-1},{"trial_n":91,"span":4,"encoder":"2388","distractor":"5388","target":"absent","response":"absent","rt":"1257","correct":true,"confidence":5},{"trial_n":92,"span":4,"encoder":"8208","distractor":"8207","target":"present","response":"present","rt":"1040.0000000001","correct":true,"confidence":5},{"trial_n":93,"span":5,"encoder":"75673","distractor":"74673","target":"absent","response":"absent","rt":"2702","correct":true,"confidence":3},{"trial_n":94,"span":5,"encoder":"36861","distractor":"06861","target":"absent","response":"present","rt":"2047","correct":false,"confidence":4},{"trial_n":95,"span":4,"encoder":"1961","distractor":"1361","target":"present","response":"present","rt":"2349","correct":true,"confidence":4},{"trial_n":96,"span":4,"encoder":"3200","distractor":"3700","target":"absent","response":"absent","rt":"1404","correct":true,"confidence":5},{"trial_n":97,"span":5,"encoder":"58527","distractor":"58528","target":"absent","response":"absent","rt":"5144","correct":true,"confidence":5},{"trial_n":98,"span":5,"encoder":"48528","distractor":"42528","target":"absent","response":"absent","rt":"2308","correct":true,"confidence":5},{"trial_n":99,"span":6,"encoder":"410816","distractor":"410416","target":"present","response":"present","rt":"4968","correct":true,"confidence":3},{"trial_n":100,"span":6,"encoder":"905797","distractor":"205797","target":"absent","response":"absent","rt":"2306","correct":true,"confidence":5},{"trial_n":101,"span":7,"encoder":"2576815","distractor":"6576815","target":"present","response":"present","rt":"2110.0000000001","correct":true,"confidence":4},{"trial_n":102,"span":7,"encoder":"0395717","distractor":"0495717","target":"absent","response":"absent","rt":"2139","correct":true,"confidence":5},{"trial_n":103,"span":8,"encoder":"25999239","distractor":"25999249","target":"absent","response":"absent","rt":"3157.9999999999","correct":true,"confidence":5},{"trial_n":104,"span":8,"encoder":"57606639","distractor":"57606659","target":"present","response":"present","rt":"3623.9999999999","correct":true,"confidence":3},{"trial_n":105,"span":9,"encoder":"701422516","distractor":"701422536","target":"present","response":"present","rt":"3095.0000000001","correct":true,"confidence":5},{"trial_n":106,"span":9,"encoder":"625011838","distractor":"625011830","target":"present","response":"present","rt":"7195","correct":true,"confidence":5},{"trial_n":107,"span":10,"encoder":"1672379599","distractor":"1672379699","target":"present","response":"present","rt":"1784","correct":true,"confidence":4},{"trial_n":108,"span":10,"encoder":"4710799021","distractor":"4710797021","target":"present","response":"present","rt":"2965","correct":true,"confidence":2},{"trial_n":109,"span":11,"encoder":"47792410375","distractor":"47792410372","target":"absent","response":"present","rt":"574","correct":false,"confidence":1},{"trial_n":110,"span":10,"encoder":"8773185891","distractor":"8773105891","target":"absent","response":"absent","rt":"3916","correct":true,"confidence":3},{"trial_n":111,"span":10,"encoder":"1215619512","distractor":"1215619572","target":"present","response":"present","rt":"5221","correct":true,"confidence":3},{"trial_n":112,"span":11,"encoder":"84121287916","distractor":"84121287716","target":"present","response":"present","rt":"4825.9999999999","correct":true,"confidence":3},{"trial_n":113,"span":11,"encoder":"03213792212","distractor":"03213792216","target":"present","response":"present","rt":"1919.0000000001","correct":true,"confidence":5},{"trial_n":114,"span":12,"encoder":"662237968930","distractor":"666237968930","target":"present","response":"present","rt":"3663","correct":true,"confidence":3},{"trial_n":115,"span":12,"encoder":"635184309355","distractor":"635084309355","target":"absent","response":"present","rt":"3281","correct":false,"confidence":4},{"trial_n":116,"span":11,"encoder":"88720306703","distractor":"88720336703","target":"present","response":"present","rt":"1207.9999999999","correct":true,"confidence":2},{"trial_n":117,"span":11,"encoder":"94415301863","distractor":"94315301863","target":"absent","response":"absent","rt":"1663","correct":true,"confidence":1},{"trial_n":118,"span":12,"encoder":"699312620871","distractor":"689312620871","target":"absent","response":"absent","rt":"532","correct":true,"confidence":2},{"trial_n":119,"span":12,"encoder":"155973404987","distractor":"155973404387","target":"present","response":"present","rt":"2202","correct":true,"confidence":3},{"trial_n":120,"span":13,"encoder":"6310346415472","distractor":"6310346915472","target":"present","response":"present","rt":"5367.9999999998","correct":true,"confidence":4},{"trial_n":121,"span":13,"encoder":"4993006232107","distractor":"4993004232107","target":"absent","response":"present","rt":"5832","correct":false,"confidence":1},{"trial_n":122,"span":12,"encoder":"288007673977","distractor":"688007673977","target":"present","response":"present","rt":"695.00000000023","correct":true,"confidence":1},{"trial_n":123,"span":12,"encoder":"587193566047","distractor":"087193566047","target":"absent","response":"absent","rt":"1079.9999999998","correct":true,"confidence":1},{"trial_n":124,"span":13,"encoder":"0228717704639","distractor":"0228717704638","target":"absent","response":"present","rt":"969","correct":false,"confidence":1},{"trial_n":125,"span":12,"encoder":"553962526275","distractor":"553966526275","target":"absent","response":"present","rt":"1050","correct":false,"confidence":1},{"trial_n":126,"span":11,"encoder":"72924481987","distractor":"72924484987","target":"present","response":"absent","rt":"115.99999999977","correct":false,"confidence":1},{"trial_n":127,"span":10,"encoder":"0761621360","distractor":"0361621360","target":"absent","response":"present","rt":"479","correct":false,"confidence":1},{"trial_n":128,"span":9,"encoder":"337569711","distractor":"337269711","target":"present","response":"present","rt":"423","correct":true,"confidence":1},{"trial_n":129,"span":9,"encoder":"557013111","distractor":"577013111","target":"absent","response":"absent","rt":"363","correct":true,"confidence":1},{"trial_n":130,"span":10,"encoder":"3066285317","distractor":"3066585317","target":"absent","response":"present","rt":"631","correct":false,"confidence":1},{"trial_n":131,"span":9,"encoder":"809056464","distractor":"809456464","target":"present","response":"absent","rt":"1116","correct":false,"confidence":1},{"trial_n":132,"span":8,"encoder":"64957316","distractor":"64957016","target":"present","response":"absent","rt":"492","correct":false,"confidence":1},{"trial_n":133,"span":7,"encoder":"9815285","distractor":"9815205","target":"present","response":"absent","rt":"582","correct":false,"confidence":1},{"trial_n":134,"span":6,"encoder":"910900","distractor":"910600","target":"present","response":"present","rt":"2370","correct":true,"confidence":1},{"trial_n":135,"span":6,"encoder":"678990","distractor":"178990","target":"absent","response":"present","rt":"3500","correct":false,"confidence":1},{"trial_n":136,"span":5,"encoder":"38799","distractor":"48799","target":"absent","response":"present","rt":"2195","correct":false,"confidence":1},{"trial_n":137,"span":4,"encoder":"4494","distractor":"3494","target":"present","response":"present","rt":"2081.0000000002","correct":true,"confidence":5},{"trial_n":138,"span":4,"encoder":"7828","distractor":"7826","target":"absent","response":"absent","rt":"4188","correct":true,"confidence":4},{"trial_n":139,"span":5,"encoder":"15143","distractor":"15243","target":"present","response":"present","rt":"2711","correct":true,"confidence":5},{"trial_n":140,"span":5,"encoder":"30794","distractor":"30704","target":"present","response":"present","rt":"3396","correct":true,"confidence":5}]