[{"trial_n":1,"min":25,"max":230,"target":"present","response":"present","rt":2543,"correct":true,"confidence":-1},{"trial_n":2,"min":25,"max":230,"target":"present","response":"present","rt":1235,"correct":true,"confidence":-1},{"trial_n":3,"min":41,"max":214,"target":"absent","response":"absent","rt":868,"correct":true,"confidence":-1},{"trial_n":4,"min":41,"max":214,"target":"absent","response":"absent","rt":809.99999999999,"correct":true,"confidence":-1},{"trial_n":5,"min":57,"max":198,"target":"present","response":"present","rt":1078,"correct":true,"confidence":-1},{"trial_n":6,"min":57,"max":198,"target":"present","response":"absent","rt":727,"correct":false,"confidence":-1},{"trial_n":7,"min":41,"max":214,"target":"present","response":"present","rt":240,"correct":true,"confidence":-1},{"trial_n":8,"min":41,"max":214,"target":"absent","response":"absent","rt":157,"correct":true,"confidence":-1},{"trial_n":9,"min":57,"max":198,"target":"absent","response":"absent","rt":245,"correct":true,"confidence":-1},{"trial_n":10,"min":57,"max":198,"target":"absent","response":"absent","rt":222,"correct":true,"confidence":-1},{"trial_n":11,"min":65,"max":190,"target":"absent","response":"present","rt":266,"correct":false,"confidence":-1},{"trial_n":12,"min":57,"max":198,"target":"absent","response":"absent","rt":819,"correct":true,"confidence":-1},{"trial_n":13,"min":57,"max":198,"target":"present","response":"present","rt":152,"correct":true,"confidence":-1},{"trial_n":14,"min":65,"max":190,"target":"present","response":"present","rt":329,"correct":true,"confidence":-1},{"trial_n":15,"min":65,"max":190,"target":"present","response":"present","rt":240.00000000001,"correct":true,"confidence":-1},{"trial_n":16,"min":73,"max":182,"target":"absent","response":"absent","rt":267,"correct":true,"confidence":-1},{"trial_n":17,"min":73,"max":182,"target":"absent","response":"absent","rt":312,"correct":true,"confidence":-1},{"trial_n":18,"min":81,"max":174,"target":"present","response":"present","rt":417,"correct":true,"confidence":-1},{"trial_n":19,"min":81,"max":174,"target":"present","response":"absent","rt":462,"correct":false,"confidence":-1},{"trial_n":20,"min":73,"max":182,"target":"absent","response":"absent","rt":1217,"correct":true,"confidence":-1},{"trial_n":21,"min":73,"max":182,"target":"present","response":"present","rt":342.99999999999,"correct":true,"confidence":5},{"trial_n":22,"min":77,"max":178,"target":"absent","response":"absent","rt":1739,"correct":true,"confidence":1},{"trial_n":23,"min":77,"max":178,"target":"absent","response":"absent","rt":963,"correct":true,"confidence":4},{"trial_n":24,"min":81,"max":174,"target":"absent","response":"absent","rt":342,"correct":true,"confidence":3},{"trial_n":25,"min":81,"max":174,"target":"absent","response":"absent","rt":286,"correct":true,"confidence":3},{"trial_n":26,"min":85,"max":170,"target":"absent","response":"present","rt":409.99999999999,"correct":false,"confidence":4},{"trial_n":27,"min":81,"max":174,"target":"absent","response":"absent","rt":299.00000000001,"correct":true,"confidence":3},{"trial_n":28,"min":81,"max":174,"target":"absent","response":"absent","rt":369,"correct":true,"confidence":4},{"trial_n":29,"min":85,"max":170,"target":"present","response":"absent","rt":336,"correct":false,"confidence":4},{"trial_n":30,"min":81,"max":174,"target":"absent","response":"absent","rt":235.99999999999,"correct":true,"confidence":4},{"trial_n":31,"min":81,"max":174,"target":"present","response":"present","rt":593,"correct":true,"confidence":3},{"trial_n":32,"min":83,"max":172,"target":"present","response":"present","rt":3824,"correct":true,"confidence":1},{"trial_n":33,"min":83,"max":172,"target":"present","response":"present","rt":1351,"correct":true,"confidence":1},{"trial_n":34,"min":85,"max":170,"target":"absent","response":"absent","rt":409,"correct":true,"confidence":3},{"trial_n":35,"min":85,"max":170,"target":"present","response":"absent","rt":1873,"correct":false,"confidence":1},{"trial_n":36,"min":83,"max":172,"target":"absent","response":"absent","rt":415,"correct":true,"confidence":1},{"trial_n":37,"min":83,"max":172,"target":"present","response":"present","rt":348,"correct":true,"confidence":3},{"trial_n":38,"min":85,"max":170,"target":"present","response":"present","rt":1182,"correct":true,"confidence":4},{"trial_n":39,"min":85,"max":170,"target":"present","response":"present","rt":2377,"correct":true,"confidence":4},{"trial_n":40,"min":87,"max":168,"target":"absent","response":"absent","rt":877,"correct":true,"confidence":3},{"trial_n":41,"min":87,"max":168,"target":"present","response":"present","rt":1006,"correct":true,"confidence":3},{"trial_n":42,"min":88,"max":167,"target":"present","response":"present","rt":1003,"correct":true,"confidence":3},{"trial_n":43,"min":88,"max":167,"target":"absent","response":"absent","rt":764,"correct":true,"confidence":2},{"trial_n":44,"min":89,"max":166,"target":"absent","response":"absent","rt":857,"correct":true,"confidence":3},{"trial_n":45,"min":89,"max":166,"target":"present","response":"absent","rt":783,"correct":false,"confidence":3},{"trial_n":46,"min":88,"max":167,"target":"present","response":"present","rt":1468,"correct":true,"confidence":2},{"trial_n":47,"min":88,"max":167,"target":"absent","response":"absent","rt":702,"correct":true,"confidence":4},{"trial_n":48,"min":89,"max":166,"target":"present","response":"present","rt":2264,"correct":true,"confidence":2},{"trial_n":49,"min":89,"max":166,"target":"present","response":"absent","rt":674,"correct":false,"confidence":3},{"trial_n":50,"min":88,"max":167,"target":"present","response":"absent","rt":941.00000000003,"correct":false,"confidence":4},{"trial_n":51,"min":87,"max":168,"target":"absent","response":"absent","rt":1517,"correct":true,"confidence":3},{"trial_n":52,"min":87,"max":168,"target":"absent","response":"absent","rt":744,"correct":true,"confidence":2},{"trial_n":53,"min":88,"max":167,"target":"present","response":"present","rt":1668,"correct":true,"confidence":1},{"trial_n":54,"min":88,"max":167,"target":"absent","response":"absent","rt":745,"correct":true,"confidence":2},{"trial_n":55,"min":89,"max":166,"target":"present","response":"present","rt":920,"correct":true,"confidence":3},{"trial_n":56,"min":89,"max":166,"target":"present","response":"absent","rt":785,"correct":false,"confidence":3},{"trial_n":57,"min":88,"max":167,"target":"present","response":"present","rt":783,"correct":true,"confidence":4},{"trial_n":58,"min":88,"max":167,"target":"absent","response":"present","rt":2203,"correct":false,"confidence":2},{"trial_n":59,"min":87,"max":168,"target":"present","response":"present","rt":2222,"correct":true,"confidence":2},{"trial_n":60,"min":87,"max":168,"target":"absent","response":"absent","rt":703,"correct":true,"confidence":4},{"trial_n":61,"min":88,"max":167,"target":"present","response":"present","rt":763,"correct":true,"confidence":4},{"trial_n":62,"min":88,"max":167,"target":"absent","response":"present","rt":835,"correct":false,"confidence":3},{"trial_n":63,"min":87,"max":168,"target":"present","response":"present","rt":1780,"correct":true,"confidence":2},{"trial_n":64,"min":87,"max":168,"target":"present","response":"present","rt":1229,"correct":true,"confidence":1},{"trial_n":65,"min":88,"max":167,"target":"absent","response":"present","rt":1255,"correct":false,"confidence":2},{"trial_n":66,"min":87,"max":168,"target":"absent","response":"absent","rt":1078,"correct":true,"confidence":3},{"trial_n":67,"min":87,"max":168,"target":"absent","response":"absent","rt":635.00000000003,"correct":true,"confidence":3},{"trial_n":68,"min":88,"max":167,"target":"absent","response":"absent","rt":591,"correct":true,"confidence":3},{"trial_n":69,"min":88,"max":167,"target":"present","response":"present","rt":627.99999999997,"correct":true,"confidence":4},{"trial_n":70,"min":89,"max":166,"target":"present","response":"absent","rt":650.99999999997,"correct":false,"confidence":2},{"trial_n":71,"min":41,"max":214,"target":"present","response":"present","rt":2812,"correct":true,"confidence":-1},{"trial_n":72,"min":41,"max":214,"target":"present","response":"present","rt":529.00000000003,"correct":true,"confidence":-1},{"trial_n":73,"min":57,"max":198,"target":"absent","response":"absent","rt":220,"correct":true,"confidence":-1},{"trial_n":74,"min":57,"max":198,"target":"absent","response":"absent","rt":265,"correct":true,"confidence":-1},{"trial_n":75,"min":73,"max":182,"target":"present","response":"present","rt":573.00000000003,"correct":true,"confidence":-1},{"trial_n":76,"min":73,"max":182,"target":"present","response":"present","rt":154.99999999997,"correct":true,"confidence":-1},{"trial_n":77,"min":89,"max":166,"target":"absent","response":"absent","rt":132,"correct":true,"confidence":-1},{"trial_n":78,"min":89,"max":166,"target":"absent","response":"absent","rt":219.99999999997,"correct":true,"confidence":-1},{"trial_n":79,"min":105,"max":150,"target":"absent","response":"present","rt":440,"correct":false,"confidence":-1},{"trial_n":80,"min":89,"max":166,"target":"absent","response":"absent","rt":487,"correct":true,"confidence":-1},{"trial_n":81,"min":89,"max":166,"target":"absent","response":"present","rt":618,"correct":false,"confidence":-1},{"trial_n":82,"min":81,"max":174,"target":"absent","response":"present","rt":596,"correct":false,"confidence":-1},{"trial_n":83,"min":73,"max":182,"target":"absent","response":"absent","rt":331,"correct":true,"confidence":-1},{"trial_n":84,"min":73,"max":182,"target":"present","response":"present","rt":662,"correct":true,"confidence":-1},{"trial_n":85,"min":81,"max":174,"target":"absent","response":"absent","rt":620,"correct":true,"confidence":-1},{"trial_n":86,"min":81,"max":174,"target":"present","response":"present","rt":331,"correct":true,"confidence":-1},{"trial_n":87,"min":89,"max":166,"target":"absent","response":"present","rt":773,"correct":false,"confidence":-1},{"trial_n":88,"min":81,"max":174,"target":"present","response":"present","rt":1903,"correct":true,"confidence":-1},{"trial_n":89,"min":81,"max":174,"target":"absent","response":"absent","rt":752,"correct":true,"confidence":-1},{"trial_n":90,"min":89,"max":166,"target":"present","response":"present","rt":420,"correct":true,"confidence":-1},{"trial_n":91,"min":89,"max":166,"target":"present","response":"present","rt":655,"correct":true,"confidence":1},{"trial_n":92,"min":93,"max":162,"target":"absent","response":"present","rt":986,"correct":false,"confidence":1},{"trial_n":93,"min":89,"max":166,"target":"present","response":"present","rt":635,"correct":true,"confidence":3},{"trial_n":94,"min":89,"max":166,"target":"absent","response":"absent","rt":501,"correct":true,"confidence":3},{"trial_n":95,"min":93,"max":162,"target":"absent","response":"present","rt":899,"correct":false,"confidence":1},{"trial_n":96,"min":89,"max":166,"target":"absent","response":"absent","rt":612,"correct":true,"confidence":1},{"trial_n":97,"min":89,"max":166,"target":"present","response":"present","rt":589,"correct":true,"confidence":2},{"trial_n":98,"min":93,"max":162,"target":"present","response":"present","rt":325,"correct":true,"confidence":2},{"trial_n":99,"min":93,"max":162,"target":"absent","response":"present","rt":679,"correct":false,"confidence":2},{"trial_n":100,"min":89,"max":166,"target":"absent","response":"absent","rt":655,"correct":true,"confidence":4},{"trial_n":101,"min":89,"max":166,"target":"absent","response":"absent","rt":480,"correct":true,"confidence":3},{"trial_n":102,"min":91,"max":164,"target":"absent","response":"present","rt":346,"correct":false,"confidence":2},{"trial_n":103,"min":89,"max":166,"target":"present","response":"present","rt":501,"correct":true,"confidence":2},{"trial_n":104,"min":89,"max":166,"target":"present","response":"present","rt":170,"correct":true,"confidence":4},{"trial_n":105,"min":91,"max":164,"target":"absent","response":"present","rt":478,"correct":false,"confidence":2},{"trial_n":106,"min":89,"max":166,"target":"present","response":"present","rt":414,"correct":true,"confidence":2},{"trial_n":107,"min":89,"max":166,"target":"absent","response":"absent","rt":1298,"correct":true,"confidence":3},{"trial_n":108,"min":91,"max":164,"target":"present","response":"present","rt":522,"correct":true,"confidence":1},{"trial_n":109,"min":91,"max":164,"target":"present","response":"present","rt":389.99999999994,"correct":true,"confidence":2},{"trial_n":110,"min":93,"max":162,"target":"present","response":"present","rt":437,"correct":true,"confidence":3},{"trial_n":111,"min":93,"max":162,"target":"absent","response":"present","rt":525,"correct":false,"confidence":2},{"trial_n":112,"min":92,"max":163,"target":"absent","response":"present","rt":479,"correct":false,"confidence":2},{"trial_n":113,"min":91,"max":164,"target":"present","response":"present","rt":568,"correct":true,"confidence":3},{"trial_n":114,"min":91,"max":164,"target":"absent","response":"absent","rt":2644,"correct":true,"confidence":1},{"trial_n":115,"min":92,"max":163,"target":"present","response":"present","rt":281.00000000006,"correct":true,"confidence":3},{"trial_n":116,"min":92,"max":163,"target":"absent","response":"absent","rt":656,"correct":true,"confidence":3},{"trial_n":117,"min":93,"max":162,"target":"present","response":"present","rt":568,"correct":true,"confidence":1},{"trial_n":118,"min":93,"max":162,"target":"absent","response":"absent","rt":457,"correct":true,"confidence":1},{"trial_n":119,"min":94,"max":161,"target":"present","response":"absent","rt":1075,"correct":false,"confidence":1},{"trial_n":120,"min":93,"max":162,"target":"present","response":"present","rt":567.00000000006,"correct":true,"confidence":3},{"trial_n":121,"min":93,"max":162,"target":"present","response":"present","rt":390.99999999994,"correct":true,"confidence":2},{"trial_n":122,"min":94,"max":161,"target":"present","response":"present","rt":393,"correct":true,"confidence":2},{"trial_n":123,"min":94,"max":161,"target":"absent","response":"present","rt":369,"correct":false,"confidence":2},{"trial_n":124,"min":93,"max":162,"target":"present","response":"present","rt":415,"correct":true,"confidence":1},{"trial_n":125,"min":93,"max":162,"target":"absent","response":"present","rt":854,"correct":false,"confidence":1},{"trial_n":126,"min":92,"max":163,"target":"present","response":"present","rt":414,"correct":true,"confidence":3},{"trial_n":127,"min":92,"max":163,"target":"present","response":"present","rt":498,"correct":true,"confidence":1},{"trial_n":128,"min":93,"max":162,"target":"present","response":"present","rt":1519,"correct":true,"confidence":2},{"trial_n":129,"min":93,"max":162,"target":"absent","response":"absent","rt":501.00000000006,"correct":true,"confidence":3},{"trial_n":130,"min":94,"max":161,"target":"present","response":"absent","rt":812,"correct":false,"confidence":1},{"trial_n":131,"min":93,"max":162,"target":"present","response":"present","rt":347,"correct":true,"confidence":2},{"trial_n":132,"min":93,"max":162,"target":"present","response":"present","rt":393,"correct":true,"confidence":1},{"trial_n":133,"min":94,"max":161,"target":"absent","response":"absent","rt":546,"correct":true,"confidence":3},{"trial_n":134,"min":94,"max":161,"target":"absent","response":"absent","rt":611,"correct":true,"confidence":1},{"trial_n":135,"min":95,"max":160,"target":"present","response":"present","rt":1166,"correct":true,"confidence":1},{"trial_n":136,"min":95,"max":160,"target":"absent","response":"present","rt":988,"correct":false,"confidence":1},{"trial_n":137,"min":94,"max":161,"target":"present","response":"present","rt":1142,"correct":true,"confidence":1},{"trial_n":138,"min":94,"max":161,"target":"absent","response":"present","rt":390,"correct":false,"confidence":2},{"trial_n":139,"min":93,"max":162,"target":"present","response":"present","rt":592,"correct":true,"confidence":1},{"trial_n":140,"min":93,"max":162,"target":"present","response":"present","rt":324,"correct":true,"confidence":2}]