[{"trial_n":1,"min":25,"max":230,"target":"present","response":"absent","rt":9347,"correct":false,"confidence":-1},{"trial_n":2,"min":25,"max":230,"target":"present","response":"present","rt":1021,"correct":true,"confidence":-1},{"trial_n":3,"min":25,"max":230,"target":"absent","response":"absent","rt":1202,"correct":true,"confidence":-1},{"trial_n":4,"min":41,"max":214,"target":"absent","response":"absent","rt":737,"correct":true,"confidence":-1},{"trial_n":5,"min":41,"max":214,"target":"present","response":"present","rt":791,"correct":true,"confidence":-1},{"trial_n":6,"min":57,"max":198,"target":"absent","response":"absent","rt":656,"correct":true,"confidence":-1},{"trial_n":7,"min":57,"max":198,"target":"present","response":"present","rt":1221,"correct":true,"confidence":-1},{"trial_n":8,"min":73,"max":182,"target":"present","response":"present","rt":661,"correct":true,"confidence":-1},{"trial_n":9,"min":73,"max":182,"target":"present","response":"present","rt":886,"correct":true,"confidence":-1},{"trial_n":10,"min":89,"max":166,"target":"absent","response":"absent","rt":706,"correct":true,"confidence":-1},{"trial_n":11,"min":89,"max":166,"target":"absent","response":"absent","rt":540,"correct":true,"confidence":-1},{"trial_n":12,"min":97,"max":158,"target":"present","response":"absent","rt":612,"correct":false,"confidence":-1},{"trial_n":13,"min":89,"max":166,"target":"present","response":"absent","rt":866,"correct":false,"confidence":-1},{"trial_n":14,"min":81,"max":174,"target":"present","response":"absent","rt":668,"correct":false,"confidence":-1},{"trial_n":15,"min":73,"max":182,"target":"present","response":"present","rt":834,"correct":true,"confidence":-1},{"trial_n":16,"min":73,"max":182,"target":"absent","response":"present","rt":909,"correct":false,"confidence":-1},{"trial_n":17,"min":65,"max":190,"target":"absent","response":"absent","rt":834,"correct":true,"confidence":-1},{"trial_n":18,"min":65,"max":190,"target":"present","response":"present","rt":1080,"correct":true,"confidence":-1},{"trial_n":19,"min":73,"max":182,"target":"absent","response":"absent","rt":947.99999999953,"correct":true,"confidence":-1},{"trial_n":20,"min":73,"max":182,"target":"present","response":"present","rt":921,"correct":true,"confidence":-1},{"trial_n":21,"min":77,"max":178,"target":"absent","response":"absent","rt":681,"correct":true,"confidence":5},{"trial_n":22,"min":77,"max":178,"target":"present","response":"absent","rt":7789,"correct":false,"confidence":2},{"trial_n":23,"min":73,"max":182,"target":"present","response":"present","rt":768,"correct":true,"confidence":4},{"trial_n":24,"min":73,"max":182,"target":"absent","response":"present","rt":837.00000000047,"correct":false,"confidence":4},{"trial_n":25,"min":69,"max":186,"target":"absent","response":"absent","rt":676,"correct":true,"confidence":4},{"trial_n":26,"min":69,"max":186,"target":"absent","response":"absent","rt":740,"correct":true,"confidence":5},{"trial_n":27,"min":73,"max":182,"target":"present","response":"present","rt":821,"correct":true,"confidence":5},{"trial_n":28,"min":73,"max":182,"target":"absent","response":"absent","rt":2114,"correct":true,"confidence":3},{"trial_n":29,"min":77,"max":178,"target":"present","response":"present","rt":747,"correct":true,"confidence":5},{"trial_n":30,"min":77,"max":178,"target":"present","response":"present","rt":797,"correct":true,"confidence":5},{"trial_n":31,"min":79,"max":176,"target":"present","response":"present","rt":680,"correct":true,"confidence":5},{"trial_n":32,"min":79,"max":176,"target":"absent","response":"absent","rt":597,"correct":true,"confidence":5},{"trial_n":33,"min":81,"max":174,"target":"absent","response":"absent","rt":1116,"correct":true,"confidence":5},{"trial_n":34,"min":81,"max":174,"target":"present","response":"present","rt":758,"correct":true,"confidence":5},{"trial_n":35,"min":83,"max":172,"target":"present","response":"absent","rt":988,"correct":false,"confidence":5},{"trial_n":36,"min":81,"max":174,"target":"absent","response":"absent","rt":931,"correct":true,"confidence":4},{"trial_n":37,"min":81,"max":174,"target":"present","response":"present","rt":949,"correct":true,"confidence":4},{"trial_n":38,"min":83,"max":172,"target":"absent","response":"absent","rt":1250.9999999995,"correct":true,"confidence":2},{"trial_n":39,"min":83,"max":172,"target":"absent","response":"present","rt":972,"correct":false,"confidence":4},{"trial_n":40,"min":81,"max":174,"target":"present","response":"present","rt":780,"correct":true,"confidence":5},{"trial_n":41,"min":81,"max":174,"target":"absent","response":"absent","rt":782,"correct":true,"confidence":5},{"trial_n":42,"min":82,"max":173,"target":"present","response":"present","rt":988.99999999953,"correct":true,"confidence":4},{"trial_n":43,"min":82,"max":173,"target":"absent","response":"absent","rt":1339,"correct":true,"confidence":4},{"trial_n":44,"min":83,"max":172,"target":"present","response":"absent","rt":797,"correct":false,"confidence":5},{"trial_n":45,"min":82,"max":173,"target":"absent","response":"absent","rt":1331,"correct":true,"confidence":4},{"trial_n":46,"min":82,"max":173,"target":"absent","response":"absent","rt":1028,"correct":true,"confidence":5},{"trial_n":47,"min":83,"max":172,"target":"present","response":"present","rt":778,"correct":true,"confidence":5},{"trial_n":48,"min":83,"max":172,"target":"absent","response":"present","rt":1237,"correct":false,"confidence":5},{"trial_n":49,"min":82,"max":173,"target":"absent","response":"absent","rt":799,"correct":true,"confidence":5},{"trial_n":50,"min":82,"max":173,"target":"present","response":"present","rt":722,"correct":true,"confidence":5},{"trial_n":51,"min":83,"max":172,"target":"present","response":"present","rt":869,"correct":true,"confidence":5},{"trial_n":52,"min":83,"max":172,"target":"absent","response":"absent","rt":1220,"correct":true,"confidence":4},{"trial_n":53,"min":84,"max":171,"target":"present","response":"present","rt":836,"correct":true,"confidence":5},{"trial_n":54,"min":84,"max":171,"target":"present","response":"absent","rt":1882,"correct":false,"confidence":1},{"trial_n":55,"min":83,"max":172,"target":"absent","response":"absent","rt":880,"correct":true,"confidence":5},{"trial_n":56,"min":83,"max":172,"target":"absent","response":"present","rt":822.00000000047,"correct":false,"confidence":5},{"trial_n":57,"min":82,"max":173,"target":"absent","response":"present","rt":853,"correct":false,"confidence":4},{"trial_n":58,"min":81,"max":174,"target":"absent","response":"present","rt":772,"correct":false,"confidence":3},{"trial_n":59,"min":80,"max":175,"target":"present","response":"present","rt":786.99999999953,"correct":true,"confidence":5},{"trial_n":60,"min":80,"max":175,"target":"present","response":"present","rt":855,"correct":true,"confidence":5},{"trial_n":61,"min":81,"max":174,"target":"absent","response":"present","rt":1347,"correct":false,"confidence":5},{"trial_n":62,"min":80,"max":175,"target":"absent","response":"absent","rt":806,"correct":true,"confidence":5},{"trial_n":63,"min":80,"max":175,"target":"present","response":"present","rt":602,"correct":true,"confidence":5},{"trial_n":64,"min":81,"max":174,"target":"absent","response":"absent","rt":696,"correct":true,"confidence":5},{"trial_n":65,"min":81,"max":174,"target":"present","response":"absent","rt":1358,"correct":false,"confidence":3},{"trial_n":66,"min":80,"max":175,"target":"absent","response":"present","rt":615,"correct":false,"confidence":5},{"trial_n":67,"min":79,"max":176,"target":"absent","response":"present","rt":906,"correct":false,"confidence":5},{"trial_n":68,"min":78,"max":177,"target":"present","response":"present","rt":1045.0000000005,"correct":true,"confidence":5},{"trial_n":69,"min":78,"max":177,"target":"present","response":"present","rt":653,"correct":true,"confidence":5},{"trial_n":70,"min":79,"max":176,"target":"present","response":"absent","rt":10850,"correct":false,"confidence":1},{"trial_n":71,"min":41,"max":214,"target":"present","response":"present","rt":1331,"correct":true,"confidence":-1},{"trial_n":72,"min":41,"max":214,"target":"present","response":"present","rt":666,"correct":true,"confidence":-1},{"trial_n":73,"min":57,"max":198,"target":"absent","response":"absent","rt":620,"correct":true,"confidence":-1},{"trial_n":74,"min":57,"max":198,"target":"absent","response":"present","rt":736,"correct":false,"confidence":-1},{"trial_n":75,"min":41,"max":214,"target":"present","response":"absent","rt":1377.9999999995,"correct":false,"confidence":-1},{"trial_n":76,"min":25,"max":230,"target":"absent","response":"absent","rt":914.00000000047,"correct":true,"confidence":-1},{"trial_n":77,"min":25,"max":230,"target":"present","response":"present","rt":567,"correct":true,"confidence":-1},{"trial_n":78,"min":41,"max":214,"target":"absent","response":"absent","rt":832,"correct":true,"confidence":-1},{"trial_n":79,"min":41,"max":214,"target":"absent","response":"present","rt":733,"correct":false,"confidence":-1},{"trial_n":80,"min":25,"max":230,"target":"absent","response":"absent","rt":755,"correct":true,"confidence":-1},{"trial_n":81,"min":25,"max":230,"target":"absent","response":"absent","rt":962,"correct":true,"confidence":-1},{"trial_n":82,"min":33,"max":222,"target":"present","response":"present","rt":633,"correct":true,"confidence":-1},{"trial_n":83,"min":33,"max":222,"target":"absent","response":"absent","rt":1004,"correct":true,"confidence":-1},{"trial_n":84,"min":41,"max":214,"target":"present","response":"present","rt":1106,"correct":true,"confidence":-1},{"trial_n":85,"min":41,"max":214,"target":"present","response":"present","rt":527,"correct":true,"confidence":-1},{"trial_n":86,"min":49,"max":206,"target":"present","response":"present","rt":563,"correct":true,"confidence":-1},{"trial_n":87,"min":49,"max":206,"target":"absent","response":"absent","rt":758,"correct":true,"confidence":-1},{"trial_n":88,"min":57,"max":198,"target":"absent","response":"present","rt":727.99999999953,"correct":false,"confidence":-1},{"trial_n":89,"min":49,"max":206,"target":"absent","response":"present","rt":555,"correct":false,"confidence":-1},{"trial_n":90,"min":41,"max":214,"target":"absent","response":"absent","rt":914.00000000047,"correct":true,"confidence":-1},{"trial_n":91,"min":41,"max":214,"target":"absent","response":"absent","rt":578.00000000047,"correct":true,"confidence":5},{"trial_n":92,"min":45,"max":210,"target":"present","response":"present","rt":684,"correct":true,"confidence":5},{"trial_n":93,"min":45,"max":210,"target":"present","response":"present","rt":1643,"correct":true,"confidence":5},{"trial_n":94,"min":49,"max":206,"target":"present","response":"present","rt":619,"correct":true,"confidence":5},{"trial_n":95,"min":49,"max":206,"target":"present","response":"present","rt":1169,"correct":true,"confidence":5},{"trial_n":96,"min":53,"max":202,"target":"present","response":"present","rt":598,"correct":true,"confidence":5},{"trial_n":97,"min":53,"max":202,"target":"absent","response":"absent","rt":735,"correct":true,"confidence":5},{"trial_n":98,"min":57,"max":198,"target":"absent","response":"absent","rt":1036.0000000005,"correct":true,"confidence":5},{"trial_n":99,"min":57,"max":198,"target":"absent","response":"absent","rt":3002,"correct":true,"confidence":1},{"trial_n":100,"min":61,"max":194,"target":"present","response":"present","rt":822,"correct":true,"confidence":5},{"trial_n":101,"min":61,"max":194,"target":"present","response":"present","rt":729,"correct":true,"confidence":5},{"trial_n":102,"min":63,"max":192,"target":"absent","response":"absent","rt":882,"correct":true,"confidence":5},{"trial_n":103,"min":63,"max":192,"target":"present","response":"present","rt":822,"correct":true,"confidence":5},{"trial_n":104,"min":65,"max":190,"target":"absent","response":"absent","rt":772,"correct":true,"confidence":5},{"trial_n":105,"min":65,"max":190,"target":"present","response":"present","rt":1185,"correct":true,"confidence":5},{"trial_n":106,"min":67,"max":188,"target":"present","response":"present","rt":1357,"correct":true,"confidence":5},{"trial_n":107,"min":67,"max":188,"target":"present","response":"present","rt":1126,"correct":true,"confidence":5},{"trial_n":108,"min":69,"max":186,"target":"present","response":"present","rt":900,"correct":true,"confidence":5},{"trial_n":109,"min":69,"max":186,"target":"absent","response":"absent","rt":832,"correct":true,"confidence":5},{"trial_n":110,"min":71,"max":184,"target":"absent","response":"absent","rt":734,"correct":true,"confidence":5},{"trial_n":111,"min":71,"max":184,"target":"present","response":"present","rt":522,"correct":true,"confidence":5},{"trial_n":112,"min":72,"max":183,"target":"absent","response":"absent","rt":738,"correct":true,"confidence":5},{"trial_n":113,"min":72,"max":183,"target":"present","response":"present","rt":682.00000000047,"correct":true,"confidence":5},{"trial_n":114,"min":73,"max":182,"target":"present","response":"present","rt":874,"correct":true,"confidence":5},{"trial_n":115,"min":73,"max":182,"target":"absent","response":"absent","rt":831.99999999953,"correct":true,"confidence":5},{"trial_n":116,"min":74,"max":181,"target":"present","response":"present","rt":700,"correct":true,"confidence":5},{"trial_n":117,"min":74,"max":181,"target":"absent","response":"absent","rt":765,"correct":true,"confidence":5},{"trial_n":118,"min":75,"max":180,"target":"present","response":"absent","rt":3052,"correct":false,"confidence":5},{"trial_n":119,"min":74,"max":181,"target":"absent","response":"absent","rt":1441,"correct":true,"confidence":1},{"trial_n":120,"min":74,"max":181,"target":"absent","response":"absent","rt":1270,"correct":true,"confidence":5},{"trial_n":121,"min":75,"max":180,"target":"absent","response":"absent","rt":1211,"correct":true,"confidence":5},{"trial_n":122,"min":75,"max":180,"target":"present","response":"absent","rt":590,"correct":false,"confidence":1},{"trial_n":123,"min":74,"max":181,"target":"present","response":"present","rt":1451,"correct":true,"confidence":5},{"trial_n":124,"min":74,"max":181,"target":"absent","response":"absent","rt":859.99999999953,"correct":true,"confidence":5},{"trial_n":125,"min":75,"max":180,"target":"absent","response":"absent","rt":923,"correct":true,"confidence":5},{"trial_n":126,"min":75,"max":180,"target":"present","response":"absent","rt":1712,"correct":false,"confidence":3},{"trial_n":127,"min":74,"max":181,"target":"present","response":"present","rt":757.00000000047,"correct":true,"confidence":5},{"trial_n":128,"min":74,"max":181,"target":"absent","response":"absent","rt":692,"correct":true,"confidence":5},{"trial_n":129,"min":75,"max":180,"target":"absent","response":"absent","rt":785,"correct":true,"confidence":5},{"trial_n":130,"min":75,"max":180,"target":"absent","response":"absent","rt":727,"correct":true,"confidence":5},{"trial_n":131,"min":76,"max":179,"target":"present","response":"present","rt":608,"correct":true,"confidence":5},{"trial_n":132,"min":76,"max":179,"target":"present","response":"present","rt":516,"correct":true,"confidence":5},{"trial_n":133,"min":77,"max":178,"target":"present","response":"present","rt":882,"correct":true,"confidence":5},{"trial_n":134,"min":77,"max":178,"target":"absent","response":"absent","rt":1085.0000000005,"correct":true,"confidence":5},{"trial_n":135,"min":78,"max":177,"target":"absent","response":"absent","rt":1065,"correct":true,"confidence":5},{"trial_n":136,"min":78,"max":177,"target":"present","response":"present","rt":978,"correct":true,"confidence":5},{"trial_n":137,"min":79,"max":176,"target":"present","response":"present","rt":1195,"correct":true,"confidence":5},{"trial_n":138,"min":79,"max":176,"target":"present","response":"present","rt":987,"correct":true,"confidence":5},{"trial_n":139,"min":80,"max":175,"target":"present","response":"present","rt":1501,"correct":true,"confidence":5},{"trial_n":140,"min":80,"max":175,"target":"absent","response":"absent","rt":1421,"correct":true,"confidence":5}]