[{"trial_n":1,"min":25,"max":230,"target":"present","response":"present","rt":4850.400000006,"correct":true,"confidence":-1},{"trial_n":2,"min":25,"max":230,"target":"present","response":"present","rt":1842.700000003,"correct":true,"confidence":-1},{"trial_n":3,"min":41,"max":214,"target":"absent","response":"absent","rt":511.60000000894,"correct":true,"confidence":-1},{"trial_n":4,"min":41,"max":214,"target":"absent","response":"absent","rt":409.59999999404,"correct":true,"confidence":-1},{"trial_n":5,"min":57,"max":198,"target":"present","response":"present","rt":276.80000001192,"correct":true,"confidence":-1},{"trial_n":6,"min":57,"max":198,"target":"absent","response":"absent","rt":344.70000000298,"correct":true,"confidence":-1},{"trial_n":7,"min":73,"max":182,"target":"present","response":"present","rt":408.79999999702,"correct":true,"confidence":-1},{"trial_n":8,"min":73,"max":182,"target":"present","response":"present","rt":587.20000000298,"correct":true,"confidence":-1},{"trial_n":9,"min":89,"max":166,"target":"present","response":"absent","rt":273.40000000596,"correct":false,"confidence":-1},{"trial_n":10,"min":73,"max":182,"target":"absent","response":"absent","rt":422.79999999702,"correct":true,"confidence":-1},{"trial_n":11,"min":73,"max":182,"target":"present","response":"present","rt":1089.599999994,"correct":true,"confidence":-1},{"trial_n":12,"min":81,"max":174,"target":"absent","response":"absent","rt":437.20000000298,"correct":true,"confidence":-1},{"trial_n":13,"min":81,"max":174,"target":"absent","response":"absent","rt":352.80000001192,"correct":true,"confidence":-1},{"trial_n":14,"min":89,"max":166,"target":"absent","response":"absent","rt":394.70000000298,"correct":true,"confidence":-1},{"trial_n":15,"min":89,"max":166,"target":"absent","response":"absent","rt":321.29999999702,"correct":true,"confidence":-1},{"trial_n":16,"min":97,"max":158,"target":"present","response":"absent","rt":435.40000000596,"correct":false,"confidence":-1},{"trial_n":17,"min":89,"max":166,"target":"present","response":"present","rt":461.29999999702,"correct":true,"confidence":-1},{"trial_n":18,"min":89,"max":166,"target":"absent","response":"absent","rt":359.5,"correct":true,"confidence":-1},{"trial_n":19,"min":97,"max":158,"target":"absent","response":"absent","rt":385.39999999106,"correct":true,"confidence":-1},{"trial_n":20,"min":97,"max":158,"target":"present","response":"present","rt":530.09999999404,"correct":true,"confidence":-1},{"trial_n":21,"min":101,"max":154,"target":"absent","response":"absent","rt":470.89999999106,"correct":true,"confidence":4},{"trial_n":22,"min":101,"max":154,"target":"present","response":"absent","rt":757.09999999404,"correct":false,"confidence":3},{"trial_n":23,"min":97,"max":158,"target":"absent","response":"present","rt":878.10000000894,"correct":false,"confidence":3},{"trial_n":24,"min":93,"max":162,"target":"present","response":"absent","rt":635.10000000894,"correct":false,"confidence":5},{"trial_n":25,"min":89,"max":166,"target":"absent","response":"absent","rt":590.20000000298,"correct":true,"confidence":5},{"trial_n":26,"min":89,"max":166,"target":"absent","response":"present","rt":857.5,"correct":false,"confidence":4},{"trial_n":27,"min":85,"max":170,"target":"absent","response":"absent","rt":654.90000000596,"correct":true,"confidence":5},{"trial_n":28,"min":85,"max":170,"target":"absent","response":"absent","rt":605.10000000894,"correct":true,"confidence":4},{"trial_n":29,"min":89,"max":166,"target":"present","response":"present","rt":934.40000000596,"correct":true,"confidence":4},{"trial_n":30,"min":89,"max":166,"target":"absent","response":"present","rt":1183.200000003,"correct":false,"confidence":3},{"trial_n":31,"min":87,"max":168,"target":"present","response":"present","rt":790.90000000596,"correct":true,"confidence":4},{"trial_n":32,"min":87,"max":168,"target":"absent","response":"present","rt":2235.8999999911,"correct":false,"confidence":2},{"trial_n":33,"min":85,"max":170,"target":"absent","response":"present","rt":1861.799999997,"correct":false,"confidence":3},{"trial_n":34,"min":83,"max":172,"target":"present","response":"present","rt":511.40000000596,"correct":true,"confidence":3},{"trial_n":35,"min":83,"max":172,"target":"present","response":"absent","rt":596.09999999404,"correct":false,"confidence":5},{"trial_n":36,"min":81,"max":174,"target":"absent","response":"absent","rt":607.79999999702,"correct":true,"confidence":5},{"trial_n":37,"min":81,"max":174,"target":"present","response":"present","rt":625.90000000596,"correct":true,"confidence":4},{"trial_n":38,"min":83,"max":172,"target":"present","response":"present","rt":788.80000001192,"correct":true,"confidence":3},{"trial_n":39,"min":83,"max":172,"target":"present","response":"absent","rt":1723.099999994,"correct":false,"confidence":4},{"trial_n":40,"min":81,"max":174,"target":"absent","response":"present","rt":776.69999998808,"correct":false,"confidence":1},{"trial_n":41,"min":80,"max":175,"target":"present","response":"present","rt":680.60000000894,"correct":true,"confidence":3},{"trial_n":42,"min":80,"max":175,"target":"absent","response":"present","rt":1063.799999997,"correct":false,"confidence":4},{"trial_n":43,"min":79,"max":176,"target":"absent","response":"absent","rt":1056.900000006,"correct":true,"confidence":5},{"trial_n":44,"min":79,"max":176,"target":"absent","response":"absent","rt":476,"correct":true,"confidence":5},{"trial_n":45,"min":80,"max":175,"target":"present","response":"present","rt":647.20000000298,"correct":true,"confidence":3},{"trial_n":46,"min":80,"max":175,"target":"present","response":"present","rt":831.40000000596,"correct":true,"confidence":5},{"trial_n":47,"min":81,"max":174,"target":"present","response":"present","rt":772.60000000894,"correct":true,"confidence":4},{"trial_n":48,"min":81,"max":174,"target":"present","response":"present","rt":846.29999999702,"correct":true,"confidence":4},{"trial_n":49,"min":82,"max":173,"target":"absent","response":"absent","rt":582,"correct":true,"confidence":5},{"trial_n":50,"min":82,"max":173,"target":"absent","response":"absent","rt":548.60000000894,"correct":true,"confidence":5},{"trial_n":51,"min":83,"max":172,"target":"present","response":"present","rt":683.90000000596,"correct":true,"confidence":4},{"trial_n":52,"min":83,"max":172,"target":"absent","response":"absent","rt":409.90000000596,"correct":true,"confidence":5},{"trial_n":53,"min":84,"max":171,"target":"present","response":"present","rt":571.80000001192,"correct":true,"confidence":4},{"trial_n":54,"min":84,"max":171,"target":"present","response":"present","rt":687.79999999702,"correct":true,"confidence":4},{"trial_n":55,"min":85,"max":170,"target":"present","response":"present","rt":666.5,"correct":true,"confidence":5},{"trial_n":56,"min":85,"max":170,"target":"present","response":"present","rt":691.40000000596,"correct":true,"confidence":5},{"trial_n":57,"min":86,"max":169,"target":"present","response":"present","rt":742.29999999702,"correct":true,"confidence":5},{"trial_n":58,"min":86,"max":169,"target":"present","response":"absent","rt":347.40000000596,"correct":false,"confidence":5},{"trial_n":59,"min":85,"max":170,"target":"absent","response":"absent","rt":333.79999999702,"correct":true,"confidence":5},{"trial_n":60,"min":85,"max":170,"target":"present","response":"absent","rt":687.89999999106,"correct":false,"confidence":5},{"trial_n":61,"min":84,"max":171,"target":"absent","response":"absent","rt":466.09999999404,"correct":true,"confidence":5},{"trial_n":62,"min":84,"max":171,"target":"present","response":"present","rt":564.60000000894,"correct":true,"confidence":4},{"trial_n":63,"min":85,"max":170,"target":"absent","response":"absent","rt":576.09999999404,"correct":true,"confidence":5},{"trial_n":64,"min":85,"max":170,"target":"absent","response":"absent","rt":653.29999999702,"correct":true,"confidence":5},{"trial_n":65,"min":86,"max":169,"target":"absent","response":"absent","rt":395.09999999404,"correct":true,"confidence":5},{"trial_n":66,"min":86,"max":169,"target":"present","response":"present","rt":622.29999999702,"correct":true,"confidence":5},{"trial_n":67,"min":87,"max":168,"target":"absent","response":"absent","rt":601.69999998808,"correct":true,"confidence":5},{"trial_n":68,"min":87,"max":168,"target":"absent","response":"absent","rt":274.90000000596,"correct":true,"confidence":5},{"trial_n":69,"min":88,"max":167,"target":"present","response":"present","rt":525.79999999702,"correct":true,"confidence":5},{"trial_n":70,"min":88,"max":167,"target":"present","response":"absent","rt":450,"correct":false,"confidence":5},{"trial_n":71,"min":41,"max":214,"target":"present","response":"present","rt":2753.8000000119,"correct":true,"confidence":-1},{"trial_n":72,"min":41,"max":214,"target":"present","response":"present","rt":624,"correct":true,"confidence":-1},{"trial_n":73,"min":57,"max":198,"target":"absent","response":"absent","rt":377.29999999702,"correct":true,"confidence":-1},{"trial_n":74,"min":57,"max":198,"target":"absent","response":"absent","rt":645.40000000596,"correct":true,"confidence":-1},{"trial_n":75,"min":73,"max":182,"target":"present","response":"present","rt":215.30000001192,"correct":true,"confidence":-1},{"trial_n":76,"min":73,"max":182,"target":"present","response":"present","rt":226.70000000298,"correct":true,"confidence":-1},{"trial_n":77,"min":89,"max":166,"target":"present","response":"present","rt":361.90000000596,"correct":true,"confidence":-1},{"trial_n":78,"min":89,"max":166,"target":"absent","response":"absent","rt":1607.5,"correct":true,"confidence":-1},{"trial_n":79,"min":105,"max":150,"target":"present","response":"absent","rt":414.09999999404,"correct":false,"confidence":-1},{"trial_n":80,"min":89,"max":166,"target":"absent","response":"present","rt":432.90000000596,"correct":false,"confidence":-1},{"trial_n":81,"min":81,"max":174,"target":"present","response":"present","rt":293.29999999702,"correct":true,"confidence":-1},{"trial_n":82,"min":81,"max":174,"target":"absent","response":"absent","rt":418.5,"correct":true,"confidence":-1},{"trial_n":83,"min":89,"max":166,"target":"absent","response":"absent","rt":447,"correct":true,"confidence":-1},{"trial_n":84,"min":89,"max":166,"target":"absent","response":"present","rt":316,"correct":false,"confidence":-1},{"trial_n":85,"min":81,"max":174,"target":"absent","response":"absent","rt":376.79999999702,"correct":true,"confidence":-1},{"trial_n":86,"min":81,"max":174,"target":"absent","response":"absent","rt":397.70000000298,"correct":true,"confidence":-1},{"trial_n":87,"min":89,"max":166,"target":"absent","response":"absent","rt":405.29999999702,"correct":true,"confidence":-1},{"trial_n":88,"min":89,"max":166,"target":"present","response":"present","rt":311.70000000298,"correct":true,"confidence":-1},{"trial_n":89,"min":97,"max":158,"target":"absent","response":"absent","rt":375.40000000596,"correct":true,"confidence":-1},{"trial_n":90,"min":97,"max":158,"target":"present","response":"absent","rt":408.29999999702,"correct":false,"confidence":-1},{"trial_n":91,"min":93,"max":162,"target":"present","response":"present","rt":631.90000000596,"correct":true,"confidence":4},{"trial_n":92,"min":93,"max":162,"target":"absent","response":"absent","rt":920.20000000298,"correct":true,"confidence":1},{"trial_n":93,"min":97,"max":158,"target":"present","response":"present","rt":267.89999999106,"correct":true,"confidence":3},{"trial_n":94,"min":97,"max":158,"target":"present","response":"absent","rt":389.5,"correct":false,"confidence":1},{"trial_n":95,"min":93,"max":162,"target":"absent","response":"absent","rt":404.79999999702,"correct":true,"confidence":1},{"trial_n":96,"min":93,"max":162,"target":"present","response":"present","rt":376.79999999702,"correct":true,"confidence":3},{"trial_n":97,"min":97,"max":158,"target":"present","response":"present","rt":605.90000000596,"correct":true,"confidence":2},{"trial_n":98,"min":97,"max":158,"target":"present","response":"present","rt":398.89999999106,"correct":true,"confidence":2},{"trial_n":99,"min":101,"max":154,"target":"absent","response":"absent","rt":591.5,"correct":true,"confidence":1},{"trial_n":100,"min":101,"max":154,"target":"absent","response":"present","rt":405.79999999702,"correct":false,"confidence":1},{"trial_n":101,"min":99,"max":156,"target":"present","response":"present","rt":596.69999998808,"correct":true,"confidence":3},{"trial_n":102,"min":99,"max":156,"target":"absent","response":"present","rt":1437,"correct":false,"confidence":1},{"trial_n":103,"min":97,"max":158,"target":"absent","response":"present","rt":401.70000000298,"correct":false,"confidence":2},{"trial_n":104,"min":95,"max":160,"target":"absent","response":"present","rt":1701.400000006,"correct":false,"confidence":1},{"trial_n":105,"min":93,"max":162,"target":"present","response":"present","rt":487.69999998808,"correct":true,"confidence":3},{"trial_n":106,"min":93,"max":162,"target":"present","response":"present","rt":671.5,"correct":true,"confidence":1},{"trial_n":107,"min":95,"max":160,"target":"absent","response":"absent","rt":884.70000000298,"correct":true,"confidence":1},{"trial_n":108,"min":95,"max":160,"target":"absent","response":"absent","rt":499.90000000596,"correct":true,"confidence":1},{"trial_n":109,"min":97,"max":158,"target":"present","response":"present","rt":514.5,"correct":true,"confidence":3},{"trial_n":110,"min":97,"max":158,"target":"absent","response":"present","rt":876.39999999106,"correct":false,"confidence":1},{"trial_n":111,"min":96,"max":159,"target":"present","response":"present","rt":1118.799999997,"correct":true,"confidence":3},{"trial_n":112,"min":96,"max":159,"target":"present","response":"present","rt":846.29999999702,"correct":true,"confidence":1},{"trial_n":113,"min":97,"max":158,"target":"absent","response":"absent","rt":433.09999999404,"correct":true,"confidence":1},{"trial_n":114,"min":97,"max":158,"target":"absent","response":"absent","rt":474.60000000894,"correct":true,"confidence":1},{"trial_n":115,"min":98,"max":157,"target":"absent","response":"absent","rt":390.70000000298,"correct":true,"confidence":1},{"trial_n":116,"min":98,"max":157,"target":"present","response":"present","rt":767.79999999702,"correct":true,"confidence":2},{"trial_n":117,"min":99,"max":156,"target":"present","response":"absent","rt":2140.299999997,"correct":false,"confidence":1},{"trial_n":118,"min":98,"max":157,"target":"absent","response":"present","rt":529,"correct":false,"confidence":2},{"trial_n":119,"min":97,"max":158,"target":"absent","response":"absent","rt":753.19999998808,"correct":true,"confidence":1},{"trial_n":120,"min":97,"max":158,"target":"absent","response":"present","rt":632.90000000596,"correct":false,"confidence":2},{"trial_n":121,"min":96,"max":159,"target":"present","response":"absent","rt":494.20000000298,"correct":false,"confidence":1},{"trial_n":122,"min":95,"max":160,"target":"absent","response":"absent","rt":451.80000001192,"correct":true,"confidence":1},{"trial_n":123,"min":95,"max":160,"target":"present","response":"present","rt":458.79999999702,"correct":true,"confidence":2},{"trial_n":124,"min":96,"max":159,"target":"present","response":"present","rt":1213,"correct":true,"confidence":1},{"trial_n":125,"min":96,"max":159,"target":"present","response":"present","rt":507.29999999702,"correct":true,"confidence":2},{"trial_n":126,"min":97,"max":158,"target":"present","response":"present","rt":614.20000000298,"correct":true,"confidence":1},{"trial_n":127,"min":97,"max":158,"target":"absent","response":"present","rt":602.19999998808,"correct":false,"confidence":1},{"trial_n":128,"min":96,"max":159,"target":"present","response":"present","rt":616.70000000298,"correct":true,"confidence":2},{"trial_n":129,"min":96,"max":159,"target":"present","response":"present","rt":797.59999999404,"correct":true,"confidence":1},{"trial_n":130,"min":97,"max":158,"target":"absent","response":"absent","rt":554.10000000894,"correct":true,"confidence":2},{"trial_n":131,"min":97,"max":158,"target":"present","response":"present","rt":404,"correct":true,"confidence":1},{"trial_n":132,"min":98,"max":157,"target":"present","response":"absent","rt":278,"correct":false,"confidence":1},{"trial_n":133,"min":97,"max":158,"target":"present","response":"absent","rt":477.70000000298,"correct":false,"confidence":1},{"trial_n":134,"min":96,"max":159,"target":"present","response":"absent","rt":294,"correct":false,"confidence":1},{"trial_n":135,"min":95,"max":160,"target":"absent","response":"present","rt":376,"correct":false,"confidence":1},{"trial_n":136,"min":94,"max":161,"target":"absent","response":"absent","rt":390,"correct":true,"confidence":1},{"trial_n":137,"min":94,"max":161,"target":"present","response":"absent","rt":328.79999999702,"correct":false,"confidence":1},{"trial_n":138,"min":93,"max":162,"target":"absent","response":"present","rt":426.29999999702,"correct":false,"confidence":1},{"trial_n":139,"min":92,"max":163,"target":"absent","response":"absent","rt":343.70000000298,"correct":true,"confidence":1},{"trial_n":140,"min":92,"max":163,"target":"present","response":"present","rt":287.60000000894,"correct":true,"confidence":3}]