[{"trial_n":1,"min":25,"max":230,"target":"present","response":"present","rt":9775,"correct":true,"confidence":-1},{"trial_n":2,"min":25,"max":230,"target":"present","response":"absent","rt":2898,"correct":false,"confidence":-1},{"trial_n":3,"min":9,"max":246,"target":"absent","response":"absent","rt":2392,"correct":true,"confidence":-1},{"trial_n":4,"min":9,"max":246,"target":"absent","response":"absent","rt":2375,"correct":true,"confidence":-1},{"trial_n":5,"min":25,"max":230,"target":"present","response":"present","rt":1189,"correct":true,"confidence":-1},{"trial_n":6,"min":25,"max":230,"target":"present","response":"present","rt":987,"correct":true,"confidence":-1},{"trial_n":7,"min":41,"max":214,"target":"absent","response":"absent","rt":1092,"correct":true,"confidence":-1},{"trial_n":8,"min":41,"max":214,"target":"absent","response":"absent","rt":947,"correct":true,"confidence":-1},{"trial_n":9,"min":57,"max":198,"target":"absent","response":"absent","rt":559,"correct":true,"confidence":-1},{"trial_n":10,"min":57,"max":198,"target":"present","response":"present","rt":1059,"correct":true,"confidence":-1},{"trial_n":11,"min":65,"max":190,"target":"present","response":"present","rt":923,"correct":true,"confidence":-1},{"trial_n":12,"min":65,"max":190,"target":"present","response":"present","rt":778.00000000001,"correct":true,"confidence":-1},{"trial_n":13,"min":73,"max":182,"target":"present","response":"present","rt":696.99999999999,"correct":true,"confidence":-1},{"trial_n":14,"min":73,"max":182,"target":"present","response":"absent","rt":1345,"correct":false,"confidence":-1},{"trial_n":15,"min":65,"max":190,"target":"absent","response":"absent","rt":1002,"correct":true,"confidence":-1},{"trial_n":16,"min":65,"max":190,"target":"present","response":"present","rt":949.00000000001,"correct":true,"confidence":-1},{"trial_n":17,"min":73,"max":182,"target":"absent","response":"absent","rt":914,"correct":true,"confidence":-1},{"trial_n":18,"min":73,"max":182,"target":"absent","response":"absent","rt":753,"correct":true,"confidence":-1},{"trial_n":19,"min":81,"max":174,"target":"absent","response":"absent","rt":736,"correct":true,"confidence":-1},{"trial_n":20,"min":81,"max":174,"target":"present","response":"present","rt":1099,"correct":true,"confidence":-1},{"trial_n":21,"min":85,"max":170,"target":"present","response":"absent","rt":807,"correct":false,"confidence":4},{"trial_n":22,"min":81,"max":174,"target":"present","response":"present","rt":3577,"correct":true,"confidence":3},{"trial_n":23,"min":81,"max":174,"target":"present","response":"present","rt":935,"correct":true,"confidence":3},{"trial_n":24,"min":85,"max":170,"target":"present","response":"present","rt":910,"correct":true,"confidence":3},{"trial_n":25,"min":85,"max":170,"target":"absent","response":"absent","rt":1005,"correct":true,"confidence":4},{"trial_n":26,"min":89,"max":166,"target":"absent","response":"absent","rt":2984,"correct":true,"confidence":3},{"trial_n":27,"min":89,"max":166,"target":"absent","response":"absent","rt":1111,"correct":true,"confidence":4},{"trial_n":28,"min":93,"max":162,"target":"present","response":"present","rt":1783,"correct":true,"confidence":3},{"trial_n":29,"min":93,"max":162,"target":"present","response":"absent","rt":1418,"correct":false,"confidence":4},{"trial_n":30,"min":89,"max":166,"target":"present","response":"absent","rt":742,"correct":false,"confidence":3},{"trial_n":31,"min":87,"max":168,"target":"absent","response":"absent","rt":1082,"correct":true,"confidence":3},{"trial_n":32,"min":87,"max":168,"target":"absent","response":"absent","rt":2436,"correct":true,"confidence":3},{"trial_n":33,"min":89,"max":166,"target":"absent","response":"absent","rt":1306,"correct":true,"confidence":4},{"trial_n":34,"min":89,"max":166,"target":"absent","response":"present","rt":1774,"correct":false,"confidence":3},{"trial_n":35,"min":87,"max":168,"target":"absent","response":"absent","rt":1599,"correct":true,"confidence":3},{"trial_n":36,"min":87,"max":168,"target":"absent","response":"absent","rt":963,"correct":true,"confidence":3},{"trial_n":37,"min":89,"max":166,"target":"absent","response":"present","rt":2106,"correct":false,"confidence":2},{"trial_n":38,"min":87,"max":168,"target":"absent","response":"absent","rt":1232,"correct":true,"confidence":3},{"trial_n":39,"min":87,"max":168,"target":"absent","response":"absent","rt":1459,"correct":true,"confidence":3},{"trial_n":40,"min":89,"max":166,"target":"absent","response":"present","rt":1563,"correct":false,"confidence":2},{"trial_n":41,"min":88,"max":167,"target":"absent","response":"absent","rt":906.99999999997,"correct":true,"confidence":4},{"trial_n":42,"min":88,"max":167,"target":"present","response":"present","rt":1102,"correct":true,"confidence":3},{"trial_n":43,"min":89,"max":166,"target":"present","response":"absent","rt":4301,"correct":false,"confidence":2},{"trial_n":44,"min":88,"max":167,"target":"present","response":"present","rt":1638,"correct":true,"confidence":2},{"trial_n":45,"min":88,"max":167,"target":"present","response":"absent","rt":2218,"correct":false,"confidence":3},{"trial_n":46,"min":87,"max":168,"target":"absent","response":"absent","rt":8184,"correct":true,"confidence":2},{"trial_n":47,"min":87,"max":168,"target":"absent","response":"absent","rt":1149,"correct":true,"confidence":3},{"trial_n":48,"min":88,"max":167,"target":"present","response":"absent","rt":1085,"correct":false,"confidence":3},{"trial_n":49,"min":87,"max":168,"target":"present","response":"absent","rt":1183,"correct":false,"confidence":3},{"trial_n":50,"min":86,"max":169,"target":"present","response":"present","rt":1158,"correct":true,"confidence":4},{"trial_n":51,"min":86,"max":169,"target":"absent","response":"absent","rt":1353,"correct":true,"confidence":2},{"trial_n":52,"min":87,"max":168,"target":"absent","response":"absent","rt":921.00000000003,"correct":true,"confidence":3},{"trial_n":53,"min":87,"max":168,"target":"present","response":"present","rt":924,"correct":true,"confidence":3},{"trial_n":54,"min":88,"max":167,"target":"absent","response":"absent","rt":1211,"correct":true,"confidence":3},{"trial_n":55,"min":88,"max":167,"target":"absent","response":"absent","rt":1027,"correct":true,"confidence":4},{"trial_n":56,"min":89,"max":166,"target":"present","response":"absent","rt":1360,"correct":false,"confidence":4},{"trial_n":57,"min":88,"max":167,"target":"absent","response":"absent","rt":921.00000000003,"correct":true,"confidence":3},{"trial_n":58,"min":88,"max":167,"target":"present","response":"present","rt":1289,"correct":true,"confidence":3},{"trial_n":59,"min":89,"max":166,"target":"present","response":"absent","rt":1093,"correct":false,"confidence":4},{"trial_n":60,"min":88,"max":167,"target":"present","response":"present","rt":962.00000000003,"correct":true,"confidence":4},{"trial_n":61,"min":88,"max":167,"target":"absent","response":"absent","rt":1521,"correct":true,"confidence":3},{"trial_n":62,"min":89,"max":166,"target":"present","response":"present","rt":1004,"correct":true,"confidence":3},{"trial_n":63,"min":89,"max":166,"target":"present","response":"present","rt":940,"correct":true,"confidence":3},{"trial_n":64,"min":90,"max":165,"target":"absent","response":"absent","rt":2214,"correct":true,"confidence":2},{"trial_n":65,"min":90,"max":165,"target":"present","response":"absent","rt":2613,"correct":false,"confidence":2},{"trial_n":66,"min":89,"max":166,"target":"absent","response":"present","rt":3078.0000000001,"correct":false,"confidence":2},{"trial_n":67,"min":88,"max":167,"target":"absent","response":"absent","rt":1195,"correct":true,"confidence":3},{"trial_n":68,"min":88,"max":167,"target":"present","response":"absent","rt":867.00000000006,"correct":false,"confidence":3},{"trial_n":69,"min":87,"max":168,"target":"present","response":"present","rt":1610,"correct":true,"confidence":2},{"trial_n":70,"min":87,"max":168,"target":"present","response":"present","rt":909,"correct":true,"confidence":3},{"trial_n":71,"min":41,"max":214,"target":"present","response":"absent","rt":3388,"correct":false,"confidence":-1},{"trial_n":72,"min":41,"max":214,"target":"present","response":"present","rt":596,"correct":true,"confidence":-1},{"trial_n":73,"min":41,"max":214,"target":"absent","response":"present","rt":507.00000000006,"correct":false,"confidence":-1},{"trial_n":74,"min":25,"max":230,"target":"absent","response":"absent","rt":643.99999999994,"correct":true,"confidence":-1},{"trial_n":75,"min":25,"max":230,"target":"present","response":"present","rt":693.99999999994,"correct":true,"confidence":-1},{"trial_n":76,"min":41,"max":214,"target":"present","response":"present","rt":577,"correct":true,"confidence":-1},{"trial_n":77,"min":41,"max":214,"target":"absent","response":"absent","rt":1313.0000000001,"correct":true,"confidence":-1},{"trial_n":78,"min":57,"max":198,"target":"present","response":"present","rt":510,"correct":true,"confidence":-1},{"trial_n":79,"min":57,"max":198,"target":"present","response":"present","rt":403,"correct":true,"confidence":-1},{"trial_n":80,"min":73,"max":182,"target":"absent","response":"absent","rt":578,"correct":true,"confidence":-1},{"trial_n":81,"min":73,"max":182,"target":"present","response":"present","rt":507,"correct":true,"confidence":-1},{"trial_n":82,"min":81,"max":174,"target":"absent","response":"absent","rt":1001,"correct":true,"confidence":-1},{"trial_n":83,"min":81,"max":174,"target":"absent","response":"absent","rt":638,"correct":true,"confidence":-1},{"trial_n":84,"min":89,"max":166,"target":"present","response":"present","rt":599.99999999994,"correct":true,"confidence":-1},{"trial_n":85,"min":89,"max":166,"target":"absent","response":"absent","rt":1406,"correct":true,"confidence":-1},{"trial_n":86,"min":97,"max":158,"target":"present","response":"present","rt":653,"correct":true,"confidence":-1},{"trial_n":87,"min":97,"max":158,"target":"present","response":"present","rt":832,"correct":true,"confidence":-1},{"trial_n":88,"min":105,"max":150,"target":"absent","response":"present","rt":1219,"correct":false,"confidence":-1},{"trial_n":89,"min":97,"max":158,"target":"absent","response":"absent","rt":1155.9999999999,"correct":true,"confidence":-1},{"trial_n":90,"min":97,"max":158,"target":"present","response":"absent","rt":567.99999999994,"correct":false,"confidence":-1},{"trial_n":91,"min":93,"max":162,"target":"absent","response":"present","rt":2463,"correct":false,"confidence":2},{"trial_n":92,"min":89,"max":166,"target":"present","response":"present","rt":1968,"correct":true,"confidence":1},{"trial_n":93,"min":89,"max":166,"target":"absent","response":"present","rt":894,"correct":false,"confidence":1},{"trial_n":94,"min":85,"max":170,"target":"present","response":"present","rt":4404,"correct":true,"confidence":1},{"trial_n":95,"min":85,"max":170,"target":"present","response":"absent","rt":2308.9999999999,"correct":false,"confidence":2},{"trial_n":96,"min":81,"max":174,"target":"present","response":"present","rt":781,"correct":true,"confidence":3},{"trial_n":97,"min":81,"max":174,"target":"present","response":"present","rt":634.00000000006,"correct":true,"confidence":3},{"trial_n":98,"min":85,"max":170,"target":"present","response":"present","rt":844.99999999994,"correct":true,"confidence":3},{"trial_n":99,"min":85,"max":170,"target":"absent","response":"absent","rt":3241,"correct":true,"confidence":3},{"trial_n":100,"min":89,"max":166,"target":"absent","response":"absent","rt":1700,"correct":true,"confidence":2},{"trial_n":101,"min":89,"max":166,"target":"absent","response":"absent","rt":1409,"correct":true,"confidence":2},{"trial_n":102,"min":91,"max":164,"target":"absent","response":"present","rt":1062.9999999999,"correct":false,"confidence":1},{"trial_n":103,"min":89,"max":166,"target":"present","response":"present","rt":884,"correct":true,"confidence":2},{"trial_n":104,"min":89,"max":166,"target":"absent","response":"absent","rt":2625,"correct":true,"confidence":2},{"trial_n":105,"min":91,"max":164,"target":"present","response":"present","rt":890,"correct":true,"confidence":2},{"trial_n":106,"min":91,"max":164,"target":"present","response":"present","rt":1205.0000000001,"correct":true,"confidence":1},{"trial_n":107,"min":93,"max":162,"target":"absent","response":"present","rt":800.00000000006,"correct":false,"confidence":1},{"trial_n":108,"min":91,"max":164,"target":"absent","response":"present","rt":822.99999999994,"correct":false,"confidence":1},{"trial_n":109,"min":89,"max":166,"target":"absent","response":"present","rt":859,"correct":false,"confidence":1},{"trial_n":110,"min":87,"max":168,"target":"present","response":"present","rt":673.99999999994,"correct":true,"confidence":3},{"trial_n":111,"min":87,"max":168,"target":"present","response":"present","rt":650,"correct":true,"confidence":3},{"trial_n":112,"min":88,"max":167,"target":"absent","response":"absent","rt":2674,"correct":true,"confidence":2},{"trial_n":113,"min":88,"max":167,"target":"absent","response":"absent","rt":1320.0000000001,"correct":true,"confidence":2},{"trial_n":114,"min":89,"max":166,"target":"present","response":"present","rt":858,"correct":true,"confidence":1},{"trial_n":115,"min":89,"max":166,"target":"absent","response":"absent","rt":2771,"correct":true,"confidence":2},{"trial_n":116,"min":90,"max":165,"target":"absent","response":"present","rt":1003,"correct":false,"confidence":1},{"trial_n":117,"min":89,"max":166,"target":"absent","response":"present","rt":1207,"correct":false,"confidence":1},{"trial_n":118,"min":88,"max":167,"target":"absent","response":"present","rt":1328.0000000001,"correct":false,"confidence":1},{"trial_n":119,"min":87,"max":168,"target":"absent","response":"present","rt":757.00000000006,"correct":false,"confidence":1},{"trial_n":120,"min":86,"max":169,"target":"present","response":"present","rt":802,"correct":true,"confidence":2},{"trial_n":121,"min":86,"max":169,"target":"absent","response":"present","rt":616.00000000006,"correct":false,"confidence":1},{"trial_n":122,"min":85,"max":170,"target":"absent","response":"absent","rt":1668,"correct":true,"confidence":2},{"trial_n":123,"min":85,"max":170,"target":"present","response":"absent","rt":1388,"correct":false,"confidence":1},{"trial_n":124,"min":84,"max":171,"target":"absent","response":"absent","rt":1484,"correct":true,"confidence":2},{"trial_n":125,"min":84,"max":171,"target":"absent","response":"present","rt":1196,"correct":false,"confidence":1},{"trial_n":126,"min":83,"max":172,"target":"present","response":"present","rt":699,"correct":true,"confidence":3},{"trial_n":127,"min":83,"max":172,"target":"present","response":"present","rt":3086,"correct":true,"confidence":2},{"trial_n":128,"min":84,"max":171,"target":"present","response":"present","rt":855.00000000006,"correct":true,"confidence":3},{"trial_n":129,"min":84,"max":171,"target":"present","response":"present","rt":852,"correct":true,"confidence":3},{"trial_n":130,"min":85,"max":170,"target":"present","response":"present","rt":718,"correct":true,"confidence":3},{"trial_n":131,"min":85,"max":170,"target":"present","response":"present","rt":665,"correct":true,"confidence":3},{"trial_n":132,"min":86,"max":169,"target":"present","response":"present","rt":1138,"correct":true,"confidence":3},{"trial_n":133,"min":86,"max":169,"target":"absent","response":"absent","rt":1369,"correct":true,"confidence":1},{"trial_n":134,"min":87,"max":168,"target":"absent","response":"present","rt":2000,"correct":false,"confidence":1},{"trial_n":135,"min":86,"max":169,"target":"present","response":"present","rt":758.00000000006,"correct":true,"confidence":3},{"trial_n":136,"min":86,"max":169,"target":"present","response":"present","rt":371,"correct":true,"confidence":3},{"trial_n":137,"min":87,"max":168,"target":"present","response":"present","rt":668,"correct":true,"confidence":4},{"trial_n":138,"min":87,"max":168,"target":"present","response":"present","rt":2317,"correct":true,"confidence":2},{"trial_n":139,"min":88,"max":167,"target":"absent","response":"absent","rt":1962,"correct":true,"confidence":2},{"trial_n":140,"min":88,"max":167,"target":"absent","response":"present","rt":734,"correct":false,"confidence":2}]