[{"trial_n":1,"n_dots":4.25,"target":"right","response":"right","rt":6494.2999999523,"correct":true,"confidence":-1},{"trial_n":2,"n_dots":4.25,"target":"left","response":"left","rt":781,"correct":true,"confidence":-1},{"trial_n":3,"n_dots":3.85,"target":"left","response":"right","rt":253.09999990463,"correct":false,"confidence":-1},{"trial_n":4,"n_dots":4.25,"target":"left","response":"left","rt":520,"correct":true,"confidence":-1},{"trial_n":5,"n_dots":4.25,"target":"right","response":"right","rt":364.89999997616,"correct":true,"confidence":-1},{"trial_n":6,"n_dots":3.85,"target":"right","response":"right","rt":288.59999990463,"correct":true,"confidence":-1},{"trial_n":7,"n_dots":3.85,"target":"right","response":"right","rt":259.70000004768,"correct":true,"confidence":-1},{"trial_n":8,"n_dots":3.65,"target":"left","response":"right","rt":325,"correct":false,"confidence":-1},{"trial_n":9,"n_dots":3.85,"target":"left","response":"left","rt":533.79999995232,"correct":true,"confidence":-1},{"trial_n":10,"n_dots":3.85,"target":"left","response":"left","rt":401.60000002384,"correct":true,"confidence":-1},{"trial_n":11,"n_dots":3.65,"target":"right","response":"right","rt":228.19999992847,"correct":true,"confidence":-1},{"trial_n":12,"n_dots":3.65,"target":"left","response":"left","rt":291.59999990463,"correct":true,"confidence":-1},{"trial_n":13,"n_dots":3.55,"target":"right","response":"right","rt":7.6000000238419,"correct":true,"confidence":-1},{"trial_n":14,"n_dots":3.55,"target":"left","response":"left","rt":108.60000002384,"correct":true,"confidence":-1},{"trial_n":15,"n_dots":3.45,"target":"left","response":"right","rt":347.20000004768,"correct":false,"confidence":-1},{"trial_n":16,"n_dots":3.55,"target":"right","response":"right","rt":224.69999992847,"correct":true,"confidence":-1},{"trial_n":17,"n_dots":3.55,"target":"right","response":"right","rt":69.099999904633,"correct":true,"confidence":-1},{"trial_n":18,"n_dots":3.45,"target":"left","response":"right","rt":439.5,"correct":false,"confidence":-1},{"trial_n":19,"n_dots":3.55,"target":"right","response":"right","rt":74.699999928474,"correct":true,"confidence":-1},{"trial_n":20,"n_dots":3.55,"target":"right","response":"right","rt":202,"correct":true,"confidence":-1},{"trial_n":21,"n_dots":3.45,"target":"right","response":"right","rt":265.30000007153,"correct":true,"confidence":3},{"trial_n":22,"n_dots":3.45,"target":"right","response":"right","rt":14.399999976158,"correct":true,"confidence":3},{"trial_n":23,"n_dots":3.35,"target":"left","response":"right","rt":1119.7000000477,"correct":false,"confidence":3},{"trial_n":24,"n_dots":3.45,"target":"right","response":"right","rt":329.20000004768,"correct":true,"confidence":4},{"trial_n":25,"n_dots":3.45,"target":"left","response":"left","rt":2918.2999999523,"correct":true,"confidence":3},{"trial_n":26,"n_dots":3.35,"target":"right","response":"right","rt":339.5,"correct":true,"confidence":4},{"trial_n":27,"n_dots":3.35,"target":"right","response":"right","rt":324.20000004768,"correct":true,"confidence":4},{"trial_n":28,"n_dots":3.25,"target":"left","response":"left","rt":1124.6000000238,"correct":true,"confidence":3},{"trial_n":29,"n_dots":3.25,"target":"right","response":"right","rt":394.5,"correct":true,"confidence":3},{"trial_n":30,"n_dots":3.15,"target":"left","response":"right","rt":385,"correct":false,"confidence":2},{"trial_n":31,"n_dots":3.25,"target":"right","response":"right","rt":57.899999976158,"correct":true,"confidence":3},{"trial_n":32,"n_dots":3.25,"target":"right","response":"right","rt":245.39999997616,"correct":true,"confidence":3},{"trial_n":33,"n_dots":3.15,"target":"left","response":"left","rt":2058,"correct":true,"confidence":2},{"trial_n":34,"n_dots":3.15,"target":"left","response":"right","rt":303.79999995232,"correct":false,"confidence":3},{"trial_n":35,"n_dots":3.25,"target":"left","response":"right","rt":387.69999992847,"correct":false,"confidence":2},{"trial_n":36,"n_dots":3.35,"target":"left","response":"right","rt":681.10000002384,"correct":false,"confidence":2},{"trial_n":37,"n_dots":3.45,"target":"left","response":"left","rt":407.89999997616,"correct":true,"confidence":3},{"trial_n":38,"n_dots":3.45,"target":"left","response":"left","rt":588.60000002384,"correct":true,"confidence":2},{"trial_n":39,"n_dots":3.35,"target":"left","response":"right","rt":140,"correct":false,"confidence":2},{"trial_n":40,"n_dots":3.45,"target":"left","response":"left","rt":1756.3999999762,"correct":true,"confidence":3},{"trial_n":41,"n_dots":3.45,"target":"left","response":"left","rt":1117.6000000238,"correct":true,"confidence":3},{"trial_n":42,"n_dots":3.35,"target":"left","response":"left","rt":688,"correct":true,"confidence":2},{"trial_n":43,"n_dots":3.35,"target":"right","response":"right","rt":129.5,"correct":true,"confidence":3},{"trial_n":44,"n_dots":3.25,"target":"left","response":"left","rt":1103.2999999523,"correct":true,"confidence":3},{"trial_n":45,"n_dots":3.25,"target":"left","response":"left","rt":553.60000002384,"correct":true,"confidence":2},{"trial_n":46,"n_dots":3.15,"target":"right","response":"right","rt":118.69999992847,"correct":true,"confidence":4},{"trial_n":47,"n_dots":3.15,"target":"right","response":"right","rt":468.89999997616,"correct":true,"confidence":2},{"trial_n":48,"n_dots":3.05,"target":"left","response":"right","rt":330.89999997616,"correct":false,"confidence":3},{"trial_n":49,"n_dots":3.15,"target":"right","response":"right","rt":284.39999997616,"correct":true,"confidence":3},{"trial_n":50,"n_dots":3.15,"target":"right","response":"right","rt":330.79999995232,"correct":true,"confidence":4},{"trial_n":51,"n_dots":3.05,"target":"left","response":"left","rt":948.30000007153,"correct":true,"confidence":3},{"trial_n":52,"n_dots":3.05,"target":"right","response":"right","rt":408.70000004768,"correct":true,"confidence":4},{"trial_n":53,"n_dots":2.95,"target":"left","response":"left","rt":357,"correct":true,"confidence":2},{"trial_n":54,"n_dots":2.95,"target":"right","response":"right","rt":341.29999995232,"correct":true,"confidence":3},{"trial_n":55,"n_dots":2.85,"target":"left","response":"left","rt":1133.6999999285,"correct":true,"confidence":2},{"trial_n":56,"n_dots":2.85,"target":"left","response":"right","rt":316.30000007153,"correct":false,"confidence":2},{"trial_n":57,"n_dots":2.95,"target":"left","response":"left","rt":303.10000002384,"correct":true,"confidence":3},{"trial_n":58,"n_dots":2.95,"target":"left","response":"left","rt":356.10000002384,"correct":true,"confidence":4},{"trial_n":59,"n_dots":2.85,"target":"left","response":"right","rt":281.40000009537,"correct":false,"confidence":4},{"trial_n":60,"n_dots":2.95,"target":"left","response":"right","rt":483.79999995232,"correct":false,"confidence":2},{"trial_n":61,"n_dots":3.05,"target":"right","response":"right","rt":43.199999928474,"correct":true,"confidence":4},{"trial_n":62,"n_dots":3.05,"target":"right","response":"right","rt":1115,"correct":true,"confidence":4},{"trial_n":63,"n_dots":2.95,"target":"right","response":"right","rt":341.5,"correct":true,"confidence":4},{"trial_n":64,"n_dots":2.95,"target":"left","response":"left","rt":1086.8999999762,"correct":true,"confidence":3},{"trial_n":65,"n_dots":2.85,"target":"right","response":"right","rt":966.79999995232,"correct":true,"confidence":4},{"trial_n":66,"n_dots":2.85,"target":"left","response":"left","rt":878.10000002384,"correct":true,"confidence":2},{"trial_n":67,"n_dots":2.75,"target":"right","response":"right","rt":41.700000047684,"correct":true,"confidence":4},{"trial_n":68,"n_dots":2.75,"target":"right","response":"right","rt":474.70000004768,"correct":true,"confidence":4},{"trial_n":69,"n_dots":2.65,"target":"right","response":"left","rt":852.5,"correct":false,"confidence":3},{"trial_n":70,"n_dots":2.75,"target":"right","response":"right","rt":499.10000002384,"correct":true,"confidence":3},{"trial_n":71,"n_dots":2.75,"target":"left","response":"left","rt":565.80000007153,"correct":true,"confidence":2},{"trial_n":72,"n_dots":2.65,"target":"right","response":"right","rt":132.5,"correct":true,"confidence":4},{"trial_n":73,"n_dots":2.65,"target":"right","response":"right","rt":265.5,"correct":true,"confidence":4},{"trial_n":74,"n_dots":2.55,"target":"right","response":"right","rt":264.20000004768,"correct":true,"confidence":4},{"trial_n":75,"n_dots":2.55,"target":"right","response":"right","rt":541.10000002384,"correct":true,"confidence":4},{"trial_n":76,"n_dots":2.45,"target":"right","response":"right","rt":428.39999997616,"correct":true,"confidence":3},{"trial_n":77,"n_dots":2.45,"target":"right","response":"right","rt":136.10000002384,"correct":true,"confidence":2},{"trial_n":78,"n_dots":2.35,"target":"left","response":"left","rt":773.80000007153,"correct":true,"confidence":2},{"trial_n":79,"n_dots":2.35,"target":"right","response":"right","rt":475.5,"correct":true,"confidence":2},{"trial_n":80,"n_dots":2.25,"target":"right","response":"right","rt":488.20000004768,"correct":true,"confidence":1},{"trial_n":81,"n_dots":2.25,"target":"left","response":"left","rt":1183.6999999285,"correct":true,"confidence":3},{"trial_n":82,"n_dots":2.15,"target":"left","response":"right","rt":103.10000002384,"correct":false,"confidence":3},{"trial_n":83,"n_dots":2.25,"target":"right","response":"right","rt":401.79999995232,"correct":true,"confidence":4},{"trial_n":84,"n_dots":2.25,"target":"left","response":"left","rt":1330.6999999285,"correct":true,"confidence":4},{"trial_n":85,"n_dots":2.15,"target":"left","response":"right","rt":141.19999992847,"correct":false,"confidence":4},{"trial_n":86,"n_dots":2.25,"target":"right","response":"right","rt":1420.8000000715,"correct":true,"confidence":3},{"trial_n":87,"n_dots":2.25,"target":"right","response":"right","rt":291.69999992847,"correct":true,"confidence":3},{"trial_n":88,"n_dots":2.15,"target":"left","response":"left","rt":700.39999997616,"correct":true,"confidence":3},{"trial_n":89,"n_dots":2.15,"target":"right","response":"right","rt":354.30000007153,"correct":true,"confidence":3},{"trial_n":90,"n_dots":2.05,"target":"right","response":"left","rt":688.90000009537,"correct":false,"confidence":1},{"trial_n":91,"n_dots":2.15,"target":"left","response":"left","rt":750.20000004768,"correct":true,"confidence":2},{"trial_n":92,"n_dots":2.15,"target":"left","response":"left","rt":437.90000009537,"correct":true,"confidence":1},{"trial_n":93,"n_dots":2.05,"target":"left","response":"left","rt":1039.1000000238,"correct":true,"confidence":2},{"trial_n":94,"n_dots":2.05,"target":"right","response":"right","rt":573.60000002384,"correct":true,"confidence":4},{"trial_n":95,"n_dots":1.95,"target":"left","response":"left","rt":747.39999997616,"correct":true,"confidence":2},{"trial_n":96,"n_dots":1.95,"target":"right","response":"right","rt":84.399999976158,"correct":true,"confidence":4},{"trial_n":97,"n_dots":1.85,"target":"right","response":"right","rt":87,"correct":true,"confidence":3},{"trial_n":98,"n_dots":1.85,"target":"left","response":"right","rt":530.80000007153,"correct":false,"confidence":4},{"trial_n":99,"n_dots":1.95,"target":"left","response":"right","rt":601.69999992847,"correct":false,"confidence":4},{"trial_n":100,"n_dots":2.05,"target":"left","response":"left","rt":306.70000004768,"correct":true,"confidence":1},{"trial_n":101,"n_dots":2.05,"target":"right","response":"left","rt":699.29999995232,"correct":false,"confidence":4},{"trial_n":102,"n_dots":2.15,"target":"left","response":"right","rt":121.29999995232,"correct":false,"confidence":4},{"trial_n":103,"n_dots":2.25,"target":"left","response":"left","rt":612.29999995232,"correct":true,"confidence":4},{"trial_n":104,"n_dots":2.25,"target":"right","response":"right","rt":354.60000002384,"correct":true,"confidence":4},{"trial_n":105,"n_dots":2.15,"target":"right","response":"left","rt":352.10000002384,"correct":false,"confidence":3},{"trial_n":106,"n_dots":2.25,"target":"left","response":"left","rt":1001.6000000238,"correct":true,"confidence":3},{"trial_n":107,"n_dots":2.25,"target":"left","response":"left","rt":444.39999997616,"correct":true,"confidence":3},{"trial_n":108,"n_dots":2.15,"target":"left","response":"right","rt":121.70000004768,"correct":false,"confidence":4},{"trial_n":109,"n_dots":2.25,"target":"right","response":"left","rt":736.29999995232,"correct":false,"confidence":4},{"trial_n":110,"n_dots":2.35,"target":"right","response":"right","rt":1893.8000000715,"correct":true,"confidence":1},{"trial_n":111,"n_dots":2.35,"target":"right","response":"left","rt":581.89999997616,"correct":false,"confidence":2},{"trial_n":112,"n_dots":2.45,"target":"left","response":"left","rt":749,"correct":true,"confidence":3},{"trial_n":113,"n_dots":2.45,"target":"left","response":"right","rt":89.299999952316,"correct":false,"confidence":3},{"trial_n":114,"n_dots":2.55,"target":"right","response":"right","rt":750.70000004768,"correct":true,"confidence":1},{"trial_n":115,"n_dots":2.55,"target":"right","response":"right","rt":411,"correct":true,"confidence":1},{"trial_n":116,"n_dots":2.45,"target":"left","response":"left","rt":950.70000004768,"correct":true,"confidence":3},{"trial_n":117,"n_dots":2.45,"target":"right","response":"right","rt":534.29999995232,"correct":true,"confidence":3},{"trial_n":118,"n_dots":2.35,"target":"left","response":"left","rt":646,"correct":true,"confidence":4},{"trial_n":119,"n_dots":2.35,"target":"right","response":"right","rt":283.30000007153,"correct":true,"confidence":4},{"trial_n":120,"n_dots":2.25,"target":"right","response":"right","rt":292.09999990463,"correct":true,"confidence":4}]