[{"trial_n":1,"n_dots":4.25,"target":"left","response":"left","rt":8944,"correct":true,"confidence":-1},{"trial_n":2,"n_dots":4.25,"target":"left","response":"left","rt":1101,"correct":true,"confidence":-1},{"trial_n":3,"n_dots":3.85,"target":"right","response":"right","rt":259,"correct":true,"confidence":-1},{"trial_n":4,"n_dots":3.85,"target":"left","response":"left","rt":339,"correct":true,"confidence":-1},{"trial_n":5,"n_dots":3.45,"target":"right","response":"right","rt":532,"correct":true,"confidence":-1},{"trial_n":6,"n_dots":3.45,"target":"left","response":"left","rt":470,"correct":true,"confidence":-1},{"trial_n":7,"n_dots":3.05,"target":"right","response":"right","rt":510,"correct":true,"confidence":-1},{"trial_n":8,"n_dots":3.05,"target":"left","response":"left","rt":378,"correct":true,"confidence":-1},{"trial_n":9,"n_dots":2.85,"target":"right","response":"right","rt":420,"correct":true,"confidence":-1},{"trial_n":10,"n_dots":2.85,"target":"right","response":"right","rt":534,"correct":true,"confidence":-1},{"trial_n":11,"n_dots":2.65,"target":"right","response":"left","rt":618,"correct":false,"confidence":-1},{"trial_n":12,"n_dots":2.85,"target":"left","response":"left","rt":384,"correct":true,"confidence":-1},{"trial_n":13,"n_dots":2.85,"target":"left","response":"left","rt":454,"correct":true,"confidence":-1},{"trial_n":14,"n_dots":2.75,"target":"left","response":"left","rt":416.99999999999,"correct":true,"confidence":-1},{"trial_n":15,"n_dots":2.75,"target":"right","response":"right","rt":456,"correct":true,"confidence":-1},{"trial_n":16,"n_dots":2.65,"target":"left","response":"left","rt":194.99999999999,"correct":true,"confidence":-1},{"trial_n":17,"n_dots":2.65,"target":"right","response":"left","rt":289,"correct":false,"confidence":-1},{"trial_n":18,"n_dots":2.75,"target":"right","response":"right","rt":131.99999999999,"correct":true,"confidence":-1},{"trial_n":19,"n_dots":2.75,"target":"right","response":"right","rt":123,"correct":true,"confidence":-1},{"trial_n":20,"n_dots":2.65,"target":"left","response":"left","rt":70,"correct":true,"confidence":-1},{"trial_n":21,"n_dots":2.65,"target":"left","response":"right","rt":1380,"correct":false,"confidence":3},{"trial_n":22,"n_dots":2.75,"target":"left","response":"left","rt":1165,"correct":true,"confidence":2},{"trial_n":23,"n_dots":2.75,"target":"right","response":"right","rt":1313,"correct":true,"confidence":3},{"trial_n":24,"n_dots":2.65,"target":"right","response":"right","rt":1519,"correct":true,"confidence":2},{"trial_n":25,"n_dots":2.65,"target":"right","response":"right","rt":977,"correct":true,"confidence":3},{"trial_n":26,"n_dots":2.55,"target":"left","response":"right","rt":1067,"correct":false,"confidence":3},{"trial_n":27,"n_dots":2.65,"target":"left","response":"left","rt":1293,"correct":true,"confidence":2},{"trial_n":28,"n_dots":2.65,"target":"right","response":"right","rt":955,"correct":true,"confidence":3},{"trial_n":29,"n_dots":2.55,"target":"right","response":"right","rt":992.99999999999,"correct":true,"confidence":2},{"trial_n":30,"n_dots":2.55,"target":"right","response":"left","rt":1200,"correct":false,"confidence":3},{"trial_n":31,"n_dots":2.65,"target":"right","response":"right","rt":716,"correct":true,"confidence":5},{"trial_n":32,"n_dots":2.65,"target":"right","response":"right","rt":796,"correct":true,"confidence":4},{"trial_n":33,"n_dots":2.55,"target":"left","response":"left","rt":1717,"correct":true,"confidence":2},{"trial_n":34,"n_dots":2.55,"target":"left","response":"left","rt":923,"correct":true,"confidence":3},{"trial_n":35,"n_dots":2.45,"target":"right","response":"right","rt":1012,"correct":true,"confidence":3},{"trial_n":36,"n_dots":2.45,"target":"right","response":"left","rt":392,"correct":false,"confidence":2},{"trial_n":37,"n_dots":2.55,"target":"left","response":"right","rt":1322,"correct":false,"confidence":2},{"trial_n":38,"n_dots":2.65,"target":"left","response":"left","rt":345,"correct":true,"confidence":3},{"trial_n":39,"n_dots":2.65,"target":"right","response":"right","rt":399,"correct":true,"confidence":3},{"trial_n":40,"n_dots":2.55,"target":"right","response":"right","rt":386,"correct":true,"confidence":3},{"trial_n":41,"n_dots":2.55,"target":"right","response":"right","rt":772,"correct":true,"confidence":3},{"trial_n":42,"n_dots":2.45,"target":"right","response":"right","rt":357,"correct":true,"confidence":3},{"trial_n":43,"n_dots":2.45,"target":"left","response":"right","rt":518.99999999997,"correct":false,"confidence":2},{"trial_n":44,"n_dots":2.55,"target":"right","response":"right","rt":668,"correct":true,"confidence":3},{"trial_n":45,"n_dots":2.55,"target":"right","response":"right","rt":1795,"correct":true,"confidence":2},{"trial_n":46,"n_dots":2.45,"target":"left","response":"left","rt":668,"correct":true,"confidence":2},{"trial_n":47,"n_dots":2.45,"target":"left","response":"left","rt":425,"correct":true,"confidence":2},{"trial_n":48,"n_dots":2.35,"target":"left","response":"right","rt":324,"correct":false,"confidence":2},{"trial_n":49,"n_dots":2.45,"target":"left","response":"right","rt":189,"correct":false,"confidence":3},{"trial_n":50,"n_dots":2.55,"target":"right","response":"right","rt":726,"correct":true,"confidence":2},{"trial_n":51,"n_dots":2.55,"target":"right","response":"right","rt":192,"correct":true,"confidence":3},{"trial_n":52,"n_dots":2.45,"target":"right","response":"right","rt":234,"correct":true,"confidence":3},{"trial_n":53,"n_dots":2.45,"target":"left","response":"left","rt":1357,"correct":true,"confidence":2},{"trial_n":54,"n_dots":2.35,"target":"left","response":"left","rt":1691,"correct":true,"confidence":3},{"trial_n":55,"n_dots":2.35,"target":"left","response":"right","rt":519.99999999997,"correct":false,"confidence":2},{"trial_n":56,"n_dots":2.45,"target":"right","response":"right","rt":144,"correct":true,"confidence":4},{"trial_n":57,"n_dots":2.45,"target":"left","response":"right","rt":367,"correct":false,"confidence":2},{"trial_n":58,"n_dots":2.55,"target":"left","response":"left","rt":205,"correct":true,"confidence":2},{"trial_n":59,"n_dots":2.55,"target":"left","response":"left","rt":790,"correct":true,"confidence":2},{"trial_n":60,"n_dots":2.45,"target":"right","response":"right","rt":332,"correct":true,"confidence":2},{"trial_n":61,"n_dots":2.45,"target":"right","response":"left","rt":341,"correct":false,"confidence":2},{"trial_n":62,"n_dots":2.55,"target":"right","response":"right","rt":780,"correct":true,"confidence":3},{"trial_n":63,"n_dots":2.55,"target":"right","response":"right","rt":1142,"correct":true,"confidence":3},{"trial_n":64,"n_dots":2.45,"target":"left","response":"right","rt":367,"correct":false,"confidence":4},{"trial_n":65,"n_dots":2.55,"target":"left","response":"right","rt":198,"correct":false,"confidence":4},{"trial_n":66,"n_dots":2.65,"target":"left","response":"left","rt":668,"correct":true,"confidence":3},{"trial_n":67,"n_dots":2.65,"target":"right","response":"right","rt":240,"correct":true,"confidence":4},{"trial_n":68,"n_dots":2.55,"target":"right","response":"right","rt":37.000000000058,"correct":true,"confidence":4},{"trial_n":69,"n_dots":2.55,"target":"right","response":"right","rt":395,"correct":true,"confidence":4},{"trial_n":70,"n_dots":2.45,"target":"right","response":"right","rt":169,"correct":true,"confidence":4},{"trial_n":71,"n_dots":2.45,"target":"right","response":"right","rt":1412,"correct":true,"confidence":4},{"trial_n":72,"n_dots":2.35,"target":"left","response":"left","rt":416,"correct":true,"confidence":2},{"trial_n":73,"n_dots":2.35,"target":"right","response":"right","rt":96,"correct":true,"confidence":4},{"trial_n":74,"n_dots":2.25,"target":"left","response":"right","rt":833.00000000006,"correct":false,"confidence":4},{"trial_n":75,"n_dots":2.35,"target":"left","response":"right","rt":703,"correct":false,"confidence":4},{"trial_n":76,"n_dots":2.45,"target":"left","response":"left","rt":731,"correct":true,"confidence":2},{"trial_n":77,"n_dots":2.45,"target":"left","response":"right","rt":832,"correct":false,"confidence":4},{"trial_n":78,"n_dots":2.55,"target":"right","response":"right","rt":908,"correct":true,"confidence":4},{"trial_n":79,"n_dots":2.55,"target":"left","response":"left","rt":391,"correct":true,"confidence":3},{"trial_n":80,"n_dots":2.45,"target":"right","response":"right","rt":695.00000000006,"correct":true,"confidence":3},{"trial_n":81,"n_dots":2.45,"target":"left","response":"right","rt":654,"correct":false,"confidence":3},{"trial_n":82,"n_dots":2.55,"target":"right","response":"right","rt":788,"correct":true,"confidence":4},{"trial_n":83,"n_dots":2.55,"target":"left","response":"right","rt":702,"correct":false,"confidence":3},{"trial_n":84,"n_dots":2.65,"target":"left","response":"left","rt":168,"correct":true,"confidence":2},{"trial_n":85,"n_dots":2.65,"target":"right","response":"right","rt":534,"correct":true,"confidence":2},{"trial_n":86,"n_dots":2.55,"target":"left","response":"left","rt":436,"correct":true,"confidence":2},{"trial_n":87,"n_dots":2.55,"target":"left","response":"right","rt":541,"correct":false,"confidence":3},{"trial_n":88,"n_dots":2.65,"target":"right","response":"left","rt":435,"correct":false,"confidence":2},{"trial_n":89,"n_dots":2.75,"target":"left","response":"right","rt":927.99999999994,"correct":false,"confidence":1},{"trial_n":90,"n_dots":2.85,"target":"right","response":"right","rt":855,"correct":true,"confidence":1},{"trial_n":91,"n_dots":2.85,"target":"right","response":"left","rt":1052,"correct":false,"confidence":1},{"trial_n":92,"n_dots":2.95,"target":"left","response":"left","rt":1105,"correct":true,"confidence":1},{"trial_n":93,"n_dots":2.95,"target":"left","response":"right","rt":1398,"correct":false,"confidence":2},{"trial_n":94,"n_dots":3.05,"target":"left","response":"left","rt":533,"correct":true,"confidence":1},{"trial_n":95,"n_dots":3.05,"target":"right","response":"left","rt":1079,"correct":false,"confidence":1},{"trial_n":96,"n_dots":3.15,"target":"right","response":"left","rt":404,"correct":false,"confidence":1},{"trial_n":97,"n_dots":3.25,"target":"left","response":"right","rt":297.99999999994,"correct":false,"confidence":2},{"trial_n":98,"n_dots":3.35,"target":"left","response":"left","rt":1204.9999999999,"correct":true,"confidence":2},{"trial_n":99,"n_dots":3.35,"target":"left","response":"left","rt":358.00000000006,"correct":true,"confidence":2},{"trial_n":100,"n_dots":3.25,"target":"left","response":"right","rt":1315.9999999999,"correct":false,"confidence":3},{"trial_n":101,"n_dots":3.35,"target":"right","response":"right","rt":556.99999999994,"correct":true,"confidence":3},{"trial_n":102,"n_dots":3.35,"target":"right","response":"right","rt":307,"correct":true,"confidence":3},{"trial_n":103,"n_dots":3.25,"target":"right","response":"right","rt":760,"correct":true,"confidence":3},{"trial_n":104,"n_dots":3.25,"target":"right","response":"left","rt":535,"correct":false,"confidence":2},{"trial_n":105,"n_dots":3.35,"target":"left","response":"right","rt":664.99999999994,"correct":false,"confidence":2},{"trial_n":106,"n_dots":3.45,"target":"left","response":"right","rt":349.00000000006,"correct":false,"confidence":2},{"trial_n":107,"n_dots":3.55,"target":"right","response":"left","rt":518,"correct":false,"confidence":1},{"trial_n":108,"n_dots":3.65,"target":"right","response":"right","rt":252,"correct":true,"confidence":3},{"trial_n":109,"n_dots":3.65,"target":"right","response":"left","rt":525,"correct":false,"confidence":2},{"trial_n":110,"n_dots":3.75,"target":"left","response":"right","rt":198,"correct":false,"confidence":1},{"trial_n":111,"n_dots":3.85,"target":"right","response":"right","rt":517.00000000006,"correct":true,"confidence":3},{"trial_n":112,"n_dots":3.85,"target":"right","response":"right","rt":582.99999999994,"correct":true,"confidence":4},{"trial_n":113,"n_dots":3.75,"target":"left","response":"left","rt":647,"correct":true,"confidence":4},{"trial_n":114,"n_dots":3.75,"target":"left","response":"left","rt":1189,"correct":true,"confidence":1},{"trial_n":115,"n_dots":3.65,"target":"right","response":"right","rt":646,"correct":true,"confidence":3},{"trial_n":116,"n_dots":3.65,"target":"left","response":"left","rt":995,"correct":true,"confidence":2},{"trial_n":117,"n_dots":3.55,"target":"right","response":"right","rt":172,"correct":true,"confidence":2},{"trial_n":118,"n_dots":3.55,"target":"left","response":"left","rt":792,"correct":true,"confidence":1},{"trial_n":119,"n_dots":3.45,"target":"left","response":"right","rt":904,"correct":false,"confidence":1},{"trial_n":120,"n_dots":3.55,"target":"left","response":"left","rt":542,"correct":true,"confidence":3}]