[{"trial_n":1,"n_dots":4.25,"target":"right","response":"right","rt":4153.1000000238,"correct":true,"confidence":-1},{"trial_n":2,"n_dots":4.25,"target":"left","response":"left","rt":1426.8000000715,"correct":true,"confidence":-1},{"trial_n":3,"n_dots":3.85,"target":"right","response":"left","rt":825.10000002384,"correct":false,"confidence":-1},{"trial_n":4,"n_dots":4.25,"target":"right","response":"right","rt":829.60000002384,"correct":true,"confidence":-1},{"trial_n":5,"n_dots":4.25,"target":"left","response":"left","rt":1044.6999999285,"correct":true,"confidence":-1},{"trial_n":6,"n_dots":3.85,"target":"right","response":"right","rt":864.89999997616,"correct":true,"confidence":-1},{"trial_n":7,"n_dots":3.85,"target":"left","response":"left","rt":960.20000004768,"correct":true,"confidence":-1},{"trial_n":8,"n_dots":3.65,"target":"left","response":"left","rt":505.30000007153,"correct":true,"confidence":-1},{"trial_n":9,"n_dots":3.65,"target":"right","response":"right","rt":972.69999992847,"correct":true,"confidence":-1},{"trial_n":10,"n_dots":3.45,"target":"right","response":"right","rt":760.09999990463,"correct":true,"confidence":-1},{"trial_n":11,"n_dots":3.45,"target":"right","response":"right","rt":799.30000007153,"correct":true,"confidence":-1},{"trial_n":12,"n_dots":3.25,"target":"right","response":"right","rt":709.39999997616,"correct":true,"confidence":-1},{"trial_n":13,"n_dots":3.25,"target":"right","response":"left","rt":1083.3999999762,"correct":false,"confidence":-1},{"trial_n":14,"n_dots":3.35,"target":"left","response":"left","rt":917.60000002384,"correct":true,"confidence":-1},{"trial_n":15,"n_dots":3.35,"target":"right","response":"right","rt":938.80000007153,"correct":true,"confidence":-1},{"trial_n":16,"n_dots":3.25,"target":"left","response":"left","rt":866.19999992847,"correct":true,"confidence":-1},{"trial_n":17,"n_dots":3.25,"target":"right","response":"left","rt":550.89999997616,"correct":false,"confidence":-1},{"trial_n":18,"n_dots":3.35,"target":"right","response":"left","rt":796.39999997616,"correct":false,"confidence":-1},{"trial_n":19,"n_dots":3.45,"target":"right","response":"right","rt":822.5,"correct":true,"confidence":-1},{"trial_n":20,"n_dots":3.45,"target":"right","response":"right","rt":707.30000007153,"correct":true,"confidence":-1},{"trial_n":21,"n_dots":3.35,"target":"right","response":"right","rt":825.60000002384,"correct":true,"confidence":3},{"trial_n":22,"n_dots":3.35,"target":"left","response":"left","rt":1413.7000000477,"correct":true,"confidence":4},{"trial_n":23,"n_dots":3.25,"target":"left","response":"left","rt":812.5,"correct":true,"confidence":3},{"trial_n":24,"n_dots":3.25,"target":"right","response":"left","rt":1060.1000000238,"correct":false,"confidence":2},{"trial_n":25,"n_dots":3.35,"target":"left","response":"left","rt":931.59999990463,"correct":true,"confidence":3},{"trial_n":26,"n_dots":3.35,"target":"right","response":"right","rt":875.39999997616,"correct":true,"confidence":4},{"trial_n":27,"n_dots":3.25,"target":"right","response":"right","rt":1247,"correct":true,"confidence":3},{"trial_n":28,"n_dots":3.25,"target":"left","response":"left","rt":939,"correct":true,"confidence":3},{"trial_n":29,"n_dots":3.15,"target":"right","response":"left","rt":621.5,"correct":false,"confidence":3},{"trial_n":30,"n_dots":3.25,"target":"right","response":"right","rt":914.39999997616,"correct":true,"confidence":4},{"trial_n":31,"n_dots":3.25,"target":"left","response":"left","rt":720.29999995232,"correct":true,"confidence":3},{"trial_n":32,"n_dots":3.15,"target":"left","response":"left","rt":569.80000007153,"correct":true,"confidence":2},{"trial_n":33,"n_dots":3.15,"target":"left","response":"left","rt":508.30000007153,"correct":true,"confidence":4},{"trial_n":34,"n_dots":3.05,"target":"right","response":"left","rt":499.79999995232,"correct":false,"confidence":4},{"trial_n":35,"n_dots":3.15,"target":"left","response":"left","rt":1243,"correct":true,"confidence":3},{"trial_n":36,"n_dots":3.15,"target":"left","response":"right","rt":717,"correct":false,"confidence":4},{"trial_n":37,"n_dots":3.25,"target":"left","response":"left","rt":966.5,"correct":true,"confidence":4},{"trial_n":38,"n_dots":3.25,"target":"left","response":"left","rt":837.10000002384,"correct":true,"confidence":3},{"trial_n":39,"n_dots":3.15,"target":"left","response":"left","rt":926.5,"correct":true,"confidence":4},{"trial_n":40,"n_dots":3.15,"target":"right","response":"right","rt":1074.8999999762,"correct":true,"confidence":4},{"trial_n":41,"n_dots":3.05,"target":"right","response":"left","rt":1051.9000000954,"correct":false,"confidence":3},{"trial_n":42,"n_dots":3.15,"target":"left","response":"left","rt":570.19999992847,"correct":true,"confidence":3},{"trial_n":43,"n_dots":3.15,"target":"right","response":"right","rt":712.89999997616,"correct":true,"confidence":3},{"trial_n":44,"n_dots":3.05,"target":"right","response":"left","rt":814.70000004768,"correct":false,"confidence":3},{"trial_n":45,"n_dots":3.15,"target":"right","response":"left","rt":446.70000004768,"correct":false,"confidence":3},{"trial_n":46,"n_dots":3.25,"target":"left","response":"left","rt":410.29999995232,"correct":true,"confidence":4},{"trial_n":47,"n_dots":3.25,"target":"left","response":"left","rt":421.69999992847,"correct":true,"confidence":3},{"trial_n":48,"n_dots":3.15,"target":"left","response":"left","rt":450.10000002384,"correct":true,"confidence":3},{"trial_n":49,"n_dots":3.15,"target":"left","response":"left","rt":963.60000002384,"correct":true,"confidence":3},{"trial_n":50,"n_dots":3.05,"target":"left","response":"right","rt":1358.3999999762,"correct":false,"confidence":3},{"trial_n":51,"n_dots":3.15,"target":"left","response":"left","rt":1128.5999999046,"correct":true,"confidence":3},{"trial_n":52,"n_dots":3.15,"target":"right","response":"left","rt":1165.4000000954,"correct":false,"confidence":2},{"trial_n":53,"n_dots":3.25,"target":"left","response":"left","rt":604.5,"correct":true,"confidence":3},{"trial_n":54,"n_dots":3.25,"target":"right","response":"left","rt":737,"correct":false,"confidence":3},{"trial_n":55,"n_dots":3.35,"target":"left","response":"left","rt":1006.7999999523,"correct":true,"confidence":4},{"trial_n":56,"n_dots":3.35,"target":"left","response":"left","rt":733.29999995232,"correct":true,"confidence":4},{"trial_n":57,"n_dots":3.25,"target":"right","response":"right","rt":1423.0999999046,"correct":true,"confidence":3},{"trial_n":58,"n_dots":3.25,"target":"left","response":"left","rt":931,"correct":true,"confidence":3},{"trial_n":59,"n_dots":3.15,"target":"right","response":"right","rt":1025.8999999762,"correct":true,"confidence":3},{"trial_n":60,"n_dots":3.15,"target":"right","response":"right","rt":842.59999990463,"correct":true,"confidence":3},{"trial_n":61,"n_dots":3.05,"target":"right","response":"left","rt":992.10000002384,"correct":false,"confidence":3},{"trial_n":62,"n_dots":3.15,"target":"left","response":"right","rt":901.60000002384,"correct":false,"confidence":3},{"trial_n":63,"n_dots":3.25,"target":"right","response":"left","rt":990.5,"correct":false,"confidence":3},{"trial_n":64,"n_dots":3.35,"target":"right","response":"right","rt":1072.8999999762,"correct":true,"confidence":4},{"trial_n":65,"n_dots":3.35,"target":"right","response":"right","rt":833.70000004768,"correct":true,"confidence":4},{"trial_n":66,"n_dots":3.25,"target":"right","response":"left","rt":932.10000002384,"correct":false,"confidence":4},{"trial_n":67,"n_dots":3.35,"target":"right","response":"right","rt":778.5,"correct":true,"confidence":4},{"trial_n":68,"n_dots":3.35,"target":"right","response":"left","rt":1107.1000000238,"correct":false,"confidence":3},{"trial_n":69,"n_dots":3.45,"target":"left","response":"left","rt":995,"correct":true,"confidence":3},{"trial_n":70,"n_dots":3.45,"target":"right","response":"right","rt":1277.3000000715,"correct":true,"confidence":3},{"trial_n":71,"n_dots":3.35,"target":"left","response":"left","rt":784.39999997616,"correct":true,"confidence":4},{"trial_n":72,"n_dots":3.35,"target":"left","response":"left","rt":697,"correct":true,"confidence":3},{"trial_n":73,"n_dots":3.25,"target":"right","response":"left","rt":1432.5,"correct":false,"confidence":2},{"trial_n":74,"n_dots":3.35,"target":"left","response":"left","rt":708.39999997616,"correct":true,"confidence":3},{"trial_n":75,"n_dots":3.35,"target":"left","response":"left","rt":114.90000009537,"correct":true,"confidence":3},{"trial_n":76,"n_dots":3.25,"target":"right","response":"right","rt":667.90000009537,"correct":true,"confidence":4},{"trial_n":77,"n_dots":3.25,"target":"right","response":"left","rt":728.70000004768,"correct":false,"confidence":3},{"trial_n":78,"n_dots":3.35,"target":"left","response":"right","rt":960,"correct":false,"confidence":3},{"trial_n":79,"n_dots":3.45,"target":"left","response":"right","rt":1022.3999999762,"correct":false,"confidence":3},{"trial_n":80,"n_dots":3.55,"target":"left","response":"left","rt":923.89999997616,"correct":true,"confidence":3},{"trial_n":81,"n_dots":3.55,"target":"left","response":"left","rt":634.5,"correct":true,"confidence":4},{"trial_n":82,"n_dots":3.45,"target":"right","response":"right","rt":873.80000007153,"correct":true,"confidence":4},{"trial_n":83,"n_dots":3.45,"target":"right","response":"right","rt":968.39999997616,"correct":true,"confidence":3},{"trial_n":84,"n_dots":3.35,"target":"left","response":"left","rt":605.79999995232,"correct":true,"confidence":3},{"trial_n":85,"n_dots":3.35,"target":"left","response":"left","rt":346.10000002384,"correct":true,"confidence":4},{"trial_n":86,"n_dots":3.25,"target":"left","response":"left","rt":411.79999995232,"correct":true,"confidence":4},{"trial_n":87,"n_dots":3.25,"target":"right","response":"right","rt":903,"correct":true,"confidence":3},{"trial_n":88,"n_dots":3.15,"target":"left","response":"left","rt":791.29999995232,"correct":true,"confidence":3},{"trial_n":89,"n_dots":3.15,"target":"right","response":"right","rt":651,"correct":true,"confidence":3},{"trial_n":90,"n_dots":3.05,"target":"left","response":"left","rt":658.70000004768,"correct":true,"confidence":3},{"trial_n":91,"n_dots":3.05,"target":"left","response":"left","rt":776.10000002384,"correct":true,"confidence":3},{"trial_n":92,"n_dots":2.95,"target":"right","response":"left","rt":1203,"correct":false,"confidence":2},{"trial_n":93,"n_dots":3.05,"target":"right","response":"left","rt":805.80000007153,"correct":false,"confidence":2},{"trial_n":94,"n_dots":3.15,"target":"left","response":"left","rt":443.80000007153,"correct":true,"confidence":2},{"trial_n":95,"n_dots":3.15,"target":"left","response":"left","rt":494.80000007153,"correct":true,"confidence":3},{"trial_n":96,"n_dots":3.05,"target":"right","response":"left","rt":557.29999995232,"correct":false,"confidence":3},{"trial_n":97,"n_dots":3.15,"target":"right","response":"left","rt":558,"correct":false,"confidence":3},{"trial_n":98,"n_dots":3.25,"target":"right","response":"right","rt":904.10000002384,"correct":true,"confidence":3},{"trial_n":99,"n_dots":3.25,"target":"left","response":"left","rt":903.89999997616,"correct":true,"confidence":2},{"trial_n":100,"n_dots":3.15,"target":"left","response":"left","rt":463.39999997616,"correct":true,"confidence":3},{"trial_n":101,"n_dots":3.15,"target":"left","response":"left","rt":682.89999997616,"correct":true,"confidence":2},{"trial_n":102,"n_dots":3.05,"target":"left","response":"left","rt":375,"correct":true,"confidence":2},{"trial_n":103,"n_dots":3.05,"target":"right","response":"left","rt":569.39999997616,"correct":false,"confidence":3},{"trial_n":104,"n_dots":3.15,"target":"right","response":"right","rt":1079.2000000477,"correct":true,"confidence":3},{"trial_n":105,"n_dots":3.15,"target":"left","response":"left","rt":829.90000009537,"correct":true,"confidence":3},{"trial_n":106,"n_dots":3.05,"target":"left","response":"left","rt":986.80000007153,"correct":true,"confidence":3},{"trial_n":107,"n_dots":3.05,"target":"left","response":"left","rt":863.20000004768,"correct":true,"confidence":2},{"trial_n":108,"n_dots":2.95,"target":"left","response":"left","rt":1003,"correct":true,"confidence":3},{"trial_n":109,"n_dots":2.95,"target":"right","response":"left","rt":810.79999995232,"correct":false,"confidence":2},{"trial_n":110,"n_dots":3.05,"target":"left","response":"left","rt":728.60000002384,"correct":true,"confidence":3},{"trial_n":111,"n_dots":3.05,"target":"left","response":"left","rt":837.89999997616,"correct":true,"confidence":3},{"trial_n":112,"n_dots":2.95,"target":"right","response":"left","rt":1116,"correct":false,"confidence":3},{"trial_n":113,"n_dots":3.05,"target":"right","response":"right","rt":578.90000009537,"correct":true,"confidence":3},{"trial_n":114,"n_dots":3.05,"target":"right","response":"right","rt":716.60000002384,"correct":true,"confidence":3},{"trial_n":115,"n_dots":2.95,"target":"left","response":"left","rt":834.19999992847,"correct":true,"confidence":3},{"trial_n":116,"n_dots":2.95,"target":"right","response":"right","rt":837,"correct":true,"confidence":3},{"trial_n":117,"n_dots":2.85,"target":"right","response":"left","rt":983.79999995232,"correct":false,"confidence":3},{"trial_n":118,"n_dots":2.95,"target":"left","response":"left","rt":243.39999997616,"correct":true,"confidence":3},{"trial_n":119,"n_dots":2.95,"target":"right","response":"left","rt":590.69999992847,"correct":false,"confidence":2},{"trial_n":120,"n_dots":3.05,"target":"left","response":"left","rt":508.20000004768,"correct":true,"confidence":3}]