[{"trial_n":1,"span":8,"encoder":"98419554","distractor":"98429554","target":"present","response":"present","rt":"2255.099999994","correct":true,"confidence":-1},{"trial_n":2,"span":8,"encoder":"55239925","distractor":"55239325","target":"present","response":"present","rt":"44874.700000003","correct":true,"confidence":-1},{"trial_n":3,"span":10,"encoder":"7123051215","distractor":"7123001215","target":"absent","response":"present","rt":"2708.599999994","correct":false,"confidence":-1},{"trial_n":4,"span":8,"encoder":"62639306","distractor":"62639006","target":"absent","response":"absent","rt":"1918.599999994","correct":true,"confidence":-1},{"trial_n":5,"span":8,"encoder":"40831137","distractor":"80831137","target":"present","response":"present","rt":"1811.700000003","correct":true,"confidence":-1},{"trial_n":6,"span":10,"encoder":"2823876117","distractor":"2823876717","target":"absent","response":"absent","rt":"123377.2","correct":true,"confidence":-1},{"trial_n":7,"span":10,"encoder":"1176783631","distractor":"1176789631","target":"present","response":"present","rt":"3040.400000006","correct":true,"confidence":-1},{"trial_n":8,"span":12,"encoder":"219939844762","distractor":"919939844762","target":"absent","response":"absent","rt":"2775","correct":true,"confidence":-1},{"trial_n":9,"span":12,"encoder":"396869557350","distractor":"396869557320","target":"absent","response":"absent","rt":"4389.799999997","correct":true,"confidence":-1},{"trial_n":10,"span":14,"encoder":"13885910518828","distractor":"13885910518838","target":"absent","response":"absent","rt":"1784.299999997","correct":true,"confidence":-1},{"trial_n":11,"span":14,"encoder":"83442869435533","distractor":"83442859435533","target":"present","response":"present","rt":"3029","correct":true,"confidence":-1},{"trial_n":12,"span":15,"encoder":"169997792032780","distractor":"169997792082780","target":"present","response":"present","rt":"3129.1000000089","correct":true,"confidence":-1},{"trial_n":13,"span":15,"encoder":"639383506742751","distractor":"639383506742753","target":"absent","response":"absent","rt":"1845.3999999911","correct":true,"confidence":-1},{"trial_n":14,"span":16,"encoder":"9520171521540689","distractor":"9520171521546689","target":"absent","response":"present","rt":"2771.299999997","correct":false,"confidence":-1},{"trial_n":15,"span":15,"encoder":"551589971541549","distractor":"651589971541549","target":"present","response":"present","rt":"2209.8999999911","correct":true,"confidence":-1},{"trial_n":16,"span":15,"encoder":"885910345590141","distractor":"875910345590141","target":"absent","response":"present","rt":"3397.200000003","correct":false,"confidence":-1},{"trial_n":17,"span":14,"encoder":"98400988775519","distractor":"98700988775519","target":"absent","response":"present","rt":"3169.700000003","correct":false,"confidence":-1},{"trial_n":18,"span":13,"encoder":"1754970031956","distractor":"1714970031956","target":"present","response":"present","rt":"2174.6000000089","correct":true,"confidence":-1},{"trial_n":19,"span":13,"encoder":"8207454498468","distractor":"8209454498468","target":"absent","response":"present","rt":"1672.3999999911","correct":false,"confidence":-1},{"trial_n":20,"span":12,"encoder":"996368294220","distractor":"996368294120","target":"present","response":"present","rt":"3193.8999999911","correct":true,"confidence":-1},{"trial_n":21,"span":12,"encoder":"000251061371","distractor":"030251061371","target":"absent","response":"absent","rt":"3272.799999997","correct":true,"confidence":5},{"trial_n":22,"span":13,"encoder":"1281042966555","distractor":"1284042966555","target":"present","response":"present","rt":"2763.299999997","correct":true,"confidence":4},{"trial_n":23,"span":13,"encoder":"2833816900451","distractor":"1833816900451","target":"present","response":"present","rt":"2829.799999997","correct":true,"confidence":4},{"trial_n":24,"span":14,"encoder":"10828837080427","distractor":"10828837080487","target":"absent","response":"absent","rt":"2700.099999994","correct":true,"confidence":5},{"trial_n":25,"span":14,"encoder":"31130075690094","distractor":"31130078690094","target":"present","response":"present","rt":"9574.799999997","correct":true,"confidence":3},{"trial_n":26,"span":15,"encoder":"918271336721474","distractor":"988271336721474","target":"absent","response":"present","rt":"4545.5","correct":false,"confidence":3},{"trial_n":27,"span":14,"encoder":"73781028114815","distractor":"73581028114815","target":"absent","response":"present","rt":"7207.5","correct":false,"confidence":3},{"trial_n":28,"span":13,"encoder":"2703920802624","distractor":"2703920902624","target":"present","response":"present","rt":"3933.099999994","correct":true,"confidence":4},{"trial_n":29,"span":13,"encoder":"8701332411950","distractor":"8901332411950","target":"present","response":"present","rt":"2992.200000003","correct":true,"confidence":5},{"trial_n":30,"span":14,"encoder":"58697203435834","distractor":"58697203435434","target":"absent","response":"present","rt":"3465.799999997","correct":false,"confidence":4},{"trial_n":31,"span":13,"encoder":"3002520377883","distractor":"3002520377880","target":"absent","response":"absent","rt":"2680.6000000089","correct":true,"confidence":4},{"trial_n":32,"span":13,"encoder":"6907616128813","distractor":"6907216128813","target":"present","response":"present","rt":"3209.1000000089","correct":true,"confidence":5},{"trial_n":33,"span":14,"encoder":"16731922371426","distractor":"16731952371426","target":"absent","response":"present","rt":"5049","correct":false,"confidence":5},{"trial_n":34,"span":13,"encoder":"4097747492772","distractor":"4097746492772","target":"absent","response":"present","rt":"2572","correct":false,"confidence":5},{"trial_n":35,"span":12,"encoder":"326576912358","distractor":"326596912358","target":"absent","response":"present","rt":"5948.200000003","correct":false,"confidence":4},{"trial_n":36,"span":11,"encoder":"06104560928","distractor":"06104560528","target":"present","response":"absent","rt":"4250.900000006","correct":false,"confidence":5},{"trial_n":37,"span":10,"encoder":"4404766433","distractor":"4404766423","target":"present","response":"absent","rt":"3300.6000000089","correct":false,"confidence":4},{"trial_n":38,"span":9,"encoder":"847971730","distractor":"847571730","target":"present","response":"present","rt":"4453.400000006","correct":true,"confidence":3},{"trial_n":39,"span":9,"encoder":"052734094","distractor":"052734096","target":"absent","response":"absent","rt":"1955.799999997","correct":true,"confidence":5},{"trial_n":40,"span":10,"encoder":"1807525405","distractor":"1807529405","target":"absent","response":"present","rt":"3152","correct":false,"confidence":3},{"trial_n":41,"span":9,"encoder":"611931811","distractor":"611931815","target":"present","response":"absent","rt":"2522.5","correct":false,"confidence":4},{"trial_n":42,"span":8,"encoder":"60482176","distractor":"00482176","target":"present","response":"present","rt":"2978.200000003","correct":true,"confidence":4},{"trial_n":43,"span":8,"encoder":"49422058","distractor":"40422058","target":"present","response":"present","rt":"2719.200000003","correct":true,"confidence":5},{"trial_n":44,"span":9,"encoder":"139766291","distractor":"139726291","target":"absent","response":"present","rt":"3910.5","correct":false,"confidence":3},{"trial_n":45,"span":8,"encoder":"57416534","distractor":"57476534","target":"absent","response":"present","rt":"4302.700000003","correct":false,"confidence":4},{"trial_n":46,"span":7,"encoder":"6674396","distractor":"6674346","target":"absent","response":"absent","rt":"4049.5","correct":true,"confidence":3},{"trial_n":47,"span":7,"encoder":"4095058","distractor":"4095048","target":"present","response":"present","rt":"2653.099999994","correct":true,"confidence":5},{"trial_n":48,"span":8,"encoder":"11042658","distractor":"11092658","target":"present","response":"absent","rt":"5742.6999999881","correct":false,"confidence":3},{"trial_n":49,"span":7,"encoder":"6915597","distractor":"6915577","target":"present","response":"present","rt":"9109.1000000089","correct":true,"confidence":3},{"trial_n":50,"span":7,"encoder":"7042822","distractor":"7032822","target":"present","response":"present","rt":"2405.299999997","correct":true,"confidence":5},{"trial_n":51,"span":8,"encoder":"60993746","distractor":"10993746","target":"present","response":"present","rt":"2260.6999999881","correct":true,"confidence":4},{"trial_n":52,"span":8,"encoder":"70066929","distractor":"70066939","target":"present","response":"present","rt":"3663.6000000089","correct":true,"confidence":4},{"trial_n":53,"span":9,"encoder":"829497576","distractor":"829497276","target":"absent","response":"absent","rt":"2738.400000006","correct":true,"confidence":4},{"trial_n":54,"span":9,"encoder":"214346356","distractor":"214846356","target":"absent","response":"present","rt":"2894.700000003","correct":false,"confidence":4},{"trial_n":55,"span":8,"encoder":"37435223","distractor":"37439223","target":"present","response":"present","rt":"2169.200000003","correct":true,"confidence":5},{"trial_n":56,"span":8,"encoder":"79459188","distractor":"79459288","target":"absent","response":"absent","rt":"6359.799999997","correct":true,"confidence":4},{"trial_n":57,"span":9,"encoder":"184173918","distractor":"884173918","target":"absent","response":"present","rt":"2956.299999997","correct":false,"confidence":4},{"trial_n":58,"span":8,"encoder":"74980431","distractor":"74180431","target":"present","response":"present","rt":"2396.5","correct":true,"confidence":3},{"trial_n":59,"span":8,"encoder":"90897852","distractor":"90297852","target":"present","response":"present","rt":"3383.400000006","correct":true,"confidence":3},{"trial_n":60,"span":9,"encoder":"795296651","distractor":"795796651","target":"absent","response":"absent","rt":"2672.5","correct":true,"confidence":3},{"trial_n":61,"span":9,"encoder":"373141629","distractor":"373741629","target":"present","response":"present","rt":"2170.5","correct":true,"confidence":4},{"trial_n":62,"span":10,"encoder":"5306070309","distractor":"5306070109","target":"present","response":"present","rt":"2312.5","correct":true,"confidence":5},{"trial_n":63,"span":10,"encoder":"5166905724","distractor":"8166905724","target":"present","response":"present","rt":"2503.200000003","correct":true,"confidence":4},{"trial_n":64,"span":11,"encoder":"79703281172","distractor":"79703241172","target":"present","response":"present","rt":"2506.5","correct":true,"confidence":4},{"trial_n":65,"span":11,"encoder":"65977424420","distractor":"65977434420","target":"absent","response":"absent","rt":"5117.6000000089","correct":true,"confidence":5},{"trial_n":66,"span":12,"encoder":"018162483281","distractor":"018162463281","target":"absent","response":"present","rt":"7986.400000006","correct":false,"confidence":3},{"trial_n":67,"span":11,"encoder":"35487539202","distractor":"33487539202","target":"absent","response":"absent","rt":"5275.700000003","correct":true,"confidence":3},{"trial_n":68,"span":11,"encoder":"01497056168","distractor":"03497056168","target":"present","response":"present","rt":"5092.5","correct":true,"confidence":3},{"trial_n":69,"span":12,"encoder":"036605027049","distractor":"036605097049","target":"present","response":"present","rt":"5482.3999999911","correct":true,"confidence":3},{"trial_n":70,"span":12,"encoder":"329804659532","distractor":"329804659632","target":"absent","response":"absent","rt":"3416.200000003","correct":true,"confidence":5},{"trial_n":71,"span":8,"encoder":"34858134","distractor":"34858334","target":"present","response":"present","rt":"10537.799999997","correct":true,"confidence":-1},{"trial_n":72,"span":8,"encoder":"09558508","distractor":"00558508","target":"present","response":"present","rt":"2784.900000006","correct":true,"confidence":-1},{"trial_n":73,"span":9,"encoder":"467221765","distractor":"467228765","target":"absent","response":"absent","rt":"4190.799999997","correct":true,"confidence":-1},{"trial_n":74,"span":9,"encoder":"497043392","distractor":"497041392","target":"absent","response":"absent","rt":"3854.599999994","correct":true,"confidence":-1},{"trial_n":75,"span":10,"encoder":"1452470220","distractor":"1452478220","target":"present","response":"present","rt":"8851","correct":true,"confidence":-1},{"trial_n":76,"span":10,"encoder":"3153704667","distractor":"3153704677","target":"present","response":"present","rt":"13194.299999997","correct":true,"confidence":-1},{"trial_n":77,"span":11,"encoder":"30184779876","distractor":"30184770876","target":"absent","response":"present","rt":"6908.6000000089","correct":false,"confidence":-1},{"trial_n":78,"span":10,"encoder":"5065313726","distractor":"5065313756","target":"present","response":"present","rt":"3696.1000000089","correct":true,"confidence":-1},{"trial_n":79,"span":10,"encoder":"6236297362","distractor":"5236297362","target":"absent","response":"absent","rt":"1954.6000000089","correct":true,"confidence":-1},{"trial_n":80,"span":11,"encoder":"38470952215","distractor":"34470952215","target":"absent","response":"absent","rt":"3707","correct":true,"confidence":-1},{"trial_n":81,"span":11,"encoder":"12730633384","distractor":"12730733384","target":"present","response":"absent","rt":"11443","correct":false,"confidence":-1},{"trial_n":82,"span":10,"encoder":"4216618689","distractor":"4211618689","target":"absent","response":"absent","rt":"5294.799999997","correct":true,"confidence":-1},{"trial_n":83,"span":10,"encoder":"7018969456","distractor":"7018769456","target":"present","response":"absent","rt":"3879.099999994","correct":false,"confidence":-1},{"trial_n":84,"span":9,"encoder":"735399909","distractor":"733399909","target":"present","response":"present","rt":"4134.799999997","correct":true,"confidence":-1},{"trial_n":85,"span":9,"encoder":"781581190","distractor":"781581150","target":"absent","response":"absent","rt":"2268.1000000089","correct":true,"confidence":-1},{"trial_n":86,"span":10,"encoder":"7012354173","distractor":"7012454173","target":"absent","response":"absent","rt":"4001.8999999911","correct":true,"confidence":-1},{"trial_n":87,"span":10,"encoder":"2160182821","distractor":"2960182821","target":"present","response":"present","rt":"2943.1000000089","correct":true,"confidence":-1},{"trial_n":88,"span":11,"encoder":"44523419993","distractor":"44523415993","target":"absent","response":"present","rt":"9729.099999994","correct":false,"confidence":-1},{"trial_n":89,"span":10,"encoder":"9215506599","distractor":"9215504599","target":"absent","response":"absent","rt":"4194.6000000089","correct":true,"confidence":-1},{"trial_n":90,"span":10,"encoder":"1913069762","distractor":"1943069762","target":"present","response":"present","rt":"3422","correct":true,"confidence":-1},{"trial_n":91,"span":11,"encoder":"60571521603","distractor":"30571521603","target":"present","response":"absent","rt":"5300.6000000089","correct":false,"confidence":5},{"trial_n":92,"span":10,"encoder":"7935973933","distractor":"7635973933","target":"absent","response":"present","rt":"10104.799999997","correct":false,"confidence":3},{"trial_n":93,"span":9,"encoder":"417252913","distractor":"417252933","target":"present","response":"present","rt":"3449.3999999911","correct":true,"confidence":3},{"trial_n":94,"span":9,"encoder":"150644086","distractor":"150644083","target":"absent","response":"absent","rt":"2177.5","correct":true,"confidence":5},{"trial_n":95,"span":10,"encoder":"8209259017","distractor":"8229259017","target":"present","response":"present","rt":"3594","correct":true,"confidence":5},{"trial_n":96,"span":10,"encoder":"0293394377","distractor":"0293334377","target":"present","response":"present","rt":"4510.799999997","correct":true,"confidence":3},{"trial_n":97,"span":11,"encoder":"13579220756","distractor":"33579220756","target":"absent","response":"absent","rt":"3336.599999994","correct":true,"confidence":5},{"trial_n":98,"span":11,"encoder":"52910180551","distractor":"52910150551","target":"present","response":"absent","rt":"6184","correct":false,"confidence":4},{"trial_n":99,"span":10,"encoder":"2619649694","distractor":"2519649694","target":"present","response":"present","rt":"3717.299999997","correct":true,"confidence":5},{"trial_n":100,"span":10,"encoder":"9304729516","distractor":"9304729576","target":"present","response":"present","rt":"2887.8999999911","correct":true,"confidence":5},{"trial_n":101,"span":11,"encoder":"01915690953","distractor":"11915690953","target":"absent","response":"absent","rt":"2833.700000003","correct":true,"confidence":4},{"trial_n":102,"span":11,"encoder":"01723050342","distractor":"06723050342","target":"present","response":"present","rt":"2392.5","correct":true,"confidence":5},{"trial_n":103,"span":12,"encoder":"513819824938","distractor":"513819829938","target":"present","response":"present","rt":"3038.799999997","correct":true,"confidence":5},{"trial_n":104,"span":12,"encoder":"106726151940","distractor":"106726151943","target":"absent","response":"absent","rt":"1986.799999997","correct":true,"confidence":5},{"trial_n":105,"span":13,"encoder":"2903230422305","distractor":"2905230422305","target":"absent","response":"present","rt":"6860.599999994","correct":false,"confidence":2},{"trial_n":106,"span":12,"encoder":"750992776515","distractor":"750992778515","target":"present","response":"present","rt":"8412.6000000089","correct":true,"confidence":4},{"trial_n":107,"span":12,"encoder":"670587262411","distractor":"670581262411","target":"present","response":"present","rt":"8397.799999997","correct":true,"confidence":2},{"trial_n":108,"span":13,"encoder":"2006228227823","distractor":"2006278227823","target":"present","response":"present","rt":"4875.299999997","correct":true,"confidence":3},{"trial_n":109,"span":13,"encoder":"5129360981201","distractor":"5129367981201","target":"absent","response":"absent","rt":"5391.1000000089","correct":true,"confidence":2},{"trial_n":110,"span":14,"encoder":"95508422261426","distractor":"95508482261426","target":"present","response":"present","rt":"18543.700000003","correct":true,"confidence":5},{"trial_n":111,"span":14,"encoder":"02324280839961","distractor":"02325280839961","target":"present","response":"present","rt":"5642.8999999911","correct":true,"confidence":2},{"trial_n":112,"span":15,"encoder":"801113749879287","distractor":"801113749879587","target":"present","response":"present","rt":"8337","correct":true,"confidence":3},{"trial_n":113,"span":15,"encoder":"444427938855978","distractor":"444527938855978","target":"absent","response":"absent","rt":"13694","correct":true,"confidence":3},{"trial_n":114,"span":16,"encoder":"3036908280431549","distractor":"3036908780431549","target":"present","response":"absent","rt":"6568.299999997","correct":false,"confidence":3},{"trial_n":115,"span":15,"encoder":"055040836301619","distractor":"055040856301619","target":"absent","response":"present","rt":"5225.900000006","correct":false,"confidence":3},{"trial_n":116,"span":14,"encoder":"19139238956302","distractor":"39139238956302","target":"absent","response":"present","rt":"3551.1999999881","correct":false,"confidence":2},{"trial_n":117,"span":13,"encoder":"2652168720718","distractor":"2655168720718","target":"present","response":"present","rt":"3723.799999997","correct":true,"confidence":3},{"trial_n":118,"span":13,"encoder":"3215685301928","distractor":"3215685801928","target":"present","response":"present","rt":"7633.099999994","correct":true,"confidence":2},{"trial_n":119,"span":14,"encoder":"00289686438994","distractor":"00289686438997","target":"absent","response":"absent","rt":"4075.799999997","correct":true,"confidence":2},{"trial_n":120,"span":14,"encoder":"89774074160662","distractor":"89774074160664","target":"absent","response":"absent","rt":"2337.900000006","correct":true,"confidence":4},{"trial_n":121,"span":15,"encoder":"235493962863503","distractor":"235493962863533","target":"absent","response":"absent","rt":"3212.200000003","correct":true,"confidence":5},{"trial_n":122,"span":15,"encoder":"170593801471177","distractor":"178593801471177","target":"present","response":"present","rt":"6783.099999994","correct":true,"confidence":3},{"trial_n":123,"span":16,"encoder":"0066184615134159","distractor":"0066184655134159","target":"absent","response":"present","rt":"10111.5","correct":false,"confidence":3},{"trial_n":124,"span":15,"encoder":"038350930812222","distractor":"038350930814222","target":"present","response":"absent","rt":"2016","correct":false,"confidence":4},{"trial_n":125,"span":14,"encoder":"43475231210129","distractor":"43475331210129","target":"absent","response":"absent","rt":"7150.799999997","correct":true,"confidence":3},{"trial_n":126,"span":14,"encoder":"28320695121869","distractor":"28320697121869","target":"absent","response":"present","rt":"9225.799999997","correct":false,"confidence":3},{"trial_n":127,"span":13,"encoder":"7237588940183","distractor":"7231588940183","target":"absent","response":"absent","rt":"6167.400000006","correct":true,"confidence":3},{"trial_n":128,"span":13,"encoder":"5573656226980","distractor":"5573656222980","target":"present","response":"present","rt":"3379","correct":true,"confidence":4},{"trial_n":129,"span":14,"encoder":"66520369025464","distractor":"66520369225464","target":"absent","response":"absent","rt":"8649.400000006","correct":true,"confidence":5},{"trial_n":130,"span":14,"encoder":"48315513737837","distractor":"48315523737837","target":"absent","response":"absent","rt":"6343","correct":true,"confidence":3},{"trial_n":131,"span":15,"encoder":"264354741301753","distractor":"264454741301753","target":"present","response":"present","rt":"5947.5","correct":true,"confidence":3},{"trial_n":132,"span":15,"encoder":"009309801814853","distractor":"007309801814853","target":"present","response":"present","rt":"2908.299999997","correct":true,"confidence":4},{"trial_n":133,"span":16,"encoder":"4860925861360930","distractor":"4860945861360930","target":"absent","response":"present","rt":"7813.8999999911","correct":false,"confidence":3},{"trial_n":134,"span":15,"encoder":"712911826339241","distractor":"712911826339641","target":"present","response":"present","rt":"11516.5","correct":true,"confidence":3},{"trial_n":135,"span":15,"encoder":"198058893943120","distractor":"118058893943120","target":"present","response":"present","rt":"3567.5","correct":true,"confidence":4},{"trial_n":136,"span":16,"encoder":"1323795542936916","distractor":"1353795542936916","target":"present","response":"present","rt":"7038.799999997","correct":true,"confidence":2},{"trial_n":137,"span":16,"encoder":"7491545720941663","distractor":"7491545720941664","target":"absent","response":"absent","rt":"2513.799999997","correct":true,"confidence":5},{"trial_n":138,"span":17,"encoder":"57787767553776199","distractor":"57787767553776799","target":"absent","response":"present","rt":"32164.900000006","correct":false,"confidence":3},{"trial_n":139,"span":16,"encoder":"5484086723347030","distractor":"5474086723347030","target":"absent","response":"present","rt":"5172","correct":false,"confidence":2},{"trial_n":140,"span":15,"encoder":"025107266907753","distractor":"015107266907753","target":"absent","response":"absent","rt":"5676.700000003","correct":true,"confidence":2}]