[{"trial_n":1,"span":8,"encoder":"91376214","distractor":"01376214","target":"present","response":"absent","rt":"3724.5","correct":false,"confidence":-1},{"trial_n":2,"span":6,"encoder":"673903","distractor":"679903","target":"present","response":"present","rt":"4639.7999999523","correct":true,"confidence":-1},{"trial_n":3,"span":6,"encoder":"365439","distractor":"395439","target":"absent","response":"absent","rt":"2262.5999999046","correct":true,"confidence":-1},{"trial_n":4,"span":8,"encoder":"21245095","distractor":"21245085","target":"absent","response":"absent","rt":"2800.0999999046","correct":true,"confidence":-1},{"trial_n":5,"span":8,"encoder":"75089967","distractor":"75089467","target":"present","response":"present","rt":"2743.7000000477","correct":true,"confidence":-1},{"trial_n":6,"span":10,"encoder":"0267516558","distractor":"0867516558","target":"present","response":"present","rt":"3180.3999999762","correct":true,"confidence":-1},{"trial_n":7,"span":10,"encoder":"6101034953","distractor":"6101034053","target":"absent","response":"absent","rt":"3117.2000000477","correct":true,"confidence":-1},{"trial_n":8,"span":12,"encoder":"613992978297","distractor":"613992918297","target":"present","response":"present","rt":"2903.8999999762","correct":true,"confidence":-1},{"trial_n":9,"span":12,"encoder":"435858313808","distractor":"235858313808","target":"present","response":"present","rt":"2491.3000000715","correct":true,"confidence":-1},{"trial_n":10,"span":14,"encoder":"38365980015509","distractor":"38365982015509","target":"absent","response":"present","rt":"2614.3999999762","correct":false,"confidence":-1},{"trial_n":11,"span":12,"encoder":"936836131678","distractor":"736836131678","target":"absent","response":"present","rt":"2820.2000000477","correct":false,"confidence":-1},{"trial_n":12,"span":11,"encoder":"93490877150","distractor":"93490577150","target":"present","response":"absent","rt":"3682","correct":false,"confidence":-1},{"trial_n":13,"span":10,"encoder":"0083003345","distractor":"0086003345","target":"present","response":"present","rt":"1752.5","correct":true,"confidence":-1},{"trial_n":14,"span":10,"encoder":"7453010706","distractor":"7453010716","target":"present","response":"present","rt":"3148.6000000238","correct":true,"confidence":-1},{"trial_n":15,"span":11,"encoder":"90013673211","distractor":"90013623211","target":"absent","response":"present","rt":"1880","correct":false,"confidence":-1},{"trial_n":16,"span":10,"encoder":"3373448865","distractor":"6373448865","target":"absent","response":"present","rt":"3611.6000000238","correct":false,"confidence":-1},{"trial_n":17,"span":9,"encoder":"964365287","distractor":"964365283","target":"present","response":"present","rt":"1795.1999999285","correct":true,"confidence":-1},{"trial_n":18,"span":9,"encoder":"410427962","distractor":"410427902","target":"absent","response":"present","rt":"2760.6000000238","correct":false,"confidence":-1},{"trial_n":19,"span":8,"encoder":"79567180","distractor":"79527180","target":"absent","response":"present","rt":"2655","correct":false,"confidence":-1},{"trial_n":20,"span":7,"encoder":"4411832","distractor":"4111832","target":"present","response":"absent","rt":"2355","correct":false,"confidence":-1},{"trial_n":21,"span":6,"encoder":"043359","distractor":"043759","target":"absent","response":"absent","rt":"2146.3000000715","correct":true,"confidence":4},{"trial_n":22,"span":6,"encoder":"343454","distractor":"343414","target":"present","response":"present","rt":"2564.7999999523","correct":true,"confidence":4},{"trial_n":23,"span":7,"encoder":"9162106","distractor":"9162196","target":"present","response":"absent","rt":"4202","correct":false,"confidence":2},{"trial_n":24,"span":6,"encoder":"143706","distractor":"149706","target":"absent","response":"absent","rt":"2430.2999999523","correct":true,"confidence":3},{"trial_n":25,"span":6,"encoder":"620502","distractor":"620562","target":"present","response":"absent","rt":"2376.6999999285","correct":false,"confidence":3},{"trial_n":26,"span":5,"encoder":"00184","distractor":"00194","target":"present","response":"absent","rt":"2198.7000000477","correct":false,"confidence":2},{"trial_n":27,"span":4,"encoder":"2874","distractor":"2876","target":"absent","response":"absent","rt":"2244.2000000477","correct":true,"confidence":4},{"trial_n":28,"span":4,"encoder":"9107","distractor":"9187","target":"absent","response":"absent","rt":"3033.7999999523","correct":true,"confidence":3},{"trial_n":29,"span":5,"encoder":"87662","distractor":"47662","target":"absent","response":"absent","rt":"2734.6000000238","correct":true,"confidence":3},{"trial_n":30,"span":5,"encoder":"65483","distractor":"69483","target":"present","response":"absent","rt":"2954.3999999762","correct":false,"confidence":3},{"trial_n":31,"span":4,"encoder":"5504","distractor":"4504","target":"absent","response":"absent","rt":"2585","correct":true,"confidence":4},{"trial_n":32,"span":4,"encoder":"3670","distractor":"3650","target":"absent","response":"absent","rt":"3104.7000000477","correct":true,"confidence":4},{"trial_n":33,"span":5,"encoder":"07234","distractor":"77234","target":"present","response":"present","rt":"2660.7999999523","correct":true,"confidence":4},{"trial_n":34,"span":5,"encoder":"24412","distractor":"04412","target":"present","response":"present","rt":"1871.7000000477","correct":true,"confidence":4},{"trial_n":35,"span":6,"encoder":"382177","distractor":"382077","target":"absent","response":"present","rt":"2558.3999999762","correct":false,"confidence":3},{"trial_n":36,"span":5,"encoder":"31070","distractor":"31075","target":"present","response":"present","rt":"1824.5","correct":true,"confidence":4},{"trial_n":37,"span":5,"encoder":"97809","distractor":"97309","target":"absent","response":"absent","rt":"1855.8999999762","correct":true,"confidence":4},{"trial_n":38,"span":6,"encoder":"443878","distractor":"453878","target":"present","response":"present","rt":"2106.6000000238","correct":true,"confidence":4},{"trial_n":39,"span":6,"encoder":"242078","distractor":"242098","target":"absent","response":"absent","rt":"2307.5","correct":true,"confidence":4},{"trial_n":40,"span":7,"encoder":"0436137","distractor":"3436137","target":"absent","response":"absent","rt":"2182","correct":true,"confidence":3},{"trial_n":41,"span":7,"encoder":"7415280","distractor":"7415880","target":"absent","response":"absent","rt":"2743.1999999285","correct":true,"confidence":3},{"trial_n":42,"span":8,"encoder":"84852788","distractor":"84851788","target":"present","response":"present","rt":"3857.7999999523","correct":true,"confidence":3},{"trial_n":43,"span":8,"encoder":"09969072","distractor":"09963072","target":"present","response":"present","rt":"2944.8999999762","correct":true,"confidence":2},{"trial_n":44,"span":9,"encoder":"183357453","distractor":"183357053","target":"absent","response":"present","rt":"1696.2000000477","correct":false,"confidence":2},{"trial_n":45,"span":8,"encoder":"33415803","distractor":"33485803","target":"present","response":"present","rt":"2524.2999999523","correct":true,"confidence":3},{"trial_n":46,"span":8,"encoder":"18835784","distractor":"18835789","target":"absent","response":"absent","rt":"1948.2999999523","correct":true,"confidence":3},{"trial_n":47,"span":9,"encoder":"359523959","distractor":"359553959","target":"absent","response":"absent","rt":"4711.5","correct":true,"confidence":4},{"trial_n":48,"span":9,"encoder":"809602933","distractor":"809605933","target":"present","response":"absent","rt":"4062.1000000238","correct":false,"confidence":2},{"trial_n":49,"span":8,"encoder":"18246596","distractor":"18206596","target":"present","response":"present","rt":"3670.1000000238","correct":true,"confidence":2},{"trial_n":50,"span":8,"encoder":"95858512","distractor":"95850512","target":"absent","response":"absent","rt":"2169.5","correct":true,"confidence":3},{"trial_n":51,"span":9,"encoder":"523023452","distractor":"521023452","target":"present","response":"present","rt":"3565.6999999285","correct":true,"confidence":3},{"trial_n":52,"span":9,"encoder":"135997429","distractor":"135997479","target":"present","response":"present","rt":"1960.4000000954","correct":true,"confidence":3},{"trial_n":53,"span":10,"encoder":"2800922858","distractor":"2800922850","target":"present","response":"present","rt":"3236.5","correct":true,"confidence":3},{"trial_n":54,"span":10,"encoder":"8297740766","distractor":"8297750766","target":"absent","response":"present","rt":"3462","correct":false,"confidence":3},{"trial_n":55,"span":9,"encoder":"580162308","distractor":"580166308","target":"present","response":"absent","rt":"2872.2000000477","correct":false,"confidence":3},{"trial_n":56,"span":8,"encoder":"92033030","distractor":"92063030","target":"present","response":"present","rt":"3116.3000000715","correct":true,"confidence":3},{"trial_n":57,"span":8,"encoder":"36240104","distractor":"36240004","target":"absent","response":"absent","rt":"2704.7000000477","correct":true,"confidence":3},{"trial_n":58,"span":9,"encoder":"921528444","distractor":"925528444","target":"absent","response":"present","rt":"2405.6999999285","correct":false,"confidence":3},{"trial_n":59,"span":8,"encoder":"27996535","distractor":"67996535","target":"absent","response":"absent","rt":"4662.7000000477","correct":true,"confidence":4},{"trial_n":60,"span":8,"encoder":"60961250","distractor":"66961250","target":"absent","response":"absent","rt":"4510.2999999523","correct":true,"confidence":3},{"trial_n":61,"span":9,"encoder":"339841275","distractor":"339851275","target":"present","response":"present","rt":"3887.7999999523","correct":true,"confidence":3},{"trial_n":62,"span":9,"encoder":"837721387","distractor":"833721387","target":"present","response":"present","rt":"2543.3999999762","correct":true,"confidence":3},{"trial_n":63,"span":10,"encoder":"5732589759","distractor":"5702589759","target":"present","response":"present","rt":"1902","correct":true,"confidence":3},{"trial_n":64,"span":10,"encoder":"6767556366","distractor":"6737556366","target":"present","response":"present","rt":"2898.7999999523","correct":true,"confidence":3},{"trial_n":65,"span":11,"encoder":"93145731802","distractor":"93142731802","target":"absent","response":"present","rt":"3682.1999999285","correct":false,"confidence":3},{"trial_n":66,"span":10,"encoder":"6308545311","distractor":"6308545319","target":"absent","response":"absent","rt":"3712.6000000238","correct":true,"confidence":3},{"trial_n":67,"span":10,"encoder":"2959111191","distractor":"2959111111","target":"present","response":"present","rt":"2625.7999999523","correct":true,"confidence":3},{"trial_n":68,"span":11,"encoder":"61560870515","distractor":"61560270515","target":"absent","response":"present","rt":"3182.6000000238","correct":false,"confidence":3},{"trial_n":69,"span":10,"encoder":"7444384291","distractor":"7444384791","target":"present","response":"present","rt":"5326.5","correct":true,"confidence":3},{"trial_n":70,"span":10,"encoder":"1485741900","distractor":"1486741900","target":"absent","response":"absent","rt":"4327.8999999762","correct":true,"confidence":3},{"trial_n":71,"span":8,"encoder":"58292115","distractor":"58292116","target":"present","response":"present","rt":"3645.1000000238","correct":true,"confidence":-1},{"trial_n":72,"span":8,"encoder":"98572671","distractor":"92572671","target":"present","response":"absent","rt":"2980.2000000477","correct":false,"confidence":-1},{"trial_n":73,"span":7,"encoder":"5780294","distractor":"5780297","target":"absent","response":"absent","rt":"2098.3999999762","correct":true,"confidence":-1},{"trial_n":74,"span":7,"encoder":"3246043","distractor":"3247043","target":"absent","response":"present","rt":"2719.8999999762","correct":false,"confidence":-1},{"trial_n":75,"span":6,"encoder":"209531","distractor":"209561","target":"present","response":"present","rt":"4483.8000000715","correct":true,"confidence":-1},{"trial_n":76,"span":6,"encoder":"793285","distractor":"793485","target":"present","response":"present","rt":"4600","correct":true,"confidence":-1},{"trial_n":77,"span":7,"encoder":"6837657","distractor":"6887657","target":"absent","response":"absent","rt":"2072.3000000715","correct":true,"confidence":-1},{"trial_n":78,"span":7,"encoder":"6162919","distractor":"6161919","target":"present","response":"present","rt":"3408","correct":true,"confidence":-1},{"trial_n":79,"span":8,"encoder":"36509176","distractor":"33509176","target":"absent","response":"absent","rt":"2408.7999999523","correct":true,"confidence":-1},{"trial_n":80,"span":8,"encoder":"33279577","distractor":"63279577","target":"present","response":"present","rt":"3426.2999999523","correct":true,"confidence":-1},{"trial_n":81,"span":9,"encoder":"718828625","distractor":"718828675","target":"present","response":"present","rt":"4086.5999999046","correct":true,"confidence":-1},{"trial_n":82,"span":9,"encoder":"601259009","distractor":"601259809","target":"present","response":"absent","rt":"3168.8999999762","correct":false,"confidence":-1},{"trial_n":83,"span":8,"encoder":"83385076","distractor":"83389076","target":"present","response":"present","rt":"4360.1000000238","correct":true,"confidence":-1},{"trial_n":84,"span":8,"encoder":"35735467","distractor":"35935467","target":"absent","response":"present","rt":"3961.8999999762","correct":false,"confidence":-1},{"trial_n":85,"span":7,"encoder":"0462460","distractor":"0482460","target":"absent","response":"present","rt":"3519.3000000715","correct":false,"confidence":-1},{"trial_n":86,"span":6,"encoder":"811415","distractor":"811425","target":"absent","response":"absent","rt":"3223.3000000715","correct":true,"confidence":-1},{"trial_n":87,"span":6,"encoder":"649444","distractor":"649449","target":"absent","response":"present","rt":"4976.6999999285","correct":false,"confidence":-1},{"trial_n":88,"span":5,"encoder":"18387","distractor":"88387","target":"present","response":"present","rt":"2347.2999999523","correct":true,"confidence":-1},{"trial_n":89,"span":5,"encoder":"67239","distractor":"67229","target":"present","response":"present","rt":"1886","correct":true,"confidence":-1},{"trial_n":90,"span":6,"encoder":"849824","distractor":"849829","target":"absent","response":"absent","rt":"2114.6000000238","correct":true,"confidence":-1},{"trial_n":91,"span":6,"encoder":"744812","distractor":"742812","target":"present","response":"present","rt":"3451.2000000477","correct":true,"confidence":3},{"trial_n":92,"span":7,"encoder":"5019011","distractor":"5019061","target":"absent","response":"absent","rt":"3178.8999999762","correct":true,"confidence":4},{"trial_n":93,"span":7,"encoder":"8061385","distractor":"8061383","target":"present","response":"present","rt":"3310.6999999285","correct":true,"confidence":3},{"trial_n":94,"span":8,"encoder":"00077155","distractor":"00977155","target":"present","response":"present","rt":"3814","correct":true,"confidence":4},{"trial_n":95,"span":8,"encoder":"83411249","distractor":"83415249","target":"absent","response":"absent","rt":"2312.2000000477","correct":true,"confidence":3},{"trial_n":96,"span":9,"encoder":"132495450","distractor":"136495450","target":"present","response":"absent","rt":"4502.6999999285","correct":false,"confidence":2},{"trial_n":97,"span":8,"encoder":"40309308","distractor":"40309304","target":"absent","response":"absent","rt":"4179.6000000238","correct":true,"confidence":3},{"trial_n":98,"span":8,"encoder":"52957953","distractor":"42957953","target":"absent","response":"absent","rt":"2413","correct":true,"confidence":3},{"trial_n":99,"span":9,"encoder":"106897216","distractor":"106898216","target":"present","response":"present","rt":"8082.7000000477","correct":true,"confidence":2},{"trial_n":100,"span":9,"encoder":"871675431","distractor":"871075431","target":"present","response":"present","rt":"5194.5","correct":true,"confidence":3},{"trial_n":101,"span":10,"encoder":"4122856227","distractor":"4122856727","target":"present","response":"present","rt":"3808.8999999762","correct":true,"confidence":3},{"trial_n":102,"span":10,"encoder":"0973936628","distractor":"0973937628","target":"absent","response":"absent","rt":"2479.6999999285","correct":true,"confidence":4},{"trial_n":103,"span":11,"encoder":"33495196559","distractor":"33495196554","target":"absent","response":"absent","rt":"5876","correct":true,"confidence":3},{"trial_n":104,"span":11,"encoder":"02327783630","distractor":"02327789630","target":"absent","response":"absent","rt":"4970.8999999762","correct":true,"confidence":3},{"trial_n":105,"span":12,"encoder":"028301017066","distractor":"028301017060","target":"absent","response":"present","rt":"2578","correct":false,"confidence":3},{"trial_n":106,"span":11,"encoder":"73887529761","distractor":"73889529761","target":"present","response":"present","rt":"2076.7999999523","correct":true,"confidence":2},{"trial_n":107,"span":11,"encoder":"04282689288","distractor":"04282689268","target":"present","response":"present","rt":"3097.3000000715","correct":true,"confidence":4},{"trial_n":108,"span":12,"encoder":"983916910021","distractor":"983912910021","target":"absent","response":"absent","rt":"4995.0999999046","correct":true,"confidence":3},{"trial_n":109,"span":12,"encoder":"353754800088","distractor":"353754807088","target":"present","response":"present","rt":"2515.3999999762","correct":true,"confidence":3},{"trial_n":110,"span":13,"encoder":"8749226146364","distractor":"8749226106364","target":"present","response":"absent","rt":"4409.2999999523","correct":false,"confidence":2},{"trial_n":111,"span":12,"encoder":"492933023309","distractor":"492933023369","target":"absent","response":"absent","rt":"4076.8999999762","correct":true,"confidence":3},{"trial_n":112,"span":12,"encoder":"068126456792","distractor":"068123456792","target":"present","response":"present","rt":"4552.8000000715","correct":true,"confidence":3},{"trial_n":113,"span":13,"encoder":"0708214798755","distractor":"0708217798755","target":"absent","response":"absent","rt":"5070.5","correct":true,"confidence":3},{"trial_n":114,"span":13,"encoder":"8888713628454","distractor":"8888713628450","target":"absent","response":"absent","rt":"5172","correct":true,"confidence":3},{"trial_n":115,"span":14,"encoder":"92297399588716","distractor":"92297499588716","target":"absent","response":"absent","rt":"15077.299999952","correct":true,"confidence":2},{"trial_n":116,"span":14,"encoder":"71829606283496","distractor":"71829906283496","target":"absent","response":"absent","rt":"3793.3999999762","correct":true,"confidence":2},{"trial_n":117,"span":15,"encoder":"807582806092574","distractor":"807582826092574","target":"absent","response":"absent","rt":"4031.5","correct":true,"confidence":2},{"trial_n":118,"span":15,"encoder":"168767273287180","distractor":"168767273087180","target":"present","response":"absent","rt":"4814.7999999523","correct":false,"confidence":2},{"trial_n":119,"span":14,"encoder":"35968051600006","distractor":"75968051600006","target":"present","response":"present","rt":"5550.3999999762","correct":true,"confidence":2},{"trial_n":120,"span":14,"encoder":"39776170653424","distractor":"39776170655424","target":"present","response":"absent","rt":"8292.3999999762","correct":false,"confidence":2},{"trial_n":121,"span":13,"encoder":"9417241384316","distractor":"9417241084316","target":"absent","response":"present","rt":"4372.2000000477","correct":false,"confidence":2},{"trial_n":122,"span":12,"encoder":"765459686523","distractor":"765459686528","target":"present","response":"present","rt":"1904.8999999762","correct":true,"confidence":4},{"trial_n":123,"span":12,"encoder":"041359243409","distractor":"041359243509","target":"present","response":"absent","rt":"2520.5","correct":false,"confidence":3},{"trial_n":124,"span":11,"encoder":"70491170334","distractor":"60491170334","target":"present","response":"absent","rt":"6043.2000000477","correct":false,"confidence":2},{"trial_n":125,"span":10,"encoder":"5568886876","distractor":"5568881876","target":"absent","response":"absent","rt":"6552.3000000715","correct":true,"confidence":2},{"trial_n":126,"span":10,"encoder":"2925843654","distractor":"2925343654","target":"absent","response":"present","rt":"9959.5","correct":false,"confidence":2},{"trial_n":127,"span":9,"encoder":"839186812","distractor":"839986812","target":"present","response":"present","rt":"7639.2999999523","correct":true,"confidence":3},{"trial_n":128,"span":9,"encoder":"459035144","distractor":"459035164","target":"present","response":"present","rt":"4024.2000000477","correct":true,"confidence":3},{"trial_n":129,"span":10,"encoder":"3541698037","distractor":"3241698037","target":"present","response":"absent","rt":"4596.2999999523","correct":false,"confidence":2},{"trial_n":130,"span":9,"encoder":"261609845","distractor":"261609848","target":"absent","response":"absent","rt":"1834.1999999285","correct":true,"confidence":4},{"trial_n":131,"span":9,"encoder":"861775908","distractor":"861375908","target":"absent","response":"absent","rt":"3662.0999999046","correct":true,"confidence":2},{"trial_n":132,"span":10,"encoder":"3721312088","distractor":"3721311088","target":"present","response":"present","rt":"4339.5","correct":true,"confidence":2},{"trial_n":133,"span":10,"encoder":"0167193043","distractor":"0167193843","target":"present","response":"present","rt":"4571.1999999285","correct":true,"confidence":3},{"trial_n":134,"span":11,"encoder":"24879596119","distractor":"24479596119","target":"absent","response":"present","rt":"6532.3999999762","correct":false,"confidence":2},{"trial_n":135,"span":10,"encoder":"2473510225","distractor":"2473510725","target":"present","response":"present","rt":"2528.5999999046","correct":true,"confidence":3},{"trial_n":136,"span":10,"encoder":"2697318728","distractor":"2697818728","target":"absent","response":"present","rt":"3752.1999999285","correct":false,"confidence":2},{"trial_n":137,"span":9,"encoder":"236265886","distractor":"236263886","target":"absent","response":"absent","rt":"3553","correct":true,"confidence":4},{"trial_n":138,"span":9,"encoder":"385947562","distractor":"385947512","target":"absent","response":"absent","rt":"2600.7000000477","correct":true,"confidence":4},{"trial_n":139,"span":10,"encoder":"6395605427","distractor":"6395605425","target":"present","response":"present","rt":"2225","correct":true,"confidence":4},{"trial_n":140,"span":10,"encoder":"6745648151","distractor":"6735648151","target":"absent","response":"present","rt":"7135.3000000715","correct":false,"confidence":2}]