[{"trial_n":1,"span":8,"encoder":"82817274","distractor":"82817214","target":"present","response":"present","rt":"4046","correct":true,"confidence":-1},{"trial_n":2,"span":8,"encoder":"19706277","distractor":"19706777","target":"present","response":"absent","rt":"2232","correct":false,"confidence":-1},{"trial_n":3,"span":6,"encoder":"205400","distractor":"205405","target":"absent","response":"absent","rt":"3520","correct":true,"confidence":-1},{"trial_n":4,"span":6,"encoder":"362105","distractor":"362115","target":"absent","response":"absent","rt":"3161","correct":true,"confidence":-1},{"trial_n":5,"span":8,"encoder":"37708962","distractor":"37708762","target":"present","response":"present","rt":"2854","correct":true,"confidence":-1},{"trial_n":6,"span":8,"encoder":"55355653","distractor":"55355651","target":"absent","response":"present","rt":"1583","correct":false,"confidence":-1},{"trial_n":7,"span":6,"encoder":"438652","distractor":"138652","target":"absent","response":"present","rt":"1553","correct":false,"confidence":-1},{"trial_n":8,"span":4,"encoder":"2428","distractor":"2498","target":"present","response":"present","rt":"3011","correct":true,"confidence":-1},{"trial_n":9,"span":4,"encoder":"7894","distractor":"7899","target":"absent","response":"absent","rt":"1322","correct":true,"confidence":-1},{"trial_n":10,"span":6,"encoder":"298902","distractor":"298502","target":"present","response":"present","rt":"1736","correct":true,"confidence":-1},{"trial_n":11,"span":6,"encoder":"013550","distractor":"013557","target":"present","response":"absent","rt":"2837","correct":false,"confidence":-1},{"trial_n":12,"span":5,"encoder":"11772","distractor":"12772","target":"absent","response":"absent","rt":"2530","correct":true,"confidence":-1},{"trial_n":13,"span":5,"encoder":"47398","distractor":"43398","target":"present","response":"present","rt":"3814","correct":true,"confidence":-1},{"trial_n":14,"span":6,"encoder":"211518","distractor":"211517","target":"present","response":"present","rt":"1817","correct":true,"confidence":-1},{"trial_n":15,"span":6,"encoder":"402409","distractor":"202409","target":"absent","response":"absent","rt":"1510","correct":true,"confidence":-1},{"trial_n":16,"span":7,"encoder":"0346821","distractor":"0346841","target":"absent","response":"present","rt":"1395","correct":false,"confidence":-1},{"trial_n":17,"span":6,"encoder":"910071","distractor":"910271","target":"present","response":"present","rt":"3275","correct":true,"confidence":-1},{"trial_n":18,"span":6,"encoder":"633615","distractor":"633612","target":"present","response":"present","rt":"1744","correct":true,"confidence":-1},{"trial_n":19,"span":7,"encoder":"4087776","distractor":"4087176","target":"absent","response":"absent","rt":"2120","correct":true,"confidence":-1},{"trial_n":20,"span":7,"encoder":"5663859","distractor":"7663859","target":"absent","response":"absent","rt":"3366","correct":true,"confidence":-1},{"trial_n":21,"span":8,"encoder":"21611555","distractor":"21651555","target":"present","response":"present","rt":"2205","correct":true,"confidence":4},{"trial_n":22,"span":8,"encoder":"82877344","distractor":"82877244","target":"absent","response":"absent","rt":"2790","correct":true,"confidence":3},{"trial_n":23,"span":9,"encoder":"451514249","distractor":"451514219","target":"absent","response":"present","rt":"2034","correct":false,"confidence":3},{"trial_n":24,"span":8,"encoder":"04482046","distractor":"04482044","target":"absent","response":"present","rt":"1949","correct":false,"confidence":2},{"trial_n":25,"span":7,"encoder":"8386837","distractor":"8886837","target":"absent","response":"present","rt":"2106","correct":false,"confidence":2},{"trial_n":26,"span":6,"encoder":"149556","distractor":"149656","target":"present","response":"present","rt":"2981","correct":true,"confidence":3},{"trial_n":27,"span":6,"encoder":"050961","distractor":"050981","target":"absent","response":"absent","rt":"2294","correct":true,"confidence":4},{"trial_n":28,"span":7,"encoder":"0059926","distractor":"0059976","target":"present","response":"present","rt":"3634","correct":true,"confidence":3},{"trial_n":29,"span":7,"encoder":"1531744","distractor":"1531544","target":"present","response":"present","rt":"2020","correct":true,"confidence":3},{"trial_n":30,"span":8,"encoder":"44475162","distractor":"44475161","target":"present","response":"absent","rt":"2860","correct":false,"confidence":2},{"trial_n":31,"span":7,"encoder":"8155042","distractor":"8155022","target":"present","response":"present","rt":"1555","correct":true,"confidence":4},{"trial_n":32,"span":7,"encoder":"1065175","distractor":"1065275","target":"present","response":"present","rt":"2250","correct":true,"confidence":3},{"trial_n":33,"span":8,"encoder":"47702101","distractor":"47702141","target":"present","response":"present","rt":"2106","correct":true,"confidence":2},{"trial_n":34,"span":8,"encoder":"63587770","distractor":"63586770","target":"absent","response":"absent","rt":"3970","correct":true,"confidence":4},{"trial_n":35,"span":9,"encoder":"704859902","distractor":"704889902","target":"present","response":"present","rt":"2749","correct":true,"confidence":4},{"trial_n":36,"span":9,"encoder":"537284208","distractor":"517284208","target":"present","response":"present","rt":"2731","correct":true,"confidence":4},{"trial_n":37,"span":10,"encoder":"6775039520","distractor":"6772039520","target":"absent","response":"present","rt":"4174.9999999999","correct":false,"confidence":2},{"trial_n":38,"span":9,"encoder":"436088068","distractor":"436088060","target":"present","response":"absent","rt":"3225","correct":false,"confidence":3},{"trial_n":39,"span":8,"encoder":"11123399","distractor":"11143399","target":"present","response":"absent","rt":"2806","correct":false,"confidence":2},{"trial_n":40,"span":7,"encoder":"0311262","distractor":"0011262","target":"present","response":"present","rt":"4507.9999999999","correct":true,"confidence":3},{"trial_n":41,"span":7,"encoder":"8505159","distractor":"2505159","target":"present","response":"present","rt":"2671.9999999999","correct":true,"confidence":3},{"trial_n":42,"span":8,"encoder":"98739800","distractor":"98739860","target":"present","response":"present","rt":"7390","correct":true,"confidence":4},{"trial_n":43,"span":8,"encoder":"98443233","distractor":"97443233","target":"absent","response":"present","rt":"2127","correct":false,"confidence":2},{"trial_n":44,"span":7,"encoder":"3777284","distractor":"5777284","target":"present","response":"absent","rt":"2426","correct":false,"confidence":2},{"trial_n":45,"span":6,"encoder":"061811","distractor":"011811","target":"absent","response":"absent","rt":"2364.9999999999","correct":true,"confidence":2},{"trial_n":46,"span":6,"encoder":"701412","distractor":"801412","target":"absent","response":"absent","rt":"3133","correct":true,"confidence":3},{"trial_n":47,"span":7,"encoder":"4695588","distractor":"4692588","target":"absent","response":"present","rt":"4068","correct":false,"confidence":3},{"trial_n":48,"span":6,"encoder":"744062","distractor":"744762","target":"present","response":"present","rt":"2500.9999999999","correct":true,"confidence":4},{"trial_n":49,"span":6,"encoder":"549625","distractor":"540625","target":"absent","response":"absent","rt":"4090","correct":true,"confidence":3},{"trial_n":50,"span":7,"encoder":"5755039","distractor":"8755039","target":"absent","response":"present","rt":"3561","correct":false,"confidence":3},{"trial_n":51,"span":6,"encoder":"354119","distractor":"353119","target":"present","response":"present","rt":"3556","correct":true,"confidence":2},{"trial_n":52,"span":6,"encoder":"499222","distractor":"499202","target":"absent","response":"absent","rt":"1966.0000000001","correct":true,"confidence":4},{"trial_n":53,"span":7,"encoder":"6725268","distractor":"7725268","target":"absent","response":"present","rt":"3798","correct":false,"confidence":1},{"trial_n":54,"span":6,"encoder":"417719","distractor":"517719","target":"present","response":"present","rt":"1867","correct":true,"confidence":3},{"trial_n":55,"span":6,"encoder":"203585","distractor":"203525","target":"present","response":"present","rt":"4608","correct":true,"confidence":3},{"trial_n":56,"span":7,"encoder":"7427295","distractor":"7827295","target":"absent","response":"present","rt":"2805","correct":false,"confidence":3},{"trial_n":57,"span":6,"encoder":"422356","distractor":"422956","target":"absent","response":"present","rt":"5944.9999999999","correct":false,"confidence":3},{"trial_n":58,"span":5,"encoder":"72004","distractor":"72000","target":"absent","response":"absent","rt":"1736","correct":true,"confidence":5},{"trial_n":59,"span":5,"encoder":"84072","distractor":"04072","target":"absent","response":"present","rt":"2907","correct":false,"confidence":2},{"trial_n":60,"span":4,"encoder":"0370","distractor":"0374","target":"present","response":"present","rt":"1538","correct":true,"confidence":5},{"trial_n":61,"span":4,"encoder":"9559","distractor":"9555","target":"absent","response":"absent","rt":"2814","correct":true,"confidence":4},{"trial_n":62,"span":5,"encoder":"32397","distractor":"39397","target":"present","response":"present","rt":"2303","correct":true,"confidence":5},{"trial_n":63,"span":5,"encoder":"31857","distractor":"30857","target":"absent","response":"present","rt":"2948","correct":false,"confidence":3},{"trial_n":64,"span":4,"encoder":"4928","distractor":"4028","target":"present","response":"present","rt":"3809","correct":true,"confidence":5},{"trial_n":65,"span":4,"encoder":"0030","distractor":"0010","target":"absent","response":"absent","rt":"1392.0000000001","correct":true,"confidence":5},{"trial_n":66,"span":5,"encoder":"04534","distractor":"04934","target":"present","response":"present","rt":"2682","correct":true,"confidence":5},{"trial_n":67,"span":5,"encoder":"00613","distractor":"00619","target":"present","response":"present","rt":"2140","correct":true,"confidence":5},{"trial_n":68,"span":6,"encoder":"185985","distractor":"185915","target":"absent","response":"absent","rt":"3166","correct":true,"confidence":2},{"trial_n":69,"span":6,"encoder":"492570","distractor":"402570","target":"absent","response":"present","rt":"2816.0000000001","correct":false,"confidence":3},{"trial_n":70,"span":5,"encoder":"48887","distractor":"46887","target":"present","response":"present","rt":"2386","correct":true,"confidence":3},{"trial_n":71,"span":8,"encoder":"92622242","distractor":"92622248","target":"present","response":"present","rt":"2779","correct":true,"confidence":-1},{"trial_n":72,"span":8,"encoder":"67974548","distractor":"65974548","target":"present","response":"absent","rt":"539","correct":false,"confidence":-1},{"trial_n":73,"span":7,"encoder":"8866331","distractor":"8866391","target":"absent","response":"absent","rt":"1159","correct":true,"confidence":-1},{"trial_n":74,"span":7,"encoder":"9891595","distractor":"9891525","target":"absent","response":"absent","rt":"32018","correct":true,"confidence":-1},{"trial_n":75,"span":8,"encoder":"25277310","distractor":"15277310","target":"present","response":"present","rt":"2661","correct":true,"confidence":-1},{"trial_n":76,"span":8,"encoder":"60929920","distractor":"60928920","target":"present","response":"present","rt":"1859","correct":true,"confidence":-1},{"trial_n":77,"span":9,"encoder":"227794112","distractor":"287794112","target":"present","response":"present","rt":"322","correct":true,"confidence":-1},{"trial_n":78,"span":9,"encoder":"521585764","distractor":"621585764","target":"present","response":"present","rt":"514","correct":true,"confidence":-1},{"trial_n":79,"span":10,"encoder":"2295919916","distractor":"2245919916","target":"present","response":"absent","rt":"550","correct":false,"confidence":-1},{"trial_n":80,"span":9,"encoder":"658100251","distractor":"658100241","target":"absent","response":"absent","rt":"538.99999999988","correct":true,"confidence":-1},{"trial_n":81,"span":9,"encoder":"054158582","distractor":"052158582","target":"present","response":"absent","rt":"575","correct":false,"confidence":-1},{"trial_n":82,"span":8,"encoder":"87593899","distractor":"87593889","target":"absent","response":"absent","rt":"494","correct":true,"confidence":-1},{"trial_n":83,"span":8,"encoder":"68542540","distractor":"68542548","target":"absent","response":"present","rt":"482","correct":false,"confidence":-1},{"trial_n":84,"span":7,"encoder":"0741240","distractor":"0701240","target":"absent","response":"present","rt":"9871","correct":false,"confidence":-1},{"trial_n":85,"span":6,"encoder":"492543","distractor":"452543","target":"present","response":"absent","rt":"791","correct":false,"confidence":-1},{"trial_n":86,"span":5,"encoder":"78426","distractor":"78496","target":"present","response":"present","rt":"2198.0000000001","correct":true,"confidence":-1},{"trial_n":87,"span":5,"encoder":"20676","distractor":"20176","target":"absent","response":"present","rt":"53674","correct":false,"confidence":-1},{"trial_n":88,"span":4,"encoder":"4055","distractor":"6055","target":"present","response":"absent","rt":"2013","correct":false,"confidence":-1},{"trial_n":89,"span":3,"encoder":"439","distractor":"431","target":"present","response":"present","rt":"6113.0000000001","correct":true,"confidence":-1},{"trial_n":90,"span":3,"encoder":"475","distractor":"375","target":"absent","response":"present","rt":"661","correct":false,"confidence":-1},{"trial_n":91,"span":2,"encoder":"20","distractor":"28","target":"absent","response":"absent","rt":"2136.9999999999","correct":true,"confidence":5},{"trial_n":92,"span":2,"encoder":"67","distractor":"64","target":"present","response":"present","rt":"1650.9999999999","correct":true,"confidence":5},{"trial_n":93,"span":3,"encoder":"433","distractor":"533","target":"absent","response":"absent","rt":"1262","correct":true,"confidence":5},{"trial_n":94,"span":3,"encoder":"945","distractor":"955","target":"absent","response":"absent","rt":"1995.0000000001","correct":true,"confidence":4},{"trial_n":95,"span":4,"encoder":"7823","distractor":"7893","target":"present","response":"present","rt":"2308","correct":true,"confidence":5},{"trial_n":96,"span":4,"encoder":"4455","distractor":"4755","target":"absent","response":"absent","rt":"2648","correct":true,"confidence":5},{"trial_n":97,"span":5,"encoder":"42871","distractor":"44871","target":"absent","response":"absent","rt":"1700.0000000001","correct":true,"confidence":5},{"trial_n":98,"span":5,"encoder":"01321","distractor":"01324","target":"absent","response":"absent","rt":"1951","correct":true,"confidence":3},{"trial_n":99,"span":6,"encoder":"141414","distractor":"141411","target":"absent","response":"absent","rt":"3427","correct":true,"confidence":4},{"trial_n":100,"span":6,"encoder":"259034","distractor":"259038","target":"absent","response":"absent","rt":"2852","correct":true,"confidence":4},{"trial_n":101,"span":7,"encoder":"9955305","distractor":"9955905","target":"absent","response":"absent","rt":"3398","correct":true,"confidence":4},{"trial_n":102,"span":7,"encoder":"7868214","distractor":"7860214","target":"present","response":"present","rt":"5665.0000000001","correct":true,"confidence":2},{"trial_n":103,"span":8,"encoder":"77652307","distractor":"77612307","target":"present","response":"present","rt":"5461","correct":true,"confidence":2},{"trial_n":104,"span":8,"encoder":"07441100","distractor":"77441100","target":"absent","response":"absent","rt":"6742","correct":true,"confidence":1},{"trial_n":105,"span":9,"encoder":"985264240","distractor":"905264240","target":"present","response":"present","rt":"2135","correct":true,"confidence":1},{"trial_n":106,"span":9,"encoder":"282689622","distractor":"282669622","target":"absent","response":"absent","rt":"9040","correct":true,"confidence":3},{"trial_n":107,"span":10,"encoder":"9767860844","distractor":"6767860844","target":"absent","response":"present","rt":"1863.9999999999","correct":false,"confidence":3},{"trial_n":108,"span":9,"encoder":"486546975","distractor":"486596975","target":"present","response":"present","rt":"1081.0000000001","correct":true,"confidence":2},{"trial_n":109,"span":9,"encoder":"253674631","distractor":"753674631","target":"present","response":"present","rt":"5816.0000000001","correct":true,"confidence":1},{"trial_n":110,"span":10,"encoder":"1226269192","distractor":"5226269192","target":"present","response":"absent","rt":"802.00000000012","correct":false,"confidence":1},{"trial_n":111,"span":9,"encoder":"337652781","distractor":"637652781","target":"absent","response":"absent","rt":"5492.9999999999","correct":true,"confidence":1},{"trial_n":112,"span":9,"encoder":"800315162","distractor":"800395162","target":"absent","response":"present","rt":"648","correct":false,"confidence":3},{"trial_n":113,"span":8,"encoder":"89451335","distractor":"89457335","target":"present","response":"present","rt":"1649.0000000001","correct":true,"confidence":3},{"trial_n":114,"span":8,"encoder":"30930729","distractor":"30430729","target":"present","response":"present","rt":"3424","correct":true,"confidence":1},{"trial_n":115,"span":9,"encoder":"681818960","distractor":"681818900","target":"present","response":"present","rt":"5104","correct":true,"confidence":4},{"trial_n":116,"span":9,"encoder":"517963461","distractor":"517968461","target":"present","response":"present","rt":"2064","correct":true,"confidence":1},{"trial_n":117,"span":10,"encoder":"0361022672","distractor":"0361022272","target":"absent","response":"absent","rt":"2480.0000000002","correct":true,"confidence":3},{"trial_n":118,"span":10,"encoder":"9227305746","distractor":"9227305749","target":"absent","response":"absent","rt":"1906.9999999998","correct":true,"confidence":3},{"trial_n":119,"span":11,"encoder":"21235374226","distractor":"21235374326","target":"absent","response":"absent","rt":"3383","correct":true,"confidence":3},{"trial_n":120,"span":11,"encoder":"67671479952","distractor":"67771479952","target":"present","response":"present","rt":"6687","correct":true,"confidence":2},{"trial_n":121,"span":12,"encoder":"561499285173","distractor":"561499285573","target":"absent","response":"present","rt":"755","correct":false,"confidence":1},{"trial_n":122,"span":11,"encoder":"59726602169","distractor":"59756602169","target":"present","response":"absent","rt":"726","correct":false,"confidence":1},{"trial_n":123,"span":10,"encoder":"9502942832","distractor":"9502942852","target":"absent","response":"absent","rt":"1898.9999999998","correct":true,"confidence":3},{"trial_n":124,"span":10,"encoder":"3601274360","distractor":"3601274390","target":"present","response":"present","rt":"2453","correct":true,"confidence":3},{"trial_n":125,"span":11,"encoder":"11515198268","distractor":"11515198288","target":"present","response":"present","rt":"2892","correct":true,"confidence":3},{"trial_n":126,"span":11,"encoder":"78314416329","distractor":"78314916329","target":"absent","response":"present","rt":"2914","correct":false,"confidence":1},{"trial_n":127,"span":10,"encoder":"3634121253","distractor":"3934121253","target":"present","response":"absent","rt":"4968","correct":false,"confidence":3},{"trial_n":128,"span":9,"encoder":"328159242","distractor":"828159242","target":"present","response":"present","rt":"2807","correct":true,"confidence":1},{"trial_n":129,"span":9,"encoder":"140556694","distractor":"840556694","target":"present","response":"present","rt":"4667.9999999998","correct":true,"confidence":1},{"trial_n":130,"span":10,"encoder":"3202997130","distractor":"2202997130","target":"present","response":"absent","rt":"5438","correct":false,"confidence":2},{"trial_n":131,"span":9,"encoder":"601173076","distractor":"601273076","target":"present","response":"present","rt":"4690","correct":true,"confidence":2},{"trial_n":132,"span":9,"encoder":"079356103","distractor":"079356100","target":"absent","response":"absent","rt":"2543","correct":true,"confidence":4},{"trial_n":133,"span":10,"encoder":"4652465678","distractor":"4652165678","target":"present","response":"present","rt":"3837","correct":true,"confidence":1},{"trial_n":134,"span":10,"encoder":"0828483641","distractor":"0928483641","target":"absent","response":"absent","rt":"3665","correct":true,"confidence":1},{"trial_n":135,"span":11,"encoder":"09783149858","distractor":"09783649858","target":"present","response":"absent","rt":"3913","correct":false,"confidence":1},{"trial_n":136,"span":10,"encoder":"5237633585","distractor":"5237693585","target":"absent","response":"present","rt":"3300","correct":false,"confidence":1},{"trial_n":137,"span":9,"encoder":"939835386","distractor":"933835386","target":"absent","response":"present","rt":"4612","correct":false,"confidence":1},{"trial_n":138,"span":8,"encoder":"94088902","distractor":"94388902","target":"absent","response":"present","rt":"6478","correct":false,"confidence":1},{"trial_n":139,"span":7,"encoder":"6718696","distractor":"9718696","target":"absent","response":"absent","rt":"4089","correct":true,"confidence":4},{"trial_n":140,"span":7,"encoder":"6350769","distractor":"6350069","target":"present","response":"present","rt":"4238","correct":true,"confidence":1}]