[{"trial_n":1,"min":25,"max":230,"target":"present","response":"absent","rt":4592.5,"correct":false,"confidence":-1},{"trial_n":2,"min":25,"max":230,"target":"present","response":"present","rt":1084.8000000715,"correct":true,"confidence":-1},{"trial_n":3,"min":25,"max":230,"target":"absent","response":"absent","rt":1540.8999999762,"correct":true,"confidence":-1},{"trial_n":4,"min":41,"max":214,"target":"absent","response":"present","rt":1145.2999999523,"correct":false,"confidence":-1},{"trial_n":5,"min":25,"max":230,"target":"present","response":"present","rt":779.10000002384,"correct":true,"confidence":-1},{"trial_n":6,"min":25,"max":230,"target":"present","response":"present","rt":718.80000007153,"correct":true,"confidence":-1},{"trial_n":7,"min":41,"max":214,"target":"absent","response":"absent","rt":874,"correct":true,"confidence":-1},{"trial_n":8,"min":41,"max":214,"target":"absent","response":"absent","rt":828.10000002384,"correct":true,"confidence":-1},{"trial_n":9,"min":57,"max":198,"target":"present","response":"present","rt":1085.9000000954,"correct":true,"confidence":-1},{"trial_n":10,"min":57,"max":198,"target":"present","response":"present","rt":858.5,"correct":true,"confidence":-1},{"trial_n":11,"min":65,"max":190,"target":"absent","response":"absent","rt":902.5,"correct":true,"confidence":-1},{"trial_n":12,"min":65,"max":190,"target":"absent","response":"absent","rt":738.10000002384,"correct":true,"confidence":-1},{"trial_n":13,"min":73,"max":182,"target":"present","response":"present","rt":816.10000002384,"correct":true,"confidence":-1},{"trial_n":14,"min":73,"max":182,"target":"present","response":"present","rt":670.59999990463,"correct":true,"confidence":-1},{"trial_n":15,"min":81,"max":174,"target":"present","response":"absent","rt":948,"correct":false,"confidence":-1},{"trial_n":16,"min":73,"max":182,"target":"present","response":"present","rt":911.60000002384,"correct":true,"confidence":-1},{"trial_n":17,"min":73,"max":182,"target":"absent","response":"absent","rt":794.30000007153,"correct":true,"confidence":-1},{"trial_n":18,"min":81,"max":174,"target":"absent","response":"absent","rt":1108.6000000238,"correct":true,"confidence":-1},{"trial_n":19,"min":81,"max":174,"target":"absent","response":"absent","rt":688.80000007153,"correct":true,"confidence":-1},{"trial_n":20,"min":89,"max":166,"target":"absent","response":"present","rt":756,"correct":false,"confidence":-1},{"trial_n":21,"min":85,"max":170,"target":"present","response":"present","rt":640.20000004768,"correct":true,"confidence":4},{"trial_n":22,"min":85,"max":170,"target":"absent","response":"absent","rt":890,"correct":true,"confidence":4},{"trial_n":23,"min":89,"max":166,"target":"absent","response":"absent","rt":977.79999995232,"correct":true,"confidence":3},{"trial_n":24,"min":89,"max":166,"target":"present","response":"present","rt":952.60000002384,"correct":true,"confidence":4},{"trial_n":25,"min":93,"max":162,"target":"absent","response":"absent","rt":1359.8999999762,"correct":true,"confidence":3},{"trial_n":26,"min":93,"max":162,"target":"present","response":"present","rt":861.10000002384,"correct":true,"confidence":3},{"trial_n":27,"min":97,"max":158,"target":"present","response":"present","rt":2177.7000000477,"correct":true,"confidence":3},{"trial_n":28,"min":97,"max":158,"target":"absent","response":"absent","rt":926.60000002384,"correct":true,"confidence":3},{"trial_n":29,"min":101,"max":154,"target":"present","response":"absent","rt":1474.6999999285,"correct":false,"confidence":3},{"trial_n":30,"min":97,"max":158,"target":"absent","response":"present","rt":773.30000007153,"correct":false,"confidence":3},{"trial_n":31,"min":95,"max":160,"target":"absent","response":"present","rt":735.30000007153,"correct":false,"confidence":3},{"trial_n":32,"min":93,"max":162,"target":"present","response":"present","rt":902.60000002384,"correct":true,"confidence":3},{"trial_n":33,"min":93,"max":162,"target":"present","response":"present","rt":733,"correct":true,"confidence":4},{"trial_n":34,"min":95,"max":160,"target":"present","response":"absent","rt":820.10000002384,"correct":false,"confidence":3},{"trial_n":35,"min":93,"max":162,"target":"present","response":"present","rt":788.89999997616,"correct":true,"confidence":3},{"trial_n":36,"min":93,"max":162,"target":"present","response":"present","rt":4218,"correct":true,"confidence":3},{"trial_n":37,"min":95,"max":160,"target":"absent","response":"present","rt":764.19999992847,"correct":false,"confidence":3},{"trial_n":38,"min":93,"max":162,"target":"present","response":"absent","rt":897.69999992847,"correct":false,"confidence":4},{"trial_n":39,"min":91,"max":164,"target":"present","response":"absent","rt":855.60000002384,"correct":false,"confidence":3},{"trial_n":40,"min":89,"max":166,"target":"absent","response":"absent","rt":935.20000004768,"correct":true,"confidence":2},{"trial_n":41,"min":89,"max":166,"target":"absent","response":"absent","rt":793.70000004768,"correct":true,"confidence":3},{"trial_n":42,"min":90,"max":165,"target":"present","response":"present","rt":740.30000007153,"correct":true,"confidence":3},{"trial_n":43,"min":90,"max":165,"target":"absent","response":"present","rt":807,"correct":false,"confidence":3},{"trial_n":44,"min":89,"max":166,"target":"present","response":"present","rt":719.20000004768,"correct":true,"confidence":4},{"trial_n":45,"min":89,"max":166,"target":"present","response":"absent","rt":739.19999992847,"correct":false,"confidence":3},{"trial_n":46,"min":88,"max":167,"target":"present","response":"present","rt":719.5,"correct":true,"confidence":4},{"trial_n":47,"min":88,"max":167,"target":"present","response":"present","rt":667.60000002384,"correct":true,"confidence":4},{"trial_n":48,"min":89,"max":166,"target":"present","response":"present","rt":692.19999992847,"correct":true,"confidence":4},{"trial_n":49,"min":89,"max":166,"target":"absent","response":"absent","rt":762.30000007153,"correct":true,"confidence":4},{"trial_n":50,"min":90,"max":165,"target":"absent","response":"absent","rt":931.19999992847,"correct":true,"confidence":3},{"trial_n":51,"min":90,"max":165,"target":"absent","response":"present","rt":682.29999995232,"correct":false,"confidence":3},{"trial_n":52,"min":89,"max":166,"target":"absent","response":"absent","rt":813.69999992847,"correct":true,"confidence":3},{"trial_n":53,"min":89,"max":166,"target":"absent","response":"absent","rt":938.70000004768,"correct":true,"confidence":2},{"trial_n":54,"min":90,"max":165,"target":"present","response":"present","rt":701.5,"correct":true,"confidence":3},{"trial_n":55,"min":90,"max":165,"target":"absent","response":"absent","rt":772.30000007153,"correct":true,"confidence":4},{"trial_n":56,"min":91,"max":164,"target":"absent","response":"absent","rt":746.5,"correct":true,"confidence":3},{"trial_n":57,"min":91,"max":164,"target":"present","response":"absent","rt":763.39999997616,"correct":false,"confidence":3},{"trial_n":58,"min":90,"max":165,"target":"absent","response":"present","rt":669.30000007153,"correct":false,"confidence":3},{"trial_n":59,"min":89,"max":166,"target":"absent","response":"present","rt":847.79999995232,"correct":false,"confidence":3},{"trial_n":60,"min":88,"max":167,"target":"absent","response":"present","rt":711.30000007153,"correct":false,"confidence":3},{"trial_n":61,"min":87,"max":168,"target":"absent","response":"present","rt":680.39999997616,"correct":false,"confidence":2},{"trial_n":62,"min":86,"max":169,"target":"present","response":"present","rt":1040.4000000954,"correct":true,"confidence":3},{"trial_n":63,"min":86,"max":169,"target":"present","response":"present","rt":696.5,"correct":true,"confidence":3},{"trial_n":64,"min":87,"max":168,"target":"absent","response":"absent","rt":919.39999997616,"correct":true,"confidence":3},{"trial_n":65,"min":87,"max":168,"target":"present","response":"absent","rt":888.20000004768,"correct":false,"confidence":3},{"trial_n":66,"min":86,"max":169,"target":"absent","response":"absent","rt":1292.8999999762,"correct":true,"confidence":3},{"trial_n":67,"min":86,"max":169,"target":"present","response":"present","rt":734.60000002384,"correct":true,"confidence":3},{"trial_n":68,"min":87,"max":168,"target":"absent","response":"present","rt":824.5,"correct":false,"confidence":3},{"trial_n":69,"min":86,"max":169,"target":"present","response":"present","rt":695.30000007153,"correct":true,"confidence":4},{"trial_n":70,"min":86,"max":169,"target":"present","response":"present","rt":727.79999995232,"correct":true,"confidence":4},{"trial_n":71,"min":41,"max":214,"target":"present","response":"present","rt":881.19999992847,"correct":true,"confidence":-1},{"trial_n":72,"min":41,"max":214,"target":"present","response":"present","rt":644,"correct":true,"confidence":-1},{"trial_n":73,"min":57,"max":198,"target":"absent","response":"absent","rt":1277.1000000238,"correct":true,"confidence":-1},{"trial_n":74,"min":57,"max":198,"target":"absent","response":"absent","rt":941.5,"correct":true,"confidence":-1},{"trial_n":75,"min":73,"max":182,"target":"present","response":"present","rt":1408.5,"correct":true,"confidence":-1},{"trial_n":76,"min":73,"max":182,"target":"present","response":"present","rt":601.39999997616,"correct":true,"confidence":-1},{"trial_n":77,"min":89,"max":166,"target":"present","response":"present","rt":667.5,"correct":true,"confidence":-1},{"trial_n":78,"min":89,"max":166,"target":"present","response":"present","rt":580.69999992847,"correct":true,"confidence":-1},{"trial_n":79,"min":105,"max":150,"target":"absent","response":"absent","rt":2058.5,"correct":true,"confidence":-1},{"trial_n":80,"min":105,"max":150,"target":"absent","response":"present","rt":928.40000009537,"correct":false,"confidence":-1},{"trial_n":81,"min":97,"max":158,"target":"absent","response":"absent","rt":1114.6999999285,"correct":true,"confidence":-1},{"trial_n":82,"min":97,"max":158,"target":"absent","response":"absent","rt":1094.3999999762,"correct":true,"confidence":-1},{"trial_n":83,"min":105,"max":150,"target":"present","response":"present","rt":1195.6000000238,"correct":true,"confidence":-1},{"trial_n":84,"min":105,"max":150,"target":"present","response":"absent","rt":869.80000007153,"correct":false,"confidence":-1},{"trial_n":85,"min":97,"max":158,"target":"absent","response":"present","rt":1144.3000000715,"correct":false,"confidence":-1},{"trial_n":86,"min":89,"max":166,"target":"absent","response":"absent","rt":1216.5,"correct":true,"confidence":-1},{"trial_n":87,"min":89,"max":166,"target":"present","response":"present","rt":690.29999995232,"correct":true,"confidence":-1},{"trial_n":88,"min":97,"max":158,"target":"absent","response":"absent","rt":1138.6000000238,"correct":true,"confidence":-1},{"trial_n":89,"min":97,"max":158,"target":"absent","response":"absent","rt":934.70000004768,"correct":true,"confidence":-1},{"trial_n":90,"min":105,"max":150,"target":"present","response":"absent","rt":798.89999997616,"correct":false,"confidence":-1},{"trial_n":91,"min":101,"max":154,"target":"present","response":"present","rt":925.69999992847,"correct":true,"confidence":3},{"trial_n":92,"min":101,"max":154,"target":"present","response":"present","rt":1043.6999999285,"correct":true,"confidence":3},{"trial_n":93,"min":105,"max":150,"target":"absent","response":"present","rt":773.5,"correct":false,"confidence":4},{"trial_n":94,"min":101,"max":154,"target":"present","response":"present","rt":972.79999995232,"correct":true,"confidence":4},{"trial_n":95,"min":101,"max":154,"target":"present","response":"absent","rt":828.29999995232,"correct":false,"confidence":2},{"trial_n":96,"min":97,"max":158,"target":"absent","response":"present","rt":1009.8000000715,"correct":false,"confidence":2},{"trial_n":97,"min":93,"max":162,"target":"absent","response":"present","rt":774.30000007153,"correct":false,"confidence":3},{"trial_n":98,"min":89,"max":166,"target":"present","response":"present","rt":1062.7000000477,"correct":true,"confidence":4},{"trial_n":99,"min":89,"max":166,"target":"absent","response":"present","rt":922.89999997616,"correct":false,"confidence":2},{"trial_n":100,"min":85,"max":170,"target":"present","response":"present","rt":818,"correct":true,"confidence":4},{"trial_n":101,"min":85,"max":170,"target":"present","response":"present","rt":635.30000007153,"correct":true,"confidence":4},{"trial_n":102,"min":87,"max":168,"target":"absent","response":"present","rt":825.20000004768,"correct":false,"confidence":3},{"trial_n":103,"min":85,"max":170,"target":"present","response":"present","rt":697.90000009537,"correct":true,"confidence":4},{"trial_n":104,"min":85,"max":170,"target":"absent","response":"absent","rt":1377.8000000715,"correct":true,"confidence":4},{"trial_n":105,"min":87,"max":168,"target":"present","response":"absent","rt":809.5,"correct":false,"confidence":2},{"trial_n":106,"min":85,"max":170,"target":"present","response":"present","rt":659.20000004768,"correct":true,"confidence":4},{"trial_n":107,"min":85,"max":170,"target":"absent","response":"absent","rt":1043.9000000954,"correct":true,"confidence":3},{"trial_n":108,"min":87,"max":168,"target":"absent","response":"present","rt":1396.2999999523,"correct":false,"confidence":3},{"trial_n":109,"min":85,"max":170,"target":"present","response":"present","rt":914.70000004768,"correct":true,"confidence":5},{"trial_n":110,"min":85,"max":170,"target":"present","response":"present","rt":754,"correct":true,"confidence":5},{"trial_n":111,"min":86,"max":169,"target":"present","response":"present","rt":708.89999997616,"correct":true,"confidence":5},{"trial_n":112,"min":86,"max":169,"target":"absent","response":"present","rt":913.40000009537,"correct":false,"confidence":2},{"trial_n":113,"min":85,"max":170,"target":"absent","response":"present","rt":727.69999992847,"correct":false,"confidence":4},{"trial_n":114,"min":84,"max":171,"target":"absent","response":"absent","rt":1478.2000000477,"correct":true,"confidence":5},{"trial_n":115,"min":84,"max":171,"target":"present","response":"present","rt":645.30000007153,"correct":true,"confidence":5},{"trial_n":116,"min":85,"max":170,"target":"absent","response":"absent","rt":1028.2000000477,"correct":true,"confidence":5},{"trial_n":117,"min":85,"max":170,"target":"present","response":"present","rt":695.10000002384,"correct":true,"confidence":5},{"trial_n":118,"min":86,"max":169,"target":"present","response":"present","rt":924.5,"correct":true,"confidence":5},{"trial_n":119,"min":86,"max":169,"target":"absent","response":"present","rt":1040.6000000238,"correct":false,"confidence":3},{"trial_n":120,"min":85,"max":170,"target":"present","response":"present","rt":624.30000007153,"correct":true,"confidence":5},{"trial_n":121,"min":85,"max":170,"target":"absent","response":"present","rt":832.19999992847,"correct":false,"confidence":5},{"trial_n":122,"min":84,"max":171,"target":"absent","response":"absent","rt":798.60000002384,"correct":true,"confidence":4},{"trial_n":123,"min":84,"max":171,"target":"absent","response":"absent","rt":843.29999995232,"correct":true,"confidence":3},{"trial_n":124,"min":85,"max":170,"target":"absent","response":"absent","rt":801.60000002384,"correct":true,"confidence":2},{"trial_n":125,"min":85,"max":170,"target":"present","response":"present","rt":551.60000002384,"correct":true,"confidence":5},{"trial_n":126,"min":86,"max":169,"target":"present","response":"present","rt":629.60000002384,"correct":true,"confidence":5},{"trial_n":127,"min":86,"max":169,"target":"present","response":"present","rt":883.70000004768,"correct":true,"confidence":5},{"trial_n":128,"min":87,"max":168,"target":"absent","response":"absent","rt":730.70000004768,"correct":true,"confidence":4},{"trial_n":129,"min":87,"max":168,"target":"present","response":"present","rt":900,"correct":true,"confidence":4},{"trial_n":130,"min":88,"max":167,"target":"absent","response":"present","rt":893.5,"correct":false,"confidence":3},{"trial_n":131,"min":87,"max":168,"target":"present","response":"present","rt":596.20000004768,"correct":true,"confidence":5},{"trial_n":132,"min":87,"max":168,"target":"absent","response":"present","rt":799.5,"correct":false,"confidence":3},{"trial_n":133,"min":86,"max":169,"target":"present","response":"present","rt":606.10000002384,"correct":true,"confidence":4},{"trial_n":134,"min":86,"max":169,"target":"absent","response":"absent","rt":674.89999997616,"correct":true,"confidence":4},{"trial_n":135,"min":87,"max":168,"target":"absent","response":"absent","rt":1201.5999999046,"correct":true,"confidence":3},{"trial_n":136,"min":87,"max":168,"target":"absent","response":"absent","rt":746.79999995232,"correct":true,"confidence":3},{"trial_n":137,"min":88,"max":167,"target":"present","response":"present","rt":1784.2000000477,"correct":true,"confidence":3},{"trial_n":138,"min":88,"max":167,"target":"present","response":"present","rt":573.60000002384,"correct":true,"confidence":5},{"trial_n":139,"min":89,"max":166,"target":"present","response":"present","rt":645.79999995232,"correct":true,"confidence":5},{"trial_n":140,"min":89,"max":166,"target":"absent","response":"present","rt":1136.5,"correct":false,"confidence":2}]