[{"trial_n":1,"span":8,"encoder":"84863458","distractor":"84863258","target":"present","response":"present","rt":"6142.3999999762","correct":true,"confidence":-1},{"trial_n":2,"span":8,"encoder":"99586591","distractor":"99586491","target":"present","response":"present","rt":"3202.3999999762","correct":true,"confidence":-1},{"trial_n":3,"span":10,"encoder":"5000678159","distractor":"5000678859","target":"absent","response":"present","rt":"3724.8999999762","correct":false,"confidence":-1},{"trial_n":4,"span":8,"encoder":"78349954","distractor":"78349914","target":"absent","response":"absent","rt":"2570.2999999523","correct":true,"confidence":-1},{"trial_n":5,"span":8,"encoder":"84503473","distractor":"84505473","target":"present","response":"present","rt":"4295.5","correct":true,"confidence":-1},{"trial_n":6,"span":10,"encoder":"2187114474","distractor":"2187114484","target":"present","response":"present","rt":"2347.2000000477","correct":true,"confidence":-1},{"trial_n":7,"span":10,"encoder":"2716466644","distractor":"2716466641","target":"present","response":"absent","rt":"2794.6000000238","correct":false,"confidence":-1},{"trial_n":8,"span":8,"encoder":"96939859","distractor":"96969859","target":"present","response":"present","rt":"1753.7999999523","correct":true,"confidence":-1},{"trial_n":9,"span":8,"encoder":"17123539","distractor":"17723539","target":"present","response":"present","rt":"3050.8999999762","correct":true,"confidence":-1},{"trial_n":10,"span":10,"encoder":"7701635569","distractor":"7701685569","target":"present","response":"present","rt":"2136.3999999762","correct":true,"confidence":-1},{"trial_n":11,"span":10,"encoder":"6681569124","distractor":"0681569124","target":"present","response":"present","rt":"1669.3000000715","correct":true,"confidence":-1},{"trial_n":12,"span":11,"encoder":"73855638004","distractor":"73855438004","target":"present","response":"present","rt":"1575","correct":true,"confidence":-1},{"trial_n":13,"span":11,"encoder":"96149756287","distractor":"99149756287","target":"absent","response":"present","rt":"1951.8000000715","correct":false,"confidence":-1},{"trial_n":14,"span":10,"encoder":"1612725665","distractor":"1612726665","target":"present","response":"absent","rt":"3565.6000000238","correct":false,"confidence":-1},{"trial_n":15,"span":9,"encoder":"127764277","distractor":"187764277","target":"absent","response":"present","rt":"1715.3000000715","correct":false,"confidence":-1},{"trial_n":16,"span":8,"encoder":"35864882","distractor":"35864888","target":"present","response":"present","rt":"2372.6999999285","correct":true,"confidence":-1},{"trial_n":17,"span":8,"encoder":"20004469","distractor":"21004469","target":"absent","response":"present","rt":"2076.3000000715","correct":false,"confidence":-1},{"trial_n":18,"span":7,"encoder":"4615277","distractor":"4315277","target":"absent","response":"present","rt":"2759.6000000238","correct":false,"confidence":-1},{"trial_n":19,"span":6,"encoder":"072555","distractor":"072551","target":"present","response":"present","rt":"3476","correct":true,"confidence":-1},{"trial_n":20,"span":6,"encoder":"471352","distractor":"451352","target":"present","response":"present","rt":"1963.2000000477","correct":true,"confidence":-1},{"trial_n":21,"span":7,"encoder":"1008425","distractor":"1008422","target":"present","response":"present","rt":"2093.8000000715","correct":true,"confidence":5},{"trial_n":22,"span":7,"encoder":"1282537","distractor":"4282537","target":"absent","response":"present","rt":"4993.8000000715","correct":false,"confidence":5},{"trial_n":23,"span":6,"encoder":"499987","distractor":"499983","target":"absent","response":"absent","rt":"2820.2000000477","correct":true,"confidence":5},{"trial_n":24,"span":6,"encoder":"855417","distractor":"885417","target":"absent","response":"present","rt":"2602.5999999046","correct":false,"confidence":5},{"trial_n":25,"span":5,"encoder":"89514","distractor":"09514","target":"absent","response":"absent","rt":"4878.2999999523","correct":true,"confidence":3},{"trial_n":26,"span":5,"encoder":"96176","distractor":"97176","target":"absent","response":"present","rt":"3464.6999999285","correct":false,"confidence":3},{"trial_n":27,"span":4,"encoder":"1857","distractor":"1851","target":"absent","response":"absent","rt":"2365.3999999762","correct":true,"confidence":5},{"trial_n":28,"span":4,"encoder":"4285","distractor":"7285","target":"present","response":"present","rt":"1983.6999999285","correct":true,"confidence":5},{"trial_n":29,"span":5,"encoder":"33871","distractor":"33671","target":"present","response":"present","rt":"1793.5","correct":true,"confidence":5},{"trial_n":30,"span":5,"encoder":"11953","distractor":"16953","target":"absent","response":"absent","rt":"4464.8999999762","correct":true,"confidence":4},{"trial_n":31,"span":6,"encoder":"276264","distractor":"270264","target":"present","response":"absent","rt":"4664.7999999523","correct":false,"confidence":3},{"trial_n":32,"span":5,"encoder":"86189","distractor":"83189","target":"absent","response":"absent","rt":"1410.6000000238","correct":true,"confidence":5},{"trial_n":33,"span":5,"encoder":"50456","distractor":"50446","target":"absent","response":"absent","rt":"2557.7999999523","correct":true,"confidence":5},{"trial_n":34,"span":6,"encoder":"599799","distractor":"399799","target":"present","response":"present","rt":"3843.5999999046","correct":true,"confidence":5},{"trial_n":35,"span":6,"encoder":"715442","distractor":"715448","target":"absent","response":"absent","rt":"3650.7000000477","correct":true,"confidence":5},{"trial_n":36,"span":7,"encoder":"2519480","distractor":"2511480","target":"present","response":"present","rt":"8103.1000000238","correct":true,"confidence":4},{"trial_n":37,"span":7,"encoder":"6380305","distractor":"6380395","target":"present","response":"present","rt":"3176.4000000954","correct":true,"confidence":5},{"trial_n":38,"span":8,"encoder":"53625457","distractor":"53625452","target":"absent","response":"absent","rt":"3433.3999999762","correct":true,"confidence":5},{"trial_n":39,"span":8,"encoder":"25930868","distractor":"95930868","target":"present","response":"present","rt":"3196.5","correct":true,"confidence":5},{"trial_n":40,"span":9,"encoder":"098471029","distractor":"098471429","target":"present","response":"present","rt":"3162.6999999285","correct":true,"confidence":4},{"trial_n":41,"span":9,"encoder":"597315713","distractor":"593315713","target":"absent","response":"present","rt":"6703.3000000715","correct":false,"confidence":4},{"trial_n":42,"span":8,"encoder":"57679904","distractor":"53679904","target":"present","response":"present","rt":"2622.1000000238","correct":true,"confidence":5},{"trial_n":43,"span":8,"encoder":"26770118","distractor":"26770158","target":"present","response":"absent","rt":"3696.1000000238","correct":false,"confidence":4},{"trial_n":44,"span":7,"encoder":"9380309","distractor":"9380306","target":"present","response":"present","rt":"2699.1000000238","correct":true,"confidence":5},{"trial_n":45,"span":7,"encoder":"7926789","distractor":"7923789","target":"present","response":"present","rt":"8687.0999999046","correct":true,"confidence":3},{"trial_n":46,"span":8,"encoder":"06214992","distractor":"06216992","target":"absent","response":"absent","rt":"10633.099999905","correct":true,"confidence":2},{"trial_n":47,"span":8,"encoder":"79464942","distractor":"74464942","target":"absent","response":"present","rt":"5402.7999999523","correct":false,"confidence":3},{"trial_n":48,"span":7,"encoder":"9775842","distractor":"9975842","target":"absent","response":"absent","rt":"10313.099999905","correct":true,"confidence":3},{"trial_n":49,"span":7,"encoder":"6417819","distractor":"6417899","target":"absent","response":"absent","rt":"6602.7999999523","correct":true,"confidence":3},{"trial_n":50,"span":8,"encoder":"39890700","distractor":"49890700","target":"absent","response":"present","rt":"4220","correct":false,"confidence":2},{"trial_n":51,"span":7,"encoder":"5859782","distractor":"6859782","target":"present","response":"present","rt":"3026.2000000477","correct":true,"confidence":4},{"trial_n":52,"span":7,"encoder":"8745944","distractor":"8745946","target":"present","response":"present","rt":"2586.6000000238","correct":true,"confidence":4},{"trial_n":53,"span":8,"encoder":"56861854","distractor":"56061854","target":"present","response":"present","rt":"4600","correct":true,"confidence":5},{"trial_n":54,"span":8,"encoder":"12565187","distractor":"12665187","target":"absent","response":"absent","rt":"11237.600000024","correct":true,"confidence":4},{"trial_n":55,"span":9,"encoder":"896415418","distractor":"896415408","target":"absent","response":"present","rt":"6211.2999999523","correct":false,"confidence":3},{"trial_n":56,"span":8,"encoder":"52882544","distractor":"52482544","target":"present","response":"present","rt":"2972.6000000238","correct":true,"confidence":5},{"trial_n":57,"span":8,"encoder":"08419973","distractor":"08419473","target":"absent","response":"present","rt":"2515.7999999523","correct":false,"confidence":5},{"trial_n":58,"span":7,"encoder":"0151570","distractor":"0158570","target":"absent","response":"present","rt":"1969.1000000238","correct":false,"confidence":5},{"trial_n":59,"span":6,"encoder":"536526","distractor":"536596","target":"absent","response":"absent","rt":"4151.3000000715","correct":true,"confidence":5},{"trial_n":60,"span":6,"encoder":"474187","distractor":"474127","target":"present","response":"present","rt":"3303.8999999762","correct":true,"confidence":5},{"trial_n":61,"span":7,"encoder":"9001497","distractor":"9061497","target":"absent","response":"absent","rt":"2322.8999999762","correct":true,"confidence":5},{"trial_n":62,"span":7,"encoder":"5048247","distractor":"5548247","target":"present","response":"present","rt":"2630.6999999285","correct":true,"confidence":5},{"trial_n":63,"span":8,"encoder":"96076920","distractor":"96076930","target":"absent","response":"absent","rt":"2518.3999999762","correct":true,"confidence":5},{"trial_n":64,"span":8,"encoder":"02867894","distractor":"02837894","target":"present","response":"absent","rt":"2304.2000000477","correct":false,"confidence":5},{"trial_n":65,"span":7,"encoder":"8246604","distractor":"8247604","target":"present","response":"present","rt":"2585.3999999762","correct":true,"confidence":5},{"trial_n":66,"span":7,"encoder":"3287417","distractor":"8287417","target":"absent","response":"absent","rt":"2731.7999999523","correct":true,"confidence":5},{"trial_n":67,"span":8,"encoder":"98732135","distractor":"98532135","target":"absent","response":"present","rt":"3164.6000000238","correct":false,"confidence":4},{"trial_n":68,"span":7,"encoder":"6534364","distractor":"6534369","target":"absent","response":"absent","rt":"2521.6000000238","correct":true,"confidence":4},{"trial_n":69,"span":7,"encoder":"7710754","distractor":"7510754","target":"present","response":"present","rt":"2846.1999999285","correct":true,"confidence":4},{"trial_n":70,"span":8,"encoder":"48243983","distractor":"48243981","target":"absent","response":"absent","rt":"1929.1000000238","correct":true,"confidence":5},{"trial_n":71,"span":8,"encoder":"55384550","distractor":"55380550","target":"present","response":"present","rt":"8141.7000000477","correct":true,"confidence":-1},{"trial_n":72,"span":8,"encoder":"96948307","distractor":"96958307","target":"present","response":"absent","rt":"4755.5","correct":false,"confidence":-1},{"trial_n":73,"span":7,"encoder":"6625587","distractor":"6622587","target":"absent","response":"absent","rt":"4566.5","correct":true,"confidence":-1},{"trial_n":74,"span":7,"encoder":"2567571","distractor":"2567578","target":"absent","response":"absent","rt":"5062.6000000238","correct":true,"confidence":-1},{"trial_n":75,"span":8,"encoder":"34259333","distractor":"34249333","target":"present","response":"present","rt":"5127","correct":true,"confidence":-1},{"trial_n":76,"span":8,"encoder":"94349587","distractor":"94349187","target":"present","response":"present","rt":"4810.2999999523","correct":true,"confidence":-1},{"trial_n":77,"span":9,"encoder":"979832247","distractor":"979832244","target":"absent","response":"absent","rt":"2263.1999999285","correct":true,"confidence":-1},{"trial_n":78,"span":9,"encoder":"564767495","distractor":"064767495","target":"present","response":"present","rt":"7379.8000000715","correct":true,"confidence":-1},{"trial_n":79,"span":10,"encoder":"2997639210","distractor":"2997689210","target":"present","response":"present","rt":"7398.1000000238","correct":true,"confidence":-1},{"trial_n":80,"span":10,"encoder":"0809436693","distractor":"0809426693","target":"present","response":"absent","rt":"6065.3999999762","correct":false,"confidence":-1},{"trial_n":81,"span":9,"encoder":"584854571","distractor":"584857571","target":"absent","response":"absent","rt":"13369.199999928","correct":true,"confidence":-1},{"trial_n":82,"span":9,"encoder":"560676628","distractor":"560676620","target":"absent","response":"present","rt":"2783.7000000477","correct":false,"confidence":-1},{"trial_n":83,"span":8,"encoder":"90828602","distractor":"90878602","target":"absent","response":"present","rt":"6029.3999999762","correct":false,"confidence":-1},{"trial_n":84,"span":7,"encoder":"9588482","distractor":"9588182","target":"absent","response":"present","rt":"4118.2999999523","correct":false,"confidence":-1},{"trial_n":85,"span":6,"encoder":"301515","distractor":"301517","target":"present","response":"present","rt":"3122.9000000954","correct":true,"confidence":-1},{"trial_n":86,"span":6,"encoder":"663120","distractor":"663220","target":"absent","response":"absent","rt":"4083.8000000715","correct":true,"confidence":-1},{"trial_n":87,"span":7,"encoder":"9386520","distractor":"9386120","target":"present","response":"present","rt":"5026.3999999762","correct":true,"confidence":-1},{"trial_n":88,"span":7,"encoder":"6829518","distractor":"6829718","target":"absent","response":"absent","rt":"6554.7999999523","correct":true,"confidence":-1},{"trial_n":89,"span":8,"encoder":"07261023","distractor":"02261023","target":"present","response":"present","rt":"4970.1000000238","correct":true,"confidence":-1},{"trial_n":90,"span":8,"encoder":"07954639","distractor":"07959639","target":"present","response":"present","rt":"9659.8000000715","correct":true,"confidence":-1},{"trial_n":91,"span":9,"encoder":"585528187","distractor":"583528187","target":"absent","response":"absent","rt":"2868.8999999762","correct":true,"confidence":5},{"trial_n":92,"span":9,"encoder":"767970384","distractor":"767970304","target":"absent","response":"absent","rt":"4926.6000000238","correct":true,"confidence":5},{"trial_n":93,"span":10,"encoder":"4223572434","distractor":"4228572434","target":"absent","response":"absent","rt":"10421.799999952","correct":true,"confidence":4},{"trial_n":94,"span":10,"encoder":"5288642884","distractor":"5288642864","target":"absent","response":"absent","rt":"8785.5","correct":true,"confidence":4},{"trial_n":95,"span":11,"encoder":"87578657587","distractor":"87578657287","target":"absent","response":"present","rt":"10952.600000024","correct":false,"confidence":4},{"trial_n":96,"span":10,"encoder":"8151545936","distractor":"8151545946","target":"present","response":"present","rt":"6047","correct":true,"confidence":5},{"trial_n":97,"span":10,"encoder":"1635513450","distractor":"1605513450","target":"present","response":"present","rt":"6838.9000000954","correct":true,"confidence":5},{"trial_n":98,"span":11,"encoder":"00287179020","distractor":"00287179027","target":"absent","response":"absent","rt":"2691.5999999046","correct":true,"confidence":5},{"trial_n":99,"span":11,"encoder":"60076635255","distractor":"50076635255","target":"present","response":"present","rt":"6084.3999999762","correct":true,"confidence":5},{"trial_n":100,"span":12,"encoder":"727645219627","distractor":"727645719627","target":"absent","response":"present","rt":"5887.2999999523","correct":false,"confidence":4},{"trial_n":101,"span":11,"encoder":"41430453252","distractor":"41436453252","target":"absent","response":"present","rt":"9090","correct":false,"confidence":3},{"trial_n":102,"span":10,"encoder":"2802246538","distractor":"2802246530","target":"absent","response":"absent","rt":"5352.3999999762","correct":true,"confidence":5},{"trial_n":103,"span":10,"encoder":"8926542448","distractor":"8826542448","target":"absent","response":"present","rt":"5105.8999999762","correct":false,"confidence":4},{"trial_n":104,"span":9,"encoder":"950818448","distractor":"954818448","target":"present","response":"absent","rt":"6747.2999999523","correct":false,"confidence":3},{"trial_n":105,"span":8,"encoder":"34309184","distractor":"34309174","target":"absent","response":"absent","rt":"3429.1000000238","correct":true,"confidence":5},{"trial_n":106,"span":8,"encoder":"31057798","distractor":"61057798","target":"present","response":"present","rt":"3345.6000000238","correct":true,"confidence":4},{"trial_n":107,"span":9,"encoder":"987428995","distractor":"287428995","target":"present","response":"present","rt":"3674.6999999285","correct":true,"confidence":4},{"trial_n":108,"span":9,"encoder":"132183516","distractor":"132183515","target":"present","response":"present","rt":"11087.800000072","correct":true,"confidence":5},{"trial_n":109,"span":10,"encoder":"0385051774","distractor":"3385051774","target":"present","response":"present","rt":"5742.7999999523","correct":true,"confidence":5},{"trial_n":110,"span":10,"encoder":"7436597344","distractor":"7436597348","target":"absent","response":"absent","rt":"2315.6999999285","correct":true,"confidence":5},{"trial_n":111,"span":11,"encoder":"35488296930","distractor":"35488296330","target":"present","response":"absent","rt":"4607.6000000238","correct":false,"confidence":5},{"trial_n":112,"span":10,"encoder":"7086023244","distractor":"7036023244","target":"present","response":"absent","rt":"9434.9000000954","correct":false,"confidence":3},{"trial_n":113,"span":9,"encoder":"792790436","distractor":"792090436","target":"absent","response":"present","rt":"8158.5999999046","correct":false,"confidence":3},{"trial_n":114,"span":8,"encoder":"13201166","distractor":"10201166","target":"absent","response":"absent","rt":"7913.6000000238","correct":true,"confidence":3},{"trial_n":115,"span":8,"encoder":"49932453","distractor":"49232453","target":"present","response":"present","rt":"4875.3999999762","correct":true,"confidence":3},{"trial_n":116,"span":9,"encoder":"274523161","distractor":"074523161","target":"present","response":"present","rt":"3545.6000000238","correct":true,"confidence":3},{"trial_n":117,"span":9,"encoder":"337873443","distractor":"337813443","target":"present","response":"absent","rt":"4875","correct":false,"confidence":3},{"trial_n":118,"span":8,"encoder":"72152682","distractor":"72150682","target":"present","response":"present","rt":"6999.8000000715","correct":true,"confidence":4},{"trial_n":119,"span":8,"encoder":"92896752","distractor":"92892752","target":"present","response":"present","rt":"6428","correct":true,"confidence":4},{"trial_n":120,"span":9,"encoder":"805056631","distractor":"805058631","target":"present","response":"present","rt":"5643.7000000477","correct":true,"confidence":4},{"trial_n":121,"span":9,"encoder":"715888499","distractor":"714888499","target":"absent","response":"absent","rt":"6155.6000000238","correct":true,"confidence":4},{"trial_n":122,"span":10,"encoder":"4375816788","distractor":"4370816788","target":"absent","response":"present","rt":"8234.2999999523","correct":false,"confidence":3},{"trial_n":123,"span":9,"encoder":"906998293","distractor":"966998293","target":"absent","response":"present","rt":"3530.7999999523","correct":false,"confidence":5},{"trial_n":124,"span":8,"encoder":"70803513","distractor":"70103513","target":"absent","response":"present","rt":"4137","correct":false,"confidence":3},{"trial_n":125,"span":7,"encoder":"2278016","distractor":"2278056","target":"present","response":"present","rt":"3706.2999999523","correct":true,"confidence":5},{"trial_n":126,"span":7,"encoder":"4740911","distractor":"4740111","target":"present","response":"present","rt":"5993.3999999762","correct":true,"confidence":5},{"trial_n":127,"span":8,"encoder":"83811260","distractor":"83811280","target":"present","response":"present","rt":"5029.1999999285","correct":true,"confidence":4},{"trial_n":128,"span":8,"encoder":"96970241","distractor":"96970841","target":"present","response":"present","rt":"4272.2999999523","correct":true,"confidence":5},{"trial_n":129,"span":9,"encoder":"616802529","distractor":"616804529","target":"absent","response":"present","rt":"7159.6000000238","correct":false,"confidence":5},{"trial_n":130,"span":8,"encoder":"20649820","distractor":"20649720","target":"present","response":"present","rt":"5280.3000000715","correct":true,"confidence":4},{"trial_n":131,"span":8,"encoder":"68931682","distractor":"68930682","target":"absent","response":"present","rt":"5645.1999999285","correct":false,"confidence":3},{"trial_n":132,"span":7,"encoder":"1331330","distractor":"7331330","target":"absent","response":"absent","rt":"2745.5","correct":true,"confidence":5},{"trial_n":133,"span":7,"encoder":"2810373","distractor":"2810379","target":"present","response":"present","rt":"7391","correct":true,"confidence":4},{"trial_n":134,"span":8,"encoder":"64483741","distractor":"64483141","target":"present","response":"present","rt":"5520.1999999285","correct":true,"confidence":4},{"trial_n":135,"span":8,"encoder":"16174124","distractor":"16175124","target":"absent","response":"absent","rt":"4429.6000000238","correct":true,"confidence":5},{"trial_n":136,"span":9,"encoder":"051412906","distractor":"051412902","target":"present","response":"present","rt":"4868.5","correct":true,"confidence":5},{"trial_n":137,"span":9,"encoder":"857529775","distractor":"857520775","target":"absent","response":"absent","rt":"5940.5","correct":true,"confidence":3},{"trial_n":138,"span":10,"encoder":"5923457056","distractor":"5923451056","target":"absent","response":"absent","rt":"6229.3000000715","correct":true,"confidence":3},{"trial_n":139,"span":10,"encoder":"6528851530","distractor":"6521851530","target":"present","response":"present","rt":"3361.2999999523","correct":true,"confidence":4},{"trial_n":140,"span":11,"encoder":"53679427409","distractor":"53679627409","target":"absent","response":"present","rt":"10793.399999976","correct":false,"confidence":2}]