[{"trial_n":1,"n_dots":4.25,"target":"right","response":"left","rt":2575.099999994,"correct":false,"confidence":-1},{"trial_n":2,"n_dots":4.25,"target":"left","response":"left","rt":740.09999999404,"correct":true,"confidence":-1},{"trial_n":3,"n_dots":4.25,"target":"left","response":"left","rt":535.09999999404,"correct":true,"confidence":-1},{"trial_n":4,"n_dots":3.85,"target":"right","response":"left","rt":8072.1000000238,"correct":false,"confidence":-1},{"trial_n":5,"n_dots":4.25,"target":"right","response":"left","rt":707.5,"correct":false,"confidence":-1},{"trial_n":6,"n_dots":4.65,"target":"right","response":"right","rt":599.70000001788,"correct":true,"confidence":-1},{"trial_n":7,"n_dots":4.65,"target":"left","response":"left","rt":526.5,"correct":true,"confidence":-1},{"trial_n":8,"n_dots":4.45,"target":"left","response":"left","rt":535.09999999404,"correct":true,"confidence":-1},{"trial_n":9,"n_dots":4.45,"target":"left","response":"left","rt":705.59999999404,"correct":true,"confidence":-1},{"trial_n":10,"n_dots":4.25,"target":"left","response":"left","rt":561.90000000596,"correct":true,"confidence":-1},{"trial_n":11,"n_dots":4.25,"target":"left","response":"left","rt":506.89999997616,"correct":true,"confidence":-1},{"trial_n":12,"n_dots":4.05,"target":"right","response":"left","rt":603.09999999404,"correct":false,"confidence":-1},{"trial_n":13,"n_dots":4.15,"target":"right","response":"right","rt":724.40000000596,"correct":true,"confidence":-1},{"trial_n":14,"n_dots":4.15,"target":"right","response":"right","rt":886.89999997616,"correct":true,"confidence":-1},{"trial_n":15,"n_dots":4.05,"target":"right","response":"right","rt":576.69999998808,"correct":true,"confidence":-1},{"trial_n":16,"n_dots":4.05,"target":"left","response":"left","rt":527.40000000596,"correct":true,"confidence":-1},{"trial_n":17,"n_dots":3.95,"target":"left","response":"left","rt":3842.6999999881,"correct":true,"confidence":-1},{"trial_n":18,"n_dots":3.95,"target":"right","response":"right","rt":671.90000000596,"correct":true,"confidence":-1},{"trial_n":19,"n_dots":3.85,"target":"right","response":"right","rt":493.29999998212,"correct":true,"confidence":-1},{"trial_n":20,"n_dots":3.85,"target":"left","response":"left","rt":527.59999999404,"correct":true,"confidence":-1},{"trial_n":21,"n_dots":3.75,"target":"left","response":"left","rt":41.699999988079,"correct":true,"confidence":4},{"trial_n":22,"n_dots":3.75,"target":"right","response":"left","rt":1065,"correct":false,"confidence":3},{"trial_n":23,"n_dots":3.85,"target":"left","response":"left","rt":717.59999999404,"correct":true,"confidence":4},{"trial_n":24,"n_dots":3.85,"target":"left","response":"left","rt":1016.6999999881,"correct":true,"confidence":5},{"trial_n":25,"n_dots":3.75,"target":"right","response":"right","rt":860.69999998808,"correct":true,"confidence":4},{"trial_n":26,"n_dots":3.75,"target":"left","response":"left","rt":891.19999998808,"correct":true,"confidence":3},{"trial_n":27,"n_dots":3.65,"target":"right","response":"left","rt":1553.8000000119,"correct":false,"confidence":4},{"trial_n":28,"n_dots":3.75,"target":"right","response":"right","rt":453.10000002384,"correct":true,"confidence":4},{"trial_n":29,"n_dots":3.75,"target":"right","response":"right","rt":619.40000000596,"correct":true,"confidence":4},{"trial_n":30,"n_dots":3.65,"target":"left","response":"left","rt":871.80000001192,"correct":true,"confidence":5},{"trial_n":31,"n_dots":3.65,"target":"left","response":"left","rt":1289.2999999821,"correct":true,"confidence":4},{"trial_n":32,"n_dots":3.55,"target":"right","response":"right","rt":753.80000001192,"correct":true,"confidence":3},{"trial_n":33,"n_dots":3.55,"target":"right","response":"right","rt":549.29999998212,"correct":true,"confidence":4},{"trial_n":34,"n_dots":3.45,"target":"right","response":"right","rt":1353.3000000119,"correct":true,"confidence":4},{"trial_n":35,"n_dots":3.45,"target":"right","response":"right","rt":746.09999999404,"correct":true,"confidence":3},{"trial_n":36,"n_dots":3.35,"target":"left","response":"left","rt":434.20000001788,"correct":true,"confidence":5},{"trial_n":37,"n_dots":3.35,"target":"left","response":"left","rt":1132.2000000179,"correct":true,"confidence":4},{"trial_n":38,"n_dots":3.25,"target":"left","response":"left","rt":774.19999998808,"correct":true,"confidence":4},{"trial_n":39,"n_dots":3.25,"target":"right","response":"right","rt":483.80000001192,"correct":true,"confidence":4},{"trial_n":40,"n_dots":3.15,"target":"right","response":"right","rt":1400,"correct":true,"confidence":3},{"trial_n":41,"n_dots":3.15,"target":"right","response":"right","rt":569.69999998808,"correct":true,"confidence":4},{"trial_n":42,"n_dots":3.05,"target":"left","response":"left","rt":484.80000001192,"correct":true,"confidence":3},{"trial_n":43,"n_dots":3.05,"target":"left","response":"left","rt":605.69999998808,"correct":true,"confidence":4},{"trial_n":44,"n_dots":2.95,"target":"left","response":"left","rt":833.90000000596,"correct":true,"confidence":4},{"trial_n":45,"n_dots":2.95,"target":"right","response":"right","rt":629.80000001192,"correct":true,"confidence":4},{"trial_n":46,"n_dots":2.85,"target":"right","response":"left","rt":1209,"correct":false,"confidence":4},{"trial_n":47,"n_dots":2.95,"target":"right","response":"right","rt":1256.7999999821,"correct":true,"confidence":4},{"trial_n":48,"n_dots":2.95,"target":"left","response":"left","rt":1322.1999999881,"correct":true,"confidence":3},{"trial_n":49,"n_dots":2.85,"target":"right","response":"right","rt":1100.400000006,"correct":true,"confidence":3},{"trial_n":50,"n_dots":2.85,"target":"left","response":"left","rt":615.39999997616,"correct":true,"confidence":4},{"trial_n":51,"n_dots":2.75,"target":"right","response":"right","rt":1068.099999994,"correct":true,"confidence":3},{"trial_n":52,"n_dots":2.75,"target":"right","response":"left","rt":581.70000001788,"correct":false,"confidence":3},{"trial_n":53,"n_dots":2.85,"target":"left","response":"left","rt":838.40000000596,"correct":true,"confidence":4},{"trial_n":54,"n_dots":2.85,"target":"right","response":"left","rt":2032.400000006,"correct":false,"confidence":4},{"trial_n":55,"n_dots":2.95,"target":"left","response":"left","rt":1145.2999999821,"correct":true,"confidence":3},{"trial_n":56,"n_dots":2.95,"target":"left","response":"left","rt":533.69999998808,"correct":true,"confidence":5},{"trial_n":57,"n_dots":2.85,"target":"right","response":"right","rt":570.09999999404,"correct":true,"confidence":4},{"trial_n":58,"n_dots":2.85,"target":"right","response":"right","rt":1974.7000000179,"correct":true,"confidence":3},{"trial_n":59,"n_dots":2.75,"target":"left","response":"left","rt":563.5,"correct":true,"confidence":4},{"trial_n":60,"n_dots":2.75,"target":"left","response":"left","rt":686.30000001192,"correct":true,"confidence":4},{"trial_n":61,"n_dots":2.65,"target":"left","response":"left","rt":1124,"correct":true,"confidence":3},{"trial_n":62,"n_dots":2.65,"target":"right","response":"right","rt":799.70000001788,"correct":true,"confidence":4},{"trial_n":63,"n_dots":2.55,"target":"right","response":"left","rt":613.09999999404,"correct":false,"confidence":5},{"trial_n":64,"n_dots":2.65,"target":"right","response":"left","rt":1320.599999994,"correct":false,"confidence":3},{"trial_n":65,"n_dots":2.75,"target":"left","response":"left","rt":487.19999998808,"correct":true,"confidence":5},{"trial_n":66,"n_dots":2.75,"target":"right","response":"right","rt":2459.900000006,"correct":true,"confidence":3},{"trial_n":67,"n_dots":2.65,"target":"left","response":"left","rt":514.29999998212,"correct":true,"confidence":5},{"trial_n":68,"n_dots":2.65,"target":"left","response":"left","rt":722.20000001788,"correct":true,"confidence":5},{"trial_n":69,"n_dots":2.55,"target":"left","response":"left","rt":2530.6999999881,"correct":true,"confidence":3},{"trial_n":70,"n_dots":2.55,"target":"right","response":"left","rt":1032.6999999881,"correct":false,"confidence":3},{"trial_n":71,"n_dots":2.65,"target":"left","response":"left","rt":647.69999998808,"correct":true,"confidence":3},{"trial_n":72,"n_dots":2.65,"target":"right","response":"right","rt":2722.5,"correct":true,"confidence":3},{"trial_n":73,"n_dots":2.55,"target":"right","response":"left","rt":464.70000001788,"correct":false,"confidence":4},{"trial_n":74,"n_dots":2.65,"target":"right","response":"left","rt":361.20000001788,"correct":false,"confidence":4},{"trial_n":75,"n_dots":2.75,"target":"left","response":"left","rt":443.79999998212,"correct":true,"confidence":4},{"trial_n":76,"n_dots":2.75,"target":"left","response":"left","rt":1746,"correct":true,"confidence":5},{"trial_n":77,"n_dots":2.65,"target":"left","response":"left","rt":572.5,"correct":true,"confidence":4},{"trial_n":78,"n_dots":2.65,"target":"left","response":"left","rt":568.89999997616,"correct":true,"confidence":4},{"trial_n":79,"n_dots":2.55,"target":"right","response":"right","rt":762.79999998212,"correct":true,"confidence":4},{"trial_n":80,"n_dots":2.55,"target":"right","response":"left","rt":380.5,"correct":false,"confidence":5},{"trial_n":81,"n_dots":2.65,"target":"right","response":"left","rt":1999.3000000119,"correct":false,"confidence":2},{"trial_n":82,"n_dots":2.75,"target":"right","response":"left","rt":751.39999997616,"correct":false,"confidence":3},{"trial_n":83,"n_dots":2.85,"target":"right","response":"right","rt":2048.2000000179,"correct":true,"confidence":3},{"trial_n":84,"n_dots":2.85,"target":"right","response":"right","rt":705.69999998808,"correct":true,"confidence":3},{"trial_n":85,"n_dots":2.75,"target":"left","response":"left","rt":561.19999998808,"correct":true,"confidence":4},{"trial_n":86,"n_dots":2.75,"target":"left","response":"left","rt":640.29999998212,"correct":true,"confidence":4},{"trial_n":87,"n_dots":2.65,"target":"left","response":"left","rt":512.30000001192,"correct":true,"confidence":4},{"trial_n":88,"n_dots":2.65,"target":"left","response":"left","rt":630.90000000596,"correct":true,"confidence":5},{"trial_n":89,"n_dots":2.55,"target":"right","response":"left","rt":566.80000001192,"correct":false,"confidence":4},{"trial_n":90,"n_dots":2.65,"target":"right","response":"left","rt":1651.8999999762,"correct":false,"confidence":3},{"trial_n":91,"n_dots":2.75,"target":"left","response":"right","rt":1588.3999999762,"correct":false,"confidence":3},{"trial_n":92,"n_dots":2.85,"target":"left","response":"right","rt":1067.5,"correct":false,"confidence":2},{"trial_n":93,"n_dots":2.95,"target":"right","response":"right","rt":1160.099999994,"correct":true,"confidence":3},{"trial_n":94,"n_dots":2.95,"target":"left","response":"left","rt":908.19999998808,"correct":true,"confidence":3},{"trial_n":95,"n_dots":2.85,"target":"right","response":"right","rt":533.19999998808,"correct":true,"confidence":3},{"trial_n":96,"n_dots":2.85,"target":"right","response":"right","rt":943.30000001192,"correct":true,"confidence":2},{"trial_n":97,"n_dots":2.75,"target":"left","response":"left","rt":423.59999999404,"correct":true,"confidence":4},{"trial_n":98,"n_dots":2.75,"target":"left","response":"left","rt":3487,"correct":true,"confidence":3},{"trial_n":99,"n_dots":2.65,"target":"left","response":"left","rt":1055.2999999821,"correct":true,"confidence":2},{"trial_n":100,"n_dots":2.65,"target":"right","response":"right","rt":1269.599999994,"correct":true,"confidence":3},{"trial_n":101,"n_dots":2.55,"target":"right","response":"left","rt":639.59999999404,"correct":false,"confidence":3},{"trial_n":102,"n_dots":2.65,"target":"left","response":"right","rt":422.80000001192,"correct":false,"confidence":4},{"trial_n":103,"n_dots":2.75,"target":"right","response":"right","rt":697.20000001788,"correct":true,"confidence":5},{"trial_n":104,"n_dots":2.75,"target":"left","response":"left","rt":1501.3000000119,"correct":true,"confidence":4},{"trial_n":105,"n_dots":2.65,"target":"right","response":"right","rt":366.69999998808,"correct":true,"confidence":4},{"trial_n":106,"n_dots":2.65,"target":"right","response":"right","rt":960.80000001192,"correct":true,"confidence":4},{"trial_n":107,"n_dots":2.55,"target":"right","response":"left","rt":1082.599999994,"correct":false,"confidence":3},{"trial_n":108,"n_dots":2.65,"target":"left","response":"left","rt":343.69999998808,"correct":true,"confidence":4},{"trial_n":109,"n_dots":2.65,"target":"right","response":"left","rt":712.40000000596,"correct":false,"confidence":4},{"trial_n":110,"n_dots":2.75,"target":"right","response":"left","rt":484.90000000596,"correct":false,"confidence":4},{"trial_n":111,"n_dots":2.85,"target":"left","response":"left","rt":1550.8999999762,"correct":true,"confidence":3},{"trial_n":112,"n_dots":2.85,"target":"right","response":"right","rt":1667.3000000119,"correct":true,"confidence":4},{"trial_n":113,"n_dots":2.75,"target":"left","response":"left","rt":975.29999998212,"correct":true,"confidence":4},{"trial_n":114,"n_dots":2.75,"target":"left","response":"left","rt":503.20000001788,"correct":true,"confidence":4},{"trial_n":115,"n_dots":2.65,"target":"left","response":"left","rt":327.90000000596,"correct":true,"confidence":4},{"trial_n":116,"n_dots":2.65,"target":"left","response":"left","rt":346.19999998808,"correct":true,"confidence":3},{"trial_n":117,"n_dots":2.55,"target":"left","response":"left","rt":589.5,"correct":true,"confidence":4},{"trial_n":118,"n_dots":2.55,"target":"left","response":"left","rt":744.69999998808,"correct":true,"confidence":4},{"trial_n":119,"n_dots":2.45,"target":"right","response":"left","rt":449.59999999404,"correct":false,"confidence":4},{"trial_n":120,"n_dots":2.55,"target":"left","response":"left","rt":772,"correct":true,"confidence":3}]