[{"trial_n":1,"min":25,"max":230,"target":"present","response":"absent","rt":7049,"correct":false,"confidence":-1},{"trial_n":2,"min":25,"max":230,"target":"present","response":"present","rt":2443,"correct":true,"confidence":-1},{"trial_n":3,"min":25,"max":230,"target":"absent","response":"absent","rt":662.5,"correct":true,"confidence":-1},{"trial_n":4,"min":41,"max":214,"target":"absent","response":"absent","rt":532.69999992847,"correct":true,"confidence":-1},{"trial_n":5,"min":41,"max":214,"target":"present","response":"present","rt":367,"correct":true,"confidence":-1},{"trial_n":6,"min":57,"max":198,"target":"absent","response":"absent","rt":414.89999997616,"correct":true,"confidence":-1},{"trial_n":7,"min":57,"max":198,"target":"absent","response":"absent","rt":321.10000002384,"correct":true,"confidence":-1},{"trial_n":8,"min":73,"max":182,"target":"absent","response":"absent","rt":382.10000002384,"correct":true,"confidence":-1},{"trial_n":9,"min":73,"max":182,"target":"present","response":"absent","rt":1477.2999999523,"correct":false,"confidence":-1},{"trial_n":10,"min":57,"max":198,"target":"present","response":"present","rt":634.10000002384,"correct":true,"confidence":-1},{"trial_n":11,"min":57,"max":198,"target":"absent","response":"absent","rt":383.5,"correct":true,"confidence":-1},{"trial_n":12,"min":65,"max":190,"target":"present","response":"present","rt":462,"correct":true,"confidence":-1},{"trial_n":13,"min":65,"max":190,"target":"present","response":"absent","rt":659.70000004768,"correct":false,"confidence":-1},{"trial_n":14,"min":57,"max":198,"target":"absent","response":"absent","rt":525.20000004768,"correct":true,"confidence":-1},{"trial_n":15,"min":57,"max":198,"target":"present","response":"present","rt":446.59999990463,"correct":true,"confidence":-1},{"trial_n":16,"min":65,"max":190,"target":"present","response":"present","rt":352.30000007153,"correct":true,"confidence":-1},{"trial_n":17,"min":65,"max":190,"target":"present","response":"present","rt":372.90000009537,"correct":true,"confidence":-1},{"trial_n":18,"min":73,"max":182,"target":"absent","response":"absent","rt":472.89999997616,"correct":true,"confidence":-1},{"trial_n":19,"min":73,"max":182,"target":"absent","response":"absent","rt":388.30000007153,"correct":true,"confidence":-1},{"trial_n":20,"min":81,"max":174,"target":"absent","response":"absent","rt":274.5,"correct":true,"confidence":-1},{"trial_n":21,"min":81,"max":174,"target":"present","response":"present","rt":526.20000004768,"correct":true,"confidence":4},{"trial_n":22,"min":85,"max":170,"target":"present","response":"absent","rt":767.5,"correct":false,"confidence":3},{"trial_n":23,"min":81,"max":174,"target":"present","response":"absent","rt":494,"correct":false,"confidence":4},{"trial_n":24,"min":77,"max":178,"target":"present","response":"absent","rt":773.10000002384,"correct":false,"confidence":4},{"trial_n":25,"min":73,"max":182,"target":"absent","response":"absent","rt":600.5,"correct":true,"confidence":4},{"trial_n":26,"min":73,"max":182,"target":"present","response":"present","rt":1524.5,"correct":true,"confidence":4},{"trial_n":27,"min":77,"max":178,"target":"present","response":"present","rt":1648.3000000715,"correct":true,"confidence":4},{"trial_n":28,"min":77,"max":178,"target":"present","response":"present","rt":1508.6999999285,"correct":true,"confidence":4},{"trial_n":29,"min":81,"max":174,"target":"present","response":"present","rt":883.30000007153,"correct":true,"confidence":4},{"trial_n":30,"min":81,"max":174,"target":"present","response":"absent","rt":533.5,"correct":false,"confidence":4},{"trial_n":31,"min":79,"max":176,"target":"absent","response":"absent","rt":1496.8999999762,"correct":true,"confidence":4},{"trial_n":32,"min":79,"max":176,"target":"absent","response":"absent","rt":551,"correct":true,"confidence":4},{"trial_n":33,"min":81,"max":174,"target":"present","response":"absent","rt":813.70000004768,"correct":false,"confidence":4},{"trial_n":34,"min":79,"max":176,"target":"present","response":"absent","rt":471.90000009537,"correct":false,"confidence":4},{"trial_n":35,"min":77,"max":178,"target":"present","response":"present","rt":1077.3000000715,"correct":true,"confidence":4},{"trial_n":36,"min":77,"max":178,"target":"absent","response":"absent","rt":849,"correct":true,"confidence":3},{"trial_n":37,"min":79,"max":176,"target":"present","response":"absent","rt":416.10000002384,"correct":false,"confidence":1},{"trial_n":38,"min":77,"max":178,"target":"absent","response":"absent","rt":747,"correct":true,"confidence":3},{"trial_n":39,"min":77,"max":178,"target":"absent","response":"absent","rt":965,"correct":true,"confidence":2},{"trial_n":40,"min":79,"max":176,"target":"present","response":"absent","rt":2798.5,"correct":false,"confidence":2},{"trial_n":41,"min":78,"max":177,"target":"present","response":"present","rt":719.30000007153,"correct":true,"confidence":3},{"trial_n":42,"min":78,"max":177,"target":"present","response":"present","rt":922.89999997616,"correct":true,"confidence":5},{"trial_n":43,"min":79,"max":176,"target":"present","response":"present","rt":1131,"correct":true,"confidence":5},{"trial_n":44,"min":79,"max":176,"target":"absent","response":"absent","rt":563.10000002384,"correct":true,"confidence":3},{"trial_n":45,"min":80,"max":175,"target":"absent","response":"absent","rt":660.39999997616,"correct":true,"confidence":4},{"trial_n":46,"min":80,"max":175,"target":"present","response":"present","rt":740,"correct":true,"confidence":5},{"trial_n":47,"min":81,"max":174,"target":"absent","response":"absent","rt":497.69999992847,"correct":true,"confidence":4},{"trial_n":48,"min":81,"max":174,"target":"present","response":"present","rt":581.79999995232,"correct":true,"confidence":5},{"trial_n":49,"min":82,"max":173,"target":"absent","response":"absent","rt":653.5,"correct":true,"confidence":3},{"trial_n":50,"min":82,"max":173,"target":"absent","response":"absent","rt":473.20000004768,"correct":true,"confidence":5},{"trial_n":51,"min":83,"max":172,"target":"present","response":"present","rt":1236.8999999762,"correct":true,"confidence":5},{"trial_n":52,"min":83,"max":172,"target":"present","response":"present","rt":424.89999997616,"correct":true,"confidence":5},{"trial_n":53,"min":84,"max":171,"target":"absent","response":"absent","rt":481.39999997616,"correct":true,"confidence":5},{"trial_n":54,"min":84,"max":171,"target":"absent","response":"absent","rt":412.39999997616,"correct":true,"confidence":5},{"trial_n":55,"min":85,"max":170,"target":"absent","response":"absent","rt":455.60000002384,"correct":true,"confidence":5},{"trial_n":56,"min":85,"max":170,"target":"absent","response":"absent","rt":944.30000007153,"correct":true,"confidence":3},{"trial_n":57,"min":86,"max":169,"target":"absent","response":"absent","rt":1115.8000000715,"correct":true,"confidence":3},{"trial_n":58,"min":86,"max":169,"target":"absent","response":"absent","rt":530.89999997616,"correct":true,"confidence":2},{"trial_n":59,"min":87,"max":168,"target":"absent","response":"absent","rt":894.5,"correct":true,"confidence":2},{"trial_n":60,"min":87,"max":168,"target":"absent","response":"present","rt":931.40000009537,"correct":false,"confidence":2},{"trial_n":61,"min":86,"max":169,"target":"absent","response":"absent","rt":1483.8999999762,"correct":true,"confidence":2},{"trial_n":62,"min":86,"max":169,"target":"absent","response":"absent","rt":2144.6000000238,"correct":true,"confidence":2},{"trial_n":63,"min":87,"max":168,"target":"present","response":"present","rt":645.10000002384,"correct":true,"confidence":4},{"trial_n":64,"min":87,"max":168,"target":"present","response":"present","rt":837.70000004768,"correct":true,"confidence":4},{"trial_n":65,"min":88,"max":167,"target":"present","response":"absent","rt":484.20000004768,"correct":false,"confidence":4},{"trial_n":66,"min":87,"max":168,"target":"absent","response":"present","rt":1770.7000000477,"correct":false,"confidence":4},{"trial_n":67,"min":86,"max":169,"target":"absent","response":"present","rt":1190,"correct":false,"confidence":4},{"trial_n":68,"min":85,"max":170,"target":"present","response":"present","rt":1361.3000000715,"correct":true,"confidence":2},{"trial_n":69,"min":85,"max":170,"target":"absent","response":"absent","rt":1753.5,"correct":true,"confidence":2},{"trial_n":70,"min":86,"max":169,"target":"present","response":"absent","rt":434.30000007153,"correct":false,"confidence":2},{"trial_n":71,"min":41,"max":214,"target":"present","response":"present","rt":7758.3999999762,"correct":true,"confidence":-1},{"trial_n":72,"min":41,"max":214,"target":"present","response":"present","rt":643.79999995232,"correct":true,"confidence":-1},{"trial_n":73,"min":57,"max":198,"target":"absent","response":"absent","rt":545.10000002384,"correct":true,"confidence":-1},{"trial_n":74,"min":57,"max":198,"target":"absent","response":"absent","rt":424.39999997616,"correct":true,"confidence":-1},{"trial_n":75,"min":73,"max":182,"target":"present","response":"present","rt":318.39999997616,"correct":true,"confidence":-1},{"trial_n":76,"min":73,"max":182,"target":"absent","response":"absent","rt":750.79999995232,"correct":true,"confidence":-1},{"trial_n":77,"min":89,"max":166,"target":"absent","response":"absent","rt":533.19999992847,"correct":true,"confidence":-1},{"trial_n":78,"min":89,"max":166,"target":"absent","response":"present","rt":598.69999992847,"correct":false,"confidence":-1},{"trial_n":79,"min":73,"max":182,"target":"present","response":"present","rt":537.90000009537,"correct":true,"confidence":-1},{"trial_n":80,"min":73,"max":182,"target":"absent","response":"absent","rt":451.79999995232,"correct":true,"confidence":-1},{"trial_n":81,"min":81,"max":174,"target":"absent","response":"present","rt":686.20000004768,"correct":false,"confidence":-1},{"trial_n":82,"min":73,"max":182,"target":"present","response":"present","rt":780.80000007153,"correct":true,"confidence":-1},{"trial_n":83,"min":73,"max":182,"target":"present","response":"present","rt":335.5,"correct":true,"confidence":-1},{"trial_n":84,"min":81,"max":174,"target":"present","response":"present","rt":754,"correct":true,"confidence":-1},{"trial_n":85,"min":81,"max":174,"target":"present","response":"present","rt":516.29999995232,"correct":true,"confidence":-1},{"trial_n":86,"min":89,"max":166,"target":"present","response":"absent","rt":1239.6000000238,"correct":false,"confidence":-1},{"trial_n":87,"min":81,"max":174,"target":"absent","response":"present","rt":1488.1000000238,"correct":false,"confidence":-1},{"trial_n":88,"min":73,"max":182,"target":"absent","response":"present","rt":641.69999992847,"correct":false,"confidence":-1},{"trial_n":89,"min":65,"max":190,"target":"present","response":"present","rt":373,"correct":true,"confidence":-1},{"trial_n":90,"min":65,"max":190,"target":"absent","response":"absent","rt":682.69999992847,"correct":true,"confidence":-1},{"trial_n":91,"min":69,"max":186,"target":"present","response":"present","rt":358.5,"correct":true,"confidence":5},{"trial_n":92,"min":69,"max":186,"target":"present","response":"present","rt":572,"correct":true,"confidence":5},{"trial_n":93,"min":73,"max":182,"target":"absent","response":"absent","rt":1063.2000000477,"correct":true,"confidence":5},{"trial_n":94,"min":73,"max":182,"target":"present","response":"present","rt":387,"correct":true,"confidence":5},{"trial_n":95,"min":77,"max":178,"target":"present","response":"present","rt":441.89999997616,"correct":true,"confidence":5},{"trial_n":96,"min":77,"max":178,"target":"present","response":"present","rt":244.10000002384,"correct":true,"confidence":5},{"trial_n":97,"min":81,"max":174,"target":"absent","response":"absent","rt":976.89999997616,"correct":true,"confidence":5},{"trial_n":98,"min":81,"max":174,"target":"present","response":"absent","rt":1774.7000000477,"correct":false,"confidence":5},{"trial_n":99,"min":77,"max":178,"target":"absent","response":"absent","rt":618.60000002384,"correct":true,"confidence":5},{"trial_n":100,"min":77,"max":178,"target":"present","response":"present","rt":250,"correct":true,"confidence":5},{"trial_n":101,"min":79,"max":176,"target":"absent","response":"absent","rt":971.60000002384,"correct":true,"confidence":5},{"trial_n":102,"min":79,"max":176,"target":"present","response":"present","rt":607,"correct":true,"confidence":5},{"trial_n":103,"min":81,"max":174,"target":"absent","response":"absent","rt":892.10000002384,"correct":true,"confidence":5},{"trial_n":104,"min":81,"max":174,"target":"present","response":"present","rt":452.5,"correct":true,"confidence":4},{"trial_n":105,"min":83,"max":172,"target":"present","response":"present","rt":538.09999990463,"correct":true,"confidence":5},{"trial_n":106,"min":83,"max":172,"target":"present","response":"present","rt":502.69999992847,"correct":true,"confidence":5},{"trial_n":107,"min":85,"max":170,"target":"absent","response":"absent","rt":2014.3000000715,"correct":true,"confidence":3},{"trial_n":108,"min":85,"max":170,"target":"absent","response":"present","rt":1429.6000000238,"correct":false,"confidence":3},{"trial_n":109,"min":83,"max":172,"target":"present","response":"present","rt":376.69999992847,"correct":true,"confidence":4},{"trial_n":110,"min":83,"max":172,"target":"absent","response":"absent","rt":1190,"correct":true,"confidence":1},{"trial_n":111,"min":84,"max":171,"target":"present","response":"present","rt":856,"correct":true,"confidence":5},{"trial_n":112,"min":84,"max":171,"target":"present","response":"present","rt":416.60000002384,"correct":true,"confidence":5},{"trial_n":113,"min":85,"max":170,"target":"absent","response":"absent","rt":1828.5,"correct":true,"confidence":2},{"trial_n":114,"min":85,"max":170,"target":"absent","response":"present","rt":1038,"correct":false,"confidence":1},{"trial_n":115,"min":84,"max":171,"target":"absent","response":"present","rt":745.70000004768,"correct":false,"confidence":2},{"trial_n":116,"min":83,"max":172,"target":"absent","response":"absent","rt":755.70000004768,"correct":true,"confidence":3},{"trial_n":117,"min":83,"max":172,"target":"absent","response":"present","rt":1190.6000000238,"correct":false,"confidence":1},{"trial_n":118,"min":82,"max":173,"target":"present","response":"present","rt":749.39999997616,"correct":true,"confidence":3},{"trial_n":119,"min":82,"max":173,"target":"present","response":"present","rt":1464,"correct":true,"confidence":3},{"trial_n":120,"min":83,"max":172,"target":"present","response":"present","rt":599.39999997616,"correct":true,"confidence":2},{"trial_n":121,"min":83,"max":172,"target":"absent","response":"absent","rt":833.79999995232,"correct":true,"confidence":1},{"trial_n":122,"min":84,"max":171,"target":"present","response":"present","rt":427.5,"correct":true,"confidence":4},{"trial_n":123,"min":84,"max":171,"target":"present","response":"present","rt":559.60000002384,"correct":true,"confidence":4},{"trial_n":124,"min":85,"max":170,"target":"present","response":"present","rt":361.60000002384,"correct":true,"confidence":4},{"trial_n":125,"min":85,"max":170,"target":"present","response":"present","rt":396.5,"correct":true,"confidence":4},{"trial_n":126,"min":86,"max":169,"target":"present","response":"absent","rt":1685.2999999523,"correct":false,"confidence":2},{"trial_n":127,"min":85,"max":170,"target":"absent","response":"present","rt":847.29999995232,"correct":false,"confidence":4},{"trial_n":128,"min":84,"max":171,"target":"present","response":"present","rt":473,"correct":true,"confidence":3},{"trial_n":129,"min":84,"max":171,"target":"absent","response":"absent","rt":1229,"correct":true,"confidence":3},{"trial_n":130,"min":85,"max":170,"target":"absent","response":"absent","rt":752.39999997616,"correct":true,"confidence":2},{"trial_n":131,"min":85,"max":170,"target":"absent","response":"absent","rt":1888.7000000477,"correct":true,"confidence":2},{"trial_n":132,"min":86,"max":169,"target":"present","response":"absent","rt":645.20000004768,"correct":false,"confidence":3},{"trial_n":133,"min":85,"max":170,"target":"present","response":"present","rt":1109,"correct":true,"confidence":1},{"trial_n":134,"min":85,"max":170,"target":"absent","response":"present","rt":629.60000002384,"correct":false,"confidence":1},{"trial_n":135,"min":84,"max":171,"target":"absent","response":"present","rt":1420.6000000238,"correct":false,"confidence":3},{"trial_n":136,"min":83,"max":172,"target":"absent","response":"absent","rt":984.39999997616,"correct":true,"confidence":3},{"trial_n":137,"min":83,"max":172,"target":"absent","response":"present","rt":991.10000002384,"correct":false,"confidence":2},{"trial_n":138,"min":82,"max":173,"target":"absent","response":"present","rt":1433,"correct":false,"confidence":1},{"trial_n":139,"min":81,"max":174,"target":"absent","response":"present","rt":687.79999995232,"correct":false,"confidence":1},{"trial_n":140,"min":80,"max":175,"target":"present","response":"present","rt":768.30000007153,"correct":true,"confidence":2}]