[{"trial_n":1,"n_dots":4.25,"target":"right","response":"left","rt":3853,"correct":false,"confidence":-1},{"trial_n":2,"n_dots":4.25,"target":"right","response":"left","rt":1804.0999999642,"correct":false,"confidence":-1},{"trial_n":3,"n_dots":4.65,"target":"left","response":"left","rt":491.69999998808,"correct":true,"confidence":-1},{"trial_n":4,"n_dots":4.65,"target":"right","response":"right","rt":494.69999998808,"correct":true,"confidence":-1},{"trial_n":5,"n_dots":4.25,"target":"left","response":"left","rt":455.5,"correct":true,"confidence":-1},{"trial_n":6,"n_dots":4.25,"target":"right","response":"right","rt":676.19999998808,"correct":true,"confidence":-1},{"trial_n":7,"n_dots":3.85,"target":"left","response":"left","rt":475.80000001192,"correct":true,"confidence":-1},{"trial_n":8,"n_dots":3.85,"target":"left","response":"left","rt":313.30000001192,"correct":true,"confidence":-1},{"trial_n":9,"n_dots":3.65,"target":"right","response":"right","rt":1053.8000000119,"correct":true,"confidence":-1},{"trial_n":10,"n_dots":3.65,"target":"left","response":"left","rt":292.5,"correct":true,"confidence":-1},{"trial_n":11,"n_dots":3.45,"target":"left","response":"right","rt":372.29999995232,"correct":false,"confidence":-1},{"trial_n":12,"n_dots":3.65,"target":"left","response":"left","rt":409,"correct":true,"confidence":-1},{"trial_n":13,"n_dots":3.65,"target":"right","response":"right","rt":570.69999998808,"correct":true,"confidence":-1},{"trial_n":14,"n_dots":3.55,"target":"right","response":"right","rt":536.19999998808,"correct":true,"confidence":-1},{"trial_n":15,"n_dots":3.55,"target":"right","response":"right","rt":465.80000001192,"correct":true,"confidence":-1},{"trial_n":16,"n_dots":3.45,"target":"left","response":"right","rt":313.30000001192,"correct":false,"confidence":-1},{"trial_n":17,"n_dots":3.55,"target":"left","response":"left","rt":200.30000001192,"correct":true,"confidence":-1},{"trial_n":18,"n_dots":3.55,"target":"right","response":"right","rt":195.69999998808,"correct":true,"confidence":-1},{"trial_n":19,"n_dots":3.45,"target":"right","response":"left","rt":503.19999998808,"correct":false,"confidence":-1},{"trial_n":20,"n_dots":3.55,"target":"right","response":"right","rt":395,"correct":true,"confidence":-1},{"trial_n":21,"n_dots":3.55,"target":"left","response":"left","rt":472.30000001192,"correct":true,"confidence":3},{"trial_n":22,"n_dots":3.45,"target":"left","response":"left","rt":920.19999998808,"correct":true,"confidence":1},{"trial_n":23,"n_dots":3.45,"target":"left","response":"left","rt":474.79999995232,"correct":true,"confidence":4},{"trial_n":24,"n_dots":3.35,"target":"right","response":"right","rt":1009,"correct":true,"confidence":1},{"trial_n":25,"n_dots":3.35,"target":"right","response":"left","rt":943.10000002384,"correct":false,"confidence":1},{"trial_n":26,"n_dots":3.45,"target":"left","response":"left","rt":654,"correct":true,"confidence":2},{"trial_n":27,"n_dots":3.45,"target":"left","response":"left","rt":598,"correct":true,"confidence":4},{"trial_n":28,"n_dots":3.35,"target":"left","response":"left","rt":781.20000004768,"correct":true,"confidence":3},{"trial_n":29,"n_dots":3.35,"target":"left","response":"left","rt":591.5,"correct":true,"confidence":4},{"trial_n":30,"n_dots":3.25,"target":"right","response":"left","rt":737.5,"correct":false,"confidence":3},{"trial_n":31,"n_dots":3.35,"target":"left","response":"left","rt":1098.1000000238,"correct":true,"confidence":2},{"trial_n":32,"n_dots":3.35,"target":"left","response":"left","rt":1250.6999999881,"correct":true,"confidence":3},{"trial_n":33,"n_dots":3.25,"target":"left","response":"left","rt":332.10000002384,"correct":true,"confidence":5},{"trial_n":34,"n_dots":3.25,"target":"left","response":"left","rt":693,"correct":true,"confidence":3},{"trial_n":35,"n_dots":3.15,"target":"right","response":"right","rt":418.70000004768,"correct":true,"confidence":4},{"trial_n":36,"n_dots":3.15,"target":"right","response":"right","rt":427.60000002384,"correct":true,"confidence":3},{"trial_n":37,"n_dots":3.05,"target":"right","response":"right","rt":519.40000003576,"correct":true,"confidence":4},{"trial_n":38,"n_dots":3.05,"target":"left","response":"left","rt":810.30000001192,"correct":true,"confidence":1},{"trial_n":39,"n_dots":2.95,"target":"right","response":"right","rt":826.80000001192,"correct":true,"confidence":3},{"trial_n":40,"n_dots":2.95,"target":"left","response":"left","rt":616.5,"correct":true,"confidence":4},{"trial_n":41,"n_dots":2.85,"target":"right","response":"right","rt":777.39999997616,"correct":true,"confidence":1},{"trial_n":42,"n_dots":2.85,"target":"right","response":"left","rt":505.69999998808,"correct":false,"confidence":1},{"trial_n":43,"n_dots":2.95,"target":"right","response":"right","rt":645.39999997616,"correct":true,"confidence":4},{"trial_n":44,"n_dots":2.95,"target":"right","response":"left","rt":778.69999998808,"correct":false,"confidence":2},{"trial_n":45,"n_dots":3.05,"target":"right","response":"left","rt":1012.6999999881,"correct":false,"confidence":3},{"trial_n":46,"n_dots":3.15,"target":"right","response":"right","rt":433.69999998808,"correct":true,"confidence":5},{"trial_n":47,"n_dots":3.15,"target":"left","response":"left","rt":787.40000003576,"correct":true,"confidence":2},{"trial_n":48,"n_dots":3.05,"target":"left","response":"left","rt":400.30000001192,"correct":true,"confidence":4},{"trial_n":49,"n_dots":3.05,"target":"left","response":"left","rt":338.19999998808,"correct":true,"confidence":1},{"trial_n":50,"n_dots":2.95,"target":"right","response":"right","rt":397.39999997616,"correct":true,"confidence":3},{"trial_n":51,"n_dots":2.95,"target":"left","response":"left","rt":454,"correct":true,"confidence":3},{"trial_n":52,"n_dots":2.85,"target":"left","response":"left","rt":681.39999997616,"correct":true,"confidence":1},{"trial_n":53,"n_dots":2.85,"target":"left","response":"left","rt":894,"correct":true,"confidence":3},{"trial_n":54,"n_dots":2.75,"target":"right","response":"right","rt":484.10000002384,"correct":true,"confidence":3},{"trial_n":55,"n_dots":2.75,"target":"right","response":"left","rt":634.5,"correct":false,"confidence":3},{"trial_n":56,"n_dots":2.85,"target":"left","response":"left","rt":252.10000002384,"correct":true,"confidence":4},{"trial_n":57,"n_dots":2.85,"target":"left","response":"left","rt":336.10000002384,"correct":true,"confidence":5},{"trial_n":58,"n_dots":2.75,"target":"right","response":"left","rt":860.60000002384,"correct":false,"confidence":1},{"trial_n":59,"n_dots":2.85,"target":"left","response":"left","rt":972.90000003576,"correct":true,"confidence":2},{"trial_n":60,"n_dots":2.85,"target":"right","response":"left","rt":637.80000001192,"correct":false,"confidence":5},{"trial_n":61,"n_dots":2.95,"target":"right","response":"right","rt":1076,"correct":true,"confidence":1},{"trial_n":62,"n_dots":2.95,"target":"left","response":"left","rt":456.59999996424,"correct":true,"confidence":5},{"trial_n":63,"n_dots":2.85,"target":"left","response":"left","rt":523.10000002384,"correct":true,"confidence":5},{"trial_n":64,"n_dots":2.85,"target":"right","response":"left","rt":950.10000002384,"correct":false,"confidence":2},{"trial_n":65,"n_dots":2.95,"target":"left","response":"left","rt":648.90000003576,"correct":true,"confidence":4},{"trial_n":66,"n_dots":2.95,"target":"right","response":"right","rt":730.5,"correct":true,"confidence":1},{"trial_n":67,"n_dots":2.85,"target":"left","response":"left","rt":409.60000002384,"correct":true,"confidence":5},{"trial_n":68,"n_dots":2.85,"target":"left","response":"left","rt":658.19999998808,"correct":true,"confidence":3},{"trial_n":69,"n_dots":2.75,"target":"left","response":"left","rt":306,"correct":true,"confidence":5},{"trial_n":70,"n_dots":2.75,"target":"left","response":"left","rt":1156.8000000119,"correct":true,"confidence":4},{"trial_n":71,"n_dots":2.65,"target":"right","response":"right","rt":652,"correct":true,"confidence":5},{"trial_n":72,"n_dots":2.65,"target":"right","response":"left","rt":364.10000002384,"correct":false,"confidence":5},{"trial_n":73,"n_dots":2.75,"target":"left","response":"left","rt":594.20000004768,"correct":true,"confidence":4},{"trial_n":74,"n_dots":2.75,"target":"right","response":"right","rt":1085.3000000119,"correct":true,"confidence":3},{"trial_n":75,"n_dots":2.65,"target":"left","response":"left","rt":361.60000002384,"correct":true,"confidence":4},{"trial_n":76,"n_dots":2.65,"target":"right","response":"left","rt":1497.6000000238,"correct":false,"confidence":2},{"trial_n":77,"n_dots":2.75,"target":"left","response":"left","rt":769.40000003576,"correct":true,"confidence":5},{"trial_n":78,"n_dots":2.75,"target":"left","response":"left","rt":484.60000002384,"correct":true,"confidence":5},{"trial_n":79,"n_dots":2.65,"target":"left","response":"left","rt":458.30000001192,"correct":true,"confidence":4},{"trial_n":80,"n_dots":2.65,"target":"left","response":"left","rt":676.59999996424,"correct":true,"confidence":1},{"trial_n":81,"n_dots":2.55,"target":"right","response":"right","rt":720.80000001192,"correct":true,"confidence":3},{"trial_n":82,"n_dots":2.55,"target":"right","response":"left","rt":500.40000003576,"correct":false,"confidence":1},{"trial_n":83,"n_dots":2.65,"target":"right","response":"left","rt":778.5,"correct":false,"confidence":3},{"trial_n":84,"n_dots":2.75,"target":"left","response":"left","rt":320.90000003576,"correct":true,"confidence":3},{"trial_n":85,"n_dots":2.75,"target":"left","response":"left","rt":282,"correct":true,"confidence":3},{"trial_n":86,"n_dots":2.65,"target":"right","response":"right","rt":847.80000001192,"correct":true,"confidence":2},{"trial_n":87,"n_dots":2.65,"target":"right","response":"right","rt":447.5,"correct":true,"confidence":3},{"trial_n":88,"n_dots":2.55,"target":"left","response":"left","rt":209.69999998808,"correct":true,"confidence":4},{"trial_n":89,"n_dots":2.55,"target":"left","response":"left","rt":391.59999996424,"correct":true,"confidence":3},{"trial_n":90,"n_dots":2.45,"target":"right","response":"right","rt":273.90000003576,"correct":true,"confidence":4},{"trial_n":91,"n_dots":2.45,"target":"left","response":"left","rt":232.5,"correct":true,"confidence":5},{"trial_n":92,"n_dots":2.35,"target":"right","response":"left","rt":295.89999997616,"correct":false,"confidence":5},{"trial_n":93,"n_dots":2.45,"target":"left","response":"left","rt":383,"correct":true,"confidence":1},{"trial_n":94,"n_dots":2.45,"target":"left","response":"right","rt":774.80000001192,"correct":false,"confidence":1},{"trial_n":95,"n_dots":2.55,"target":"right","response":"right","rt":990.59999996424,"correct":true,"confidence":1},{"trial_n":96,"n_dots":2.55,"target":"right","response":"left","rt":281.39999997616,"correct":false,"confidence":5},{"trial_n":97,"n_dots":2.65,"target":"right","response":"left","rt":388.19999998808,"correct":false,"confidence":1},{"trial_n":98,"n_dots":2.75,"target":"right","response":"left","rt":564.60000002384,"correct":false,"confidence":3},{"trial_n":99,"n_dots":2.85,"target":"left","response":"left","rt":261.19999998808,"correct":true,"confidence":3},{"trial_n":100,"n_dots":2.85,"target":"left","response":"left","rt":310.39999997616,"correct":true,"confidence":5},{"trial_n":101,"n_dots":2.75,"target":"right","response":"left","rt":396.39999997616,"correct":false,"confidence":1},{"trial_n":102,"n_dots":2.85,"target":"right","response":"left","rt":462.30000001192,"correct":false,"confidence":1},{"trial_n":103,"n_dots":2.95,"target":"right","response":"right","rt":327.39999997616,"correct":true,"confidence":3},{"trial_n":104,"n_dots":2.95,"target":"left","response":"left","rt":149.80000001192,"correct":true,"confidence":4},{"trial_n":105,"n_dots":2.85,"target":"left","response":"left","rt":433.40000003576,"correct":true,"confidence":3},{"trial_n":106,"n_dots":2.85,"target":"right","response":"left","rt":494.59999996424,"correct":false,"confidence":4},{"trial_n":107,"n_dots":2.95,"target":"right","response":"left","rt":612.39999997616,"correct":false,"confidence":1},{"trial_n":108,"n_dots":3.05,"target":"left","response":"left","rt":448.20000004768,"correct":true,"confidence":3},{"trial_n":109,"n_dots":3.05,"target":"right","response":"right","rt":568.10000002384,"correct":true,"confidence":1},{"trial_n":110,"n_dots":2.95,"target":"left","response":"left","rt":521.59999996424,"correct":true,"confidence":3},{"trial_n":111,"n_dots":2.95,"target":"right","response":"right","rt":2052.6000000238,"correct":true,"confidence":1},{"trial_n":112,"n_dots":2.85,"target":"left","response":"left","rt":530.19999998808,"correct":true,"confidence":3},{"trial_n":113,"n_dots":2.85,"target":"left","response":"left","rt":494.19999998808,"correct":true,"confidence":3},{"trial_n":114,"n_dots":2.75,"target":"right","response":"right","rt":465.79999995232,"correct":true,"confidence":1},{"trial_n":115,"n_dots":2.75,"target":"left","response":"left","rt":243.30000001192,"correct":true,"confidence":4},{"trial_n":116,"n_dots":2.65,"target":"right","response":"right","rt":652.70000004768,"correct":true,"confidence":3},{"trial_n":117,"n_dots":2.65,"target":"right","response":"right","rt":1134,"correct":true,"confidence":2},{"trial_n":118,"n_dots":2.55,"target":"right","response":"left","rt":2672.4000000358,"correct":false,"confidence":2},{"trial_n":119,"n_dots":2.65,"target":"right","response":"left","rt":730.5,"correct":false,"confidence":1},{"trial_n":120,"n_dots":2.75,"target":"right","response":"left","rt":380.10000002384,"correct":false,"confidence":2}]