[{"trial_n":1,"span":8,"encoder":"66964295","distractor":"96964295","target":"present","response":"present","rt":"4998.3000000119","correct":true,"confidence":-1},{"trial_n":2,"span":8,"encoder":"06968813","distractor":"66968813","target":"present","response":"present","rt":"2155.2000000477","correct":true,"confidence":-1},{"trial_n":3,"span":10,"encoder":"1887046189","distractor":"1887046139","target":"absent","response":"absent","rt":"3177.8000000119","correct":true,"confidence":-1},{"trial_n":4,"span":10,"encoder":"4596206692","distractor":"4596206492","target":"absent","response":"absent","rt":"2426.4000000358","correct":true,"confidence":-1},{"trial_n":5,"span":12,"encoder":"274612046397","distractor":"374612046397","target":"present","response":"absent","rt":"1547.2000000477","correct":false,"confidence":-1},{"trial_n":6,"span":10,"encoder":"6535930490","distractor":"0535930490","target":"absent","response":"present","rt":"1431.6999999881","correct":false,"confidence":-1},{"trial_n":7,"span":8,"encoder":"68390397","distractor":"68390337","target":"present","response":"absent","rt":"1186.1000000238","correct":false,"confidence":-1},{"trial_n":8,"span":6,"encoder":"122964","distractor":"522964","target":"present","response":"present","rt":"2731.5","correct":true,"confidence":-1},{"trial_n":9,"span":6,"encoder":"698374","distractor":"698344","target":"absent","response":"present","rt":"1544.8000000119","correct":false,"confidence":-1},{"trial_n":10,"span":4,"encoder":"1379","distractor":"1359","target":"absent","response":"absent","rt":"1256.6999999881","correct":true,"confidence":-1},{"trial_n":11,"span":4,"encoder":"8560","distractor":"8570","target":"absent","response":"absent","rt":"4634.6999999881","correct":true,"confidence":-1},{"trial_n":12,"span":5,"encoder":"20301","distractor":"20321","target":"present","response":"present","rt":"1063.6999999881","correct":true,"confidence":-1},{"trial_n":13,"span":5,"encoder":"22334","distractor":"22337","target":"present","response":"present","rt":"1255.3000000119","correct":true,"confidence":-1},{"trial_n":14,"span":6,"encoder":"488896","distractor":"481896","target":"present","response":"absent","rt":"2857.8000000119","correct":false,"confidence":-1},{"trial_n":15,"span":5,"encoder":"77641","distractor":"77671","target":"absent","response":"absent","rt":"1633.8000000119","correct":true,"confidence":-1},{"trial_n":16,"span":5,"encoder":"22400","distractor":"82400","target":"present","response":"present","rt":"1623.1999999881","correct":true,"confidence":-1},{"trial_n":17,"span":6,"encoder":"247298","distractor":"247290","target":"present","response":"present","rt":"1469.6000000238","correct":true,"confidence":-1},{"trial_n":18,"span":6,"encoder":"974180","distractor":"974780","target":"present","response":"present","rt":"1778","correct":true,"confidence":-1},{"trial_n":19,"span":7,"encoder":"6311326","distractor":"7311326","target":"absent","response":"absent","rt":"2274.9000000358","correct":true,"confidence":-1},{"trial_n":20,"span":7,"encoder":"9285256","distractor":"9284256","target":"present","response":"present","rt":"3035.0999999642","correct":true,"confidence":-1},{"trial_n":21,"span":8,"encoder":"50516399","distractor":"50416399","target":"absent","response":"present","rt":"3241.8999999762","correct":false,"confidence":3},{"trial_n":22,"span":7,"encoder":"1948141","distractor":"1948181","target":"absent","response":"absent","rt":"4442.3999999762","correct":true,"confidence":4},{"trial_n":23,"span":7,"encoder":"0622421","distractor":"0622424","target":"present","response":"present","rt":"3022.8000000119","correct":true,"confidence":3},{"trial_n":24,"span":8,"encoder":"49487336","distractor":"49467336","target":"absent","response":"present","rt":"5476.1000000238","correct":false,"confidence":3},{"trial_n":25,"span":7,"encoder":"5787028","distractor":"5987028","target":"present","response":"present","rt":"2269","correct":true,"confidence":5},{"trial_n":26,"span":7,"encoder":"4726213","distractor":"4729213","target":"absent","response":"present","rt":"4926.3000000119","correct":false,"confidence":2},{"trial_n":27,"span":6,"encoder":"088949","distractor":"088649","target":"absent","response":"absent","rt":"2999.5999999642","correct":true,"confidence":5},{"trial_n":28,"span":6,"encoder":"543805","distractor":"543505","target":"present","response":"present","rt":"1601.6999999881","correct":true,"confidence":5},{"trial_n":29,"span":7,"encoder":"5741209","distractor":"5744209","target":"present","response":"present","rt":"1909","correct":true,"confidence":5},{"trial_n":30,"span":7,"encoder":"4928188","distractor":"4978188","target":"absent","response":"absent","rt":"3204.0999999642","correct":true,"confidence":3},{"trial_n":31,"span":8,"encoder":"78217489","distractor":"78247489","target":"absent","response":"absent","rt":"3566.8999999762","correct":true,"confidence":4},{"trial_n":32,"span":8,"encoder":"41302648","distractor":"41302148","target":"present","response":"present","rt":"2601.1999999881","correct":true,"confidence":5},{"trial_n":33,"span":9,"encoder":"315735546","distractor":"215735546","target":"absent","response":"absent","rt":"4119","correct":true,"confidence":3},{"trial_n":34,"span":9,"encoder":"560958294","distractor":"560908294","target":"present","response":"absent","rt":"3009.3999999762","correct":false,"confidence":4},{"trial_n":35,"span":8,"encoder":"19612568","distractor":"19612563","target":"present","response":"present","rt":"2038.7999999523","correct":true,"confidence":4},{"trial_n":36,"span":8,"encoder":"52833937","distractor":"52833947","target":"absent","response":"absent","rt":"3714","correct":true,"confidence":2},{"trial_n":37,"span":9,"encoder":"210851632","distractor":"210851635","target":"present","response":"absent","rt":"1953.0999999642","correct":false,"confidence":1},{"trial_n":38,"span":8,"encoder":"86159956","distractor":"86159986","target":"absent","response":"present","rt":"2389.8999999762","correct":false,"confidence":5},{"trial_n":39,"span":7,"encoder":"9516954","distractor":"9516955","target":"absent","response":"absent","rt":"3003.3999999762","correct":true,"confidence":5},{"trial_n":40,"span":7,"encoder":"9556008","distractor":"9556068","target":"present","response":"present","rt":"2061.5","correct":true,"confidence":5},{"trial_n":41,"span":8,"encoder":"40108906","distractor":"40108903","target":"absent","response":"absent","rt":"4580.3999999762","correct":true,"confidence":4},{"trial_n":42,"span":8,"encoder":"31947393","distractor":"31947793","target":"absent","response":"absent","rt":"4576.3000000119","correct":true,"confidence":4},{"trial_n":43,"span":9,"encoder":"469248131","distractor":"069248131","target":"absent","response":"present","rt":"3078","correct":false,"confidence":4},{"trial_n":44,"span":8,"encoder":"42473692","distractor":"42471692","target":"present","response":"present","rt":"2714.3000000119","correct":true,"confidence":5},{"trial_n":45,"span":8,"encoder":"56544610","distractor":"56444610","target":"present","response":"present","rt":"2491.6999999881","correct":true,"confidence":5},{"trial_n":46,"span":9,"encoder":"944433353","distractor":"944430353","target":"absent","response":"present","rt":"1651.2000000477","correct":false,"confidence":3},{"trial_n":47,"span":8,"encoder":"94924203","distractor":"94324203","target":"absent","response":"absent","rt":"1832.6000000238","correct":true,"confidence":5},{"trial_n":48,"span":8,"encoder":"34736689","distractor":"24736689","target":"absent","response":"present","rt":"3635.3000000119","correct":false,"confidence":2},{"trial_n":49,"span":7,"encoder":"4551445","distractor":"5551445","target":"present","response":"present","rt":"3055.8000000119","correct":true,"confidence":3},{"trial_n":50,"span":7,"encoder":"5260302","distractor":"5240302","target":"absent","response":"absent","rt":"4154.1000000238","correct":true,"confidence":1},{"trial_n":51,"span":8,"encoder":"11347494","distractor":"15347494","target":"absent","response":"present","rt":"3992.1999999881","correct":false,"confidence":3},{"trial_n":52,"span":7,"encoder":"3333094","distractor":"3333194","target":"present","response":"present","rt":"1513.5","correct":true,"confidence":5},{"trial_n":53,"span":7,"encoder":"5097145","distractor":"5097141","target":"present","response":"present","rt":"1868.6000000238","correct":true,"confidence":2},{"trial_n":54,"span":8,"encoder":"45954905","distractor":"45854905","target":"present","response":"absent","rt":"3016.3999999762","correct":false,"confidence":3},{"trial_n":55,"span":7,"encoder":"3995216","distractor":"3945216","target":"present","response":"present","rt":"1878.8000000119","correct":true,"confidence":5},{"trial_n":56,"span":7,"encoder":"7758424","distractor":"0758424","target":"present","response":"present","rt":"2095.8999999762","correct":true,"confidence":5},{"trial_n":57,"span":8,"encoder":"19951289","distractor":"19951283","target":"present","response":"present","rt":"2130.3000000119","correct":true,"confidence":5},{"trial_n":58,"span":8,"encoder":"32247675","distractor":"32547675","target":"absent","response":"absent","rt":"2450.8000000119","correct":true,"confidence":5},{"trial_n":59,"span":9,"encoder":"218159762","distractor":"248159762","target":"absent","response":"absent","rt":"3375.8999999762","correct":true,"confidence":4},{"trial_n":60,"span":9,"encoder":"446542454","distractor":"446532454","target":"absent","response":"absent","rt":"4910.8000000119","correct":true,"confidence":4},{"trial_n":61,"span":10,"encoder":"5142323323","distractor":"5842323323","target":"absent","response":"absent","rt":"2848","correct":true,"confidence":3},{"trial_n":62,"span":10,"encoder":"1567336601","distractor":"1667336601","target":"absent","response":"absent","rt":"5117.2999999523","correct":true,"confidence":3},{"trial_n":63,"span":11,"encoder":"76600421077","distractor":"76640421077","target":"absent","response":"absent","rt":"3127.2000000477","correct":true,"confidence":3},{"trial_n":64,"span":11,"encoder":"63414106971","distractor":"63414006971","target":"absent","response":"present","rt":"3206.1000000238","correct":false,"confidence":4},{"trial_n":65,"span":10,"encoder":"3268875873","distractor":"3668875873","target":"present","response":"absent","rt":"4370.0999999642","correct":false,"confidence":4},{"trial_n":66,"span":9,"encoder":"643263900","distractor":"683263900","target":"present","response":"present","rt":"2773.8000000119","correct":true,"confidence":5},{"trial_n":67,"span":9,"encoder":"642192125","distractor":"649192125","target":"present","response":"present","rt":"1614.8000000119","correct":true,"confidence":1},{"trial_n":68,"span":10,"encoder":"3755144960","distractor":"3755144910","target":"present","response":"present","rt":"2976","correct":true,"confidence":3},{"trial_n":69,"span":10,"encoder":"4467301246","distractor":"4667301246","target":"present","response":"present","rt":"3152.9000000358","correct":true,"confidence":5},{"trial_n":70,"span":11,"encoder":"23742115048","distractor":"23742115045","target":"present","response":"present","rt":"2900.3000000119","correct":true,"confidence":3},{"trial_n":71,"span":8,"encoder":"82194170","distractor":"82194070","target":"present","response":"present","rt":"5412.8000000119","correct":true,"confidence":-1},{"trial_n":72,"span":8,"encoder":"86461210","distractor":"46461210","target":"present","response":"present","rt":"5282.1000000238","correct":true,"confidence":-1},{"trial_n":73,"span":9,"encoder":"385393760","distractor":"385373760","target":"absent","response":"present","rt":"3096.3000000119","correct":false,"confidence":-1},{"trial_n":74,"span":8,"encoder":"25848444","distractor":"85848444","target":"absent","response":"absent","rt":"3509.8000000119","correct":true,"confidence":-1},{"trial_n":75,"span":8,"encoder":"19234902","distractor":"09234902","target":"present","response":"present","rt":"1475.1999999881","correct":true,"confidence":-1},{"trial_n":76,"span":9,"encoder":"977752207","distractor":"972752207","target":"absent","response":"absent","rt":"2161.2999999523","correct":true,"confidence":-1},{"trial_n":77,"span":9,"encoder":"433315679","distractor":"493315679","target":"present","response":"present","rt":"2905.5","correct":true,"confidence":-1},{"trial_n":78,"span":10,"encoder":"3393114898","distractor":"3393114894","target":"absent","response":"present","rt":"3907.3000000119","correct":false,"confidence":-1},{"trial_n":79,"span":9,"encoder":"134512210","distractor":"139512210","target":"present","response":"present","rt":"1608.1000000238","correct":true,"confidence":-1},{"trial_n":80,"span":9,"encoder":"943024186","distractor":"543024186","target":"absent","response":"present","rt":"572.79999995232","correct":false,"confidence":-1},{"trial_n":81,"span":8,"encoder":"41030990","distractor":"41035990","target":"absent","response":"present","rt":"741.39999997616","correct":false,"confidence":-1},{"trial_n":82,"span":7,"encoder":"4889514","distractor":"4889314","target":"absent","response":"present","rt":"1227.5","correct":false,"confidence":-1},{"trial_n":83,"span":6,"encoder":"032946","distractor":"732946","target":"present","response":"present","rt":"743.10000002384","correct":true,"confidence":-1},{"trial_n":84,"span":6,"encoder":"353208","distractor":"353708","target":"absent","response":"absent","rt":"2268.9000000358","correct":true,"confidence":-1},{"trial_n":85,"span":7,"encoder":"0121778","distractor":"0111778","target":"present","response":"present","rt":"2172.9000000358","correct":true,"confidence":-1},{"trial_n":86,"span":7,"encoder":"5157199","distractor":"5157599","target":"absent","response":"absent","rt":"2581","correct":true,"confidence":-1},{"trial_n":87,"span":8,"encoder":"59605144","distractor":"49605144","target":"absent","response":"present","rt":"2032","correct":false,"confidence":-1},{"trial_n":88,"span":7,"encoder":"6598319","distractor":"3598319","target":"absent","response":"absent","rt":"2221.4000000358","correct":true,"confidence":-1},{"trial_n":89,"span":7,"encoder":"9876821","distractor":"9976821","target":"present","response":"present","rt":"2766.9000000358","correct":true,"confidence":-1},{"trial_n":90,"span":8,"encoder":"20197798","distractor":"20192798","target":"present","response":"present","rt":"4048","correct":true,"confidence":-1},{"trial_n":91,"span":8,"encoder":"63887672","distractor":"53887672","target":"present","response":"present","rt":"6104.6000000238","correct":true,"confidence":3},{"trial_n":92,"span":9,"encoder":"103989242","distractor":"163989242","target":"absent","response":"absent","rt":"1892.3999999762","correct":true,"confidence":5},{"trial_n":93,"span":9,"encoder":"637636680","distractor":"637736680","target":"absent","response":"present","rt":"6221.1999999881","correct":false,"confidence":3},{"trial_n":94,"span":8,"encoder":"48185000","distractor":"48195000","target":"present","response":"present","rt":"5597.8999999762","correct":true,"confidence":1},{"trial_n":95,"span":8,"encoder":"81172719","distractor":"81072719","target":"absent","response":"absent","rt":"2668.5999999642","correct":true,"confidence":5},{"trial_n":96,"span":9,"encoder":"628265933","distractor":"628265930","target":"present","response":"absent","rt":"5366","correct":false,"confidence":2},{"trial_n":97,"span":8,"encoder":"12555128","distractor":"12553128","target":"absent","response":"absent","rt":"4668.6999999881","correct":true,"confidence":5},{"trial_n":98,"span":8,"encoder":"85292386","distractor":"85296386","target":"present","response":"present","rt":"2599.5","correct":true,"confidence":5},{"trial_n":99,"span":9,"encoder":"378265998","distractor":"478265998","target":"absent","response":"absent","rt":"2730.6000000238","correct":true,"confidence":5},{"trial_n":100,"span":9,"encoder":"357337641","distractor":"357387641","target":"absent","response":"absent","rt":"1960","correct":true,"confidence":5},{"trial_n":101,"span":10,"encoder":"1924444577","distractor":"1926444577","target":"present","response":"present","rt":"2185.1999999881","correct":true,"confidence":5},{"trial_n":102,"span":10,"encoder":"3295939733","distractor":"3295439733","target":"absent","response":"absent","rt":"3471.3000000119","correct":true,"confidence":5},{"trial_n":103,"span":11,"encoder":"86264438655","distractor":"86264430655","target":"present","response":"absent","rt":"6979.7999999523","correct":false,"confidence":2},{"trial_n":104,"span":10,"encoder":"9703571566","distractor":"9703501566","target":"absent","response":"absent","rt":"3422.5","correct":true,"confidence":4},{"trial_n":105,"span":10,"encoder":"4011242051","distractor":"4011242056","target":"present","response":"present","rt":"6195.3999999762","correct":true,"confidence":4},{"trial_n":106,"span":11,"encoder":"67587838503","distractor":"87587838503","target":"present","response":"present","rt":"1391.1999999881","correct":true,"confidence":5},{"trial_n":107,"span":11,"encoder":"32976317041","distractor":"32976319041","target":"present","response":"present","rt":"5249.4000000358","correct":true,"confidence":2},{"trial_n":108,"span":12,"encoder":"887766780923","distractor":"889766780923","target":"present","response":"present","rt":"3660.1999999881","correct":true,"confidence":5},{"trial_n":109,"span":12,"encoder":"299498855857","distractor":"299498855357","target":"present","response":"present","rt":"7411.6999999881","correct":true,"confidence":2},{"trial_n":110,"span":13,"encoder":"0220905354411","distractor":"0220905354451","target":"present","response":"present","rt":"7572.9000000358","correct":true,"confidence":3},{"trial_n":111,"span":13,"encoder":"5800360736542","distractor":"3800360736542","target":"absent","response":"present","rt":"3607.2000000477","correct":false,"confidence":5},{"trial_n":112,"span":12,"encoder":"986729027459","distractor":"986729027429","target":"present","response":"present","rt":"5136.3999999762","correct":true,"confidence":2},{"trial_n":113,"span":12,"encoder":"154032247210","distractor":"154032447210","target":"absent","response":"absent","rt":"3349.5","correct":true,"confidence":4},{"trial_n":114,"span":13,"encoder":"2463726387952","distractor":"2463725387952","target":"present","response":"present","rt":"6099","correct":true,"confidence":1},{"trial_n":115,"span":13,"encoder":"2488996028742","distractor":"2488996028542","target":"absent","response":"present","rt":"7823.5","correct":false,"confidence":2},{"trial_n":116,"span":12,"encoder":"469443231467","distractor":"469443231497","target":"absent","response":"absent","rt":"11608.099999964","correct":true,"confidence":3},{"trial_n":117,"span":12,"encoder":"018320171495","distractor":"018320971495","target":"absent","response":"absent","rt":"5230.1000000238","correct":true,"confidence":1},{"trial_n":118,"span":13,"encoder":"6442072186852","distractor":"6442072186822","target":"present","response":"present","rt":"826.19999998808","correct":true,"confidence":1},{"trial_n":119,"span":13,"encoder":"7402305314691","distractor":"7402305314698","target":"present","response":"absent","rt":"3547","correct":false,"confidence":1},{"trial_n":120,"span":12,"encoder":"542958895524","distractor":"542758895524","target":"present","response":"present","rt":"3574.1000000238","correct":true,"confidence":5},{"trial_n":121,"span":12,"encoder":"083811024909","distractor":"083811094909","target":"absent","response":"present","rt":"6798.5999999642","correct":false,"confidence":2},{"trial_n":122,"span":11,"encoder":"27506662697","distractor":"27506652697","target":"present","response":"present","rt":"3510","correct":true,"confidence":4},{"trial_n":123,"span":11,"encoder":"41690178880","distractor":"41690178580","target":"absent","response":"absent","rt":"3137","correct":true,"confidence":2},{"trial_n":124,"span":12,"encoder":"133283973870","distractor":"133203973870","target":"present","response":"present","rt":"2437.8999999762","correct":true,"confidence":4},{"trial_n":125,"span":12,"encoder":"472132344314","distractor":"172132344314","target":"absent","response":"absent","rt":"4590.8999999762","correct":true,"confidence":3},{"trial_n":126,"span":13,"encoder":"6140555685148","distractor":"6140585685148","target":"present","response":"present","rt":"8533.5999999642","correct":true,"confidence":1},{"trial_n":127,"span":13,"encoder":"5206913122896","distractor":"5106913122896","target":"present","response":"absent","rt":"3239.0999999642","correct":false,"confidence":5},{"trial_n":128,"span":12,"encoder":"660489229005","distractor":"660479229005","target":"present","response":"absent","rt":"7474.5","correct":false,"confidence":3},{"trial_n":129,"span":11,"encoder":"53758338868","distractor":"53758338865","target":"absent","response":"present","rt":"10846.699999988","correct":false,"confidence":2},{"trial_n":130,"span":10,"encoder":"0356250280","distractor":"0356250284","target":"present","response":"present","rt":"1776.9000000358","correct":true,"confidence":5},{"trial_n":131,"span":10,"encoder":"2286480546","distractor":"2206480546","target":"absent","response":"present","rt":"2746.5","correct":false,"confidence":4},{"trial_n":132,"span":9,"encoder":"564920909","distractor":"564900909","target":"present","response":"present","rt":"5967.3000000119","correct":true,"confidence":4},{"trial_n":133,"span":9,"encoder":"678379696","distractor":"678579696","target":"absent","response":"absent","rt":"6144.5","correct":true,"confidence":2},{"trial_n":134,"span":10,"encoder":"2699813770","distractor":"9699813770","target":"present","response":"present","rt":"6258.3000000119","correct":true,"confidence":4},{"trial_n":135,"span":10,"encoder":"6305037307","distractor":"6325037307","target":"present","response":"present","rt":"2263","correct":true,"confidence":5},{"trial_n":136,"span":11,"encoder":"43253312747","distractor":"43253310747","target":"absent","response":"absent","rt":"2191.8999999762","correct":true,"confidence":5},{"trial_n":137,"span":11,"encoder":"41307811461","distractor":"21307811461","target":"absent","response":"present","rt":"2500.1999999881","correct":false,"confidence":1},{"trial_n":138,"span":10,"encoder":"8599456836","distractor":"8596456836","target":"present","response":"present","rt":"8472.3000000119","correct":true,"confidence":4},{"trial_n":139,"span":10,"encoder":"3438143368","distractor":"3438123368","target":"absent","response":"absent","rt":"6934.6999999881","correct":true,"confidence":1},{"trial_n":140,"span":11,"encoder":"52059997635","distractor":"52059997634","target":"absent","response":"absent","rt":"6593.3000000119","correct":true,"confidence":4}]