[{"trial_n":1,"min":25,"max":230,"target":"present","response":"absent","rt":9400.4000000358,"correct":false,"confidence":-1},{"trial_n":2,"min":25,"max":230,"target":"present","response":"present","rt":1088.2000000477,"correct":true,"confidence":-1},{"trial_n":3,"min":25,"max":230,"target":"absent","response":"absent","rt":541.5,"correct":true,"confidence":-1},{"trial_n":4,"min":41,"max":214,"target":"absent","response":"absent","rt":485.40000003576,"correct":true,"confidence":-1},{"trial_n":5,"min":41,"max":214,"target":"present","response":"present","rt":411.60000002384,"correct":true,"confidence":-1},{"trial_n":6,"min":57,"max":198,"target":"present","response":"present","rt":560.59999996424,"correct":true,"confidence":-1},{"trial_n":7,"min":57,"max":198,"target":"absent","response":"absent","rt":689.60000002384,"correct":true,"confidence":-1},{"trial_n":8,"min":73,"max":182,"target":"absent","response":"absent","rt":380.19999998808,"correct":true,"confidence":-1},{"trial_n":9,"min":73,"max":182,"target":"present","response":"present","rt":344.20000004768,"correct":true,"confidence":-1},{"trial_n":10,"min":89,"max":166,"target":"absent","response":"absent","rt":429.59999996424,"correct":true,"confidence":-1},{"trial_n":11,"min":89,"max":166,"target":"present","response":"absent","rt":359.79999995232,"correct":false,"confidence":-1},{"trial_n":12,"min":81,"max":174,"target":"absent","response":"present","rt":563,"correct":false,"confidence":-1},{"trial_n":13,"min":73,"max":182,"target":"absent","response":"present","rt":1483.6000000238,"correct":false,"confidence":-1},{"trial_n":14,"min":65,"max":190,"target":"present","response":"present","rt":431.59999996424,"correct":true,"confidence":-1},{"trial_n":15,"min":65,"max":190,"target":"absent","response":"absent","rt":475.39999997616,"correct":true,"confidence":-1},{"trial_n":16,"min":73,"max":182,"target":"absent","response":"absent","rt":812.30000001192,"correct":true,"confidence":-1},{"trial_n":17,"min":73,"max":182,"target":"absent","response":"absent","rt":346.40000003576,"correct":true,"confidence":-1},{"trial_n":18,"min":81,"max":174,"target":"present","response":"present","rt":289.60000002384,"correct":true,"confidence":-1},{"trial_n":19,"min":81,"max":174,"target":"present","response":"present","rt":236.69999998808,"correct":true,"confidence":-1},{"trial_n":20,"min":89,"max":166,"target":"absent","response":"absent","rt":345.90000003576,"correct":true,"confidence":-1},{"trial_n":21,"min":89,"max":166,"target":"present","response":"absent","rt":1385.3000000119,"correct":false,"confidence":2},{"trial_n":22,"min":85,"max":170,"target":"present","response":"absent","rt":1759.5999999642,"correct":false,"confidence":4},{"trial_n":23,"min":81,"max":174,"target":"absent","response":"absent","rt":570.29999995232,"correct":true,"confidence":5},{"trial_n":24,"min":81,"max":174,"target":"absent","response":"present","rt":537.29999995232,"correct":false,"confidence":4},{"trial_n":25,"min":77,"max":178,"target":"absent","response":"present","rt":516,"correct":false,"confidence":3},{"trial_n":26,"min":73,"max":182,"target":"present","response":"present","rt":431.80000001192,"correct":true,"confidence":5},{"trial_n":27,"min":73,"max":182,"target":"absent","response":"absent","rt":1041.5,"correct":true,"confidence":2},{"trial_n":28,"min":77,"max":178,"target":"present","response":"present","rt":391.80000001192,"correct":true,"confidence":5},{"trial_n":29,"min":77,"max":178,"target":"present","response":"present","rt":387.19999998808,"correct":true,"confidence":5},{"trial_n":30,"min":81,"max":174,"target":"present","response":"present","rt":927.40000003576,"correct":true,"confidence":5},{"trial_n":31,"min":81,"max":174,"target":"absent","response":"absent","rt":1971.7000000477,"correct":true,"confidence":1},{"trial_n":32,"min":83,"max":172,"target":"present","response":"absent","rt":773,"correct":false,"confidence":3},{"trial_n":33,"min":81,"max":174,"target":"present","response":"present","rt":486.29999995232,"correct":true,"confidence":4},{"trial_n":34,"min":81,"max":174,"target":"present","response":"present","rt":317.60000002384,"correct":true,"confidence":5},{"trial_n":35,"min":83,"max":172,"target":"present","response":"present","rt":487.60000002384,"correct":true,"confidence":2},{"trial_n":36,"min":83,"max":172,"target":"absent","response":"absent","rt":400.10000002384,"correct":true,"confidence":5},{"trial_n":37,"min":85,"max":170,"target":"present","response":"absent","rt":1647.1000000238,"correct":false,"confidence":2},{"trial_n":38,"min":83,"max":172,"target":"present","response":"present","rt":324.09999996424,"correct":true,"confidence":5},{"trial_n":39,"min":83,"max":172,"target":"present","response":"present","rt":556,"correct":true,"confidence":5},{"trial_n":40,"min":85,"max":170,"target":"absent","response":"absent","rt":845.69999998808,"correct":true,"confidence":4},{"trial_n":41,"min":85,"max":170,"target":"present","response":"present","rt":1172.6000000238,"correct":true,"confidence":5},{"trial_n":42,"min":86,"max":169,"target":"absent","response":"absent","rt":408.69999998808,"correct":true,"confidence":4},{"trial_n":43,"min":86,"max":169,"target":"absent","response":"absent","rt":427.20000004768,"correct":true,"confidence":5},{"trial_n":44,"min":87,"max":168,"target":"absent","response":"absent","rt":508.10000002384,"correct":true,"confidence":5},{"trial_n":45,"min":87,"max":168,"target":"present","response":"present","rt":473.5,"correct":true,"confidence":3},{"trial_n":46,"min":88,"max":167,"target":"absent","response":"absent","rt":351,"correct":true,"confidence":5},{"trial_n":47,"min":88,"max":167,"target":"present","response":"present","rt":1505,"correct":true,"confidence":3},{"trial_n":48,"min":89,"max":166,"target":"present","response":"absent","rt":376.10000002384,"correct":false,"confidence":2},{"trial_n":49,"min":88,"max":167,"target":"present","response":"present","rt":332.39999997616,"correct":true,"confidence":5},{"trial_n":50,"min":88,"max":167,"target":"absent","response":"absent","rt":359.10000002384,"correct":true,"confidence":5},{"trial_n":51,"min":89,"max":166,"target":"absent","response":"absent","rt":459.79999995232,"correct":true,"confidence":5},{"trial_n":52,"min":89,"max":166,"target":"present","response":"absent","rt":1034.6000000238,"correct":false,"confidence":4},{"trial_n":53,"min":88,"max":167,"target":"absent","response":"present","rt":951.5,"correct":false,"confidence":3},{"trial_n":54,"min":87,"max":168,"target":"absent","response":"absent","rt":411.69999998808,"correct":true,"confidence":5},{"trial_n":55,"min":87,"max":168,"target":"present","response":"present","rt":484.39999997616,"correct":true,"confidence":5},{"trial_n":56,"min":88,"max":167,"target":"present","response":"absent","rt":1104.7999999523,"correct":false,"confidence":3},{"trial_n":57,"min":87,"max":168,"target":"absent","response":"absent","rt":551.69999998808,"correct":true,"confidence":3},{"trial_n":58,"min":87,"max":168,"target":"absent","response":"absent","rt":1479.3000000119,"correct":true,"confidence":2},{"trial_n":59,"min":88,"max":167,"target":"absent","response":"absent","rt":449.19999998808,"correct":true,"confidence":4},{"trial_n":60,"min":88,"max":167,"target":"present","response":"absent","rt":378.30000001192,"correct":false,"confidence":4},{"trial_n":61,"min":87,"max":168,"target":"present","response":"present","rt":441.30000001192,"correct":true,"confidence":4},{"trial_n":62,"min":87,"max":168,"target":"absent","response":"absent","rt":352.79999995232,"correct":true,"confidence":4},{"trial_n":63,"min":88,"max":167,"target":"absent","response":"absent","rt":365.5,"correct":true,"confidence":5},{"trial_n":64,"min":88,"max":167,"target":"present","response":"present","rt":446.69999998808,"correct":true,"confidence":3},{"trial_n":65,"min":89,"max":166,"target":"absent","response":"absent","rt":332.39999997616,"correct":true,"confidence":5},{"trial_n":66,"min":89,"max":166,"target":"present","response":"absent","rt":1035.8000000119,"correct":false,"confidence":1},{"trial_n":67,"min":88,"max":167,"target":"present","response":"present","rt":1579.1999999881,"correct":true,"confidence":2},{"trial_n":68,"min":88,"max":167,"target":"present","response":"present","rt":1265.3000000119,"correct":true,"confidence":1},{"trial_n":69,"min":89,"max":166,"target":"absent","response":"absent","rt":842.5,"correct":true,"confidence":5},{"trial_n":70,"min":89,"max":166,"target":"absent","response":"absent","rt":1094.5999999642,"correct":true,"confidence":5},{"trial_n":71,"min":41,"max":214,"target":"present","response":"present","rt":3353.3999999762,"correct":true,"confidence":-1},{"trial_n":72,"min":41,"max":214,"target":"present","response":"present","rt":313.5,"correct":true,"confidence":-1},{"trial_n":73,"min":57,"max":198,"target":"absent","response":"absent","rt":296,"correct":true,"confidence":-1},{"trial_n":74,"min":57,"max":198,"target":"absent","response":"absent","rt":373.5,"correct":true,"confidence":-1},{"trial_n":75,"min":73,"max":182,"target":"present","response":"present","rt":226.79999995232,"correct":true,"confidence":-1},{"trial_n":76,"min":73,"max":182,"target":"present","response":"present","rt":315.70000004768,"correct":true,"confidence":-1},{"trial_n":77,"min":89,"max":166,"target":"present","response":"present","rt":376.59999996424,"correct":true,"confidence":-1},{"trial_n":78,"min":89,"max":166,"target":"present","response":"present","rt":284.60000002384,"correct":true,"confidence":-1},{"trial_n":79,"min":105,"max":150,"target":"present","response":"present","rt":1529.6999999881,"correct":true,"confidence":-1},{"trial_n":80,"min":105,"max":150,"target":"present","response":"present","rt":522.10000002384,"correct":true,"confidence":-1},{"trial_n":81,"min":113,"max":142,"target":"absent","response":"present","rt":788.89999997616,"correct":false,"confidence":-1},{"trial_n":82,"min":105,"max":150,"target":"present","response":"absent","rt":1143.1000000238,"correct":false,"confidence":-1},{"trial_n":83,"min":97,"max":158,"target":"present","response":"absent","rt":949.5,"correct":false,"confidence":-1},{"trial_n":84,"min":89,"max":166,"target":"absent","response":"present","rt":1457.6999999881,"correct":false,"confidence":-1},{"trial_n":85,"min":81,"max":174,"target":"absent","response":"absent","rt":793,"correct":true,"confidence":-1},{"trial_n":86,"min":81,"max":174,"target":"absent","response":"absent","rt":1101.5,"correct":true,"confidence":-1},{"trial_n":87,"min":89,"max":166,"target":"present","response":"present","rt":856.10000002384,"correct":true,"confidence":-1},{"trial_n":88,"min":89,"max":166,"target":"absent","response":"absent","rt":849.40000003576,"correct":true,"confidence":-1},{"trial_n":89,"min":97,"max":158,"target":"present","response":"present","rt":847.19999998808,"correct":true,"confidence":-1},{"trial_n":90,"min":97,"max":158,"target":"present","response":"present","rt":596.80000001192,"correct":true,"confidence":-1},{"trial_n":91,"min":101,"max":154,"target":"present","response":"present","rt":424.69999998808,"correct":true,"confidence":5},{"trial_n":92,"min":101,"max":154,"target":"present","response":"present","rt":631.70000004768,"correct":true,"confidence":4},{"trial_n":93,"min":105,"max":150,"target":"absent","response":"present","rt":4833.1999999881,"correct":false,"confidence":1},{"trial_n":94,"min":101,"max":154,"target":"present","response":"present","rt":421.59999996424,"correct":true,"confidence":4},{"trial_n":95,"min":101,"max":154,"target":"absent","response":"present","rt":674.80000001192,"correct":false,"confidence":2},{"trial_n":96,"min":97,"max":158,"target":"present","response":"present","rt":524.30000001192,"correct":true,"confidence":4},{"trial_n":97,"min":97,"max":158,"target":"present","response":"present","rt":581.30000001192,"correct":true,"confidence":2},{"trial_n":98,"min":101,"max":154,"target":"present","response":"absent","rt":1104.1999999881,"correct":false,"confidence":3},{"trial_n":99,"min":97,"max":158,"target":"absent","response":"present","rt":1301.5,"correct":false,"confidence":4},{"trial_n":100,"min":93,"max":162,"target":"present","response":"present","rt":391.89999997616,"correct":true,"confidence":5},{"trial_n":101,"min":93,"max":162,"target":"absent","response":"absent","rt":1054.6999999881,"correct":true,"confidence":3},{"trial_n":102,"min":95,"max":160,"target":"present","response":"present","rt":339.30000001192,"correct":true,"confidence":4},{"trial_n":103,"min":95,"max":160,"target":"present","response":"present","rt":540.60000002384,"correct":true,"confidence":2},{"trial_n":104,"min":97,"max":158,"target":"present","response":"present","rt":394.69999998808,"correct":true,"confidence":4},{"trial_n":105,"min":97,"max":158,"target":"present","response":"present","rt":292.69999998808,"correct":true,"confidence":5},{"trial_n":106,"min":99,"max":156,"target":"present","response":"present","rt":1156.8000000119,"correct":true,"confidence":3},{"trial_n":107,"min":99,"max":156,"target":"absent","response":"present","rt":873.59999996424,"correct":false,"confidence":1},{"trial_n":108,"min":97,"max":158,"target":"absent","response":"present","rt":1142.5,"correct":false,"confidence":1},{"trial_n":109,"min":95,"max":160,"target":"present","response":"present","rt":330.10000002384,"correct":true,"confidence":5},{"trial_n":110,"min":95,"max":160,"target":"absent","response":"present","rt":2029.4000000358,"correct":false,"confidence":1},{"trial_n":111,"min":94,"max":161,"target":"absent","response":"present","rt":1254.6999999881,"correct":false,"confidence":1},{"trial_n":112,"min":93,"max":162,"target":"absent","response":"absent","rt":1584.9000000358,"correct":true,"confidence":1},{"trial_n":113,"min":93,"max":162,"target":"absent","response":"present","rt":747.80000001192,"correct":false,"confidence":1},{"trial_n":114,"min":92,"max":163,"target":"present","response":"present","rt":377.39999997616,"correct":true,"confidence":5},{"trial_n":115,"min":92,"max":163,"target":"absent","response":"present","rt":614.80000001192,"correct":false,"confidence":3},{"trial_n":116,"min":91,"max":164,"target":"absent","response":"present","rt":645.20000004768,"correct":false,"confidence":3},{"trial_n":117,"min":90,"max":165,"target":"present","response":"present","rt":505.29999995232,"correct":true,"confidence":3},{"trial_n":118,"min":90,"max":165,"target":"absent","response":"present","rt":794.70000004768,"correct":false,"confidence":1},{"trial_n":119,"min":89,"max":166,"target":"present","response":"absent","rt":1402.8999999762,"correct":false,"confidence":1},{"trial_n":120,"min":88,"max":167,"target":"absent","response":"present","rt":1391.1999999881,"correct":false,"confidence":4},{"trial_n":121,"min":87,"max":168,"target":"absent","response":"absent","rt":841.10000002384,"correct":true,"confidence":1},{"trial_n":122,"min":87,"max":168,"target":"absent","response":"absent","rt":474.40000003576,"correct":true,"confidence":4},{"trial_n":123,"min":88,"max":167,"target":"absent","response":"absent","rt":861.19999998808,"correct":true,"confidence":3},{"trial_n":124,"min":88,"max":167,"target":"absent","response":"present","rt":1093.1000000238,"correct":false,"confidence":1},{"trial_n":125,"min":87,"max":168,"target":"absent","response":"present","rt":656.89999997616,"correct":false,"confidence":1},{"trial_n":126,"min":86,"max":169,"target":"absent","response":"present","rt":2939,"correct":false,"confidence":1},{"trial_n":127,"min":85,"max":170,"target":"present","response":"present","rt":570.19999998808,"correct":true,"confidence":5},{"trial_n":128,"min":85,"max":170,"target":"present","response":"present","rt":968.30000001192,"correct":true,"confidence":3},{"trial_n":129,"min":86,"max":169,"target":"absent","response":"absent","rt":813.69999998808,"correct":true,"confidence":4},{"trial_n":130,"min":86,"max":169,"target":"absent","response":"present","rt":589.69999998808,"correct":false,"confidence":4},{"trial_n":131,"min":85,"max":170,"target":"present","response":"present","rt":532,"correct":true,"confidence":5},{"trial_n":132,"min":85,"max":170,"target":"absent","response":"absent","rt":621.69999998808,"correct":true,"confidence":4},{"trial_n":133,"min":86,"max":169,"target":"absent","response":"absent","rt":539.5,"correct":true,"confidence":5},{"trial_n":134,"min":86,"max":169,"target":"present","response":"present","rt":389.90000003576,"correct":true,"confidence":5},{"trial_n":135,"min":87,"max":168,"target":"present","response":"present","rt":427.10000002384,"correct":true,"confidence":5},{"trial_n":136,"min":87,"max":168,"target":"absent","response":"absent","rt":723.69999998808,"correct":true,"confidence":4},{"trial_n":137,"min":88,"max":167,"target":"absent","response":"present","rt":558.79999995232,"correct":false,"confidence":3},{"trial_n":138,"min":87,"max":168,"target":"present","response":"present","rt":450.90000003576,"correct":true,"confidence":5},{"trial_n":139,"min":87,"max":168,"target":"present","response":"present","rt":486.60000002384,"correct":true,"confidence":5},{"trial_n":140,"min":88,"max":167,"target":"absent","response":"present","rt":979.30000001192,"correct":false,"confidence":1}]