[{"trial_n":1,"n_dots":4.25,"target":"right","response":"left","rt":7113,"correct":false,"confidence":-1},{"trial_n":2,"n_dots":4.25,"target":"right","response":"right","rt":766,"correct":true,"confidence":-1},{"trial_n":3,"n_dots":4.25,"target":"right","response":"right","rt":423,"correct":true,"confidence":-1},{"trial_n":4,"n_dots":3.85,"target":"right","response":"right","rt":583,"correct":true,"confidence":-1},{"trial_n":5,"n_dots":3.85,"target":"left","response":"left","rt":458.00000000001,"correct":true,"confidence":-1},{"trial_n":6,"n_dots":3.45,"target":"left","response":"right","rt":456,"correct":false,"confidence":-1},{"trial_n":7,"n_dots":3.85,"target":"right","response":"right","rt":541.00000000001,"correct":true,"confidence":-1},{"trial_n":8,"n_dots":3.85,"target":"right","response":"right","rt":441,"correct":true,"confidence":-1},{"trial_n":9,"n_dots":3.65,"target":"left","response":"left","rt":439,"correct":true,"confidence":-1},{"trial_n":10,"n_dots":3.65,"target":"left","response":"left","rt":17,"correct":true,"confidence":-1},{"trial_n":11,"n_dots":3.45,"target":"right","response":"right","rt":1770,"correct":true,"confidence":-1},{"trial_n":12,"n_dots":3.45,"target":"left","response":"left","rt":417,"correct":true,"confidence":-1},{"trial_n":13,"n_dots":3.35,"target":"right","response":"right","rt":403.99999999999,"correct":true,"confidence":-1},{"trial_n":14,"n_dots":3.35,"target":"left","response":"right","rt":692,"correct":false,"confidence":-1},{"trial_n":15,"n_dots":3.45,"target":"left","response":"left","rt":538,"correct":true,"confidence":-1},{"trial_n":16,"n_dots":3.45,"target":"right","response":"left","rt":761.00000000001,"correct":false,"confidence":-1},{"trial_n":17,"n_dots":3.55,"target":"left","response":"right","rt":458,"correct":false,"confidence":-1},{"trial_n":18,"n_dots":3.65,"target":"left","response":"left","rt":415,"correct":true,"confidence":-1},{"trial_n":19,"n_dots":3.65,"target":"right","response":"left","rt":582,"correct":false,"confidence":-1},{"trial_n":20,"n_dots":3.75,"target":"right","response":"right","rt":437,"correct":true,"confidence":-1},{"trial_n":21,"n_dots":3.75,"target":"right","response":"right","rt":316.99999999999,"correct":true,"confidence":3},{"trial_n":22,"n_dots":3.65,"target":"right","response":"right","rt":1076,"correct":true,"confidence":2},{"trial_n":23,"n_dots":3.65,"target":"right","response":"right","rt":1153,"correct":true,"confidence":2},{"trial_n":24,"n_dots":3.55,"target":"right","response":"right","rt":1068,"correct":true,"confidence":1},{"trial_n":25,"n_dots":3.55,"target":"right","response":"left","rt":1038,"correct":false,"confidence":1},{"trial_n":26,"n_dots":3.65,"target":"left","response":"left","rt":416,"correct":true,"confidence":1},{"trial_n":27,"n_dots":3.65,"target":"right","response":"right","rt":644.00000000001,"correct":true,"confidence":3},{"trial_n":28,"n_dots":3.55,"target":"left","response":"left","rt":693.00000000001,"correct":true,"confidence":3},{"trial_n":29,"n_dots":3.55,"target":"left","response":"left","rt":439.00000000001,"correct":true,"confidence":4},{"trial_n":30,"n_dots":3.45,"target":"left","response":"left","rt":593,"correct":true,"confidence":3},{"trial_n":31,"n_dots":3.45,"target":"left","response":"left","rt":372.99999999997,"correct":true,"confidence":3},{"trial_n":32,"n_dots":3.35,"target":"right","response":"right","rt":1159,"correct":true,"confidence":1},{"trial_n":33,"n_dots":3.35,"target":"right","response":"right","rt":903,"correct":true,"confidence":1},{"trial_n":34,"n_dots":3.25,"target":"left","response":"left","rt":659,"correct":true,"confidence":3},{"trial_n":35,"n_dots":3.25,"target":"left","response":"left","rt":656,"correct":true,"confidence":4},{"trial_n":36,"n_dots":3.15,"target":"left","response":"left","rt":526,"correct":true,"confidence":1},{"trial_n":37,"n_dots":3.15,"target":"left","response":"left","rt":527.99999999997,"correct":true,"confidence":5},{"trial_n":38,"n_dots":3.05,"target":"left","response":"left","rt":317.99999999997,"correct":true,"confidence":3},{"trial_n":39,"n_dots":3.05,"target":"right","response":"right","rt":524,"correct":true,"confidence":3},{"trial_n":40,"n_dots":2.95,"target":"left","response":"left","rt":615,"correct":true,"confidence":4},{"trial_n":41,"n_dots":2.95,"target":"right","response":"right","rt":730.99999999997,"correct":true,"confidence":1},{"trial_n":42,"n_dots":2.85,"target":"right","response":"left","rt":828.99999999997,"correct":false,"confidence":2},{"trial_n":43,"n_dots":2.95,"target":"left","response":"left","rt":749,"correct":true,"confidence":3},{"trial_n":44,"n_dots":2.95,"target":"left","response":"left","rt":441,"correct":true,"confidence":4},{"trial_n":45,"n_dots":2.85,"target":"left","response":"left","rt":708,"correct":true,"confidence":1},{"trial_n":46,"n_dots":2.85,"target":"left","response":"right","rt":1029,"correct":false,"confidence":1},{"trial_n":47,"n_dots":2.95,"target":"left","response":"left","rt":908,"correct":true,"confidence":4},{"trial_n":48,"n_dots":2.95,"target":"right","response":"right","rt":1151,"correct":true,"confidence":1},{"trial_n":49,"n_dots":2.85,"target":"right","response":"left","rt":451.00000000003,"correct":false,"confidence":2},{"trial_n":50,"n_dots":2.95,"target":"left","response":"right","rt":669.00000000003,"correct":false,"confidence":1},{"trial_n":51,"n_dots":3.05,"target":"left","response":"right","rt":834,"correct":false,"confidence":1},{"trial_n":52,"n_dots":3.15,"target":"left","response":"left","rt":583,"correct":true,"confidence":3},{"trial_n":53,"n_dots":3.15,"target":"left","response":"right","rt":910,"correct":false,"confidence":1},{"trial_n":54,"n_dots":3.25,"target":"left","response":"left","rt":478,"correct":true,"confidence":4},{"trial_n":55,"n_dots":3.25,"target":"left","response":"left","rt":706.99999999997,"correct":true,"confidence":1},{"trial_n":56,"n_dots":3.15,"target":"left","response":"left","rt":721.99999999997,"correct":true,"confidence":4},{"trial_n":57,"n_dots":3.15,"target":"right","response":"right","rt":1290,"correct":true,"confidence":1},{"trial_n":58,"n_dots":3.05,"target":"right","response":"right","rt":560,"correct":true,"confidence":4},{"trial_n":59,"n_dots":3.05,"target":"right","response":"right","rt":948.99999999997,"correct":true,"confidence":1},{"trial_n":60,"n_dots":2.95,"target":"right","response":"right","rt":601.99999999997,"correct":true,"confidence":2},{"trial_n":61,"n_dots":2.95,"target":"left","response":"right","rt":386,"correct":false,"confidence":3},{"trial_n":62,"n_dots":3.05,"target":"right","response":"right","rt":452,"correct":true,"confidence":1},{"trial_n":63,"n_dots":3.05,"target":"right","response":"right","rt":711,"correct":true,"confidence":1},{"trial_n":64,"n_dots":2.95,"target":"right","response":"left","rt":416,"correct":false,"confidence":1},{"trial_n":65,"n_dots":3.05,"target":"right","response":"right","rt":452,"correct":true,"confidence":3},{"trial_n":66,"n_dots":3.05,"target":"left","response":"left","rt":517,"correct":true,"confidence":1},{"trial_n":67,"n_dots":2.95,"target":"left","response":"left","rt":612,"correct":true,"confidence":4},{"trial_n":68,"n_dots":2.95,"target":"right","response":"right","rt":427,"correct":true,"confidence":1},{"trial_n":69,"n_dots":2.85,"target":"right","response":"right","rt":540,"correct":true,"confidence":1},{"trial_n":70,"n_dots":2.85,"target":"right","response":"right","rt":745.00000000006,"correct":true,"confidence":1},{"trial_n":71,"n_dots":2.75,"target":"left","response":"left","rt":456,"correct":true,"confidence":4},{"trial_n":72,"n_dots":2.75,"target":"right","response":"right","rt":1071,"correct":true,"confidence":1},{"trial_n":73,"n_dots":2.65,"target":"right","response":"right","rt":730,"correct":true,"confidence":2},{"trial_n":74,"n_dots":2.65,"target":"left","response":"left","rt":1107,"correct":true,"confidence":2},{"trial_n":75,"n_dots":2.55,"target":"right","response":"right","rt":749,"correct":true,"confidence":1},{"trial_n":76,"n_dots":2.55,"target":"right","response":"right","rt":496.00000000006,"correct":true,"confidence":3},{"trial_n":77,"n_dots":2.45,"target":"left","response":"left","rt":352,"correct":true,"confidence":4},{"trial_n":78,"n_dots":2.45,"target":"left","response":"right","rt":431,"correct":false,"confidence":2},{"trial_n":79,"n_dots":2.55,"target":"right","response":"right","rt":442,"correct":true,"confidence":3},{"trial_n":80,"n_dots":2.55,"target":"left","response":"left","rt":410,"correct":true,"confidence":1},{"trial_n":81,"n_dots":2.45,"target":"left","response":"right","rt":444,"correct":false,"confidence":1},{"trial_n":82,"n_dots":2.55,"target":"right","response":"left","rt":500,"correct":false,"confidence":1},{"trial_n":83,"n_dots":2.65,"target":"left","response":"right","rt":846.00000000006,"correct":false,"confidence":1},{"trial_n":84,"n_dots":2.75,"target":"right","response":"right","rt":940.99999999994,"correct":true,"confidence":1},{"trial_n":85,"n_dots":2.75,"target":"right","response":"right","rt":1148,"correct":true,"confidence":1},{"trial_n":86,"n_dots":2.65,"target":"left","response":"left","rt":627,"correct":true,"confidence":1},{"trial_n":87,"n_dots":2.65,"target":"right","response":"right","rt":502,"correct":true,"confidence":1},{"trial_n":88,"n_dots":2.55,"target":"left","response":"left","rt":1451,"correct":true,"confidence":2},{"trial_n":89,"n_dots":2.55,"target":"left","response":"right","rt":639,"correct":false,"confidence":1},{"trial_n":90,"n_dots":2.65,"target":"left","response":"left","rt":898,"correct":true,"confidence":1},{"trial_n":91,"n_dots":2.65,"target":"right","response":"right","rt":759,"correct":true,"confidence":3},{"trial_n":92,"n_dots":2.55,"target":"left","response":"left","rt":1369,"correct":true,"confidence":1},{"trial_n":93,"n_dots":2.55,"target":"right","response":"right","rt":412,"correct":true,"confidence":4},{"trial_n":94,"n_dots":2.45,"target":"right","response":"right","rt":465,"correct":true,"confidence":4},{"trial_n":95,"n_dots":2.45,"target":"left","response":"right","rt":498,"correct":false,"confidence":3},{"trial_n":96,"n_dots":2.55,"target":"right","response":"left","rt":449.00000000006,"correct":false,"confidence":4},{"trial_n":97,"n_dots":2.65,"target":"right","response":"right","rt":828.00000000006,"correct":true,"confidence":1},{"trial_n":98,"n_dots":2.65,"target":"left","response":"left","rt":799,"correct":true,"confidence":3},{"trial_n":99,"n_dots":2.55,"target":"left","response":"left","rt":494,"correct":true,"confidence":2},{"trial_n":100,"n_dots":2.55,"target":"right","response":"right","rt":373.99999999994,"correct":true,"confidence":1},{"trial_n":101,"n_dots":2.45,"target":"right","response":"right","rt":426,"correct":true,"confidence":4},{"trial_n":102,"n_dots":2.45,"target":"right","response":"left","rt":479,"correct":false,"confidence":3},{"trial_n":103,"n_dots":2.55,"target":"left","response":"left","rt":326,"correct":true,"confidence":4},{"trial_n":104,"n_dots":2.55,"target":"left","response":"left","rt":303,"correct":true,"confidence":3},{"trial_n":105,"n_dots":2.45,"target":"left","response":"right","rt":391,"correct":false,"confidence":1},{"trial_n":106,"n_dots":2.55,"target":"left","response":"right","rt":618.00000000006,"correct":false,"confidence":1},{"trial_n":107,"n_dots":2.65,"target":"right","response":"left","rt":654,"correct":false,"confidence":1},{"trial_n":108,"n_dots":2.75,"target":"left","response":"left","rt":824,"correct":true,"confidence":3},{"trial_n":109,"n_dots":2.75,"target":"right","response":"right","rt":1645,"correct":true,"confidence":1},{"trial_n":110,"n_dots":2.65,"target":"right","response":"right","rt":830.99999999994,"correct":true,"confidence":1},{"trial_n":111,"n_dots":2.65,"target":"right","response":"left","rt":1443.0000000001,"correct":false,"confidence":1},{"trial_n":112,"n_dots":2.75,"target":"left","response":"right","rt":1143,"correct":false,"confidence":1},{"trial_n":113,"n_dots":2.85,"target":"left","response":"left","rt":1437,"correct":true,"confidence":1},{"trial_n":114,"n_dots":2.85,"target":"right","response":"right","rt":1113,"correct":true,"confidence":1},{"trial_n":115,"n_dots":2.75,"target":"right","response":"right","rt":622,"correct":true,"confidence":3},{"trial_n":116,"n_dots":2.75,"target":"left","response":"left","rt":448,"correct":true,"confidence":3},{"trial_n":117,"n_dots":2.65,"target":"right","response":"right","rt":336,"correct":true,"confidence":2},{"trial_n":118,"n_dots":2.65,"target":"left","response":"left","rt":355.99999999994,"correct":true,"confidence":3},{"trial_n":119,"n_dots":2.55,"target":"left","response":"right","rt":453,"correct":false,"confidence":1},{"trial_n":120,"n_dots":2.65,"target":"right","response":"right","rt":19,"correct":true,"confidence":1}]