[{"trial_n":1,"n_dots":4.25,"target":"left","response":"left","rt":2182,"correct":true,"confidence":-1},{"trial_n":2,"n_dots":4.25,"target":"right","response":"right","rt":183.90000000037,"correct":true,"confidence":-1},{"trial_n":3,"n_dots":3.85,"target":"right","response":"left","rt":197.80000000075,"correct":false,"confidence":-1},{"trial_n":4,"n_dots":4.25,"target":"left","response":"right","rt":6,"correct":false,"confidence":-1},{"trial_n":5,"n_dots":4.65,"target":"right","response":"left","rt":40.199999999255,"correct":false,"confidence":-1},{"trial_n":6,"n_dots":5.05,"target":"left","response":"left","rt":13.10000000149,"correct":true,"confidence":-1},{"trial_n":7,"n_dots":5.05,"target":"left","response":"left","rt":10.599999999627,"correct":true,"confidence":-1},{"trial_n":8,"n_dots":4.85,"target":"left","response":"left","rt":95.799999998882,"correct":true,"confidence":-1},{"trial_n":9,"n_dots":4.85,"target":"right","response":"right","rt":206.70000000112,"correct":true,"confidence":-1},{"trial_n":10,"n_dots":4.65,"target":"right","response":"right","rt":808.79999999888,"correct":true,"confidence":-1},{"trial_n":11,"n_dots":4.65,"target":"right","response":"right","rt":111.89999999851,"correct":true,"confidence":-1},{"trial_n":12,"n_dots":4.45,"target":"left","response":"left","rt":59.39999999851,"correct":true,"confidence":-1},{"trial_n":13,"n_dots":4.45,"target":"right","response":"right","rt":116.19999999925,"correct":true,"confidence":-1},{"trial_n":14,"n_dots":4.35,"target":"right","response":"right","rt":143.69999999925,"correct":true,"confidence":-1},{"trial_n":15,"n_dots":4.35,"target":"left","response":"left","rt":81.199999999255,"correct":true,"confidence":-1},{"trial_n":16,"n_dots":4.25,"target":"right","response":"right","rt":451,"correct":true,"confidence":-1},{"trial_n":17,"n_dots":4.25,"target":"right","response":"right","rt":367.80000000075,"correct":true,"confidence":-1},{"trial_n":18,"n_dots":4.15,"target":"right","response":"right","rt":302.29999999888,"correct":true,"confidence":-1},{"trial_n":19,"n_dots":4.15,"target":"right","response":"right","rt":106.09999999963,"correct":true,"confidence":-1},{"trial_n":20,"n_dots":4.05,"target":"right","response":"right","rt":146.59999999963,"correct":true,"confidence":-1},{"trial_n":21,"n_dots":4.05,"target":"right","response":"right","rt":181.59999999963,"correct":true,"confidence":1},{"trial_n":22,"n_dots":3.95,"target":"left","response":"left","rt":30.800000000745,"correct":true,"confidence":3},{"trial_n":23,"n_dots":3.95,"target":"right","response":"right","rt":221.89999999851,"correct":true,"confidence":1},{"trial_n":24,"n_dots":3.85,"target":"left","response":"left","rt":172.19999999925,"correct":true,"confidence":1},{"trial_n":25,"n_dots":3.85,"target":"left","response":"left","rt":111.59999999963,"correct":true,"confidence":2},{"trial_n":26,"n_dots":3.75,"target":"left","response":"left","rt":85.39999999851,"correct":true,"confidence":2},{"trial_n":27,"n_dots":3.75,"target":"right","response":"left","rt":247.5,"correct":false,"confidence":3},{"trial_n":28,"n_dots":3.85,"target":"left","response":"left","rt":134.59999999963,"correct":true,"confidence":1},{"trial_n":29,"n_dots":3.85,"target":"left","response":"left","rt":126.29999999888,"correct":true,"confidence":2},{"trial_n":30,"n_dots":3.75,"target":"right","response":"left","rt":61.5,"correct":false,"confidence":2},{"trial_n":31,"n_dots":3.85,"target":"left","response":"left","rt":159.69999999925,"correct":true,"confidence":2},{"trial_n":32,"n_dots":3.85,"target":"right","response":"left","rt":152,"correct":false,"confidence":1},{"trial_n":33,"n_dots":3.95,"target":"right","response":"left","rt":126.40000000037,"correct":false,"confidence":2},{"trial_n":34,"n_dots":4.05,"target":"left","response":"left","rt":68.199999999255,"correct":true,"confidence":1},{"trial_n":35,"n_dots":4.05,"target":"left","response":"left","rt":1.7999999988824,"correct":true,"confidence":1},{"trial_n":36,"n_dots":3.95,"target":"left","response":"left","rt":21.299999998882,"correct":true,"confidence":2},{"trial_n":37,"n_dots":3.95,"target":"left","response":"right","rt":626.80000000075,"correct":false,"confidence":3},{"trial_n":38,"n_dots":4.05,"target":"left","response":"left","rt":79.400000000373,"correct":true,"confidence":2},{"trial_n":39,"n_dots":4.05,"target":"left","response":"left","rt":2446.5,"correct":true,"confidence":1},{"trial_n":40,"n_dots":3.95,"target":"left","response":"left","rt":575.29999999888,"correct":true,"confidence":1},{"trial_n":41,"n_dots":3.95,"target":"right","response":"right","rt":2841.5,"correct":true,"confidence":1},{"trial_n":42,"n_dots":3.85,"target":"right","response":"left","rt":31.5,"correct":false,"confidence":1},{"trial_n":43,"n_dots":3.95,"target":"right","response":"left","rt":101.19999999925,"correct":false,"confidence":1},{"trial_n":44,"n_dots":4.05,"target":"right","response":"left","rt":113.09999999963,"correct":false,"confidence":3},{"trial_n":45,"n_dots":4.15,"target":"right","response":"right","rt":70.5,"correct":true,"confidence":3},{"trial_n":46,"n_dots":4.15,"target":"left","response":"left","rt":56.099999999627,"correct":true,"confidence":1},{"trial_n":47,"n_dots":4.05,"target":"right","response":"left","rt":9.0999999996275,"correct":false,"confidence":2},{"trial_n":48,"n_dots":4.15,"target":"right","response":"right","rt":13,"correct":true,"confidence":2},{"trial_n":49,"n_dots":4.15,"target":"left","response":"right","rt":14.900000000373,"correct":false,"confidence":5},{"trial_n":50,"n_dots":4.25,"target":"left","response":"right","rt":110.90000000037,"correct":false,"confidence":1},{"trial_n":51,"n_dots":4.35,"target":"left","response":"left","rt":17.900000000373,"correct":true,"confidence":4},{"trial_n":52,"n_dots":4.35,"target":"left","response":"right","rt":64.099999999627,"correct":false,"confidence":2},{"trial_n":53,"n_dots":4.45,"target":"right","response":"right","rt":41.599999999627,"correct":true,"confidence":5},{"trial_n":54,"n_dots":4.45,"target":"left","response":"left","rt":94.599999999627,"correct":true,"confidence":5},{"trial_n":55,"n_dots":4.35,"target":"right","response":"left","rt":43.199999999255,"correct":false,"confidence":3},{"trial_n":56,"n_dots":4.45,"target":"right","response":"right","rt":347.5,"correct":true,"confidence":2},{"trial_n":57,"n_dots":4.45,"target":"left","response":"left","rt":362,"correct":true,"confidence":3},{"trial_n":58,"n_dots":4.35,"target":"left","response":"left","rt":78.199999999255,"correct":true,"confidence":3},{"trial_n":59,"n_dots":4.35,"target":"right","response":"left","rt":97.300000000745,"correct":false,"confidence":3},{"trial_n":60,"n_dots":4.45,"target":"left","response":"left","rt":132.39999999851,"correct":true,"confidence":1},{"trial_n":61,"n_dots":4.45,"target":"right","response":"left","rt":111355,"correct":false,"confidence":1},{"trial_n":62,"n_dots":4.55,"target":"right","response":"left","rt":9.5999999996275,"correct":false,"confidence":1},{"trial_n":63,"n_dots":4.65,"target":"right","response":"right","rt":552.90000000037,"correct":true,"confidence":1},{"trial_n":64,"n_dots":4.65,"target":"right","response":"right","rt":53,"correct":true,"confidence":1},{"trial_n":65,"n_dots":4.55,"target":"left","response":"left","rt":112.09999999963,"correct":true,"confidence":1},{"trial_n":66,"n_dots":4.55,"target":"right","response":"right","rt":158.10000000149,"correct":true,"confidence":1},{"trial_n":67,"n_dots":4.45,"target":"right","response":"right","rt":135.10000000149,"correct":true,"confidence":1},{"trial_n":68,"n_dots":4.45,"target":"right","response":"right","rt":25.599999999627,"correct":true,"confidence":1},{"trial_n":69,"n_dots":4.35,"target":"left","response":"right","rt":48.300000000745,"correct":false,"confidence":1},{"trial_n":70,"n_dots":4.45,"target":"right","response":"right","rt":130.59999999963,"correct":true,"confidence":1},{"trial_n":71,"n_dots":4.45,"target":"right","response":"right","rt":72.900000000373,"correct":true,"confidence":1},{"trial_n":72,"n_dots":4.35,"target":"right","response":"right","rt":87,"correct":true,"confidence":1},{"trial_n":73,"n_dots":4.35,"target":"left","response":"left","rt":71.599999999627,"correct":true,"confidence":1},{"trial_n":74,"n_dots":4.25,"target":"right","response":"right","rt":61,"correct":true,"confidence":1},{"trial_n":75,"n_dots":4.25,"target":"right","response":"right","rt":169.89999999851,"correct":true,"confidence":1},{"trial_n":76,"n_dots":4.15,"target":"left","response":"left","rt":83.400000000373,"correct":true,"confidence":1},{"trial_n":77,"n_dots":4.15,"target":"right","response":"right","rt":138.10000000149,"correct":true,"confidence":1},{"trial_n":78,"n_dots":4.05,"target":"left","response":"left","rt":39.900000000373,"correct":true,"confidence":1},{"trial_n":79,"n_dots":4.05,"target":"right","response":"right","rt":137.19999999925,"correct":true,"confidence":1},{"trial_n":80,"n_dots":3.95,"target":"left","response":"left","rt":73.699999999255,"correct":true,"confidence":1},{"trial_n":81,"n_dots":3.95,"target":"left","response":"left","rt":94.599999999627,"correct":true,"confidence":1},{"trial_n":82,"n_dots":3.85,"target":"right","response":"right","rt":133.80000000075,"correct":true,"confidence":1},{"trial_n":83,"n_dots":3.85,"target":"left","response":"left","rt":38.5,"correct":true,"confidence":1},{"trial_n":84,"n_dots":3.75,"target":"right","response":"right","rt":59.099999999627,"correct":true,"confidence":1},{"trial_n":85,"n_dots":3.75,"target":"right","response":"left","rt":2.9000000003725,"correct":false,"confidence":1},{"trial_n":86,"n_dots":3.85,"target":"left","response":"left","rt":4,"correct":true,"confidence":1},{"trial_n":87,"n_dots":3.85,"target":"left","response":"right","rt":12.699999999255,"correct":false,"confidence":1},{"trial_n":88,"n_dots":3.95,"target":"left","response":"right","rt":39.800000000745,"correct":false,"confidence":1},{"trial_n":89,"n_dots":4.05,"target":"left","response":"right","rt":99.10000000149,"correct":false,"confidence":1},{"trial_n":90,"n_dots":4.15,"target":"right","response":"right","rt":69.699999999255,"correct":true,"confidence":1},{"trial_n":91,"n_dots":4.15,"target":"right","response":"right","rt":224.80000000075,"correct":true,"confidence":1},{"trial_n":92,"n_dots":4.05,"target":"right","response":"right","rt":5.5999999996275,"correct":true,"confidence":1},{"trial_n":93,"n_dots":4.05,"target":"left","response":"left","rt":65.200000001118,"correct":true,"confidence":1},{"trial_n":94,"n_dots":3.95,"target":"left","response":"left","rt":122.70000000112,"correct":true,"confidence":1},{"trial_n":95,"n_dots":3.95,"target":"left","response":"right","rt":33.300000000745,"correct":false,"confidence":1},{"trial_n":96,"n_dots":4.05,"target":"right","response":"right","rt":97,"correct":true,"confidence":1},{"trial_n":97,"n_dots":4.05,"target":"left","response":"left","rt":117.30000000075,"correct":true,"confidence":1},{"trial_n":98,"n_dots":3.95,"target":"left","response":"left","rt":106.10000000149,"correct":true,"confidence":1},{"trial_n":99,"n_dots":3.95,"target":"left","response":"left","rt":146.20000000112,"correct":true,"confidence":1},{"trial_n":100,"n_dots":3.85,"target":"right","response":"right","rt":1,"correct":true,"confidence":1},{"trial_n":101,"n_dots":3.85,"target":"left","response":"left","rt":184.20000000112,"correct":true,"confidence":1},{"trial_n":102,"n_dots":3.75,"target":"left","response":"left","rt":80.300000000745,"correct":true,"confidence":1},{"trial_n":103,"n_dots":3.75,"target":"left","response":"left","rt":69.400000000373,"correct":true,"confidence":1},{"trial_n":104,"n_dots":3.65,"target":"right","response":"right","rt":50.599999999627,"correct":true,"confidence":1},{"trial_n":105,"n_dots":3.65,"target":"left","response":"left","rt":58.900000000373,"correct":true,"confidence":1},{"trial_n":106,"n_dots":3.55,"target":"right","response":"right","rt":95.400000000373,"correct":true,"confidence":1},{"trial_n":107,"n_dots":3.55,"target":"left","response":"left","rt":86.5,"correct":true,"confidence":1},{"trial_n":108,"n_dots":3.45,"target":"right","response":"right","rt":63.599999999627,"correct":true,"confidence":1},{"trial_n":109,"n_dots":3.45,"target":"right","response":"left","rt":82.200000001118,"correct":false,"confidence":1},{"trial_n":110,"n_dots":3.55,"target":"left","response":"right","rt":22.700000001118,"correct":false,"confidence":1},{"trial_n":111,"n_dots":3.65,"target":"right","response":"right","rt":71.900000000373,"correct":true,"confidence":1},{"trial_n":112,"n_dots":3.65,"target":"left","response":"left","rt":130.60000000149,"correct":true,"confidence":1},{"trial_n":113,"n_dots":3.55,"target":"left","response":"right","rt":58.900000000373,"correct":false,"confidence":1},{"trial_n":114,"n_dots":3.65,"target":"left","response":"right","rt":66.700000001118,"correct":false,"confidence":1},{"trial_n":115,"n_dots":3.75,"target":"right","response":"right","rt":82.700000001118,"correct":true,"confidence":1},{"trial_n":116,"n_dots":3.75,"target":"right","response":"right","rt":79.900000000373,"correct":true,"confidence":1},{"trial_n":117,"n_dots":3.65,"target":"left","response":"right","rt":0.40000000037253,"correct":false,"confidence":1},{"trial_n":118,"n_dots":3.75,"target":"left","response":"left","rt":111,"correct":true,"confidence":1},{"trial_n":119,"n_dots":3.75,"target":"left","response":"left","rt":162.80000000075,"correct":true,"confidence":1},{"trial_n":120,"n_dots":3.65,"target":"right","response":"right","rt":29.099999999627,"correct":true,"confidence":1}]