[{"trial_n":1,"span":8,"encoder":"70808106","distractor":"70808109","target":"present","response":"present","rt":"3415.099999994","correct":true,"confidence":-1},{"trial_n":2,"span":8,"encoder":"10108968","distractor":"10105968","target":"present","response":"present","rt":"5473.400000006","correct":true,"confidence":-1},{"trial_n":3,"span":10,"encoder":"1078660544","distractor":"1068660544","target":"absent","response":"absent","rt":"6076.8999999762","correct":true,"confidence":-1},{"trial_n":4,"span":10,"encoder":"4514506256","distractor":"4514505256","target":"absent","response":"absent","rt":"2243.099999994","correct":true,"confidence":-1},{"trial_n":5,"span":12,"encoder":"364876129417","distractor":"364876129517","target":"present","response":"absent","rt":"4318","correct":false,"confidence":-1},{"trial_n":6,"span":10,"encoder":"6521745556","distractor":"6521743556","target":"absent","response":"present","rt":"1146.5","correct":false,"confidence":-1},{"trial_n":7,"span":8,"encoder":"61801151","distractor":"61861151","target":"present","response":"present","rt":"2013.099999994","correct":true,"confidence":-1},{"trial_n":8,"span":8,"encoder":"17891679","distractor":"17899679","target":"present","response":"present","rt":"1031.8000000119","correct":true,"confidence":-1},{"trial_n":9,"span":10,"encoder":"8425145311","distractor":"8422145311","target":"present","response":"present","rt":"3731.2000000179","correct":true,"confidence":-1},{"trial_n":10,"span":10,"encoder":"4501622570","distractor":"4501622590","target":"absent","response":"present","rt":"2835.3000000119","correct":false,"confidence":-1},{"trial_n":11,"span":8,"encoder":"96707528","distractor":"91707528","target":"absent","response":"present","rt":"1898.400000006","correct":false,"confidence":-1},{"trial_n":12,"span":7,"encoder":"2857006","distractor":"2257006","target":"absent","response":"absent","rt":"3797","correct":true,"confidence":-1},{"trial_n":13,"span":7,"encoder":"1205897","distractor":"1208897","target":"present","response":"present","rt":"3353.900000006","correct":true,"confidence":-1},{"trial_n":14,"span":8,"encoder":"78926354","distractor":"78996354","target":"absent","response":"absent","rt":"2844.900000006","correct":true,"confidence":-1},{"trial_n":15,"span":8,"encoder":"22345765","distractor":"22341765","target":"absent","response":"absent","rt":"1497.400000006","correct":true,"confidence":-1},{"trial_n":16,"span":9,"encoder":"001775872","distractor":"301775872","target":"present","response":"absent","rt":"1417.5","correct":false,"confidence":-1},{"trial_n":17,"span":8,"encoder":"99369687","distractor":"99389687","target":"absent","response":"present","rt":"1739.099999994","correct":false,"confidence":-1},{"trial_n":18,"span":7,"encoder":"5409662","distractor":"5409642","target":"absent","response":"absent","rt":"1807.2999999821","correct":true,"confidence":-1},{"trial_n":19,"span":7,"encoder":"3093579","distractor":"3093589","target":"present","response":"present","rt":"1457.5","correct":true,"confidence":-1},{"trial_n":20,"span":8,"encoder":"70597481","distractor":"70597781","target":"absent","response":"absent","rt":"2371.7000000179","correct":true,"confidence":-1},{"trial_n":21,"span":8,"encoder":"52782620","distractor":"52702620","target":"present","response":"present","rt":"1676.2999999821","correct":true,"confidence":3},{"trial_n":22,"span":9,"encoder":"449396116","distractor":"449396114","target":"absent","response":"absent","rt":"3755","correct":true,"confidence":5},{"trial_n":23,"span":9,"encoder":"523353254","distractor":"523353154","target":"absent","response":"absent","rt":"2477.8000000119","correct":true,"confidence":5},{"trial_n":24,"span":10,"encoder":"1127900970","distractor":"1187900970","target":"present","response":"present","rt":"4876","correct":true,"confidence":5},{"trial_n":25,"span":10,"encoder":"8195180783","distractor":"8195180788","target":"present","response":"present","rt":"4727.7999999821","correct":true,"confidence":4},{"trial_n":26,"span":11,"encoder":"74150802944","distractor":"84150802944","target":"absent","response":"present","rt":"1906.5","correct":false,"confidence":4},{"trial_n":27,"span":10,"encoder":"8800531708","distractor":"8800531738","target":"present","response":"present","rt":"1799.6000000238","correct":true,"confidence":5},{"trial_n":28,"span":10,"encoder":"3453262877","distractor":"3453062877","target":"present","response":"present","rt":"2383.6999999881","correct":true,"confidence":3},{"trial_n":29,"span":11,"encoder":"28308363396","distractor":"28308363386","target":"present","response":"present","rt":"2612.5","correct":true,"confidence":4},{"trial_n":30,"span":11,"encoder":"19022204127","distractor":"59022204127","target":"absent","response":"absent","rt":"2948.400000006","correct":true,"confidence":5},{"trial_n":31,"span":12,"encoder":"740178171162","distractor":"740178171165","target":"present","response":"present","rt":"2317.5","correct":true,"confidence":5},{"trial_n":32,"span":12,"encoder":"312634879506","distractor":"312134879506","target":"absent","response":"absent","rt":"3983.8000000119","correct":true,"confidence":3},{"trial_n":33,"span":13,"encoder":"9113837193218","distractor":"9113837293218","target":"absent","response":"present","rt":"2553.2999999821","correct":false,"confidence":5},{"trial_n":34,"span":12,"encoder":"186681277490","distractor":"196681277490","target":"absent","response":"present","rt":"2362.2999999821","correct":false,"confidence":3},{"trial_n":35,"span":11,"encoder":"09799888920","distractor":"09791888920","target":"present","response":"present","rt":"1654.900000006","correct":true,"confidence":5},{"trial_n":36,"span":11,"encoder":"77764070902","distractor":"77765070902","target":"absent","response":"absent","rt":"2401.2999999821","correct":true,"confidence":5},{"trial_n":37,"span":12,"encoder":"341198537502","distractor":"341198537302","target":"present","response":"absent","rt":"5310.2999999821","correct":false,"confidence":4},{"trial_n":38,"span":11,"encoder":"19381728970","distractor":"19381729970","target":"absent","response":"absent","rt":"3690.6999999881","correct":true,"confidence":3},{"trial_n":39,"span":11,"encoder":"01040740471","distractor":"01040740472","target":"present","response":"present","rt":"1728","correct":true,"confidence":3},{"trial_n":40,"span":12,"encoder":"225652692146","distractor":"229652692146","target":"absent","response":"present","rt":"1962.7999999821","correct":false,"confidence":3},{"trial_n":41,"span":11,"encoder":"09822078351","distractor":"04822078351","target":"present","response":"absent","rt":"3633.2999999821","correct":false,"confidence":5},{"trial_n":42,"span":10,"encoder":"3716772210","distractor":"3716372210","target":"present","response":"absent","rt":"9731.3000000119","correct":false,"confidence":4},{"trial_n":43,"span":9,"encoder":"189122434","distractor":"184122434","target":"present","response":"present","rt":"2356.5","correct":true,"confidence":5},{"trial_n":44,"span":9,"encoder":"634563031","distractor":"634563034","target":"present","response":"present","rt":"3166.5","correct":true,"confidence":4},{"trial_n":45,"span":10,"encoder":"5428479769","distractor":"5428779769","target":"present","response":"absent","rt":"2569.7999999821","correct":false,"confidence":2},{"trial_n":46,"span":9,"encoder":"095804617","distractor":"095804017","target":"present","response":"absent","rt":"4906.400000006","correct":false,"confidence":3},{"trial_n":47,"span":8,"encoder":"10609053","distractor":"10609153","target":"present","response":"present","rt":"2089.7999999821","correct":true,"confidence":4},{"trial_n":48,"span":8,"encoder":"07751001","distractor":"97751001","target":"absent","response":"present","rt":"5527.8000000119","correct":false,"confidence":3},{"trial_n":49,"span":7,"encoder":"8753372","distractor":"8733372","target":"present","response":"absent","rt":"4597","correct":false,"confidence":3},{"trial_n":50,"span":6,"encoder":"861560","distractor":"867560","target":"present","response":"present","rt":"1729.5","correct":true,"confidence":5},{"trial_n":51,"span":6,"encoder":"111085","distractor":"111084","target":"absent","response":"absent","rt":"1713.900000006","correct":true,"confidence":5},{"trial_n":52,"span":7,"encoder":"4343681","distractor":"4345681","target":"present","response":"present","rt":"7935.2000000179","correct":true,"confidence":5},{"trial_n":53,"span":7,"encoder":"6404521","distractor":"6407521","target":"present","response":"absent","rt":"4405.599999994","correct":false,"confidence":5},{"trial_n":54,"span":6,"encoder":"363202","distractor":"363232","target":"present","response":"present","rt":"3102.5","correct":true,"confidence":5},{"trial_n":55,"span":6,"encoder":"637553","distractor":"637453","target":"absent","response":"absent","rt":"4469.6000000238","correct":true,"confidence":5},{"trial_n":56,"span":7,"encoder":"5092895","distractor":"5392895","target":"present","response":"present","rt":"2182.6999999881","correct":true,"confidence":5},{"trial_n":57,"span":7,"encoder":"2526043","distractor":"2596043","target":"absent","response":"absent","rt":"4194.2999999821","correct":true,"confidence":5},{"trial_n":58,"span":8,"encoder":"55768061","distractor":"55768068","target":"present","response":"present","rt":"2739.400000006","correct":true,"confidence":5},{"trial_n":59,"span":8,"encoder":"07594376","distractor":"07514376","target":"absent","response":"present","rt":"1868.099999994","correct":false,"confidence":4},{"trial_n":60,"span":7,"encoder":"0145931","distractor":"0645931","target":"present","response":"absent","rt":"3026.8000000119","correct":false,"confidence":5},{"trial_n":61,"span":6,"encoder":"383345","distractor":"333345","target":"absent","response":"absent","rt":"1540.8000000119","correct":true,"confidence":5},{"trial_n":62,"span":6,"encoder":"721542","distractor":"721540","target":"absent","response":"absent","rt":"2423","correct":true,"confidence":5},{"trial_n":63,"span":7,"encoder":"0714802","distractor":"0714805","target":"absent","response":"absent","rt":"1325.099999994","correct":true,"confidence":5},{"trial_n":64,"span":7,"encoder":"3334757","distractor":"3334755","target":"present","response":"absent","rt":"6299.1000000238","correct":false,"confidence":5},{"trial_n":65,"span":6,"encoder":"553456","distractor":"953456","target":"absent","response":"present","rt":"3231.1999999881","correct":false,"confidence":5},{"trial_n":66,"span":5,"encoder":"22758","distractor":"22728","target":"absent","response":"absent","rt":"5352.8000000119","correct":true,"confidence":2},{"trial_n":67,"span":5,"encoder":"14241","distractor":"10241","target":"absent","response":"absent","rt":"2195.3000000119","correct":true,"confidence":5},{"trial_n":68,"span":6,"encoder":"455406","distractor":"455404","target":"present","response":"present","rt":"1839.7999999821","correct":true,"confidence":5},{"trial_n":69,"span":6,"encoder":"584242","distractor":"574242","target":"absent","response":"absent","rt":"2357.900000006","correct":true,"confidence":5},{"trial_n":70,"span":7,"encoder":"9671278","distractor":"9671272","target":"absent","response":"absent","rt":"1546.5","correct":true,"confidence":5},{"trial_n":71,"span":8,"encoder":"32980561","distractor":"32980562","target":"present","response":"present","rt":"1689.900000006","correct":true,"confidence":-1},{"trial_n":72,"span":8,"encoder":"78841618","distractor":"75841618","target":"present","response":"present","rt":"12594.799999982","correct":true,"confidence":-1},{"trial_n":73,"span":9,"encoder":"102122271","distractor":"106122271","target":"absent","response":"absent","rt":"2438.400000006","correct":true,"confidence":-1},{"trial_n":74,"span":9,"encoder":"063809079","distractor":"063809029","target":"absent","response":"absent","rt":"2900.2999999821","correct":true,"confidence":-1},{"trial_n":75,"span":10,"encoder":"0868652471","distractor":"0368652471","target":"present","response":"present","rt":"3109.400000006","correct":true,"confidence":-1},{"trial_n":76,"span":10,"encoder":"9555832726","distractor":"9555832724","target":"present","response":"present","rt":"2094.6999999881","correct":true,"confidence":-1},{"trial_n":77,"span":11,"encoder":"02184507460","distractor":"02184507060","target":"present","response":"present","rt":"2105.400000006","correct":true,"confidence":-1},{"trial_n":78,"span":11,"encoder":"99149688489","distractor":"90149688489","target":"present","response":"present","rt":"3674.8999999762","correct":true,"confidence":-1},{"trial_n":79,"span":12,"encoder":"948335875025","distractor":"948335875725","target":"absent","response":"absent","rt":"5107.3000000119","correct":true,"confidence":-1},{"trial_n":80,"span":12,"encoder":"917706448530","distractor":"917706848530","target":"absent","response":"present","rt":"4996.8000000119","correct":false,"confidence":-1},{"trial_n":81,"span":11,"encoder":"14072085993","distractor":"14078085993","target":"present","response":"present","rt":"7127.599999994","correct":true,"confidence":-1},{"trial_n":82,"span":11,"encoder":"22704821982","distractor":"22604821982","target":"present","response":"present","rt":"2571.5","correct":true,"confidence":-1},{"trial_n":83,"span":12,"encoder":"031857393153","distractor":"039857393153","target":"absent","response":"absent","rt":"4835.2000000179","correct":true,"confidence":-1},{"trial_n":84,"span":12,"encoder":"014752270756","distractor":"014752270556","target":"absent","response":"absent","rt":"2773.7000000179","correct":true,"confidence":-1},{"trial_n":85,"span":13,"encoder":"0086897045878","distractor":"0086897045888","target":"absent","response":"absent","rt":"1767.599999994","correct":true,"confidence":-1},{"trial_n":86,"span":13,"encoder":"1594676993760","distractor":"1597676993760","target":"present","response":"present","rt":"7093.3000000119","correct":true,"confidence":-1},{"trial_n":87,"span":14,"encoder":"89964088819533","distractor":"89964088819563","target":"present","response":"present","rt":"2809.599999994","correct":true,"confidence":-1},{"trial_n":88,"span":14,"encoder":"56882972646514","distractor":"56882952646514","target":"present","response":"absent","rt":"5643.900000006","correct":false,"confidence":-1},{"trial_n":89,"span":13,"encoder":"9899733975004","distractor":"9879733975004","target":"present","response":"absent","rt":"3861.1999999881","correct":false,"confidence":-1},{"trial_n":90,"span":12,"encoder":"955060255309","distractor":"950060255309","target":"absent","response":"present","rt":"1842","correct":false,"confidence":-1},{"trial_n":91,"span":11,"encoder":"67383374813","distractor":"67383394813","target":"absent","response":"present","rt":"6152.599999994","correct":false,"confidence":3},{"trial_n":92,"span":10,"encoder":"7347289814","distractor":"7347289815","target":"present","response":"present","rt":"1586.400000006","correct":true,"confidence":5},{"trial_n":93,"span":10,"encoder":"9167501854","distractor":"9167501814","target":"present","response":"absent","rt":"2733","correct":false,"confidence":5},{"trial_n":94,"span":9,"encoder":"864496561","distractor":"804496561","target":"absent","response":"present","rt":"5173.400000006","correct":false,"confidence":5},{"trial_n":95,"span":8,"encoder":"88175124","distractor":"88115124","target":"present","response":"present","rt":"3022.8000000119","correct":true,"confidence":5},{"trial_n":96,"span":8,"encoder":"78073612","distractor":"78075612","target":"present","response":"present","rt":"5695.1999999881","correct":true,"confidence":5},{"trial_n":97,"span":9,"encoder":"947186963","distractor":"947186903","target":"present","response":"present","rt":"2211.900000006","correct":true,"confidence":5},{"trial_n":98,"span":9,"encoder":"379004981","distractor":"379004911","target":"present","response":"present","rt":"1754.900000006","correct":true,"confidence":5},{"trial_n":99,"span":10,"encoder":"3534569550","distractor":"3534369550","target":"absent","response":"present","rt":"2388.1999999881","correct":false,"confidence":5},{"trial_n":100,"span":9,"encoder":"751260638","distractor":"741260638","target":"present","response":"present","rt":"6287.599999994","correct":true,"confidence":5},{"trial_n":101,"span":9,"encoder":"657704202","distractor":"653704202","target":"present","response":"present","rt":"3380.2000000179","correct":true,"confidence":2},{"trial_n":102,"span":10,"encoder":"7162849978","distractor":"7162849973","target":"present","response":"present","rt":"2362.6999999881","correct":true,"confidence":5},{"trial_n":103,"span":10,"encoder":"6873857343","distractor":"6873859343","target":"present","response":"present","rt":"9946.599999994","correct":true,"confidence":4},{"trial_n":104,"span":11,"encoder":"62661191518","distractor":"62661191618","target":"absent","response":"absent","rt":"2415.599999994","correct":true,"confidence":5},{"trial_n":105,"span":11,"encoder":"01723679066","distractor":"01723659066","target":"absent","response":"present","rt":"5779.8000000119","correct":false,"confidence":4},{"trial_n":106,"span":10,"encoder":"9880195458","distractor":"9886195458","target":"present","response":"present","rt":"4437.3999999762","correct":true,"confidence":5},{"trial_n":107,"span":10,"encoder":"4965061998","distractor":"4765061998","target":"present","response":"present","rt":"3221.5","correct":true,"confidence":2},{"trial_n":108,"span":11,"encoder":"75415322567","distractor":"75455322567","target":"present","response":"present","rt":"5739.400000006","correct":true,"confidence":5},{"trial_n":109,"span":11,"encoder":"63961282112","distractor":"53961282112","target":"absent","response":"present","rt":"8817.5","correct":false,"confidence":5},{"trial_n":110,"span":10,"encoder":"3042607665","distractor":"3042602665","target":"present","response":"present","rt":"4119.099999994","correct":true,"confidence":4},{"trial_n":111,"span":10,"encoder":"8793881571","distractor":"8793881871","target":"present","response":"absent","rt":"3152.1999999881","correct":false,"confidence":3},{"trial_n":112,"span":9,"encoder":"327386317","distractor":"327386327","target":"present","response":"present","rt":"2031.099999994","correct":true,"confidence":5},{"trial_n":113,"span":9,"encoder":"919288331","distractor":"919288351","target":"present","response":"present","rt":"1727.5","correct":true,"confidence":5},{"trial_n":114,"span":10,"encoder":"5435315153","distractor":"5433315153","target":"absent","response":"absent","rt":"3218.3999999762","correct":true,"confidence":5},{"trial_n":115,"span":10,"encoder":"8886136441","distractor":"8889136441","target":"present","response":"present","rt":"8522.2999999821","correct":true,"confidence":4},{"trial_n":116,"span":11,"encoder":"42750967678","distractor":"42750967668","target":"present","response":"present","rt":"2180.6999999881","correct":true,"confidence":5},{"trial_n":117,"span":11,"encoder":"21108570362","distractor":"21108670362","target":"present","response":"present","rt":"4205.900000006","correct":true,"confidence":5},{"trial_n":118,"span":12,"encoder":"412643914239","distractor":"412643910239","target":"absent","response":"absent","rt":"4993.599999994","correct":true,"confidence":5},{"trial_n":119,"span":12,"encoder":"925813883539","distractor":"925803883539","target":"absent","response":"absent","rt":"15279.300000012","correct":true,"confidence":3},{"trial_n":120,"span":13,"encoder":"9424631976251","distractor":"9454631976251","target":"absent","response":"present","rt":"6032.3000000119","correct":false,"confidence":4},{"trial_n":121,"span":12,"encoder":"166614919265","distractor":"186614919265","target":"absent","response":"absent","rt":"3443.599999994","correct":true,"confidence":5},{"trial_n":122,"span":12,"encoder":"824473386601","distractor":"824473386651","target":"present","response":"present","rt":"2782.900000006","correct":true,"confidence":4},{"trial_n":123,"span":13,"encoder":"9131140072253","distractor":"9134140072253","target":"absent","response":"absent","rt":"8118.6999999881","correct":true,"confidence":2},{"trial_n":124,"span":13,"encoder":"7033919591707","distractor":"7033919591787","target":"absent","response":"absent","rt":"1617.1999999881","correct":true,"confidence":5},{"trial_n":125,"span":14,"encoder":"48315042147234","distractor":"48315042142234","target":"absent","response":"absent","rt":"2335.1999999881","correct":true,"confidence":5},{"trial_n":126,"span":14,"encoder":"81119704078643","distractor":"81119704278643","target":"present","response":"present","rt":"7240.3000000119","correct":true,"confidence":5},{"trial_n":127,"span":15,"encoder":"296819569151489","distractor":"296819569121489","target":"absent","response":"absent","rt":"1944.400000006","correct":true,"confidence":5},{"trial_n":128,"span":15,"encoder":"356311581612953","distractor":"306311581612953","target":"absent","response":"absent","rt":"5052.7000000179","correct":true,"confidence":3},{"trial_n":129,"span":16,"encoder":"2555066134098398","distractor":"2555066834098398","target":"absent","response":"absent","rt":"6392","correct":true,"confidence":3},{"trial_n":130,"span":16,"encoder":"2019851881140982","distractor":"2019851881146982","target":"absent","response":"present","rt":"17447.199999988","correct":false,"confidence":1},{"trial_n":131,"span":15,"encoder":"877000506093391","distractor":"877000506094391","target":"absent","response":"absent","rt":"9354.900000006","correct":true,"confidence":2},{"trial_n":132,"span":15,"encoder":"255431942963468","distractor":"254431942963468","target":"absent","response":"absent","rt":"16560.299999982","correct":true,"confidence":3},{"trial_n":133,"span":16,"encoder":"8044772150929515","distractor":"8044672150929515","target":"absent","response":"present","rt":"19627.5","correct":false,"confidence":3},{"trial_n":134,"span":15,"encoder":"329784780352494","distractor":"369784780352494","target":"absent","response":"absent","rt":"3580","correct":true,"confidence":4},{"trial_n":135,"span":15,"encoder":"552685336566644","distractor":"552285336566644","target":"present","response":"absent","rt":"7012.6000000238","correct":false,"confidence":3},{"trial_n":136,"span":14,"encoder":"05947928723255","distractor":"05947628723255","target":"absent","response":"present","rt":"10405.599999994","correct":false,"confidence":4},{"trial_n":137,"span":13,"encoder":"4489221235464","distractor":"4389221235464","target":"present","response":"absent","rt":"6382.7000000179","correct":false,"confidence":3},{"trial_n":138,"span":12,"encoder":"373549112637","distractor":"376549112637","target":"absent","response":"present","rt":"9107.400000006","correct":false,"confidence":3},{"trial_n":139,"span":11,"encoder":"54969764901","distractor":"54959764901","target":"absent","response":"absent","rt":"4722.5","correct":true,"confidence":5},{"trial_n":140,"span":11,"encoder":"53920641119","distractor":"53920641113","target":"absent","response":"absent","rt":"1713.599999994","correct":true,"confidence":5}]