[{"trial_n":1,"n_dots":4.25,"target":"right","response":"left","rt":5680.900000006,"correct":false,"confidence":-1},{"trial_n":2,"n_dots":4.25,"target":"right","response":"right","rt":1757.6999999881,"correct":true,"confidence":-1},{"trial_n":3,"n_dots":4.25,"target":"left","response":"left","rt":462.19999998808,"correct":true,"confidence":-1},{"trial_n":4,"n_dots":3.85,"target":"left","response":"left","rt":849.80000001192,"correct":true,"confidence":-1},{"trial_n":5,"n_dots":3.85,"target":"right","response":"right","rt":448.09999999404,"correct":true,"confidence":-1},{"trial_n":6,"n_dots":3.45,"target":"left","response":"left","rt":734.39999997616,"correct":true,"confidence":-1},{"trial_n":7,"n_dots":3.45,"target":"right","response":"right","rt":405.5,"correct":true,"confidence":-1},{"trial_n":8,"n_dots":3.25,"target":"left","response":"left","rt":666.40000000596,"correct":true,"confidence":-1},{"trial_n":9,"n_dots":3.25,"target":"left","response":"right","rt":257,"correct":false,"confidence":-1},{"trial_n":10,"n_dots":3.45,"target":"right","response":"right","rt":17.899999976158,"correct":true,"confidence":-1},{"trial_n":11,"n_dots":3.45,"target":"right","response":"left","rt":386.09999999404,"correct":false,"confidence":-1},{"trial_n":12,"n_dots":3.65,"target":"right","response":"right","rt":247.70000001788,"correct":true,"confidence":-1},{"trial_n":13,"n_dots":3.65,"target":"right","response":"left","rt":539.19999998808,"correct":false,"confidence":-1},{"trial_n":14,"n_dots":3.75,"target":"right","response":"left","rt":587.40000000596,"correct":false,"confidence":-1},{"trial_n":15,"n_dots":3.85,"target":"left","response":"left","rt":869.69999998808,"correct":true,"confidence":-1},{"trial_n":16,"n_dots":3.85,"target":"left","response":"left","rt":490,"correct":true,"confidence":-1},{"trial_n":17,"n_dots":3.75,"target":"left","response":"right","rt":321.70000001788,"correct":false,"confidence":-1},{"trial_n":18,"n_dots":3.85,"target":"left","response":"left","rt":234.70000001788,"correct":true,"confidence":-1},{"trial_n":19,"n_dots":3.85,"target":"left","response":"left","rt":1710.1999999881,"correct":true,"confidence":-1},{"trial_n":20,"n_dots":3.75,"target":"left","response":"left","rt":334.59999999404,"correct":true,"confidence":-1},{"trial_n":21,"n_dots":3.75,"target":"left","response":"left","rt":231.09999999404,"correct":true,"confidence":4},{"trial_n":22,"n_dots":3.65,"target":"left","response":"left","rt":229.30000001192,"correct":true,"confidence":4},{"trial_n":23,"n_dots":3.65,"target":"right","response":"left","rt":155.29999998212,"correct":false,"confidence":4},{"trial_n":24,"n_dots":3.75,"target":"left","response":"left","rt":872.90000000596,"correct":true,"confidence":3},{"trial_n":25,"n_dots":3.75,"target":"left","response":"left","rt":152.59999999404,"correct":true,"confidence":4},{"trial_n":26,"n_dots":3.65,"target":"right","response":"left","rt":91.700000017881,"correct":false,"confidence":4},{"trial_n":27,"n_dots":3.75,"target":"right","response":"right","rt":1971.2999999821,"correct":true,"confidence":4},{"trial_n":28,"n_dots":3.75,"target":"right","response":"right","rt":1925.1999999881,"correct":true,"confidence":4},{"trial_n":29,"n_dots":3.65,"target":"left","response":"left","rt":58.199999988079,"correct":true,"confidence":4},{"trial_n":30,"n_dots":3.65,"target":"right","response":"left","rt":909.30000001192,"correct":false,"confidence":3},{"trial_n":31,"n_dots":3.75,"target":"right","response":"right","rt":965,"correct":true,"confidence":4},{"trial_n":32,"n_dots":3.75,"target":"left","response":"left","rt":61.40000000596,"correct":true,"confidence":5},{"trial_n":33,"n_dots":3.65,"target":"left","response":"left","rt":942.90000000596,"correct":true,"confidence":5},{"trial_n":34,"n_dots":3.65,"target":"right","response":"right","rt":882.40000000596,"correct":true,"confidence":5},{"trial_n":35,"n_dots":3.55,"target":"left","response":"right","rt":2212.5,"correct":false,"confidence":3},{"trial_n":36,"n_dots":3.65,"target":"left","response":"right","rt":2617.900000006,"correct":false,"confidence":4},{"trial_n":37,"n_dots":3.75,"target":"left","response":"left","rt":2029.5,"correct":true,"confidence":3},{"trial_n":38,"n_dots":3.75,"target":"left","response":"right","rt":1129.099999994,"correct":false,"confidence":4},{"trial_n":39,"n_dots":3.85,"target":"right","response":"right","rt":909.80000001192,"correct":true,"confidence":4},{"trial_n":40,"n_dots":3.85,"target":"right","response":"right","rt":781.09999999404,"correct":true,"confidence":4},{"trial_n":41,"n_dots":3.75,"target":"left","response":"left","rt":1626.8000000119,"correct":true,"confidence":3},{"trial_n":42,"n_dots":3.75,"target":"left","response":"left","rt":934.40000000596,"correct":true,"confidence":5},{"trial_n":43,"n_dots":3.65,"target":"right","response":"right","rt":938.20000001788,"correct":true,"confidence":5},{"trial_n":44,"n_dots":3.65,"target":"left","response":"left","rt":903.80000001192,"correct":true,"confidence":5},{"trial_n":45,"n_dots":3.55,"target":"right","response":"right","rt":874.30000001192,"correct":true,"confidence":5},{"trial_n":46,"n_dots":3.55,"target":"left","response":"right","rt":1431.099999994,"correct":false,"confidence":4},{"trial_n":47,"n_dots":3.65,"target":"left","response":"left","rt":2090.5,"correct":true,"confidence":3},{"trial_n":48,"n_dots":3.65,"target":"right","response":"right","rt":2530,"correct":true,"confidence":4},{"trial_n":49,"n_dots":3.55,"target":"left","response":"left","rt":762.80000001192,"correct":true,"confidence":5},{"trial_n":50,"n_dots":3.55,"target":"right","response":"right","rt":1424.099999994,"correct":true,"confidence":2},{"trial_n":51,"n_dots":3.45,"target":"left","response":"left","rt":544.19999998808,"correct":true,"confidence":4},{"trial_n":52,"n_dots":3.45,"target":"right","response":"left","rt":1421.6999999881,"correct":false,"confidence":3},{"trial_n":53,"n_dots":3.55,"target":"left","response":"right","rt":1273.2999999821,"correct":false,"confidence":4},{"trial_n":54,"n_dots":3.65,"target":"right","response":"right","rt":1288.900000006,"correct":true,"confidence":3},{"trial_n":55,"n_dots":3.65,"target":"left","response":"left","rt":1898.8000000119,"correct":true,"confidence":3},{"trial_n":56,"n_dots":3.55,"target":"left","response":"left","rt":919.80000001192,"correct":true,"confidence":3},{"trial_n":57,"n_dots":3.55,"target":"right","response":"left","rt":2569.7999999821,"correct":false,"confidence":3},{"trial_n":58,"n_dots":3.65,"target":"left","response":"left","rt":1150,"correct":true,"confidence":4},{"trial_n":59,"n_dots":3.65,"target":"right","response":"right","rt":1863.099999994,"correct":true,"confidence":4},{"trial_n":60,"n_dots":3.55,"target":"left","response":"left","rt":1731.099999994,"correct":true,"confidence":4},{"trial_n":61,"n_dots":3.55,"target":"right","response":"right","rt":982.80000001192,"correct":true,"confidence":4},{"trial_n":62,"n_dots":3.45,"target":"left","response":"left","rt":1293.3999999762,"correct":true,"confidence":3},{"trial_n":63,"n_dots":3.45,"target":"right","response":"right","rt":981.5,"correct":true,"confidence":4},{"trial_n":64,"n_dots":3.35,"target":"left","response":"left","rt":3229,"correct":true,"confidence":3},{"trial_n":65,"n_dots":3.35,"target":"left","response":"right","rt":1472.599999994,"correct":false,"confidence":3},{"trial_n":66,"n_dots":3.45,"target":"right","response":"right","rt":1011,"correct":true,"confidence":3},{"trial_n":67,"n_dots":3.45,"target":"right","response":"right","rt":854.40000000596,"correct":true,"confidence":4},{"trial_n":68,"n_dots":3.35,"target":"right","response":"right","rt":833.80000001192,"correct":true,"confidence":3},{"trial_n":69,"n_dots":3.35,"target":"right","response":"left","rt":1479.1000000238,"correct":false,"confidence":3},{"trial_n":70,"n_dots":3.45,"target":"right","response":"right","rt":1058.599999994,"correct":true,"confidence":3},{"trial_n":71,"n_dots":3.45,"target":"left","response":"left","rt":831.09999999404,"correct":true,"confidence":3},{"trial_n":72,"n_dots":3.35,"target":"right","response":"right","rt":593.70000001788,"correct":true,"confidence":4},{"trial_n":73,"n_dots":3.35,"target":"right","response":"left","rt":536.20000001788,"correct":false,"confidence":4},{"trial_n":74,"n_dots":3.45,"target":"left","response":"left","rt":578.5,"correct":true,"confidence":4},{"trial_n":75,"n_dots":3.45,"target":"right","response":"left","rt":495.69999998808,"correct":false,"confidence":4},{"trial_n":76,"n_dots":3.55,"target":"right","response":"right","rt":675.5,"correct":true,"confidence":4},{"trial_n":77,"n_dots":3.55,"target":"right","response":"right","rt":1314.8000000119,"correct":true,"confidence":4},{"trial_n":78,"n_dots":3.45,"target":"left","response":"left","rt":362.40000000596,"correct":true,"confidence":4},{"trial_n":79,"n_dots":3.45,"target":"left","response":"left","rt":2040.5,"correct":true,"confidence":2},{"trial_n":80,"n_dots":3.35,"target":"right","response":"right","rt":1148.7000000179,"correct":true,"confidence":3},{"trial_n":81,"n_dots":3.35,"target":"left","response":"left","rt":499.19999998808,"correct":true,"confidence":4},{"trial_n":82,"n_dots":3.25,"target":"left","response":"left","rt":880,"correct":true,"confidence":5},{"trial_n":83,"n_dots":3.25,"target":"right","response":"right","rt":1641.8000000119,"correct":true,"confidence":4},{"trial_n":84,"n_dots":3.15,"target":"right","response":"left","rt":1494.2999999821,"correct":false,"confidence":3},{"trial_n":85,"n_dots":3.25,"target":"left","response":"left","rt":2082.900000006,"correct":true,"confidence":4},{"trial_n":86,"n_dots":3.25,"target":"right","response":"left","rt":1122.099999994,"correct":false,"confidence":4},{"trial_n":87,"n_dots":3.35,"target":"left","response":"left","rt":1981.7999999821,"correct":true,"confidence":2},{"trial_n":88,"n_dots":3.35,"target":"right","response":"right","rt":1271.7000000179,"correct":true,"confidence":4},{"trial_n":89,"n_dots":3.25,"target":"left","response":"left","rt":923.29999998212,"correct":true,"confidence":3},{"trial_n":90,"n_dots":3.25,"target":"right","response":"right","rt":1086,"correct":true,"confidence":4},{"trial_n":91,"n_dots":3.15,"target":"right","response":"right","rt":1183.400000006,"correct":true,"confidence":3},{"trial_n":92,"n_dots":3.15,"target":"left","response":"right","rt":2273.400000006,"correct":false,"confidence":3},{"trial_n":93,"n_dots":3.25,"target":"left","response":"left","rt":1005,"correct":true,"confidence":3},{"trial_n":94,"n_dots":3.25,"target":"left","response":"left","rt":763,"correct":true,"confidence":5},{"trial_n":95,"n_dots":3.15,"target":"left","response":"left","rt":492.40000000596,"correct":true,"confidence":5},{"trial_n":96,"n_dots":3.15,"target":"left","response":"left","rt":933.20000001788,"correct":true,"confidence":4},{"trial_n":97,"n_dots":3.05,"target":"right","response":"right","rt":522.20000001788,"correct":true,"confidence":3},{"trial_n":98,"n_dots":3.05,"target":"left","response":"right","rt":1292.5,"correct":false,"confidence":3},{"trial_n":99,"n_dots":3.15,"target":"left","response":"right","rt":1366,"correct":false,"confidence":3},{"trial_n":100,"n_dots":3.25,"target":"right","response":"right","rt":991,"correct":true,"confidence":3},{"trial_n":101,"n_dots":3.25,"target":"right","response":"right","rt":1009.1999999881,"correct":true,"confidence":3},{"trial_n":102,"n_dots":3.15,"target":"left","response":"left","rt":894.79999998212,"correct":true,"confidence":4},{"trial_n":103,"n_dots":3.15,"target":"right","response":"right","rt":1039.900000006,"correct":true,"confidence":3},{"trial_n":104,"n_dots":3.05,"target":"right","response":"right","rt":1361.1000000238,"correct":true,"confidence":4},{"trial_n":105,"n_dots":3.05,"target":"right","response":"right","rt":754.29999998212,"correct":true,"confidence":4},{"trial_n":106,"n_dots":2.95,"target":"left","response":"left","rt":1039.599999994,"correct":true,"confidence":3},{"trial_n":107,"n_dots":2.95,"target":"right","response":"right","rt":825.70000001788,"correct":true,"confidence":4},{"trial_n":108,"n_dots":2.85,"target":"left","response":"left","rt":1312,"correct":true,"confidence":3},{"trial_n":109,"n_dots":2.85,"target":"right","response":"left","rt":1056.3000000119,"correct":false,"confidence":3},{"trial_n":110,"n_dots":2.95,"target":"right","response":"right","rt":361.59999999404,"correct":true,"confidence":3},{"trial_n":111,"n_dots":2.95,"target":"left","response":"left","rt":714.80000001192,"correct":true,"confidence":1},{"trial_n":112,"n_dots":2.85,"target":"right","response":"left","rt":3653,"correct":false,"confidence":3},{"trial_n":113,"n_dots":2.95,"target":"right","response":"right","rt":649,"correct":true,"confidence":3},{"trial_n":114,"n_dots":2.95,"target":"right","response":"right","rt":621,"correct":true,"confidence":3},{"trial_n":115,"n_dots":2.85,"target":"left","response":"left","rt":671.80000001192,"correct":true,"confidence":3},{"trial_n":116,"n_dots":2.85,"target":"right","response":"right","rt":410.79999998212,"correct":true,"confidence":4},{"trial_n":117,"n_dots":2.75,"target":"right","response":"right","rt":778.70000001788,"correct":true,"confidence":3},{"trial_n":118,"n_dots":2.75,"target":"right","response":"left","rt":366.69999998808,"correct":false,"confidence":4},{"trial_n":119,"n_dots":2.85,"target":"left","response":"left","rt":569.20000001788,"correct":true,"confidence":4},{"trial_n":120,"n_dots":2.85,"target":"left","response":"left","rt":584.59999999404,"correct":true,"confidence":4}]