[{"trial_n":1,"span":8,"encoder":"30490241","distractor":"30490248","target":"present","response":"absent","rt":"7778","correct":false,"confidence":-1},{"trial_n":2,"span":6,"encoder":"192149","distractor":"198149","target":"present","response":"present","rt":"4259","correct":true,"confidence":-1},{"trial_n":3,"span":6,"encoder":"864280","distractor":"864282","target":"absent","response":"absent","rt":"4511","correct":true,"confidence":-1},{"trial_n":4,"span":8,"encoder":"54634312","distractor":"54644312","target":"absent","response":"absent","rt":"4323","correct":true,"confidence":-1},{"trial_n":5,"span":8,"encoder":"96274091","distractor":"76274091","target":"present","response":"present","rt":"3760","correct":true,"confidence":-1},{"trial_n":6,"span":10,"encoder":"5146511721","distractor":"5246511721","target":"present","response":"absent","rt":"7462","correct":false,"confidence":-1},{"trial_n":7,"span":8,"encoder":"15255359","distractor":"15455359","target":"present","response":"present","rt":"7877","correct":true,"confidence":-1},{"trial_n":8,"span":8,"encoder":"13372935","distractor":"12372935","target":"present","response":"present","rt":"5021","correct":true,"confidence":-1},{"trial_n":9,"span":10,"encoder":"3446904884","distractor":"3446904284","target":"present","response":"absent","rt":"4830","correct":false,"confidence":-1},{"trial_n":10,"span":8,"encoder":"21851070","distractor":"21451070","target":"present","response":"present","rt":"3488","correct":true,"confidence":-1},{"trial_n":11,"span":8,"encoder":"88931230","distractor":"88931240","target":"absent","response":"absent","rt":"4843","correct":true,"confidence":-1},{"trial_n":12,"span":9,"encoder":"732927151","distractor":"772927151","target":"absent","response":"absent","rt":"2942","correct":true,"confidence":-1},{"trial_n":13,"span":9,"encoder":"739654979","distractor":"719654979","target":"present","response":"present","rt":"3677","correct":true,"confidence":-1},{"trial_n":14,"span":10,"encoder":"3993846285","distractor":"3993847285","target":"present","response":"present","rt":"3379","correct":true,"confidence":-1},{"trial_n":15,"span":10,"encoder":"7081877566","distractor":"7081677566","target":"absent","response":"absent","rt":"4719","correct":true,"confidence":-1},{"trial_n":16,"span":11,"encoder":"67371837713","distractor":"67371836713","target":"present","response":"present","rt":"3943","correct":true,"confidence":-1},{"trial_n":17,"span":11,"encoder":"14877926967","distractor":"14877922967","target":"absent","response":"absent","rt":"6009","correct":true,"confidence":-1},{"trial_n":18,"span":12,"encoder":"117195048270","distractor":"117195048370","target":"present","response":"absent","rt":"5939","correct":false,"confidence":-1},{"trial_n":19,"span":11,"encoder":"12087796673","distractor":"12087792673","target":"absent","response":"present","rt":"7685","correct":false,"confidence":-1},{"trial_n":20,"span":10,"encoder":"2839858839","distractor":"2839858899","target":"present","response":"present","rt":"4154","correct":true,"confidence":-1},{"trial_n":21,"span":10,"encoder":"3661264255","distractor":"3669264255","target":"absent","response":"absent","rt":"4691","correct":true,"confidence":4},{"trial_n":22,"span":11,"encoder":"18374507386","distractor":"18074507386","target":"absent","response":"present","rt":"5667","correct":false,"confidence":2},{"trial_n":23,"span":10,"encoder":"4091561064","distractor":"4031561064","target":"present","response":"present","rt":"4452","correct":true,"confidence":5},{"trial_n":24,"span":10,"encoder":"8271446318","distractor":"8271446311","target":"present","response":"present","rt":"4520","correct":true,"confidence":4},{"trial_n":25,"span":11,"encoder":"38584358775","distractor":"38581358775","target":"present","response":"present","rt":"3783","correct":true,"confidence":4},{"trial_n":26,"span":11,"encoder":"67330627874","distractor":"67330627174","target":"absent","response":"absent","rt":"3920","correct":true,"confidence":3},{"trial_n":27,"span":12,"encoder":"204844812727","distractor":"604844812727","target":"present","response":"absent","rt":"5624.0000000001","correct":false,"confidence":2},{"trial_n":28,"span":11,"encoder":"96620303926","distractor":"96620383926","target":"present","response":"absent","rt":"3980","correct":false,"confidence":1},{"trial_n":29,"span":10,"encoder":"1648799754","distractor":"5648799754","target":"absent","response":"absent","rt":"5146","correct":true,"confidence":1},{"trial_n":30,"span":10,"encoder":"8580926984","distractor":"8780926984","target":"present","response":"present","rt":"3616.0000000001","correct":true,"confidence":4},{"trial_n":31,"span":11,"encoder":"94936835915","distractor":"94934835915","target":"absent","response":"absent","rt":"6742","correct":true,"confidence":3},{"trial_n":32,"span":11,"encoder":"18003257609","distractor":"14003257609","target":"absent","response":"absent","rt":"5056","correct":true,"confidence":4},{"trial_n":33,"span":12,"encoder":"368587116852","distractor":"368587116854","target":"absent","response":"absent","rt":"5944","correct":true,"confidence":4},{"trial_n":34,"span":12,"encoder":"653569498653","distractor":"653569198653","target":"absent","response":"absent","rt":"6151.0000000001","correct":true,"confidence":3},{"trial_n":35,"span":13,"encoder":"0434424401416","distractor":"0434424401716","target":"absent","response":"absent","rt":"4338","correct":true,"confidence":4},{"trial_n":36,"span":13,"encoder":"1211431740293","distractor":"1211431740593","target":"absent","response":"present","rt":"37818","correct":false,"confidence":1},{"trial_n":37,"span":12,"encoder":"002584561786","distractor":"002584560786","target":"absent","response":"present","rt":"6282","correct":false,"confidence":2},{"trial_n":38,"span":11,"encoder":"46654884188","distractor":"06654884188","target":"absent","response":"present","rt":"4589.9999999999","correct":false,"confidence":3},{"trial_n":39,"span":10,"encoder":"0717786645","distractor":"0717186645","target":"present","response":"present","rt":"4945.9999999999","correct":true,"confidence":4},{"trial_n":40,"span":10,"encoder":"2050888527","distractor":"2050288527","target":"present","response":"present","rt":"3944","correct":true,"confidence":4},{"trial_n":41,"span":11,"encoder":"83323409011","distractor":"83323409019","target":"present","response":"absent","rt":"2883","correct":false,"confidence":5},{"trial_n":42,"span":10,"encoder":"1625564581","distractor":"1625864581","target":"present","response":"present","rt":"3422","correct":true,"confidence":5},{"trial_n":43,"span":10,"encoder":"9755732490","distractor":"9255732490","target":"absent","response":"present","rt":"3980","correct":false,"confidence":4},{"trial_n":44,"span":9,"encoder":"270721294","distractor":"270721224","target":"present","response":"present","rt":"10968","correct":true,"confidence":3},{"trial_n":45,"span":9,"encoder":"085267424","distractor":"015267424","target":"present","response":"present","rt":"3784","correct":true,"confidence":5},{"trial_n":46,"span":10,"encoder":"7817305446","distractor":"7817325446","target":"absent","response":"absent","rt":"7332","correct":true,"confidence":4},{"trial_n":47,"span":10,"encoder":"7536980343","distractor":"1536980343","target":"present","response":"absent","rt":"5449.9999999999","correct":false,"confidence":2},{"trial_n":48,"span":9,"encoder":"542534143","distractor":"542533143","target":"absent","response":"absent","rt":"4808","correct":true,"confidence":5},{"trial_n":49,"span":9,"encoder":"378336535","distractor":"378336505","target":"absent","response":"absent","rt":"3089","correct":true,"confidence":5},{"trial_n":50,"span":10,"encoder":"5824782437","distractor":"5824783437","target":"present","response":"present","rt":"4144.0000000001","correct":true,"confidence":4},{"trial_n":51,"span":10,"encoder":"1152567993","distractor":"1352567993","target":"absent","response":"absent","rt":"2962","correct":true,"confidence":5},{"trial_n":52,"span":11,"encoder":"49588273337","distractor":"49588273307","target":"present","response":"absent","rt":"5330.9999999999","correct":false,"confidence":3},{"trial_n":53,"span":10,"encoder":"1837792476","distractor":"1837792406","target":"absent","response":"absent","rt":"4569","correct":true,"confidence":2},{"trial_n":54,"span":10,"encoder":"5229336132","distractor":"5229336232","target":"absent","response":"absent","rt":"4799.9999999998","correct":true,"confidence":3},{"trial_n":55,"span":11,"encoder":"11920567455","distractor":"11320567455","target":"present","response":"present","rt":"3834","correct":true,"confidence":4},{"trial_n":56,"span":11,"encoder":"92092455794","distractor":"92092454794","target":"absent","response":"absent","rt":"3977","correct":true,"confidence":5},{"trial_n":57,"span":12,"encoder":"330430730409","distractor":"330530730409","target":"absent","response":"present","rt":"6131","correct":false,"confidence":3},{"trial_n":58,"span":11,"encoder":"26525139484","distractor":"21525139484","target":"absent","response":"present","rt":"8419.0000000002","correct":false,"confidence":3},{"trial_n":59,"span":10,"encoder":"7724494603","distractor":"7724499603","target":"present","response":"absent","rt":"51008","correct":false,"confidence":1},{"trial_n":60,"span":9,"encoder":"737166363","distractor":"337166363","target":"present","response":"present","rt":"4608","correct":true,"confidence":4},{"trial_n":61,"span":9,"encoder":"589360721","distractor":"589360021","target":"present","response":"present","rt":"3815","correct":true,"confidence":3},{"trial_n":62,"span":10,"encoder":"7950128326","distractor":"7750128326","target":"present","response":"absent","rt":"5940","correct":false,"confidence":2},{"trial_n":63,"span":9,"encoder":"429746678","distractor":"424746678","target":"present","response":"present","rt":"3947","correct":true,"confidence":5},{"trial_n":64,"span":9,"encoder":"587070828","distractor":"587040828","target":"absent","response":"absent","rt":"3940","correct":true,"confidence":5},{"trial_n":65,"span":10,"encoder":"5116738970","distractor":"5116718970","target":"absent","response":"present","rt":"5095","correct":false,"confidence":3},{"trial_n":66,"span":9,"encoder":"543011888","distractor":"543011848","target":"absent","response":"absent","rt":"6867","correct":true,"confidence":3},{"trial_n":67,"span":9,"encoder":"982961320","distractor":"982901320","target":"present","response":"present","rt":"4739","correct":true,"confidence":4},{"trial_n":68,"span":10,"encoder":"2502231505","distractor":"2502231509","target":"present","response":"present","rt":"6084","correct":true,"confidence":2},{"trial_n":69,"span":10,"encoder":"5555829094","distractor":"5555829494","target":"absent","response":"absent","rt":"3801","correct":true,"confidence":4},{"trial_n":70,"span":11,"encoder":"69335171845","distractor":"19335171845","target":"absent","response":"absent","rt":"2277","correct":true,"confidence":4},{"trial_n":71,"span":8,"encoder":"43265724","distractor":"43965724","target":"present","response":"present","rt":"4981","correct":true,"confidence":-1},{"trial_n":72,"span":8,"encoder":"52905319","distractor":"52905919","target":"present","response":"absent","rt":"4441","correct":false,"confidence":-1},{"trial_n":73,"span":7,"encoder":"0276261","distractor":"0276461","target":"absent","response":"absent","rt":"2070","correct":true,"confidence":-1},{"trial_n":74,"span":7,"encoder":"4319793","distractor":"4319795","target":"absent","response":"absent","rt":"2065.0000000002","correct":true,"confidence":-1},{"trial_n":75,"span":8,"encoder":"84647118","distractor":"83647118","target":"present","response":"present","rt":"6011.9999999998","correct":true,"confidence":-1},{"trial_n":76,"span":8,"encoder":"82318335","distractor":"82318035","target":"present","response":"absent","rt":"3673","correct":false,"confidence":-1},{"trial_n":77,"span":7,"encoder":"5155939","distractor":"5155936","target":"absent","response":"absent","rt":"791","correct":true,"confidence":-1},{"trial_n":78,"span":7,"encoder":"0294473","distractor":"9294473","target":"absent","response":"absent","rt":"775.00000000023","correct":true,"confidence":-1},{"trial_n":79,"span":8,"encoder":"69052084","distractor":"69752084","target":"present","response":"present","rt":"2177","correct":true,"confidence":-1},{"trial_n":80,"span":8,"encoder":"61155496","distractor":"69155496","target":"present","response":"present","rt":"2188","correct":true,"confidence":-1},{"trial_n":81,"span":9,"encoder":"870594253","distractor":"170594253","target":"absent","response":"present","rt":"3361","correct":false,"confidence":-1},{"trial_n":82,"span":8,"encoder":"20373191","distractor":"60373191","target":"absent","response":"present","rt":"812.99999999977","correct":false,"confidence":-1},{"trial_n":83,"span":7,"encoder":"1904017","distractor":"1934017","target":"present","response":"absent","rt":"4157","correct":false,"confidence":-1},{"trial_n":84,"span":6,"encoder":"234239","distractor":"234231","target":"absent","response":"absent","rt":"3521","correct":true,"confidence":-1},{"trial_n":85,"span":6,"encoder":"229201","distractor":"229204","target":"absent","response":"absent","rt":"2522.9999999998","correct":true,"confidence":-1},{"trial_n":86,"span":7,"encoder":"8115176","distractor":"8115171","target":"present","response":"absent","rt":"890.99999999977","correct":false,"confidence":-1},{"trial_n":87,"span":6,"encoder":"890122","distractor":"890622","target":"present","response":"absent","rt":"657.99999999977","correct":false,"confidence":-1},{"trial_n":88,"span":5,"encoder":"01464","distractor":"31464","target":"present","response":"present","rt":"3531","correct":true,"confidence":-1},{"trial_n":89,"span":5,"encoder":"26801","distractor":"29801","target":"absent","response":"absent","rt":"1841.0000000002","correct":true,"confidence":-1},{"trial_n":90,"span":6,"encoder":"815903","distractor":"815993","target":"absent","response":"absent","rt":"2016","correct":true,"confidence":-1},{"trial_n":91,"span":6,"encoder":"976694","distractor":"976698","target":"present","response":"present","rt":"2344","correct":true,"confidence":5},{"trial_n":92,"span":7,"encoder":"2579920","distractor":"2579620","target":"absent","response":"absent","rt":"3926","correct":true,"confidence":4},{"trial_n":93,"span":7,"encoder":"3001938","distractor":"4001938","target":"present","response":"present","rt":"2172","correct":true,"confidence":5},{"trial_n":94,"span":8,"encoder":"77100700","distractor":"87100700","target":"present","response":"present","rt":"2836.0000000002","correct":true,"confidence":5},{"trial_n":95,"span":8,"encoder":"79910630","distractor":"79910230","target":"absent","response":"absent","rt":"4156","correct":true,"confidence":4},{"trial_n":96,"span":9,"encoder":"230724229","distractor":"230724329","target":"present","response":"present","rt":"3083.0000000002","correct":true,"confidence":1},{"trial_n":97,"span":9,"encoder":"193903540","distractor":"183903540","target":"present","response":"present","rt":"3938","correct":true,"confidence":4},{"trial_n":98,"span":10,"encoder":"7224557641","distractor":"7224551641","target":"present","response":"present","rt":"4105","correct":true,"confidence":3},{"trial_n":99,"span":10,"encoder":"2967684338","distractor":"2967694338","target":"present","response":"absent","rt":"4572","correct":false,"confidence":2},{"trial_n":100,"span":9,"encoder":"200924163","distractor":"208924163","target":"absent","response":"absent","rt":"5192","correct":true,"confidence":3},{"trial_n":101,"span":9,"encoder":"684016351","distractor":"614016351","target":"absent","response":"absent","rt":"3844","correct":true,"confidence":2},{"trial_n":102,"span":10,"encoder":"6409211581","distractor":"6009211581","target":"present","response":"present","rt":"4253","correct":true,"confidence":4},{"trial_n":103,"span":10,"encoder":"6071756141","distractor":"6079756141","target":"present","response":"present","rt":"6516","correct":true,"confidence":3},{"trial_n":104,"span":11,"encoder":"42867234265","distractor":"42867234260","target":"absent","response":"absent","rt":"2252","correct":true,"confidence":5},{"trial_n":105,"span":11,"encoder":"34495299361","distractor":"34495269361","target":"absent","response":"absent","rt":"2837","correct":true,"confidence":4},{"trial_n":106,"span":12,"encoder":"104016466559","distractor":"104916466559","target":"absent","response":"present","rt":"7854","correct":false,"confidence":2},{"trial_n":107,"span":11,"encoder":"58669838654","distractor":"58669832654","target":"present","response":"present","rt":"3843","correct":true,"confidence":4},{"trial_n":108,"span":11,"encoder":"59736031913","distractor":"59726031913","target":"present","response":"absent","rt":"4554.9999999998","correct":false,"confidence":3},{"trial_n":109,"span":10,"encoder":"5160187114","distractor":"5160687114","target":"absent","response":"absent","rt":"3418","correct":true,"confidence":3},{"trial_n":110,"span":10,"encoder":"1422900321","distractor":"1422900329","target":"absent","response":"absent","rt":"2183","correct":true,"confidence":5},{"trial_n":111,"span":11,"encoder":"98762653023","distractor":"98762655023","target":"present","response":"present","rt":"3612.9999999998","correct":true,"confidence":5},{"trial_n":112,"span":11,"encoder":"07626243503","distractor":"07626245503","target":"present","response":"present","rt":"2432.0000000002","correct":true,"confidence":5},{"trial_n":113,"span":12,"encoder":"654468490862","distractor":"654461490862","target":"present","response":"present","rt":"5826","correct":true,"confidence":3},{"trial_n":114,"span":12,"encoder":"393562010932","distractor":"396562010932","target":"absent","response":"present","rt":"6827","correct":false,"confidence":3},{"trial_n":115,"span":11,"encoder":"74757878313","distractor":"74757838313","target":"absent","response":"absent","rt":"5998.0000000002","correct":true,"confidence":1},{"trial_n":116,"span":11,"encoder":"18525022191","distractor":"18525022101","target":"present","response":"present","rt":"2520","correct":true,"confidence":5},{"trial_n":117,"span":12,"encoder":"462558798248","distractor":"462558788248","target":"absent","response":"absent","rt":"3381","correct":true,"confidence":5},{"trial_n":118,"span":12,"encoder":"574615258435","distractor":"574615258935","target":"present","response":"present","rt":"2961","correct":true,"confidence":5},{"trial_n":119,"span":13,"encoder":"5177532315521","distractor":"5177532315501","target":"present","response":"present","rt":"3360","correct":true,"confidence":5},{"trial_n":120,"span":13,"encoder":"6451945931146","distractor":"6451945931145","target":"present","response":"present","rt":"2530","correct":true,"confidence":5},{"trial_n":121,"span":14,"encoder":"37966057484810","distractor":"37966057684810","target":"absent","response":"present","rt":"2536.9999999998","correct":false,"confidence":1},{"trial_n":122,"span":13,"encoder":"2877907134114","distractor":"2877967134114","target":"absent","response":"absent","rt":"5129.0000000002","correct":true,"confidence":1},{"trial_n":123,"span":13,"encoder":"2647157916120","distractor":"2647157916820","target":"present","response":"present","rt":"2463","correct":true,"confidence":5},{"trial_n":124,"span":14,"encoder":"30005190917573","distractor":"30008190917573","target":"present","response":"present","rt":"5859.9999999998","correct":true,"confidence":3},{"trial_n":125,"span":14,"encoder":"67136103132529","distractor":"67136103162529","target":"absent","response":"absent","rt":"3495","correct":true,"confidence":4},{"trial_n":126,"span":15,"encoder":"349128713079942","distractor":"349128713079842","target":"absent","response":"absent","rt":"3372","correct":true,"confidence":5},{"trial_n":127,"span":15,"encoder":"501391564986929","distractor":"591391564986929","target":"present","response":"present","rt":"5067","correct":true,"confidence":2},{"trial_n":128,"span":16,"encoder":"9268253640038235","distractor":"9268253640038236","target":"absent","response":"absent","rt":"1986.9999999998","correct":true,"confidence":5},{"trial_n":129,"span":16,"encoder":"7748364354391302","distractor":"7648364354391302","target":"absent","response":"absent","rt":"7144","correct":true,"confidence":2},{"trial_n":130,"span":17,"encoder":"97592152667535361","distractor":"97092152667535361","target":"present","response":"present","rt":"3542","correct":true,"confidence":5},{"trial_n":131,"span":17,"encoder":"88557771203903860","distractor":"88557771003903860","target":"absent","response":"absent","rt":"10642","correct":true,"confidence":4},{"trial_n":132,"span":18,"encoder":"149561412124094206","distractor":"149561412124024206","target":"present","response":"present","rt":"3222","correct":true,"confidence":5},{"trial_n":133,"span":18,"encoder":"887495422755153639","distractor":"887495442755153639","target":"absent","response":"absent","rt":"6097.9999999998","correct":true,"confidence":1},{"trial_n":134,"span":19,"encoder":"1257967483018992660","distractor":"1257927483018992660","target":"absent","response":"absent","rt":"6953.9999999998","correct":true,"confidence":3},{"trial_n":135,"span":19,"encoder":"3144779604524635685","distractor":"3144779604520635685","target":"absent","response":"absent","rt":"9268.9999999998","correct":true,"confidence":4},{"trial_n":136,"span":20,"encoder":"22444043311014687872","distractor":"22444023311014687872","target":"present","response":"absent","rt":"12070","correct":false,"confidence":3},{"trial_n":137,"span":19,"encoder":"7937332821227984205","distractor":"7937332921227984205","target":"absent","response":"present","rt":"7335","correct":false,"confidence":1},{"trial_n":138,"span":18,"encoder":"591913051027194421","distractor":"591913051027194121","target":"absent","response":"absent","rt":"2321","correct":true,"confidence":5},{"trial_n":139,"span":18,"encoder":"089068120400642117","distractor":"039068120400642117","target":"present","response":"present","rt":"6102","correct":true,"confidence":2},{"trial_n":140,"span":19,"encoder":"8071549531072460466","distractor":"8071549531072460463","target":"present","response":"present","rt":"2330","correct":true,"confidence":5}]