[{"trial_n":1,"min":25,"max":230,"target":"present","response":"absent","rt":5668,"correct":false,"confidence":-1},{"trial_n":2,"min":25,"max":230,"target":"present","response":"present","rt":1414,"correct":true,"confidence":-1},{"trial_n":3,"min":25,"max":230,"target":"absent","response":"absent","rt":1004,"correct":true,"confidence":-1},{"trial_n":4,"min":41,"max":214,"target":"absent","response":"absent","rt":738,"correct":true,"confidence":-1},{"trial_n":5,"min":41,"max":214,"target":"present","response":"present","rt":1182,"correct":true,"confidence":-1},{"trial_n":6,"min":57,"max":198,"target":"present","response":"absent","rt":1555,"correct":false,"confidence":-1},{"trial_n":7,"min":41,"max":214,"target":"present","response":"present","rt":843,"correct":true,"confidence":-1},{"trial_n":8,"min":41,"max":214,"target":"present","response":"present","rt":681,"correct":true,"confidence":-1},{"trial_n":9,"min":57,"max":198,"target":"present","response":"absent","rt":1490,"correct":false,"confidence":-1},{"trial_n":10,"min":41,"max":214,"target":"present","response":"present","rt":835.00000000001,"correct":true,"confidence":-1},{"trial_n":11,"min":41,"max":214,"target":"present","response":"present","rt":1191,"correct":true,"confidence":-1},{"trial_n":12,"min":49,"max":206,"target":"present","response":"present","rt":567,"correct":true,"confidence":-1},{"trial_n":13,"min":49,"max":206,"target":"absent","response":"absent","rt":1150,"correct":true,"confidence":-1},{"trial_n":14,"min":57,"max":198,"target":"absent","response":"absent","rt":835,"correct":true,"confidence":-1},{"trial_n":15,"min":57,"max":198,"target":"absent","response":"absent","rt":544,"correct":true,"confidence":-1},{"trial_n":16,"min":65,"max":190,"target":"present","response":"present","rt":778,"correct":true,"confidence":-1},{"trial_n":17,"min":65,"max":190,"target":"present","response":"present","rt":804,"correct":true,"confidence":-1},{"trial_n":18,"min":73,"max":182,"target":"absent","response":"absent","rt":793.99999999999,"correct":true,"confidence":-1},{"trial_n":19,"min":73,"max":182,"target":"present","response":"absent","rt":746,"correct":false,"confidence":-1},{"trial_n":20,"min":65,"max":190,"target":"absent","response":"absent","rt":544,"correct":true,"confidence":-1},{"trial_n":21,"min":65,"max":190,"target":"present","response":"present","rt":1145,"correct":true,"confidence":4},{"trial_n":22,"min":69,"max":186,"target":"present","response":"present","rt":918.99999999999,"correct":true,"confidence":4},{"trial_n":23,"min":69,"max":186,"target":"absent","response":"absent","rt":1169,"correct":true,"confidence":3},{"trial_n":24,"min":73,"max":182,"target":"absent","response":"absent","rt":893,"correct":true,"confidence":1},{"trial_n":25,"min":73,"max":182,"target":"absent","response":"absent","rt":1790,"correct":true,"confidence":4},{"trial_n":26,"min":77,"max":178,"target":"absent","response":"absent","rt":1056,"correct":true,"confidence":1},{"trial_n":27,"min":77,"max":178,"target":"absent","response":"absent","rt":1686,"correct":true,"confidence":3},{"trial_n":28,"min":81,"max":174,"target":"absent","response":"absent","rt":1161,"correct":true,"confidence":4},{"trial_n":29,"min":81,"max":174,"target":"present","response":"present","rt":918,"correct":true,"confidence":5},{"trial_n":30,"min":85,"max":170,"target":"present","response":"absent","rt":1225,"correct":false,"confidence":3},{"trial_n":31,"min":83,"max":172,"target":"absent","response":"absent","rt":999,"correct":true,"confidence":4},{"trial_n":32,"min":83,"max":172,"target":"present","response":"absent","rt":1055,"correct":false,"confidence":1},{"trial_n":33,"min":81,"max":174,"target":"present","response":"present","rt":927,"correct":true,"confidence":5},{"trial_n":34,"min":81,"max":174,"target":"present","response":"present","rt":1193,"correct":true,"confidence":3},{"trial_n":35,"min":83,"max":172,"target":"absent","response":"absent","rt":1007,"correct":true,"confidence":1},{"trial_n":36,"min":83,"max":172,"target":"present","response":"present","rt":1097,"correct":true,"confidence":4},{"trial_n":37,"min":85,"max":170,"target":"present","response":"present","rt":1170,"correct":true,"confidence":5},{"trial_n":38,"min":85,"max":170,"target":"absent","response":"present","rt":1007,"correct":false,"confidence":5},{"trial_n":39,"min":83,"max":172,"target":"absent","response":"absent","rt":894,"correct":true,"confidence":4},{"trial_n":40,"min":83,"max":172,"target":"absent","response":"absent","rt":1122,"correct":true,"confidence":4},{"trial_n":41,"min":84,"max":171,"target":"present","response":"present","rt":1248,"correct":true,"confidence":5},{"trial_n":42,"min":84,"max":171,"target":"present","response":"absent","rt":1373,"correct":false,"confidence":1},{"trial_n":43,"min":83,"max":172,"target":"absent","response":"absent","rt":953,"correct":true,"confidence":1},{"trial_n":44,"min":83,"max":172,"target":"present","response":"absent","rt":732,"correct":false,"confidence":4},{"trial_n":45,"min":82,"max":173,"target":"absent","response":"absent","rt":925,"correct":true,"confidence":1},{"trial_n":46,"min":82,"max":173,"target":"absent","response":"absent","rt":828,"correct":true,"confidence":3},{"trial_n":47,"min":83,"max":172,"target":"absent","response":"absent","rt":846,"correct":true,"confidence":3},{"trial_n":48,"min":83,"max":172,"target":"present","response":"present","rt":1525,"correct":true,"confidence":1},{"trial_n":49,"min":84,"max":171,"target":"absent","response":"present","rt":982,"correct":false,"confidence":1},{"trial_n":50,"min":83,"max":172,"target":"present","response":"present","rt":1032,"correct":true,"confidence":4},{"trial_n":51,"min":83,"max":172,"target":"present","response":"present","rt":966,"correct":true,"confidence":5},{"trial_n":52,"min":84,"max":171,"target":"absent","response":"absent","rt":966,"correct":true,"confidence":1},{"trial_n":53,"min":84,"max":171,"target":"present","response":"present","rt":1087,"correct":true,"confidence":3},{"trial_n":54,"min":85,"max":170,"target":"present","response":"present","rt":829,"correct":true,"confidence":3},{"trial_n":55,"min":85,"max":170,"target":"absent","response":"absent","rt":942,"correct":true,"confidence":1},{"trial_n":56,"min":86,"max":169,"target":"present","response":"present","rt":958,"correct":true,"confidence":5},{"trial_n":57,"min":86,"max":169,"target":"absent","response":"absent","rt":2957,"correct":true,"confidence":1},{"trial_n":58,"min":87,"max":168,"target":"present","response":"present","rt":990,"correct":true,"confidence":4},{"trial_n":59,"min":87,"max":168,"target":"absent","response":"absent","rt":1081,"correct":true,"confidence":4},{"trial_n":60,"min":88,"max":167,"target":"present","response":"absent","rt":926,"correct":false,"confidence":4},{"trial_n":61,"min":87,"max":168,"target":"absent","response":"absent","rt":853.00000000003,"correct":true,"confidence":4},{"trial_n":62,"min":87,"max":168,"target":"present","response":"absent","rt":861,"correct":false,"confidence":3},{"trial_n":63,"min":86,"max":169,"target":"absent","response":"absent","rt":2099,"correct":true,"confidence":3},{"trial_n":64,"min":86,"max":169,"target":"absent","response":"absent","rt":829,"correct":true,"confidence":3},{"trial_n":65,"min":87,"max":168,"target":"absent","response":"absent","rt":1283,"correct":true,"confidence":1},{"trial_n":66,"min":87,"max":168,"target":"present","response":"present","rt":975,"correct":true,"confidence":5},{"trial_n":67,"min":88,"max":167,"target":"absent","response":"absent","rt":958,"correct":true,"confidence":1},{"trial_n":68,"min":88,"max":167,"target":"present","response":"absent","rt":869,"correct":false,"confidence":4},{"trial_n":69,"min":87,"max":168,"target":"absent","response":"absent","rt":795.99999999997,"correct":true,"confidence":4},{"trial_n":70,"min":87,"max":168,"target":"absent","response":"absent","rt":1355,"correct":true,"confidence":4},{"trial_n":71,"min":41,"max":214,"target":"present","response":"present","rt":2213,"correct":true,"confidence":-1},{"trial_n":72,"min":41,"max":214,"target":"present","response":"present","rt":944,"correct":true,"confidence":-1},{"trial_n":73,"min":57,"max":198,"target":"absent","response":"absent","rt":839,"correct":true,"confidence":-1},{"trial_n":74,"min":57,"max":198,"target":"absent","response":"absent","rt":614,"correct":true,"confidence":-1},{"trial_n":75,"min":73,"max":182,"target":"present","response":"present","rt":638,"correct":true,"confidence":-1},{"trial_n":76,"min":73,"max":182,"target":"absent","response":"absent","rt":986,"correct":true,"confidence":-1},{"trial_n":77,"min":89,"max":166,"target":"present","response":"absent","rt":1130,"correct":false,"confidence":-1},{"trial_n":78,"min":73,"max":182,"target":"present","response":"present","rt":938,"correct":true,"confidence":-1},{"trial_n":79,"min":73,"max":182,"target":"absent","response":"present","rt":1139,"correct":false,"confidence":-1},{"trial_n":80,"min":57,"max":198,"target":"absent","response":"absent","rt":963,"correct":true,"confidence":-1},{"trial_n":81,"min":57,"max":198,"target":"present","response":"present","rt":613,"correct":true,"confidence":-1},{"trial_n":82,"min":65,"max":190,"target":"absent","response":"present","rt":720,"correct":false,"confidence":-1},{"trial_n":83,"min":57,"max":198,"target":"present","response":"absent","rt":646.00000000003,"correct":false,"confidence":-1},{"trial_n":84,"min":49,"max":206,"target":"absent","response":"absent","rt":824,"correct":true,"confidence":-1},{"trial_n":85,"min":49,"max":206,"target":"present","response":"present","rt":816.00000000003,"correct":true,"confidence":-1},{"trial_n":86,"min":57,"max":198,"target":"absent","response":"absent","rt":1101,"correct":true,"confidence":-1},{"trial_n":87,"min":57,"max":198,"target":"absent","response":"absent","rt":2207,"correct":true,"confidence":-1},{"trial_n":88,"min":65,"max":190,"target":"present","response":"present","rt":880,"correct":true,"confidence":-1},{"trial_n":89,"min":65,"max":190,"target":"absent","response":"absent","rt":760,"correct":true,"confidence":-1},{"trial_n":90,"min":73,"max":182,"target":"present","response":"present","rt":524,"correct":true,"confidence":-1},{"trial_n":91,"min":73,"max":182,"target":"absent","response":"absent","rt":817,"correct":true,"confidence":5},{"trial_n":92,"min":77,"max":178,"target":"absent","response":"absent","rt":784,"correct":true,"confidence":5},{"trial_n":93,"min":77,"max":178,"target":"present","response":"present","rt":745,"correct":true,"confidence":5},{"trial_n":94,"min":81,"max":174,"target":"present","response":"present","rt":1286,"correct":true,"confidence":1},{"trial_n":95,"min":81,"max":174,"target":"absent","response":"present","rt":1505.9999999999,"correct":false,"confidence":1},{"trial_n":96,"min":77,"max":178,"target":"present","response":"present","rt":760,"correct":true,"confidence":4},{"trial_n":97,"min":77,"max":178,"target":"present","response":"present","rt":986,"correct":true,"confidence":5},{"trial_n":98,"min":81,"max":174,"target":"present","response":"present","rt":1003,"correct":true,"confidence":3},{"trial_n":99,"min":81,"max":174,"target":"present","response":"present","rt":932.00000000006,"correct":true,"confidence":1},{"trial_n":100,"min":85,"max":170,"target":"absent","response":"present","rt":825,"correct":false,"confidence":1},{"trial_n":101,"min":83,"max":172,"target":"absent","response":"absent","rt":1205,"correct":true,"confidence":4},{"trial_n":102,"min":83,"max":172,"target":"present","response":"present","rt":1504,"correct":true,"confidence":1},{"trial_n":103,"min":85,"max":170,"target":"absent","response":"present","rt":1326,"correct":false,"confidence":1},{"trial_n":104,"min":83,"max":172,"target":"absent","response":"absent","rt":1075.9999999999,"correct":true,"confidence":4},{"trial_n":105,"min":83,"max":172,"target":"present","response":"absent","rt":1479,"correct":false,"confidence":1},{"trial_n":106,"min":81,"max":174,"target":"absent","response":"absent","rt":907.99999999994,"correct":true,"confidence":4},{"trial_n":107,"min":81,"max":174,"target":"absent","response":"absent","rt":932,"correct":true,"confidence":1},{"trial_n":108,"min":83,"max":172,"target":"absent","response":"absent","rt":835,"correct":true,"confidence":1},{"trial_n":109,"min":83,"max":172,"target":"present","response":"present","rt":2041.9999999999,"correct":true,"confidence":5},{"trial_n":110,"min":85,"max":170,"target":"absent","response":"absent","rt":1271,"correct":true,"confidence":4},{"trial_n":111,"min":85,"max":170,"target":"present","response":"present","rt":849.99999999994,"correct":true,"confidence":1},{"trial_n":112,"min":86,"max":169,"target":"absent","response":"absent","rt":1126,"correct":true,"confidence":3},{"trial_n":113,"min":86,"max":169,"target":"present","response":"present","rt":1044,"correct":true,"confidence":1},{"trial_n":114,"min":87,"max":168,"target":"present","response":"present","rt":1411,"correct":true,"confidence":1},{"trial_n":115,"min":87,"max":168,"target":"absent","response":"absent","rt":1060,"correct":true,"confidence":3},{"trial_n":116,"min":88,"max":167,"target":"present","response":"present","rt":923,"correct":true,"confidence":4},{"trial_n":117,"min":88,"max":167,"target":"absent","response":"absent","rt":1343.0000000001,"correct":true,"confidence":1},{"trial_n":118,"min":89,"max":166,"target":"present","response":"present","rt":843,"correct":true,"confidence":3},{"trial_n":119,"min":89,"max":166,"target":"present","response":"absent","rt":707,"correct":false,"confidence":1},{"trial_n":120,"min":88,"max":167,"target":"present","response":"present","rt":934,"correct":true,"confidence":1},{"trial_n":121,"min":88,"max":167,"target":"absent","response":"present","rt":809,"correct":false,"confidence":1},{"trial_n":122,"min":87,"max":168,"target":"absent","response":"absent","rt":1343,"correct":true,"confidence":3},{"trial_n":123,"min":87,"max":168,"target":"present","response":"present","rt":883.99999999994,"correct":true,"confidence":1},{"trial_n":124,"min":88,"max":167,"target":"absent","response":"present","rt":954,"correct":false,"confidence":1},{"trial_n":125,"min":87,"max":168,"target":"present","response":"present","rt":892.00000000006,"correct":true,"confidence":1},{"trial_n":126,"min":87,"max":168,"target":"present","response":"absent","rt":1157.0000000001,"correct":false,"confidence":1},{"trial_n":127,"min":86,"max":169,"target":"present","response":"present","rt":906,"correct":true,"confidence":4},{"trial_n":128,"min":86,"max":169,"target":"absent","response":"present","rt":1075,"correct":false,"confidence":1},{"trial_n":129,"min":85,"max":170,"target":"present","response":"present","rt":914.00000000006,"correct":true,"confidence":3},{"trial_n":130,"min":85,"max":170,"target":"absent","response":"present","rt":905,"correct":false,"confidence":1},{"trial_n":131,"min":84,"max":171,"target":"present","response":"present","rt":734.00000000006,"correct":true,"confidence":5},{"trial_n":132,"min":84,"max":171,"target":"absent","response":"absent","rt":1555,"correct":true,"confidence":5},{"trial_n":133,"min":85,"max":170,"target":"absent","response":"present","rt":940,"correct":false,"confidence":1},{"trial_n":134,"min":84,"max":171,"target":"absent","response":"absent","rt":1111,"correct":true,"confidence":4},{"trial_n":135,"min":84,"max":171,"target":"absent","response":"absent","rt":792,"correct":true,"confidence":1},{"trial_n":136,"min":85,"max":170,"target":"absent","response":"present","rt":1643.9999999999,"correct":false,"confidence":3},{"trial_n":137,"min":84,"max":171,"target":"present","response":"present","rt":795,"correct":true,"confidence":4},{"trial_n":138,"min":84,"max":171,"target":"present","response":"present","rt":2248.9999999999,"correct":true,"confidence":1},{"trial_n":139,"min":85,"max":170,"target":"present","response":"present","rt":852,"correct":true,"confidence":5},{"trial_n":140,"min":85,"max":170,"target":"present","response":"present","rt":988,"correct":true,"confidence":1}]