[{"trial_n":1,"span":8,"encoder":"71723664","distractor":"71823664","target":"present","response":"present","rt":"2935","correct":true,"confidence":-1},{"trial_n":2,"span":8,"encoder":"33426995","distractor":"33426295","target":"present","response":"present","rt":"2563.8000000119","correct":true,"confidence":-1},{"trial_n":3,"span":10,"encoder":"2445713212","distractor":"2445013212","target":"absent","response":"present","rt":"2086.1999999881","correct":false,"confidence":-1},{"trial_n":4,"span":8,"encoder":"25293486","distractor":"25593486","target":"absent","response":"absent","rt":"1927.3000000119","correct":true,"confidence":-1},{"trial_n":5,"span":8,"encoder":"27210346","distractor":"27210316","target":"present","response":"present","rt":"762","correct":true,"confidence":-1},{"trial_n":6,"span":10,"encoder":"1223103627","distractor":"1223133627","target":"absent","response":"absent","rt":"1159","correct":true,"confidence":-1},{"trial_n":7,"span":10,"encoder":"7079517300","distractor":"7079517360","target":"absent","response":"present","rt":"943.69999998808","correct":false,"confidence":-1},{"trial_n":8,"span":8,"encoder":"35324786","distractor":"35324785","target":"absent","response":"absent","rt":"1166.3999999762","correct":true,"confidence":-1},{"trial_n":9,"span":8,"encoder":"62645732","distractor":"42645732","target":"absent","response":"absent","rt":"736.69999998808","correct":true,"confidence":-1},{"trial_n":10,"span":10,"encoder":"7922077503","distractor":"7922077203","target":"present","response":"present","rt":"1723.4000000358","correct":true,"confidence":-1},{"trial_n":11,"span":10,"encoder":"3625317122","distractor":"3624317122","target":"present","response":"present","rt":"982.10000002384","correct":true,"confidence":-1},{"trial_n":12,"span":11,"encoder":"41705201520","distractor":"51705201520","target":"present","response":"absent","rt":"1069.3000000119","correct":false,"confidence":-1},{"trial_n":13,"span":10,"encoder":"5735821011","distractor":"5935821011","target":"absent","response":"absent","rt":"2071","correct":true,"confidence":-1},{"trial_n":14,"span":10,"encoder":"3906503002","distractor":"3906502002","target":"absent","response":"absent","rt":"975.80000001192","correct":true,"confidence":-1},{"trial_n":15,"span":11,"encoder":"42056361454","distractor":"42051361454","target":"absent","response":"present","rt":"2115.5999999642","correct":false,"confidence":-1},{"trial_n":16,"span":10,"encoder":"9860911180","distractor":"9860921180","target":"absent","response":"present","rt":"1020.5999999642","correct":false,"confidence":-1},{"trial_n":17,"span":9,"encoder":"832604595","distractor":"862604595","target":"absent","response":"present","rt":"637.79999995232","correct":false,"confidence":-1},{"trial_n":18,"span":8,"encoder":"60578575","distractor":"60578875","target":"absent","response":"present","rt":"700.89999997616","correct":false,"confidence":-1},{"trial_n":19,"span":7,"encoder":"4779730","distractor":"2779730","target":"absent","response":"present","rt":"1540.9000000358","correct":false,"confidence":-1},{"trial_n":20,"span":6,"encoder":"875323","distractor":"875353","target":"present","response":"absent","rt":"511.30000001192","correct":false,"confidence":-1},{"trial_n":21,"span":5,"encoder":"07481","distractor":"07381","target":"present","response":"present","rt":"3533.3999999762","correct":true,"confidence":5},{"trial_n":22,"span":5,"encoder":"37295","distractor":"07295","target":"absent","response":"present","rt":"4128.5999999642","correct":false,"confidence":5},{"trial_n":23,"span":4,"encoder":"7888","distractor":"7883","target":"present","response":"present","rt":"1580.8000000119","correct":true,"confidence":3},{"trial_n":24,"span":4,"encoder":"2356","distractor":"8356","target":"present","response":"present","rt":"1437.5","correct":true,"confidence":5},{"trial_n":25,"span":5,"encoder":"36905","distractor":"46905","target":"present","response":"present","rt":"1805.0999999642","correct":true,"confidence":5},{"trial_n":26,"span":5,"encoder":"11140","distractor":"17140","target":"present","response":"absent","rt":"1757.3999999762","correct":false,"confidence":3},{"trial_n":27,"span":4,"encoder":"3283","distractor":"1283","target":"absent","response":"absent","rt":"4275.2999999523","correct":true,"confidence":4},{"trial_n":28,"span":4,"encoder":"1366","distractor":"5366","target":"present","response":"present","rt":"1319","correct":true,"confidence":5},{"trial_n":29,"span":5,"encoder":"87942","distractor":"97942","target":"present","response":"present","rt":"1941.9000000358","correct":true,"confidence":4},{"trial_n":30,"span":5,"encoder":"41012","distractor":"11012","target":"present","response":"present","rt":"1343.8999999762","correct":true,"confidence":5},{"trial_n":31,"span":6,"encoder":"165527","distractor":"365527","target":"present","response":"present","rt":"2450.1999999881","correct":true,"confidence":3},{"trial_n":32,"span":6,"encoder":"178636","distractor":"678636","target":"absent","response":"absent","rt":"1710.8000000119","correct":true,"confidence":5},{"trial_n":33,"span":7,"encoder":"3328912","distractor":"3228912","target":"absent","response":"absent","rt":"4349.5999999642","correct":true,"confidence":1},{"trial_n":34,"span":7,"encoder":"1949280","distractor":"6949280","target":"absent","response":"absent","rt":"4796.3000000119","correct":true,"confidence":5},{"trial_n":35,"span":8,"encoder":"39046119","distractor":"39046118","target":"absent","response":"absent","rt":"2257","correct":true,"confidence":5},{"trial_n":36,"span":8,"encoder":"86508832","distractor":"86508837","target":"present","response":"present","rt":"3728.3999999762","correct":true,"confidence":3},{"trial_n":37,"span":9,"encoder":"259605575","distractor":"259635575","target":"present","response":"present","rt":"1978.5","correct":true,"confidence":3},{"trial_n":38,"span":9,"encoder":"101349556","distractor":"101349555","target":"present","response":"absent","rt":"2172.3999999762","correct":false,"confidence":2},{"trial_n":39,"span":8,"encoder":"80853451","distractor":"80853951","target":"present","response":"present","rt":"2438.5999999642","correct":true,"confidence":3},{"trial_n":40,"span":8,"encoder":"70199329","distractor":"70199328","target":"absent","response":"absent","rt":"3414.1999999881","correct":true,"confidence":5},{"trial_n":41,"span":9,"encoder":"032028639","distractor":"032028633","target":"absent","response":"absent","rt":"1359.3999999762","correct":true,"confidence":5},{"trial_n":42,"span":9,"encoder":"732588493","distractor":"732888493","target":"absent","response":"absent","rt":"3195.5999999642","correct":true,"confidence":2},{"trial_n":43,"span":10,"encoder":"9579626039","distractor":"9579626639","target":"absent","response":"present","rt":"5683.1999999881","correct":false,"confidence":1},{"trial_n":44,"span":9,"encoder":"647064333","distractor":"647064353","target":"absent","response":"present","rt":"2360.1999999881","correct":false,"confidence":4},{"trial_n":45,"span":8,"encoder":"15927265","distractor":"35927265","target":"present","response":"absent","rt":"5638.8000000119","correct":false,"confidence":1},{"trial_n":46,"span":7,"encoder":"6929962","distractor":"6929964","target":"present","response":"present","rt":"2858.6999999881","correct":true,"confidence":5},{"trial_n":47,"span":7,"encoder":"8873445","distractor":"8873435","target":"present","response":"absent","rt":"3059","correct":false,"confidence":4},{"trial_n":48,"span":6,"encoder":"800352","distractor":"830352","target":"present","response":"absent","rt":"2876.3000000119","correct":false,"confidence":3},{"trial_n":49,"span":5,"encoder":"73233","distractor":"23233","target":"absent","response":"absent","rt":"2871.4000000358","correct":true,"confidence":5},{"trial_n":50,"span":5,"encoder":"61605","distractor":"61675","target":"present","response":"present","rt":"3274.1999999881","correct":true,"confidence":5},{"trial_n":51,"span":6,"encoder":"055146","distractor":"075146","target":"present","response":"absent","rt":"2642.7999999523","correct":false,"confidence":3},{"trial_n":52,"span":5,"encoder":"09498","distractor":"89498","target":"present","response":"present","rt":"2187.1999999881","correct":true,"confidence":5},{"trial_n":53,"span":5,"encoder":"22712","distractor":"22716","target":"absent","response":"absent","rt":"5294.3000000119","correct":true,"confidence":3},{"trial_n":54,"span":6,"encoder":"612201","distractor":"612901","target":"absent","response":"absent","rt":"2828.4000000358","correct":true,"confidence":4},{"trial_n":55,"span":6,"encoder":"061855","distractor":"081855","target":"absent","response":"absent","rt":"1994.1000000238","correct":true,"confidence":5},{"trial_n":56,"span":7,"encoder":"0426624","distractor":"0423624","target":"present","response":"absent","rt":"3286.1000000238","correct":false,"confidence":2},{"trial_n":57,"span":6,"encoder":"540315","distractor":"540319","target":"present","response":"present","rt":"2183.2999999523","correct":true,"confidence":2},{"trial_n":58,"span":6,"encoder":"537402","distractor":"547402","target":"absent","response":"absent","rt":"4417.4000000358","correct":true,"confidence":4},{"trial_n":59,"span":7,"encoder":"3327824","distractor":"3377824","target":"present","response":"present","rt":"3002.3999999762","correct":true,"confidence":4},{"trial_n":60,"span":7,"encoder":"8144818","distractor":"8146818","target":"present","response":"present","rt":"2305","correct":true,"confidence":5},{"trial_n":61,"span":8,"encoder":"02147628","distractor":"02157628","target":"absent","response":"absent","rt":"4264.4000000358","correct":true,"confidence":3},{"trial_n":62,"span":8,"encoder":"55721210","distractor":"55721280","target":"absent","response":"absent","rt":"3478.5","correct":true,"confidence":2},{"trial_n":63,"span":9,"encoder":"784888712","distractor":"784888732","target":"present","response":"present","rt":"7198.8000000119","correct":true,"confidence":2},{"trial_n":64,"span":9,"encoder":"473947983","distractor":"476947983","target":"absent","response":"absent","rt":"5533.3999999762","correct":true,"confidence":3},{"trial_n":65,"span":10,"encoder":"3146059695","distractor":"3146059699","target":"absent","response":"absent","rt":"2431.8999999762","correct":true,"confidence":5},{"trial_n":66,"span":10,"encoder":"8487992484","distractor":"8487992481","target":"present","response":"present","rt":"6501.2000000477","correct":true,"confidence":3},{"trial_n":67,"span":11,"encoder":"89199466667","distractor":"85199466667","target":"present","response":"present","rt":"3554","correct":true,"confidence":1},{"trial_n":68,"span":11,"encoder":"59073945579","distractor":"59063945579","target":"present","response":"present","rt":"2770.9000000358","correct":true,"confidence":2},{"trial_n":69,"span":12,"encoder":"037578664327","distractor":"035578664327","target":"absent","response":"absent","rt":"4600","correct":true,"confidence":4},{"trial_n":70,"span":12,"encoder":"262796322528","distractor":"252796322528","target":"present","response":"present","rt":"4518.3000000119","correct":true,"confidence":4},{"trial_n":71,"span":8,"encoder":"93947517","distractor":"93947717","target":"present","response":"present","rt":"3436.1000000238","correct":true,"confidence":-1},{"trial_n":72,"span":8,"encoder":"56177482","distractor":"56177484","target":"present","response":"present","rt":"1743.1999999881","correct":true,"confidence":-1},{"trial_n":73,"span":9,"encoder":"566426536","distractor":"566426506","target":"absent","response":"absent","rt":"1386.8000000119","correct":true,"confidence":-1},{"trial_n":74,"span":9,"encoder":"421373393","distractor":"481373393","target":"absent","response":"present","rt":"2103.4000000358","correct":false,"confidence":-1},{"trial_n":75,"span":8,"encoder":"12732706","distractor":"12932706","target":"present","response":"absent","rt":"1675.9000000358","correct":false,"confidence":-1},{"trial_n":76,"span":7,"encoder":"1484254","distractor":"1484054","target":"present","response":"present","rt":"786.10000002384","correct":true,"confidence":-1},{"trial_n":77,"span":7,"encoder":"5891186","distractor":"5891106","target":"absent","response":"absent","rt":"1439.8000000119","correct":true,"confidence":-1},{"trial_n":78,"span":8,"encoder":"04165342","distractor":"04765342","target":"present","response":"absent","rt":"722","correct":false,"confidence":-1},{"trial_n":79,"span":7,"encoder":"6969855","distractor":"6969858","target":"present","response":"absent","rt":"1655.3000000119","correct":false,"confidence":-1},{"trial_n":80,"span":6,"encoder":"354780","distractor":"334780","target":"present","response":"present","rt":"2579.8000000119","correct":true,"confidence":-1},{"trial_n":81,"span":6,"encoder":"612632","distractor":"612652","target":"present","response":"present","rt":"3442.5","correct":true,"confidence":-1},{"trial_n":82,"span":7,"encoder":"0137780","distractor":"7137780","target":"absent","response":"absent","rt":"3206.8999999762","correct":true,"confidence":-1},{"trial_n":83,"span":7,"encoder":"3902817","distractor":"3906817","target":"absent","response":"absent","rt":"1681.0999999642","correct":true,"confidence":-1},{"trial_n":84,"span":8,"encoder":"99543606","distractor":"99043606","target":"absent","response":"absent","rt":"2726.9000000358","correct":true,"confidence":-1},{"trial_n":85,"span":8,"encoder":"55067534","distractor":"55067537","target":"present","response":"absent","rt":"922.70000004768","correct":false,"confidence":-1},{"trial_n":86,"span":7,"encoder":"1491942","distractor":"1491948","target":"absent","response":"present","rt":"1166.4000000358","correct":false,"confidence":-1},{"trial_n":87,"span":6,"encoder":"545464","distractor":"545468","target":"absent","response":"absent","rt":"1783.6999999881","correct":true,"confidence":-1},{"trial_n":88,"span":6,"encoder":"660886","distractor":"660816","target":"present","response":"absent","rt":"2232.6999999881","correct":false,"confidence":-1},{"trial_n":89,"span":5,"encoder":"13880","distractor":"13280","target":"present","response":"present","rt":"2047.8000000119","correct":true,"confidence":-1},{"trial_n":90,"span":5,"encoder":"50091","distractor":"50791","target":"absent","response":"present","rt":"1093.1999999881","correct":false,"confidence":-1},{"trial_n":91,"span":4,"encoder":"5741","distractor":"5742","target":"absent","response":"absent","rt":"1742.6999999881","correct":true,"confidence":5},{"trial_n":92,"span":4,"encoder":"0720","distractor":"2720","target":"absent","response":"absent","rt":"5104.6999999881","correct":true,"confidence":5},{"trial_n":93,"span":5,"encoder":"47188","distractor":"47187","target":"absent","response":"absent","rt":"4344.3999999762","correct":true,"confidence":4},{"trial_n":94,"span":5,"encoder":"97966","distractor":"97866","target":"absent","response":"absent","rt":"5017.1999999881","correct":true,"confidence":4},{"trial_n":95,"span":6,"encoder":"842892","distractor":"442892","target":"present","response":"present","rt":"3007.3000000119","correct":true,"confidence":3},{"trial_n":96,"span":6,"encoder":"434772","distractor":"434776","target":"present","response":"present","rt":"4610.9000000358","correct":true,"confidence":4},{"trial_n":97,"span":7,"encoder":"0746755","distractor":"0716755","target":"present","response":"present","rt":"3984.6999999881","correct":true,"confidence":3},{"trial_n":98,"span":7,"encoder":"3394842","distractor":"3390842","target":"absent","response":"absent","rt":"7064.9000000358","correct":true,"confidence":1},{"trial_n":99,"span":8,"encoder":"69909196","distractor":"69999196","target":"absent","response":"present","rt":"2271","correct":false,"confidence":1},{"trial_n":100,"span":7,"encoder":"9195984","distractor":"7195984","target":"present","response":"present","rt":"1228.8999999762","correct":true,"confidence":3},{"trial_n":101,"span":7,"encoder":"9681603","distractor":"9686603","target":"present","response":"absent","rt":"2436.1999999881","correct":false,"confidence":4},{"trial_n":102,"span":6,"encoder":"651602","distractor":"654602","target":"present","response":"present","rt":"3016.6000000238","correct":true,"confidence":2},{"trial_n":103,"span":6,"encoder":"954204","distractor":"956204","target":"absent","response":"absent","rt":"1932.5","correct":true,"confidence":5},{"trial_n":104,"span":7,"encoder":"9116945","distractor":"9110945","target":"absent","response":"absent","rt":"2506.7000000477","correct":true,"confidence":4},{"trial_n":105,"span":7,"encoder":"2968833","distractor":"2969833","target":"present","response":"absent","rt":"2300","correct":false,"confidence":2},{"trial_n":106,"span":6,"encoder":"538714","distractor":"538614","target":"absent","response":"absent","rt":"2063","correct":true,"confidence":5},{"trial_n":107,"span":6,"encoder":"365117","distractor":"315117","target":"present","response":"present","rt":"2774.8000000119","correct":true,"confidence":3},{"trial_n":108,"span":7,"encoder":"3444401","distractor":"3344401","target":"present","response":"present","rt":"2589.1999999881","correct":true,"confidence":3},{"trial_n":109,"span":7,"encoder":"3955852","distractor":"3955853","target":"present","response":"absent","rt":"1251.8999999762","correct":false,"confidence":3},{"trial_n":110,"span":6,"encoder":"619138","distractor":"619132","target":"present","response":"present","rt":"976.89999997616","correct":true,"confidence":1},{"trial_n":111,"span":6,"encoder":"750287","distractor":"755287","target":"absent","response":"absent","rt":"2312.7000000477","correct":true,"confidence":5},{"trial_n":112,"span":7,"encoder":"1040445","distractor":"1040444","target":"present","response":"present","rt":"1676.8000000119","correct":true,"confidence":4},{"trial_n":113,"span":7,"encoder":"3549715","distractor":"3541715","target":"present","response":"absent","rt":"6773.9000000358","correct":false,"confidence":2},{"trial_n":114,"span":6,"encoder":"294191","distractor":"594191","target":"absent","response":"present","rt":"6204.2999999523","correct":false,"confidence":1},{"trial_n":115,"span":5,"encoder":"07877","distractor":"07873","target":"absent","response":"absent","rt":"2277.3000000119","correct":true,"confidence":1},{"trial_n":116,"span":5,"encoder":"37087","distractor":"37007","target":"present","response":"present","rt":"1634.6999999881","correct":true,"confidence":4},{"trial_n":117,"span":6,"encoder":"344911","distractor":"144911","target":"absent","response":"absent","rt":"1192.6999999881","correct":true,"confidence":4},{"trial_n":118,"span":6,"encoder":"045692","distractor":"045392","target":"absent","response":"absent","rt":"2494.3000000119","correct":true,"confidence":5},{"trial_n":119,"span":7,"encoder":"8019541","distractor":"8019540","target":"absent","response":"absent","rt":"9135.3999999762","correct":true,"confidence":4},{"trial_n":120,"span":7,"encoder":"6252595","distractor":"6652595","target":"absent","response":"absent","rt":"4340.8999999762","correct":true,"confidence":3},{"trial_n":121,"span":8,"encoder":"20820360","distractor":"50820360","target":"absent","response":"absent","rt":"1813.6999999881","correct":true,"confidence":5},{"trial_n":122,"span":8,"encoder":"59012512","distractor":"59018512","target":"present","response":"present","rt":"2630.6000000238","correct":true,"confidence":3},{"trial_n":123,"span":9,"encoder":"188129505","distractor":"188229505","target":"absent","response":"absent","rt":"3783.2999999523","correct":true,"confidence":2},{"trial_n":124,"span":9,"encoder":"174477414","distractor":"164477414","target":"absent","response":"absent","rt":"2572.5","correct":true,"confidence":2},{"trial_n":125,"span":10,"encoder":"7851609350","distractor":"7851809350","target":"absent","response":"present","rt":"2993.1999999881","correct":false,"confidence":2},{"trial_n":126,"span":9,"encoder":"980710554","distractor":"980710954","target":"present","response":"absent","rt":"3993.3000000119","correct":false,"confidence":1},{"trial_n":127,"span":8,"encoder":"70218066","distractor":"73218066","target":"present","response":"present","rt":"2820.3999999762","correct":true,"confidence":3},{"trial_n":128,"span":8,"encoder":"86679567","distractor":"86672567","target":"absent","response":"absent","rt":"3307.5","correct":true,"confidence":2},{"trial_n":129,"span":9,"encoder":"855046713","distractor":"855049713","target":"present","response":"absent","rt":"6579.4000000358","correct":false,"confidence":1},{"trial_n":130,"span":8,"encoder":"81842503","distractor":"81842563","target":"present","response":"present","rt":"2552.5","correct":true,"confidence":5},{"trial_n":131,"span":8,"encoder":"26551142","distractor":"21551142","target":"absent","response":"absent","rt":"3547","correct":true,"confidence":4},{"trial_n":132,"span":9,"encoder":"503371397","distractor":"503371497","target":"present","response":"absent","rt":"3680.8000000119","correct":false,"confidence":1},{"trial_n":133,"span":8,"encoder":"62033396","distractor":"62031396","target":"absent","response":"absent","rt":"3797.1999999881","correct":true,"confidence":3},{"trial_n":134,"span":8,"encoder":"94930903","distractor":"84930903","target":"absent","response":"absent","rt":"3781.5999999642","correct":true,"confidence":2},{"trial_n":135,"span":9,"encoder":"476811152","distractor":"476211152","target":"present","response":"absent","rt":"6637.5","correct":false,"confidence":2},{"trial_n":136,"span":8,"encoder":"27451288","distractor":"27851288","target":"absent","response":"absent","rt":"4644.7000000477","correct":true,"confidence":3},{"trial_n":137,"span":8,"encoder":"11271978","distractor":"81271978","target":"present","response":"present","rt":"4837","correct":true,"confidence":5},{"trial_n":138,"span":9,"encoder":"303394176","distractor":"303094176","target":"present","response":"present","rt":"2178.1000000238","correct":true,"confidence":3},{"trial_n":139,"span":9,"encoder":"759762834","distractor":"759762634","target":"present","response":"present","rt":"6242.8000000119","correct":true,"confidence":1},{"trial_n":140,"span":10,"encoder":"1192514703","distractor":"1190514703","target":"present","response":"present","rt":"5745.5","correct":true,"confidence":2}]