[{"trial_n":1,"min":25,"max":230,"target":"present","response":"present","rt":10515.600000024,"correct":true,"confidence":-1},{"trial_n":2,"min":25,"max":230,"target":"present","response":"present","rt":3239.5,"correct":true,"confidence":-1},{"trial_n":3,"min":41,"max":214,"target":"absent","response":"absent","rt":2240.1000000238,"correct":true,"confidence":-1},{"trial_n":4,"min":41,"max":214,"target":"absent","response":"absent","rt":642.69999998808,"correct":true,"confidence":-1},{"trial_n":5,"min":57,"max":198,"target":"present","response":"present","rt":595.70000004768,"correct":true,"confidence":-1},{"trial_n":6,"min":57,"max":198,"target":"absent","response":"absent","rt":514.5,"correct":true,"confidence":-1},{"trial_n":7,"min":73,"max":182,"target":"absent","response":"absent","rt":594.10000002384,"correct":true,"confidence":-1},{"trial_n":8,"min":73,"max":182,"target":"absent","response":"absent","rt":349.10000002384,"correct":true,"confidence":-1},{"trial_n":9,"min":89,"max":166,"target":"present","response":"present","rt":625.10000002384,"correct":true,"confidence":-1},{"trial_n":10,"min":89,"max":166,"target":"present","response":"present","rt":750,"correct":true,"confidence":-1},{"trial_n":11,"min":97,"max":158,"target":"absent","response":"absent","rt":1190.6000000238,"correct":true,"confidence":-1},{"trial_n":12,"min":97,"max":158,"target":"absent","response":"absent","rt":635.10000002384,"correct":true,"confidence":-1},{"trial_n":13,"min":105,"max":150,"target":"present","response":"absent","rt":614.70000004768,"correct":false,"confidence":-1},{"trial_n":14,"min":97,"max":158,"target":"present","response":"absent","rt":1163.5,"correct":false,"confidence":-1},{"trial_n":15,"min":89,"max":166,"target":"present","response":"absent","rt":752.80000001192,"correct":false,"confidence":-1},{"trial_n":16,"min":81,"max":174,"target":"present","response":"present","rt":1435,"correct":true,"confidence":-1},{"trial_n":17,"min":81,"max":174,"target":"absent","response":"present","rt":2937.7000000477,"correct":false,"confidence":-1},{"trial_n":18,"min":73,"max":182,"target":"absent","response":"absent","rt":315.89999997616,"correct":true,"confidence":-1},{"trial_n":19,"min":73,"max":182,"target":"present","response":"present","rt":1344.6999999881,"correct":true,"confidence":-1},{"trial_n":20,"min":81,"max":174,"target":"present","response":"present","rt":621.19999998808,"correct":true,"confidence":-1},{"trial_n":21,"min":81,"max":174,"target":"absent","response":"absent","rt":641.80000001192,"correct":true,"confidence":2},{"trial_n":22,"min":85,"max":170,"target":"present","response":"present","rt":1223.6999999881,"correct":true,"confidence":3},{"trial_n":23,"min":85,"max":170,"target":"present","response":"present","rt":1296,"correct":true,"confidence":4},{"trial_n":24,"min":89,"max":166,"target":"absent","response":"absent","rt":2690,"correct":true,"confidence":2},{"trial_n":25,"min":89,"max":166,"target":"absent","response":"absent","rt":1285,"correct":true,"confidence":3},{"trial_n":26,"min":93,"max":162,"target":"present","response":"present","rt":1078.8999999762,"correct":true,"confidence":3},{"trial_n":27,"min":93,"max":162,"target":"absent","response":"absent","rt":1075.6999999881,"correct":true,"confidence":3},{"trial_n":28,"min":97,"max":158,"target":"absent","response":"present","rt":1524.3999999762,"correct":false,"confidence":1},{"trial_n":29,"min":93,"max":162,"target":"absent","response":"absent","rt":1067.3000000119,"correct":true,"confidence":3},{"trial_n":30,"min":93,"max":162,"target":"present","response":"present","rt":1368.7000000477,"correct":true,"confidence":3},{"trial_n":31,"min":95,"max":160,"target":"absent","response":"absent","rt":4380.6999999881,"correct":true,"confidence":1},{"trial_n":32,"min":95,"max":160,"target":"absent","response":"absent","rt":763.5,"correct":true,"confidence":3},{"trial_n":33,"min":97,"max":158,"target":"absent","response":"present","rt":1655.3999999762,"correct":false,"confidence":1},{"trial_n":34,"min":95,"max":160,"target":"absent","response":"absent","rt":985.40000003576,"correct":true,"confidence":1},{"trial_n":35,"min":95,"max":160,"target":"absent","response":"absent","rt":685.5,"correct":true,"confidence":2},{"trial_n":36,"min":97,"max":158,"target":"absent","response":"present","rt":651.70000004768,"correct":false,"confidence":2},{"trial_n":37,"min":95,"max":160,"target":"absent","response":"present","rt":2254.6000000238,"correct":false,"confidence":1},{"trial_n":38,"min":93,"max":162,"target":"present","response":"present","rt":932.19999998808,"correct":true,"confidence":4},{"trial_n":39,"min":93,"max":162,"target":"absent","response":"present","rt":1924.5,"correct":false,"confidence":2},{"trial_n":40,"min":91,"max":164,"target":"present","response":"absent","rt":1172.1000000238,"correct":false,"confidence":2},{"trial_n":41,"min":90,"max":165,"target":"present","response":"absent","rt":638.60000002384,"correct":false,"confidence":2},{"trial_n":42,"min":89,"max":166,"target":"absent","response":"present","rt":693.19999998808,"correct":false,"confidence":2},{"trial_n":43,"min":88,"max":167,"target":"present","response":"present","rt":962.70000004768,"correct":true,"confidence":4},{"trial_n":44,"min":88,"max":167,"target":"present","response":"present","rt":809.89999997616,"correct":true,"confidence":5},{"trial_n":45,"min":89,"max":166,"target":"present","response":"present","rt":690,"correct":true,"confidence":5},{"trial_n":46,"min":89,"max":166,"target":"present","response":"present","rt":1478.6000000238,"correct":true,"confidence":4},{"trial_n":47,"min":90,"max":165,"target":"absent","response":"absent","rt":622,"correct":true,"confidence":3},{"trial_n":48,"min":90,"max":165,"target":"absent","response":"absent","rt":591.19999998808,"correct":true,"confidence":3},{"trial_n":49,"min":91,"max":164,"target":"absent","response":"absent","rt":1769.2999999523,"correct":true,"confidence":1},{"trial_n":50,"min":91,"max":164,"target":"present","response":"absent","rt":2109.9000000358,"correct":false,"confidence":1},{"trial_n":51,"min":90,"max":165,"target":"absent","response":"present","rt":677.30000001192,"correct":false,"confidence":2},{"trial_n":52,"min":89,"max":166,"target":"present","response":"present","rt":1064.5999999642,"correct":true,"confidence":4},{"trial_n":53,"min":89,"max":166,"target":"present","response":"present","rt":870.10000002384,"correct":true,"confidence":4},{"trial_n":54,"min":90,"max":165,"target":"absent","response":"absent","rt":576.29999995232,"correct":true,"confidence":3},{"trial_n":55,"min":90,"max":165,"target":"present","response":"present","rt":670.69999998808,"correct":true,"confidence":3},{"trial_n":56,"min":91,"max":164,"target":"present","response":"absent","rt":1963,"correct":false,"confidence":1},{"trial_n":57,"min":90,"max":165,"target":"present","response":"present","rt":567.40000003576,"correct":true,"confidence":2},{"trial_n":58,"min":90,"max":165,"target":"absent","response":"present","rt":603.59999996424,"correct":false,"confidence":3},{"trial_n":59,"min":89,"max":166,"target":"present","response":"present","rt":536.5,"correct":true,"confidence":4},{"trial_n":60,"min":89,"max":166,"target":"absent","response":"absent","rt":646.40000003576,"correct":true,"confidence":3},{"trial_n":61,"min":90,"max":165,"target":"present","response":"present","rt":638.5,"correct":true,"confidence":1},{"trial_n":62,"min":90,"max":165,"target":"present","response":"present","rt":737.59999996424,"correct":true,"confidence":1},{"trial_n":63,"min":91,"max":164,"target":"present","response":"absent","rt":1262.6999999881,"correct":false,"confidence":2},{"trial_n":64,"min":90,"max":165,"target":"present","response":"absent","rt":1013,"correct":false,"confidence":3},{"trial_n":65,"min":89,"max":166,"target":"present","response":"absent","rt":1097.5,"correct":false,"confidence":3},{"trial_n":66,"min":88,"max":167,"target":"absent","response":"absent","rt":1095.9000000358,"correct":true,"confidence":4},{"trial_n":67,"min":88,"max":167,"target":"absent","response":"absent","rt":1440.8000000119,"correct":true,"confidence":4},{"trial_n":68,"min":89,"max":166,"target":"absent","response":"absent","rt":948.09999996424,"correct":true,"confidence":2},{"trial_n":69,"min":89,"max":166,"target":"present","response":"present","rt":775.69999998808,"correct":true,"confidence":1},{"trial_n":70,"min":90,"max":165,"target":"present","response":"present","rt":1278.3999999762,"correct":true,"confidence":1},{"trial_n":71,"min":41,"max":214,"target":"present","response":"present","rt":4455.1000000238,"correct":true,"confidence":-1},{"trial_n":72,"min":41,"max":214,"target":"present","response":"present","rt":1930.3000000119,"correct":true,"confidence":-1},{"trial_n":73,"min":57,"max":198,"target":"absent","response":"absent","rt":1390.7000000477,"correct":true,"confidence":-1},{"trial_n":74,"min":57,"max":198,"target":"absent","response":"absent","rt":1027.8000000119,"correct":true,"confidence":-1},{"trial_n":75,"min":73,"max":182,"target":"present","response":"present","rt":1010.6999999881,"correct":true,"confidence":-1},{"trial_n":76,"min":73,"max":182,"target":"present","response":"present","rt":712.59999996424,"correct":true,"confidence":-1},{"trial_n":77,"min":89,"max":166,"target":"absent","response":"absent","rt":1960.6000000238,"correct":true,"confidence":-1},{"trial_n":78,"min":89,"max":166,"target":"absent","response":"absent","rt":951.5,"correct":true,"confidence":-1},{"trial_n":79,"min":105,"max":150,"target":"absent","response":"absent","rt":827.80000001192,"correct":true,"confidence":-1},{"trial_n":80,"min":105,"max":150,"target":"absent","response":"absent","rt":665,"correct":true,"confidence":-1},{"trial_n":81,"min":113,"max":142,"target":"present","response":"absent","rt":689,"correct":false,"confidence":-1},{"trial_n":82,"min":105,"max":150,"target":"absent","response":"present","rt":764.5,"correct":false,"confidence":-1},{"trial_n":83,"min":97,"max":158,"target":"present","response":"absent","rt":812,"correct":false,"confidence":-1},{"trial_n":84,"min":89,"max":166,"target":"present","response":"present","rt":1183.9000000358,"correct":true,"confidence":-1},{"trial_n":85,"min":89,"max":166,"target":"present","response":"present","rt":1448.8999999762,"correct":true,"confidence":-1},{"trial_n":86,"min":97,"max":158,"target":"absent","response":"absent","rt":1478.8000000119,"correct":true,"confidence":-1},{"trial_n":87,"min":97,"max":158,"target":"present","response":"absent","rt":1516.3000000119,"correct":false,"confidence":-1},{"trial_n":88,"min":89,"max":166,"target":"present","response":"present","rt":863.69999998808,"correct":true,"confidence":-1},{"trial_n":89,"min":89,"max":166,"target":"present","response":"present","rt":921.39999997616,"correct":true,"confidence":-1},{"trial_n":90,"min":97,"max":158,"target":"absent","response":"present","rt":623.60000002384,"correct":false,"confidence":-1},{"trial_n":91,"min":93,"max":162,"target":"present","response":"absent","rt":1116.5,"correct":false,"confidence":2},{"trial_n":92,"min":89,"max":166,"target":"absent","response":"present","rt":1460.7999999523,"correct":false,"confidence":2},{"trial_n":93,"min":85,"max":170,"target":"absent","response":"absent","rt":960.59999996424,"correct":true,"confidence":3},{"trial_n":94,"min":85,"max":170,"target":"absent","response":"absent","rt":799.39999997616,"correct":true,"confidence":2},{"trial_n":95,"min":89,"max":166,"target":"present","response":"present","rt":773.70000004768,"correct":true,"confidence":4},{"trial_n":96,"min":89,"max":166,"target":"absent","response":"present","rt":1288.8000000119,"correct":false,"confidence":4},{"trial_n":97,"min":85,"max":170,"target":"present","response":"present","rt":889.39999997616,"correct":true,"confidence":5},{"trial_n":98,"min":85,"max":170,"target":"present","response":"present","rt":907.5,"correct":true,"confidence":5},{"trial_n":99,"min":89,"max":166,"target":"absent","response":"absent","rt":1286.3000000119,"correct":true,"confidence":1},{"trial_n":100,"min":89,"max":166,"target":"absent","response":"present","rt":1495.5,"correct":false,"confidence":1},{"trial_n":101,"min":87,"max":168,"target":"present","response":"present","rt":1192.1999999881,"correct":true,"confidence":3},{"trial_n":102,"min":87,"max":168,"target":"absent","response":"absent","rt":1122.1999999881,"correct":true,"confidence":2},{"trial_n":103,"min":89,"max":166,"target":"absent","response":"present","rt":1084.6999999881,"correct":false,"confidence":1},{"trial_n":104,"min":87,"max":168,"target":"absent","response":"absent","rt":1002.6000000238,"correct":true,"confidence":2},{"trial_n":105,"min":87,"max":168,"target":"present","response":"present","rt":950.19999998808,"correct":true,"confidence":4},{"trial_n":106,"min":89,"max":166,"target":"absent","response":"present","rt":811.5,"correct":false,"confidence":4},{"trial_n":107,"min":87,"max":168,"target":"absent","response":"present","rt":1514.8999999762,"correct":false,"confidence":3},{"trial_n":108,"min":85,"max":170,"target":"absent","response":"absent","rt":1119.3999999762,"correct":true,"confidence":2},{"trial_n":109,"min":85,"max":170,"target":"present","response":"present","rt":848.80000001192,"correct":true,"confidence":3},{"trial_n":110,"min":87,"max":168,"target":"present","response":"present","rt":1014.5,"correct":true,"confidence":3},{"trial_n":111,"min":87,"max":168,"target":"present","response":"present","rt":774.30000001192,"correct":true,"confidence":3},{"trial_n":112,"min":88,"max":167,"target":"absent","response":"absent","rt":2187,"correct":true,"confidence":1},{"trial_n":113,"min":88,"max":167,"target":"present","response":"present","rt":1019.3000000119,"correct":true,"confidence":2},{"trial_n":114,"min":89,"max":166,"target":"absent","response":"absent","rt":1148.3000000119,"correct":true,"confidence":1},{"trial_n":115,"min":89,"max":166,"target":"present","response":"present","rt":1397.9000000358,"correct":true,"confidence":3},{"trial_n":116,"min":90,"max":165,"target":"absent","response":"present","rt":973.80000001192,"correct":false,"confidence":4},{"trial_n":117,"min":89,"max":166,"target":"absent","response":"present","rt":1083.8000000119,"correct":false,"confidence":1},{"trial_n":118,"min":88,"max":167,"target":"absent","response":"absent","rt":1069.3000000119,"correct":true,"confidence":1},{"trial_n":119,"min":88,"max":167,"target":"absent","response":"absent","rt":1524.8000000119,"correct":true,"confidence":2},{"trial_n":120,"min":89,"max":166,"target":"absent","response":"present","rt":1103.4000000358,"correct":false,"confidence":3},{"trial_n":121,"min":88,"max":167,"target":"absent","response":"absent","rt":1261.1000000238,"correct":true,"confidence":2},{"trial_n":122,"min":88,"max":167,"target":"absent","response":"present","rt":926.30000001192,"correct":false,"confidence":2},{"trial_n":123,"min":87,"max":168,"target":"present","response":"present","rt":780.30000001192,"correct":true,"confidence":4},{"trial_n":124,"min":87,"max":168,"target":"present","response":"present","rt":1091.2000000477,"correct":true,"confidence":3},{"trial_n":125,"min":88,"max":167,"target":"present","response":"present","rt":701.69999998808,"correct":true,"confidence":5},{"trial_n":126,"min":88,"max":167,"target":"present","response":"present","rt":929.89999997616,"correct":true,"confidence":5},{"trial_n":127,"min":89,"max":166,"target":"present","response":"present","rt":884.39999997616,"correct":true,"confidence":3},{"trial_n":128,"min":89,"max":166,"target":"absent","response":"present","rt":1341.8999999762,"correct":false,"confidence":2},{"trial_n":129,"min":88,"max":167,"target":"present","response":"present","rt":974.10000002384,"correct":true,"confidence":2},{"trial_n":130,"min":88,"max":167,"target":"present","response":"present","rt":1147.3000000119,"correct":true,"confidence":1},{"trial_n":131,"min":89,"max":166,"target":"present","response":"present","rt":866.79999995232,"correct":true,"confidence":3},{"trial_n":132,"min":89,"max":166,"target":"present","response":"absent","rt":1012,"correct":false,"confidence":2},{"trial_n":133,"min":88,"max":167,"target":"absent","response":"present","rt":748.39999997616,"correct":false,"confidence":2},{"trial_n":134,"min":87,"max":168,"target":"present","response":"present","rt":964.30000001192,"correct":true,"confidence":2},{"trial_n":135,"min":87,"max":168,"target":"present","response":"present","rt":937.80000001192,"correct":true,"confidence":5},{"trial_n":136,"min":88,"max":167,"target":"present","response":"present","rt":2344.6000000238,"correct":true,"confidence":1},{"trial_n":137,"min":88,"max":167,"target":"present","response":"present","rt":1163.6999999881,"correct":true,"confidence":1},{"trial_n":138,"min":89,"max":166,"target":"absent","response":"present","rt":1083.6999999881,"correct":false,"confidence":3},{"trial_n":139,"min":88,"max":167,"target":"absent","response":"absent","rt":1212,"correct":true,"confidence":1},{"trial_n":140,"min":88,"max":167,"target":"present","response":"present","rt":848.19999998808,"correct":true,"confidence":2}]