[{"trial_n":1,"min":25,"max":230,"target":"present","response":"present","rt":2113.0999999996,"correct":true,"confidence":-1},{"trial_n":2,"min":25,"max":230,"target":"present","response":"present","rt":453.59999999963,"correct":true,"confidence":-1},{"trial_n":3,"min":41,"max":214,"target":"absent","response":"present","rt":121.09999999963,"correct":false,"confidence":-1},{"trial_n":4,"min":25,"max":230,"target":"absent","response":"present","rt":65,"correct":false,"confidence":-1},{"trial_n":5,"min":9,"max":246,"target":"present","response":"present","rt":58.700000001118,"correct":true,"confidence":-1},{"trial_n":6,"min":9,"max":246,"target":"absent","response":"present","rt":117.30000000075,"correct":false,"confidence":-1},{"trial_n":7,"min":0,"max":255,"target":"absent","response":"present","rt":109.09999999963,"correct":false,"confidence":-1},{"trial_n":8,"min":0,"max":255,"target":"present","response":"present","rt":84.5,"correct":true,"confidence":-1},{"trial_n":9,"min":0,"max":255,"target":"absent","response":"present","rt":137.09999999963,"correct":false,"confidence":-1},{"trial_n":10,"min":0,"max":255,"target":"present","response":"present","rt":140,"correct":true,"confidence":-1},{"trial_n":11,"min":0,"max":255,"target":"present","response":"present","rt":109.10000000149,"correct":true,"confidence":-1},{"trial_n":12,"min":8,"max":247,"target":"absent","response":"present","rt":48.400000000373,"correct":false,"confidence":-1},{"trial_n":13,"min":0,"max":255,"target":"present","response":"absent","rt":5.5999999996275,"correct":false,"confidence":-1},{"trial_n":14,"min":0,"max":255,"target":"absent","response":"present","rt":72.900000000373,"correct":false,"confidence":-1},{"trial_n":15,"min":0,"max":255,"target":"present","response":"absent","rt":20.400000000373,"correct":false,"confidence":-1},{"trial_n":16,"min":0,"max":255,"target":"present","response":"absent","rt":64.599999999627,"correct":false,"confidence":-1},{"trial_n":17,"min":0,"max":255,"target":"absent","response":"absent","rt":77.700000001118,"correct":true,"confidence":-1},{"trial_n":18,"min":0,"max":255,"target":"absent","response":"absent","rt":48.799999998882,"correct":true,"confidence":-1},{"trial_n":19,"min":8,"max":247,"target":"absent","response":"absent","rt":166.70000000112,"correct":true,"confidence":-1},{"trial_n":20,"min":8,"max":247,"target":"absent","response":"absent","rt":55.800000000745,"correct":true,"confidence":-1},{"trial_n":21,"min":12,"max":243,"target":"absent","response":"absent","rt":23.700000001118,"correct":true,"confidence":1},{"trial_n":22,"min":12,"max":243,"target":"absent","response":"present","rt":31.60000000149,"correct":false,"confidence":1},{"trial_n":23,"min":8,"max":247,"target":"present","response":"present","rt":32,"correct":true,"confidence":1},{"trial_n":24,"min":8,"max":247,"target":"present","response":"present","rt":58.800000000745,"correct":true,"confidence":1},{"trial_n":25,"min":12,"max":243,"target":"present","response":"present","rt":187.09999999963,"correct":true,"confidence":1},{"trial_n":26,"min":12,"max":243,"target":"absent","response":"present","rt":144,"correct":false,"confidence":1},{"trial_n":27,"min":8,"max":247,"target":"present","response":"present","rt":10.199999999255,"correct":true,"confidence":1},{"trial_n":28,"min":8,"max":247,"target":"present","response":"present","rt":79.800000000745,"correct":true,"confidence":1},{"trial_n":29,"min":12,"max":243,"target":"absent","response":"present","rt":112.5,"correct":false,"confidence":1},{"trial_n":30,"min":8,"max":247,"target":"present","response":"present","rt":18.199999999255,"correct":true,"confidence":1},{"trial_n":31,"min":8,"max":247,"target":"absent","response":"present","rt":10.60000000149,"correct":false,"confidence":1},{"trial_n":32,"min":6,"max":249,"target":"present","response":"present","rt":77.599999999627,"correct":true,"confidence":1},{"trial_n":33,"min":6,"max":249,"target":"absent","response":"present","rt":3.3000000007451,"correct":false,"confidence":1},{"trial_n":34,"min":4,"max":251,"target":"present","response":"present","rt":82,"correct":true,"confidence":1},{"trial_n":35,"min":4,"max":251,"target":"present","response":"present","rt":6.4000000003725,"correct":true,"confidence":1},{"trial_n":36,"min":6,"max":249,"target":"absent","response":"present","rt":47.800000000745,"correct":false,"confidence":1},{"trial_n":37,"min":4,"max":251,"target":"present","response":"present","rt":56.400000000373,"correct":true,"confidence":1},{"trial_n":38,"min":4,"max":251,"target":"absent","response":"present","rt":1.4000000003725,"correct":false,"confidence":1},{"trial_n":39,"min":2,"max":253,"target":"present","response":"present","rt":98.199999999255,"correct":true,"confidence":1},{"trial_n":40,"min":2,"max":253,"target":"present","response":"present","rt":47.299999998882,"correct":true,"confidence":1},{"trial_n":41,"min":3,"max":252,"target":"absent","response":"present","rt":24.599999999627,"correct":false,"confidence":1},{"trial_n":42,"min":2,"max":253,"target":"present","response":"present","rt":117.30000000075,"correct":true,"confidence":1},{"trial_n":43,"min":2,"max":253,"target":"absent","response":"present","rt":53.300000000745,"correct":false,"confidence":1},{"trial_n":44,"min":1,"max":254,"target":"absent","response":"present","rt":73.699999999255,"correct":false,"confidence":1},{"trial_n":45,"min":0,"max":255,"target":"absent","response":"present","rt":143.80000000075,"correct":false,"confidence":1},{"trial_n":46,"min":0,"max":255,"target":"absent","response":"present","rt":76.200000001118,"correct":false,"confidence":1},{"trial_n":47,"min":0,"max":255,"target":"present","response":"present","rt":58.599999999627,"correct":true,"confidence":1},{"trial_n":48,"min":0,"max":255,"target":"present","response":"present","rt":147.90000000037,"correct":true,"confidence":1},{"trial_n":49,"min":1,"max":254,"target":"present","response":"present","rt":163.70000000112,"correct":true,"confidence":1},{"trial_n":50,"min":1,"max":254,"target":"absent","response":"present","rt":161.90000000037,"correct":false,"confidence":1},{"trial_n":51,"min":0,"max":255,"target":"present","response":"absent","rt":1328.5,"correct":false,"confidence":1},{"trial_n":52,"min":0,"max":255,"target":"present","response":"absent","rt":22.700000001118,"correct":false,"confidence":1},{"trial_n":53,"min":0,"max":255,"target":"present","response":"absent","rt":1.9000000003725,"correct":false,"confidence":1},{"trial_n":54,"min":0,"max":255,"target":"present","response":"present","rt":162,"correct":true,"confidence":1},{"trial_n":55,"min":0,"max":255,"target":"present","response":"present","rt":176.90000000037,"correct":true,"confidence":1},{"trial_n":56,"min":1,"max":254,"target":"present","response":"absent","rt":127.80000000075,"correct":false,"confidence":1},{"trial_n":57,"min":0,"max":255,"target":"absent","response":"absent","rt":134.40000000037,"correct":true,"confidence":1},{"trial_n":58,"min":0,"max":255,"target":"absent","response":"absent","rt":89.400000000373,"correct":true,"confidence":1},{"trial_n":59,"min":1,"max":254,"target":"absent","response":"absent","rt":31.199999999255,"correct":true,"confidence":1},{"trial_n":60,"min":1,"max":254,"target":"absent","response":"present","rt":14.5,"correct":false,"confidence":1},{"trial_n":61,"min":0,"max":255,"target":"absent","response":"present","rt":146.59999999963,"correct":false,"confidence":1},{"trial_n":62,"min":0,"max":255,"target":"absent","response":"present","rt":17.700000001118,"correct":false,"confidence":1},{"trial_n":63,"min":0,"max":255,"target":"present","response":"present","rt":209.90000000037,"correct":true,"confidence":1},{"trial_n":64,"min":0,"max":255,"target":"absent","response":"absent","rt":0.80000000074506,"correct":true,"confidence":1},{"trial_n":65,"min":1,"max":254,"target":"absent","response":"absent","rt":106.09999999963,"correct":true,"confidence":1},{"trial_n":66,"min":1,"max":254,"target":"present","response":"absent","rt":61.900000000373,"correct":false,"confidence":1},{"trial_n":67,"min":0,"max":255,"target":"present","response":"absent","rt":130.80000000075,"correct":false,"confidence":1},{"trial_n":68,"min":0,"max":255,"target":"present","response":"absent","rt":63.700000001118,"correct":false,"confidence":1},{"trial_n":69,"min":0,"max":255,"target":"present","response":"present","rt":82.300000000745,"correct":true,"confidence":1},{"trial_n":70,"min":0,"max":255,"target":"absent","response":"absent","rt":51.800000000745,"correct":true,"confidence":1},{"trial_n":71,"min":41,"max":214,"target":"present","response":"present","rt":2913.4000000004,"correct":true,"confidence":-1},{"trial_n":72,"min":41,"max":214,"target":"present","response":"absent","rt":122.40000000037,"correct":false,"confidence":-1},{"trial_n":73,"min":25,"max":230,"target":"absent","response":"present","rt":144.5,"correct":false,"confidence":-1},{"trial_n":74,"min":9,"max":246,"target":"absent","response":"present","rt":46.900000000373,"correct":false,"confidence":-1},{"trial_n":75,"min":0,"max":255,"target":"present","response":"present","rt":30.199999999255,"correct":true,"confidence":-1},{"trial_n":76,"min":0,"max":255,"target":"present","response":"present","rt":37.199999999255,"correct":true,"confidence":-1},{"trial_n":77,"min":16,"max":239,"target":"absent","response":"present","rt":66.699999999255,"correct":false,"confidence":-1},{"trial_n":78,"min":0,"max":255,"target":"absent","response":"present","rt":115.40000000037,"correct":false,"confidence":-1},{"trial_n":79,"min":0,"max":255,"target":"absent","response":"absent","rt":36.800000000745,"correct":true,"confidence":-1},{"trial_n":80,"min":0,"max":255,"target":"absent","response":"present","rt":94.599999999627,"correct":false,"confidence":-1},{"trial_n":81,"min":0,"max":255,"target":"absent","response":"present","rt":62.300000000745,"correct":false,"confidence":-1},{"trial_n":82,"min":0,"max":255,"target":"present","response":"present","rt":51,"correct":true,"confidence":-1},{"trial_n":83,"min":0,"max":255,"target":"absent","response":"present","rt":4.7000000011176,"correct":false,"confidence":-1},{"trial_n":84,"min":0,"max":255,"target":"present","response":"present","rt":209.19999999925,"correct":true,"confidence":-1},{"trial_n":85,"min":0,"max":255,"target":"absent","response":"present","rt":124.09999999963,"correct":false,"confidence":-1},{"trial_n":86,"min":0,"max":255,"target":"present","response":"present","rt":352.80000000075,"correct":true,"confidence":-1},{"trial_n":87,"min":0,"max":255,"target":"present","response":"present","rt":2235.5,"correct":true,"confidence":-1},{"trial_n":88,"min":8,"max":247,"target":"present","response":"present","rt":151.5,"correct":true,"confidence":-1},{"trial_n":89,"min":8,"max":247,"target":"absent","response":"present","rt":42.400000000373,"correct":false,"confidence":-1},{"trial_n":90,"min":0,"max":255,"target":"present","response":"absent","rt":30.199999999255,"correct":false,"confidence":-1},{"trial_n":91,"min":0,"max":255,"target":"present","response":"present","rt":92.699999999255,"correct":true,"confidence":1},{"trial_n":92,"min":0,"max":255,"target":"absent","response":"present","rt":110.09999999963,"correct":false,"confidence":2},{"trial_n":93,"min":0,"max":255,"target":"absent","response":"present","rt":129.19999999925,"correct":false,"confidence":1},{"trial_n":94,"min":0,"max":255,"target":"present","response":"present","rt":39.400000000373,"correct":true,"confidence":2},{"trial_n":95,"min":0,"max":255,"target":"present","response":"present","rt":150.09999999963,"correct":true,"confidence":3},{"trial_n":96,"min":4,"max":251,"target":"absent","response":"present","rt":130.5,"correct":false,"confidence":3},{"trial_n":97,"min":0,"max":255,"target":"absent","response":"absent","rt":889.09999999963,"correct":true,"confidence":2},{"trial_n":98,"min":0,"max":255,"target":"present","response":"absent","rt":37.200000001118,"correct":false,"confidence":1},{"trial_n":99,"min":0,"max":255,"target":"present","response":"present","rt":145.29999999888,"correct":true,"confidence":2},{"trial_n":100,"min":0,"max":255,"target":"absent","response":"absent","rt":117.59999999963,"correct":true,"confidence":1},{"trial_n":101,"min":2,"max":253,"target":"present","response":"present","rt":24.900000000373,"correct":true,"confidence":2},{"trial_n":102,"min":2,"max":253,"target":"present","response":"absent","rt":110.09999999963,"correct":false,"confidence":1},{"trial_n":103,"min":0,"max":255,"target":"absent","response":"present","rt":191.90000000037,"correct":false,"confidence":2},{"trial_n":104,"min":0,"max":255,"target":"absent","response":"absent","rt":114.79999999888,"correct":true,"confidence":1},{"trial_n":105,"min":0,"max":255,"target":"present","response":"absent","rt":7.2000000011176,"correct":false,"confidence":1},{"trial_n":106,"min":0,"max":255,"target":"present","response":"absent","rt":83.099999999627,"correct":false,"confidence":1},{"trial_n":107,"min":0,"max":255,"target":"absent","response":"absent","rt":176.20000000112,"correct":true,"confidence":1},{"trial_n":108,"min":0,"max":255,"target":"present","response":"absent","rt":10.599999999627,"correct":false,"confidence":1},{"trial_n":109,"min":0,"max":255,"target":"absent","response":"absent","rt":88.900000000373,"correct":true,"confidence":1},{"trial_n":110,"min":0,"max":255,"target":"present","response":"absent","rt":104.70000000112,"correct":false,"confidence":1},{"trial_n":111,"min":0,"max":255,"target":"absent","response":"absent","rt":42757.300000001,"correct":true,"confidence":1},{"trial_n":112,"min":0,"max":255,"target":"absent","response":"absent","rt":1004.5,"correct":true,"confidence":2},{"trial_n":113,"min":1,"max":254,"target":"present","response":"absent","rt":108.90000000037,"correct":false,"confidence":1},{"trial_n":114,"min":0,"max":255,"target":"absent","response":"absent","rt":99.800000000745,"correct":true,"confidence":1},{"trial_n":115,"min":0,"max":255,"target":"absent","response":"absent","rt":44.400000000373,"correct":true,"confidence":1},{"trial_n":116,"min":1,"max":254,"target":"present","response":"present","rt":61.099999999627,"correct":true,"confidence":3},{"trial_n":117,"min":1,"max":254,"target":"absent","response":"present","rt":103.79999999888,"correct":false,"confidence":1},{"trial_n":118,"min":0,"max":255,"target":"absent","response":"absent","rt":215.80000000075,"correct":true,"confidence":1},{"trial_n":119,"min":0,"max":255,"target":"absent","response":"present","rt":117.09999999963,"correct":false,"confidence":2},{"trial_n":120,"min":0,"max":255,"target":"present","response":"present","rt":79.900000000373,"correct":true,"confidence":1},{"trial_n":121,"min":0,"max":255,"target":"absent","response":"present","rt":82.900000000373,"correct":false,"confidence":2},{"trial_n":122,"min":0,"max":255,"target":"present","response":"absent","rt":105.59999999963,"correct":false,"confidence":1},{"trial_n":123,"min":0,"max":255,"target":"present","response":"present","rt":347.90000000037,"correct":true,"confidence":2},{"trial_n":124,"min":0,"max":255,"target":"absent","response":"absent","rt":70,"correct":true,"confidence":1},{"trial_n":125,"min":1,"max":254,"target":"absent","response":"absent","rt":65.199999999255,"correct":true,"confidence":4},{"trial_n":126,"min":1,"max":254,"target":"present","response":"present","rt":128.09999999963,"correct":true,"confidence":1},{"trial_n":127,"min":2,"max":253,"target":"absent","response":"present","rt":865.5,"correct":false,"confidence":4},{"trial_n":128,"min":1,"max":254,"target":"present","response":"absent","rt":5.4000000003725,"correct":false,"confidence":1},{"trial_n":129,"min":0,"max":255,"target":"absent","response":"absent","rt":167.30000000075,"correct":true,"confidence":3},{"trial_n":130,"min":0,"max":255,"target":"absent","response":"present","rt":102.69999999925,"correct":false,"confidence":2},{"trial_n":131,"min":0,"max":255,"target":"present","response":"present","rt":90.800000000745,"correct":true,"confidence":2},{"trial_n":132,"min":0,"max":255,"target":"absent","response":"present","rt":18.300000000745,"correct":false,"confidence":1},{"trial_n":133,"min":0,"max":255,"target":"absent","response":"absent","rt":134.40000000037,"correct":true,"confidence":1},{"trial_n":134,"min":0,"max":255,"target":"present","response":"present","rt":118.69999999925,"correct":true,"confidence":1},{"trial_n":135,"min":1,"max":254,"target":"present","response":"present","rt":424.29999999888,"correct":true,"confidence":4},{"trial_n":136,"min":1,"max":254,"target":"present","response":"absent","rt":153.69999999925,"correct":false,"confidence":3},{"trial_n":137,"min":0,"max":255,"target":"present","response":"present","rt":189,"correct":true,"confidence":2},{"trial_n":138,"min":0,"max":255,"target":"present","response":"absent","rt":219.59999999963,"correct":false,"confidence":1},{"trial_n":139,"min":0,"max":255,"target":"present","response":"absent","rt":86.699999999255,"correct":false,"confidence":3},{"trial_n":140,"min":0,"max":255,"target":"present","response":"present","rt":9600.5999999996,"correct":true,"confidence":2}]