[{"trial_n":1,"n_dots":4.25,"target":"left","response":"left","rt":5164.1000000238,"correct":true,"confidence":-1},{"trial_n":2,"n_dots":4.25,"target":"left","response":"left","rt":780.19999998808,"correct":true,"confidence":-1},{"trial_n":3,"n_dots":3.85,"target":"right","response":"right","rt":729.10000002384,"correct":true,"confidence":-1},{"trial_n":4,"n_dots":3.85,"target":"right","response":"left","rt":974.19999998808,"correct":false,"confidence":-1},{"trial_n":5,"n_dots":4.25,"target":"left","response":"left","rt":718.60000002384,"correct":true,"confidence":-1},{"trial_n":6,"n_dots":4.25,"target":"left","response":"left","rt":939.89999997616,"correct":true,"confidence":-1},{"trial_n":7,"n_dots":3.85,"target":"left","response":"right","rt":1101.6999999881,"correct":false,"confidence":-1},{"trial_n":8,"n_dots":4.05,"target":"right","response":"right","rt":805.5,"correct":true,"confidence":-1},{"trial_n":9,"n_dots":4.05,"target":"right","response":"left","rt":2186.3999999762,"correct":false,"confidence":-1},{"trial_n":10,"n_dots":4.25,"target":"left","response":"right","rt":735.10000002384,"correct":false,"confidence":-1},{"trial_n":11,"n_dots":4.45,"target":"right","response":"left","rt":561.10000002384,"correct":false,"confidence":-1},{"trial_n":12,"n_dots":4.65,"target":"right","response":"right","rt":583.29999995232,"correct":true,"confidence":-1},{"trial_n":13,"n_dots":4.65,"target":"left","response":"left","rt":799.09999996424,"correct":true,"confidence":-1},{"trial_n":14,"n_dots":4.55,"target":"right","response":"right","rt":587.39999997616,"correct":true,"confidence":-1},{"trial_n":15,"n_dots":4.55,"target":"left","response":"left","rt":468.30000001192,"correct":true,"confidence":-1},{"trial_n":16,"n_dots":4.45,"target":"left","response":"left","rt":576.30000001192,"correct":true,"confidence":-1},{"trial_n":17,"n_dots":4.45,"target":"left","response":"left","rt":673.80000001192,"correct":true,"confidence":-1},{"trial_n":18,"n_dots":4.35,"target":"right","response":"right","rt":523.69999998808,"correct":true,"confidence":-1},{"trial_n":19,"n_dots":4.35,"target":"left","response":"left","rt":519.10000002384,"correct":true,"confidence":-1},{"trial_n":20,"n_dots":4.25,"target":"left","response":"left","rt":190.19999998808,"correct":true,"confidence":-1},{"trial_n":21,"n_dots":4.25,"target":"right","response":"right","rt":479.90000003576,"correct":true,"confidence":3},{"trial_n":22,"n_dots":4.15,"target":"left","response":"left","rt":38.700000047684,"correct":true,"confidence":4},{"trial_n":23,"n_dots":4.15,"target":"right","response":"right","rt":619.09999996424,"correct":true,"confidence":1},{"trial_n":24,"n_dots":4.05,"target":"left","response":"left","rt":363.19999998808,"correct":true,"confidence":2},{"trial_n":25,"n_dots":4.05,"target":"left","response":"left","rt":162.69999998808,"correct":true,"confidence":3},{"trial_n":26,"n_dots":3.95,"target":"right","response":"right","rt":632,"correct":true,"confidence":1},{"trial_n":27,"n_dots":3.95,"target":"left","response":"left","rt":474.90000003576,"correct":true,"confidence":4},{"trial_n":28,"n_dots":3.85,"target":"right","response":"right","rt":1168,"correct":true,"confidence":2},{"trial_n":29,"n_dots":3.85,"target":"right","response":"left","rt":985.89999997616,"correct":false,"confidence":1},{"trial_n":30,"n_dots":3.95,"target":"right","response":"right","rt":513.10000002384,"correct":true,"confidence":2},{"trial_n":31,"n_dots":3.95,"target":"right","response":"right","rt":816.59999996424,"correct":true,"confidence":4},{"trial_n":32,"n_dots":3.85,"target":"left","response":"left","rt":652.59999996424,"correct":true,"confidence":3},{"trial_n":33,"n_dots":3.85,"target":"left","response":"left","rt":427.80000001192,"correct":true,"confidence":5},{"trial_n":34,"n_dots":3.75,"target":"left","response":"left","rt":632.69999998808,"correct":true,"confidence":5},{"trial_n":35,"n_dots":3.75,"target":"right","response":"left","rt":878.60000002384,"correct":false,"confidence":5},{"trial_n":36,"n_dots":3.85,"target":"right","response":"right","rt":560.89999997616,"correct":true,"confidence":2},{"trial_n":37,"n_dots":3.85,"target":"right","response":"right","rt":1380.1999999881,"correct":true,"confidence":3},{"trial_n":38,"n_dots":3.75,"target":"right","response":"right","rt":714.90000003576,"correct":true,"confidence":2},{"trial_n":39,"n_dots":3.75,"target":"left","response":"left","rt":386.80000001192,"correct":true,"confidence":4},{"trial_n":40,"n_dots":3.65,"target":"left","response":"left","rt":347.10000002384,"correct":true,"confidence":3},{"trial_n":41,"n_dots":3.65,"target":"right","response":"right","rt":579.10000002384,"correct":true,"confidence":3},{"trial_n":42,"n_dots":3.55,"target":"right","response":"left","rt":778.70000004768,"correct":false,"confidence":1},{"trial_n":43,"n_dots":3.65,"target":"left","response":"left","rt":332.39999997616,"correct":true,"confidence":3},{"trial_n":44,"n_dots":3.65,"target":"left","response":"left","rt":500.79999995232,"correct":true,"confidence":4},{"trial_n":45,"n_dots":3.55,"target":"left","response":"left","rt":350.19999998808,"correct":true,"confidence":5},{"trial_n":46,"n_dots":3.55,"target":"right","response":"right","rt":1746.5,"correct":true,"confidence":2},{"trial_n":47,"n_dots":3.45,"target":"left","response":"left","rt":185.19999998808,"correct":true,"confidence":3},{"trial_n":48,"n_dots":3.45,"target":"right","response":"right","rt":837.80000001192,"correct":true,"confidence":2},{"trial_n":49,"n_dots":3.35,"target":"left","response":"left","rt":451,"correct":true,"confidence":2},{"trial_n":50,"n_dots":3.35,"target":"right","response":"right","rt":772.60000002384,"correct":true,"confidence":1},{"trial_n":51,"n_dots":3.25,"target":"right","response":"left","rt":817.69999998808,"correct":false,"confidence":1},{"trial_n":52,"n_dots":3.35,"target":"left","response":"left","rt":420.89999997616,"correct":true,"confidence":2},{"trial_n":53,"n_dots":3.35,"target":"right","response":"right","rt":402.10000002384,"correct":true,"confidence":3},{"trial_n":54,"n_dots":3.25,"target":"right","response":"left","rt":1121.5999999642,"correct":false,"confidence":4},{"trial_n":55,"n_dots":3.35,"target":"right","response":"left","rt":5.5,"correct":false,"confidence":2},{"trial_n":56,"n_dots":3.45,"target":"left","response":"left","rt":277.89999997616,"correct":true,"confidence":1},{"trial_n":57,"n_dots":3.45,"target":"right","response":"right","rt":305.89999997616,"correct":true,"confidence":5},{"trial_n":58,"n_dots":3.35,"target":"left","response":"right","rt":914.5,"correct":false,"confidence":4},{"trial_n":59,"n_dots":3.45,"target":"left","response":"right","rt":663.10000002384,"correct":false,"confidence":2},{"trial_n":60,"n_dots":3.55,"target":"left","response":"left","rt":470.60000002384,"correct":true,"confidence":2},{"trial_n":61,"n_dots":3.55,"target":"right","response":"right","rt":367.5,"correct":true,"confidence":1},{"trial_n":62,"n_dots":3.45,"target":"right","response":"right","rt":767.30000001192,"correct":true,"confidence":2},{"trial_n":63,"n_dots":3.45,"target":"left","response":"left","rt":483.90000003576,"correct":true,"confidence":2},{"trial_n":64,"n_dots":3.35,"target":"right","response":"left","rt":652.40000003576,"correct":false,"confidence":2},{"trial_n":65,"n_dots":3.45,"target":"left","response":"left","rt":370.5,"correct":true,"confidence":3},{"trial_n":66,"n_dots":3.45,"target":"right","response":"right","rt":445.69999998808,"correct":true,"confidence":4},{"trial_n":67,"n_dots":3.35,"target":"right","response":"right","rt":741,"correct":true,"confidence":1},{"trial_n":68,"n_dots":3.35,"target":"left","response":"left","rt":499.09999996424,"correct":true,"confidence":3},{"trial_n":69,"n_dots":3.25,"target":"left","response":"left","rt":582.20000004768,"correct":true,"confidence":4},{"trial_n":70,"n_dots":3.25,"target":"right","response":"right","rt":757.69999998808,"correct":true,"confidence":2},{"trial_n":71,"n_dots":3.15,"target":"right","response":"left","rt":628.19999998808,"correct":false,"confidence":2},{"trial_n":72,"n_dots":3.25,"target":"right","response":"right","rt":973.60000002384,"correct":true,"confidence":1},{"trial_n":73,"n_dots":3.25,"target":"right","response":"left","rt":535.59999996424,"correct":false,"confidence":1},{"trial_n":74,"n_dots":3.35,"target":"left","response":"left","rt":275.69999998808,"correct":true,"confidence":3},{"trial_n":75,"n_dots":3.35,"target":"right","response":"right","rt":672.39999997616,"correct":true,"confidence":1},{"trial_n":76,"n_dots":3.25,"target":"left","response":"left","rt":362.60000002384,"correct":true,"confidence":1},{"trial_n":77,"n_dots":3.25,"target":"right","response":"left","rt":252.19999998808,"correct":false,"confidence":4},{"trial_n":78,"n_dots":3.35,"target":"left","response":"left","rt":299.89999997616,"correct":true,"confidence":4},{"trial_n":79,"n_dots":3.35,"target":"left","response":"left","rt":174.60000002384,"correct":true,"confidence":2},{"trial_n":80,"n_dots":3.25,"target":"left","response":"left","rt":829,"correct":true,"confidence":1},{"trial_n":81,"n_dots":3.25,"target":"right","response":"left","rt":202.29999995232,"correct":false,"confidence":1},{"trial_n":82,"n_dots":3.35,"target":"right","response":"right","rt":-19,"correct":true,"confidence":2},{"trial_n":83,"n_dots":3.35,"target":"left","response":"left","rt":382.29999995232,"correct":true,"confidence":3},{"trial_n":84,"n_dots":3.25,"target":"left","response":"left","rt":380.30000001192,"correct":true,"confidence":2},{"trial_n":85,"n_dots":3.25,"target":"right","response":"left","rt":197,"correct":false,"confidence":4},{"trial_n":86,"n_dots":3.35,"target":"left","response":"left","rt":86.300000011921,"correct":true,"confidence":3},{"trial_n":87,"n_dots":3.35,"target":"left","response":"left","rt":130.19999998808,"correct":true,"confidence":2},{"trial_n":88,"n_dots":3.25,"target":"right","response":"right","rt":680.10000002384,"correct":true,"confidence":1},{"trial_n":89,"n_dots":3.25,"target":"right","response":"left","rt":197,"correct":false,"confidence":3},{"trial_n":90,"n_dots":3.35,"target":"right","response":"right","rt":300.5,"correct":true,"confidence":4},{"trial_n":91,"n_dots":3.35,"target":"right","response":"right","rt":538.80000001192,"correct":true,"confidence":5},{"trial_n":92,"n_dots":3.25,"target":"right","response":"left","rt":300.10000002384,"correct":false,"confidence":1},{"trial_n":93,"n_dots":3.35,"target":"left","response":"left","rt":212.5,"correct":true,"confidence":1},{"trial_n":94,"n_dots":3.35,"target":"left","response":"left","rt":828.5,"correct":true,"confidence":2},{"trial_n":95,"n_dots":3.25,"target":"right","response":"right","rt":578.60000002384,"correct":true,"confidence":3},{"trial_n":96,"n_dots":3.25,"target":"left","response":"left","rt":308.89999997616,"correct":true,"confidence":4},{"trial_n":97,"n_dots":3.15,"target":"right","response":"right","rt":1028.1999999881,"correct":true,"confidence":4},{"trial_n":98,"n_dots":3.15,"target":"left","response":"left","rt":181,"correct":true,"confidence":5},{"trial_n":99,"n_dots":3.05,"target":"right","response":"right","rt":509.80000001192,"correct":true,"confidence":2},{"trial_n":100,"n_dots":3.05,"target":"right","response":"left","rt":482.80000001192,"correct":false,"confidence":1},{"trial_n":101,"n_dots":3.15,"target":"left","response":"left","rt":41.300000011921,"correct":true,"confidence":5},{"trial_n":102,"n_dots":3.15,"target":"left","response":"left","rt":85.199999988079,"correct":true,"confidence":4},{"trial_n":103,"n_dots":3.05,"target":"left","response":"left","rt":189.19999998808,"correct":true,"confidence":3},{"trial_n":104,"n_dots":3.05,"target":"left","response":"right","rt":418.30000001192,"correct":false,"confidence":2},{"trial_n":105,"n_dots":3.15,"target":"right","response":"right","rt":893.20000004768,"correct":true,"confidence":1},{"trial_n":106,"n_dots":3.15,"target":"left","response":"left","rt":126.80000001192,"correct":true,"confidence":3},{"trial_n":107,"n_dots":3.05,"target":"left","response":"left","rt":695.80000001192,"correct":true,"confidence":4},{"trial_n":108,"n_dots":3.05,"target":"left","response":"left","rt":168.39999997616,"correct":true,"confidence":3},{"trial_n":109,"n_dots":2.95,"target":"left","response":"left","rt":228.60000002384,"correct":true,"confidence":2},{"trial_n":110,"n_dots":2.95,"target":"right","response":"right","rt":464.19999998808,"correct":true,"confidence":1},{"trial_n":111,"n_dots":2.85,"target":"right","response":"left","rt":259.69999998808,"correct":false,"confidence":1},{"trial_n":112,"n_dots":2.95,"target":"right","response":"right","rt":856.5,"correct":true,"confidence":2},{"trial_n":113,"n_dots":2.95,"target":"right","response":"left","rt":339.29999995232,"correct":false,"confidence":2},{"trial_n":114,"n_dots":3.05,"target":"right","response":"left","rt":244.80000001192,"correct":false,"confidence":3},{"trial_n":115,"n_dots":3.15,"target":"left","response":"right","rt":587.60000002384,"correct":false,"confidence":1},{"trial_n":116,"n_dots":3.25,"target":"left","response":"left","rt":156.5,"correct":true,"confidence":4},{"trial_n":117,"n_dots":3.25,"target":"right","response":"right","rt":664.10000002384,"correct":true,"confidence":3},{"trial_n":118,"n_dots":3.15,"target":"left","response":"left","rt":465.60000002384,"correct":true,"confidence":4},{"trial_n":119,"n_dots":3.15,"target":"left","response":"left","rt":196.5,"correct":true,"confidence":3},{"trial_n":120,"n_dots":3.05,"target":"right","response":"left","rt":534.69999998808,"correct":false,"confidence":2}]