[{"trial_n":1,"span":8,"encoder":"03353161","distractor":"23353161","target":"present","response":"absent","rt":"1302","correct":false,"confidence":-1},{"trial_n":2,"span":6,"encoder":"065399","distractor":"061399","target":"present","response":"present","rt":"21042.200000001","correct":true,"confidence":-1},{"trial_n":3,"span":6,"encoder":"100328","distractor":"300328","target":"absent","response":"absent","rt":"2522.4000000004","correct":true,"confidence":-1},{"trial_n":4,"span":8,"encoder":"94039951","distractor":"94239951","target":"absent","response":"absent","rt":"2998","correct":true,"confidence":-1},{"trial_n":5,"span":8,"encoder":"19704787","distractor":"19704767","target":"present","response":"present","rt":"1771.9000000004","correct":true,"confidence":-1},{"trial_n":6,"span":10,"encoder":"8937944496","distractor":"8937944426","target":"absent","response":"absent","rt":"1344.8000000007","correct":true,"confidence":-1},{"trial_n":7,"span":10,"encoder":"4288787670","distractor":"4288887670","target":"absent","response":"absent","rt":"95.400000000373","correct":true,"confidence":-1},{"trial_n":8,"span":12,"encoder":"131904568035","distractor":"131904168035","target":"present","response":"present","rt":"1","correct":true,"confidence":-1},{"trial_n":9,"span":12,"encoder":"265803399109","distractor":"264803399109","target":"present","response":"absent","rt":"66.800000000745","correct":false,"confidence":-1},{"trial_n":10,"span":10,"encoder":"7939276159","distractor":"7939296159","target":"absent","response":"absent","rt":"33.800000000745","correct":true,"confidence":-1},{"trial_n":11,"span":10,"encoder":"5513302398","distractor":"5513302390","target":"present","response":"present","rt":"73.400000000373","correct":true,"confidence":-1},{"trial_n":12,"span":11,"encoder":"11600310872","distractor":"11600310892","target":"present","response":"present","rt":"50.60000000149","correct":true,"confidence":-1},{"trial_n":13,"span":11,"encoder":"94970639819","distractor":"94970629819","target":"present","response":"absent","rt":"1.8000000007451","correct":false,"confidence":-1},{"trial_n":14,"span":10,"encoder":"2027843231","distractor":"2027243231","target":"present","response":"present","rt":"47.89999999851","correct":true,"confidence":-1},{"trial_n":15,"span":10,"encoder":"7098065134","distractor":"8098065134","target":"present","response":"absent","rt":"1788.3000000007","correct":false,"confidence":-1},{"trial_n":16,"span":9,"encoder":"219116187","distractor":"219106187","target":"present","response":"present","rt":"1347.5999999996","correct":true,"confidence":-1},{"trial_n":17,"span":9,"encoder":"344130912","distractor":"344133912","target":"absent","response":"present","rt":"2783.9000000004","correct":false,"confidence":-1},{"trial_n":18,"span":8,"encoder":"12847404","distractor":"12897404","target":"absent","response":"absent","rt":"160.80000000075","correct":true,"confidence":-1},{"trial_n":19,"span":8,"encoder":"17475201","distractor":"17075201","target":"absent","response":"present","rt":"5471.2000000011","correct":false,"confidence":-1},{"trial_n":20,"span":7,"encoder":"0528364","distractor":"2528364","target":"present","response":"absent","rt":"87","correct":false,"confidence":-1},{"trial_n":21,"span":6,"encoder":"186096","distractor":"186093","target":"absent","response":"present","rt":"835.60000000149","correct":false,"confidence":1},{"trial_n":22,"span":5,"encoder":"48620","distractor":"48220","target":"present","response":"absent","rt":"181.69999999925","correct":false,"confidence":1},{"trial_n":23,"span":4,"encoder":"8161","distractor":"8361","target":"absent","response":"present","rt":"63.799999998882","correct":false,"confidence":1},{"trial_n":24,"span":3,"encoder":"374","distractor":"379","target":"absent","response":"present","rt":"164","correct":false,"confidence":1},{"trial_n":25,"span":2,"encoder":"69","distractor":"64","target":"absent","response":"present","rt":"27.599999999627","correct":false,"confidence":1},{"trial_n":26,"span":2,"encoder":"12","distractor":"72","target":"absent","response":"absent","rt":"2","correct":true,"confidence":1},{"trial_n":27,"span":2,"encoder":"63","distractor":"13","target":"present","response":"present","rt":"10.400000000373","correct":true,"confidence":1},{"trial_n":28,"span":3,"encoder":"376","distractor":"576","target":"absent","response":"present","rt":"182.59999999963","correct":false,"confidence":1},{"trial_n":29,"span":2,"encoder":"38","distractor":"98","target":"present","response":"present","rt":"130.19999999925","correct":true,"confidence":1},{"trial_n":30,"span":2,"encoder":"02","distractor":"03","target":"absent","response":"present","rt":"3.1999999992549","correct":false,"confidence":1},{"trial_n":31,"span":2,"encoder":"67","distractor":"64","target":"absent","response":"absent","rt":"-0.099999999627471","correct":true,"confidence":1},{"trial_n":32,"span":2,"encoder":"89","distractor":"19","target":"present","response":"absent","rt":"102.40000000037","correct":false,"confidence":1},{"trial_n":33,"span":2,"encoder":"50","distractor":"00","target":"present","response":"present","rt":"435.70000000112","correct":true,"confidence":1},{"trial_n":34,"span":2,"encoder":"17","distractor":"47","target":"absent","response":"present","rt":"153.59999999963","correct":false,"confidence":1},{"trial_n":35,"span":2,"encoder":"77","distractor":"72","target":"absent","response":"absent","rt":"144.09999999963","correct":true,"confidence":1},{"trial_n":36,"span":2,"encoder":"48","distractor":"40","target":"absent","response":"present","rt":"172.90000000037","correct":false,"confidence":1},{"trial_n":37,"span":2,"encoder":"23","distractor":"83","target":"absent","response":"absent","rt":"147.80000000075","correct":true,"confidence":1},{"trial_n":38,"span":2,"encoder":"59","distractor":"99","target":"present","response":"present","rt":"90.099999999627","correct":true,"confidence":1},{"trial_n":39,"span":3,"encoder":"321","distractor":"311","target":"present","response":"absent","rt":"100","correct":false,"confidence":1},{"trial_n":40,"span":2,"encoder":"96","distractor":"86","target":"absent","response":"present","rt":"174.90000000037","correct":false,"confidence":1},{"trial_n":41,"span":2,"encoder":"56","distractor":"16","target":"present","response":"absent","rt":"295.59999999963","correct":false,"confidence":1},{"trial_n":42,"span":2,"encoder":"48","distractor":"40","target":"absent","response":"present","rt":"32.199999999255","correct":false,"confidence":1},{"trial_n":43,"span":2,"encoder":"36","distractor":"06","target":"present","response":"absent","rt":"41.10000000149","correct":false,"confidence":1},{"trial_n":44,"span":2,"encoder":"93","distractor":"99","target":"absent","response":"present","rt":"88.10000000149","correct":false,"confidence":1},{"trial_n":45,"span":2,"encoder":"46","distractor":"44","target":"absent","response":"absent","rt":"105.69999999925","correct":true,"confidence":1},{"trial_n":46,"span":2,"encoder":"85","distractor":"65","target":"present","response":"absent","rt":"69.299999998882","correct":false,"confidence":1},{"trial_n":47,"span":2,"encoder":"25","distractor":"65","target":"absent","response":"present","rt":"72.599999999627","correct":false,"confidence":1},{"trial_n":48,"span":2,"encoder":"38","distractor":"30","target":"present","response":"absent","rt":"15.599999999627","correct":false,"confidence":1},{"trial_n":49,"span":2,"encoder":"33","distractor":"32","target":"present","response":"absent","rt":"273.69999999925","correct":false,"confidence":1},{"trial_n":50,"span":2,"encoder":"24","distractor":"27","target":"present","response":"present","rt":"108.5","correct":true,"confidence":1},{"trial_n":51,"span":2,"encoder":"45","distractor":"44","target":"present","response":"present","rt":"112.09999999963","correct":true,"confidence":1},{"trial_n":52,"span":3,"encoder":"518","distractor":"528","target":"present","response":"absent","rt":"54.099999999627","correct":false,"confidence":1},{"trial_n":53,"span":2,"encoder":"20","distractor":"60","target":"present","response":"absent","rt":"5.5","correct":false,"confidence":1},{"trial_n":54,"span":2,"encoder":"57","distractor":"87","target":"present","response":"present","rt":"150.10000000149","correct":true,"confidence":1},{"trial_n":55,"span":2,"encoder":"13","distractor":"93","target":"absent","response":"present","rt":"116.40000000037","correct":false,"confidence":1},{"trial_n":56,"span":2,"encoder":"12","distractor":"14","target":"absent","response":"present","rt":"20.599999999627","correct":false,"confidence":1},{"trial_n":57,"span":2,"encoder":"53","distractor":"03","target":"absent","response":"absent","rt":"95","correct":true,"confidence":1},{"trial_n":58,"span":2,"encoder":"75","distractor":"45","target":"present","response":"absent","rt":"149.19999999925","correct":false,"confidence":1},{"trial_n":59,"span":2,"encoder":"97","distractor":"67","target":"present","response":"present","rt":"48.5","correct":true,"confidence":1},{"trial_n":60,"span":2,"encoder":"63","distractor":"69","target":"present","response":"present","rt":"164.59999999963","correct":true,"confidence":1},{"trial_n":61,"span":3,"encoder":"793","distractor":"733","target":"absent","response":"present","rt":"52.800000000745","correct":false,"confidence":1},{"trial_n":62,"span":2,"encoder":"38","distractor":"32","target":"present","response":"present","rt":"122.40000000037","correct":true,"confidence":1},{"trial_n":63,"span":2,"encoder":"49","distractor":"44","target":"absent","response":"present","rt":"145.59999999963","correct":false,"confidence":1},{"trial_n":64,"span":2,"encoder":"80","distractor":"89","target":"absent","response":"present","rt":"7.1999999992549","correct":false,"confidence":1},{"trial_n":65,"span":2,"encoder":"73","distractor":"33","target":"present","response":"present","rt":"74.799999998882","correct":true,"confidence":1},{"trial_n":66,"span":2,"encoder":"01","distractor":"61","target":"absent","response":"absent","rt":"90.799999998882","correct":true,"confidence":1},{"trial_n":67,"span":3,"encoder":"646","distractor":"746","target":"present","response":"present","rt":"54","correct":true,"confidence":1},{"trial_n":68,"span":3,"encoder":"676","distractor":"276","target":"absent","response":"present","rt":"80.699999999255","correct":false,"confidence":1},{"trial_n":69,"span":2,"encoder":"87","distractor":"77","target":"present","response":"present","rt":"140.79999999888","correct":true,"confidence":1},{"trial_n":70,"span":2,"encoder":"12","distractor":"22","target":"absent","response":"present","rt":"38.099999999627","correct":false,"confidence":1},{"trial_n":71,"span":8,"encoder":"11804831","distractor":"16804831","target":"present","response":"absent","rt":"3389.2999999989","correct":false,"confidence":-1},{"trial_n":72,"span":7,"encoder":"1477139","distractor":"1470139","target":"present","response":"absent","rt":"17635","correct":false,"confidence":-1},{"trial_n":73,"span":6,"encoder":"130154","distractor":"130114","target":"absent","response":"absent","rt":"4.3999999985099","correct":true,"confidence":-1},{"trial_n":74,"span":6,"encoder":"172800","distractor":"172000","target":"absent","response":"absent","rt":"44.400000000373","correct":true,"confidence":-1},{"trial_n":75,"span":7,"encoder":"3373561","distractor":"3343561","target":"present","response":"present","rt":"13.799999998882","correct":true,"confidence":-1},{"trial_n":76,"span":7,"encoder":"6628988","distractor":"6528988","target":"present","response":"absent","rt":"115","correct":false,"confidence":-1},{"trial_n":77,"span":6,"encoder":"869735","distractor":"809735","target":"present","response":"present","rt":"33.299999998882","correct":true,"confidence":-1},{"trial_n":78,"span":6,"encoder":"207745","distractor":"203745","target":"present","response":"absent","rt":"199.79999999888","correct":false,"confidence":-1},{"trial_n":79,"span":5,"encoder":"67209","distractor":"27209","target":"absent","response":"absent","rt":"2.7999999988824","correct":true,"confidence":-1},{"trial_n":80,"span":5,"encoder":"18539","distractor":"16539","target":"absent","response":"absent","rt":"119","correct":true,"confidence":-1},{"trial_n":81,"span":6,"encoder":"510483","distractor":"510486","target":"present","response":"present","rt":"191","correct":true,"confidence":-1},{"trial_n":82,"span":6,"encoder":"734914","distractor":"734414","target":"present","response":"present","rt":"1793.0999999996","correct":true,"confidence":-1},{"trial_n":83,"span":7,"encoder":"8175345","distractor":"8475345","target":"absent","response":"present","rt":"1642.4000000004","correct":false,"confidence":-1},{"trial_n":84,"span":6,"encoder":"170479","distractor":"470479","target":"present","response":"present","rt":"3.5","correct":true,"confidence":-1},{"trial_n":85,"span":6,"encoder":"243949","distractor":"245949","target":"absent","response":"absent","rt":"54.60000000149","correct":true,"confidence":-1},{"trial_n":86,"span":7,"encoder":"7136500","distractor":"7136540","target":"present","response":"absent","rt":"74.5","correct":false,"confidence":-1},{"trial_n":87,"span":6,"encoder":"268665","distractor":"288665","target":"present","response":"absent","rt":"78.799999998882","correct":false,"confidence":-1},{"trial_n":88,"span":5,"encoder":"15583","distractor":"75583","target":"present","response":"present","rt":"125.80000000075","correct":true,"confidence":-1},{"trial_n":89,"span":5,"encoder":"05549","distractor":"65549","target":"present","response":"absent","rt":"128.70000000112","correct":false,"confidence":-1},{"trial_n":90,"span":4,"encoder":"3882","distractor":"3892","target":"absent","response":"absent","rt":"63.299999998882","correct":true,"confidence":-1},{"trial_n":91,"span":4,"encoder":"8845","distractor":"8840","target":"absent","response":"absent","rt":"23","correct":true,"confidence":1},{"trial_n":92,"span":5,"encoder":"15211","distractor":"15215","target":"present","response":"present","rt":"226.69999999925","correct":true,"confidence":1},{"trial_n":93,"span":5,"encoder":"79662","distractor":"79962","target":"present","response":"absent","rt":"2.8999999985099","correct":false,"confidence":1},{"trial_n":94,"span":4,"encoder":"6961","distractor":"6981","target":"absent","response":"present","rt":"79.900000000373","correct":false,"confidence":1},{"trial_n":95,"span":3,"encoder":"088","distractor":"087","target":"absent","response":"absent","rt":"32.700000001118","correct":true,"confidence":1},{"trial_n":96,"span":3,"encoder":"974","distractor":"874","target":"absent","response":"absent","rt":"1.3000000007451","correct":true,"confidence":1},{"trial_n":97,"span":4,"encoder":"5180","distractor":"5190","target":"absent","response":"absent","rt":"189.90000000037","correct":true,"confidence":1},{"trial_n":98,"span":4,"encoder":"1707","distractor":"1767","target":"present","response":"absent","rt":"2137.5999999996","correct":false,"confidence":1},{"trial_n":99,"span":3,"encoder":"133","distractor":"173","target":"absent","response":"absent","rt":"6.1999999992549","correct":true,"confidence":1},{"trial_n":100,"span":3,"encoder":"002","distractor":"005","target":"present","response":"present","rt":"14","correct":true,"confidence":1},{"trial_n":101,"span":4,"encoder":"5408","distractor":"5404","target":"absent","response":"present","rt":"177.30000000075","correct":false,"confidence":1},{"trial_n":102,"span":3,"encoder":"170","distractor":"150","target":"absent","response":"present","rt":"87.300000000745","correct":false,"confidence":1},{"trial_n":103,"span":2,"encoder":"01","distractor":"07","target":"present","response":"absent","rt":"89.599999999627","correct":false,"confidence":1},{"trial_n":104,"span":2,"encoder":"10","distractor":"17","target":"present","response":"absent","rt":"94.699999999255","correct":false,"confidence":1},{"trial_n":105,"span":2,"encoder":"00","distractor":"60","target":"absent","response":"absent","rt":"45.799999998882","correct":true,"confidence":1},{"trial_n":106,"span":2,"encoder":"82","distractor":"81","target":"absent","response":"present","rt":"58.800000000745","correct":false,"confidence":1},{"trial_n":107,"span":2,"encoder":"70","distractor":"50","target":"absent","response":"absent","rt":"24.099999999627","correct":true,"confidence":1},{"trial_n":108,"span":2,"encoder":"71","distractor":"77","target":"absent","response":"present","rt":"54","correct":false,"confidence":1},{"trial_n":109,"span":2,"encoder":"77","distractor":"97","target":"present","response":"absent","rt":"46.900000000373","correct":false,"confidence":1},{"trial_n":110,"span":2,"encoder":"24","distractor":"21","target":"present","response":"absent","rt":"36.5","correct":false,"confidence":1},{"trial_n":111,"span":2,"encoder":"33","distractor":"53","target":"absent","response":"present","rt":"13.800000000745","correct":false,"confidence":1},{"trial_n":112,"span":2,"encoder":"78","distractor":"18","target":"present","response":"absent","rt":"45.099999999627","correct":false,"confidence":1},{"trial_n":113,"span":2,"encoder":"94","distractor":"14","target":"absent","response":"absent","rt":"53.599999999627","correct":true,"confidence":1},{"trial_n":114,"span":2,"encoder":"11","distractor":"10","target":"absent","response":"absent","rt":"91.799999998882","correct":true,"confidence":1},{"trial_n":115,"span":3,"encoder":"547","distractor":"542","target":"absent","response":"absent","rt":"50.10000000149","correct":true,"confidence":1},{"trial_n":116,"span":3,"encoder":"820","distractor":"830","target":"present","response":"present","rt":"127.90000000037","correct":true,"confidence":1},{"trial_n":117,"span":4,"encoder":"8652","distractor":"8622","target":"present","response":"present","rt":"12.800000000745","correct":true,"confidence":1},{"trial_n":118,"span":4,"encoder":"3001","distractor":"3000","target":"present","response":"present","rt":"53.800000000745","correct":true,"confidence":1},{"trial_n":119,"span":5,"encoder":"39922","distractor":"39822","target":"absent","response":"absent","rt":"38.60000000149","correct":true,"confidence":1},{"trial_n":120,"span":5,"encoder":"09735","distractor":"09335","target":"present","response":"absent","rt":"64.300000000745","correct":false,"confidence":1},{"trial_n":121,"span":4,"encoder":"8071","distractor":"4071","target":"absent","response":"present","rt":"1631.5","correct":false,"confidence":1},{"trial_n":122,"span":3,"encoder":"072","distractor":"071","target":"absent","response":"absent","rt":"0.39999999850988","correct":true,"confidence":1},{"trial_n":123,"span":3,"encoder":"735","distractor":"734","target":"present","response":"absent","rt":"73.599999999627","correct":false,"confidence":1},{"trial_n":124,"span":2,"encoder":"00","distractor":"04","target":"present","response":"present","rt":"112.69999999925","correct":true,"confidence":1},{"trial_n":125,"span":2,"encoder":"34","distractor":"54","target":"present","response":"present","rt":"-0.099999999627471","correct":true,"confidence":1},{"trial_n":126,"span":3,"encoder":"559","distractor":"558","target":"present","response":"absent","rt":"87.599999999627","correct":false,"confidence":1},{"trial_n":127,"span":2,"encoder":"20","distractor":"60","target":"absent","response":"absent","rt":"77.799999998882","correct":true,"confidence":1},{"trial_n":128,"span":2,"encoder":"74","distractor":"72","target":"present","response":"present","rt":"4.7999999988824","correct":true,"confidence":1},{"trial_n":129,"span":3,"encoder":"958","distractor":"951","target":"absent","response":"absent","rt":"81.699999999255","correct":true,"confidence":1},{"trial_n":130,"span":3,"encoder":"078","distractor":"678","target":"present","response":"absent","rt":"7.7999999988824","correct":false,"confidence":1},{"trial_n":131,"span":2,"encoder":"48","distractor":"78","target":"absent","response":"absent","rt":"167.90000000037","correct":true,"confidence":1},{"trial_n":132,"span":2,"encoder":"24","distractor":"26","target":"absent","response":"absent","rt":"158.89999999851","correct":true,"confidence":1},{"trial_n":133,"span":3,"encoder":"908","distractor":"903","target":"present","response":"absent","rt":"66.199999999255","correct":false,"confidence":1},{"trial_n":134,"span":2,"encoder":"96","distractor":"98","target":"absent","response":"present","rt":"125.70000000112","correct":false,"confidence":1},{"trial_n":135,"span":2,"encoder":"10","distractor":"17","target":"present","response":"present","rt":"28.10000000149","correct":true,"confidence":1},{"trial_n":136,"span":2,"encoder":"21","distractor":"29","target":"absent","response":"present","rt":"22.300000000745","correct":false,"confidence":1},{"trial_n":137,"span":2,"encoder":"82","distractor":"32","target":"absent","response":"absent","rt":"72","correct":true,"confidence":1},{"trial_n":138,"span":2,"encoder":"22","distractor":"24","target":"present","response":"present","rt":"111","correct":true,"confidence":1},{"trial_n":139,"span":3,"encoder":"979","distractor":"909","target":"present","response":"present","rt":"41.599999999627","correct":true,"confidence":1},{"trial_n":140,"span":3,"encoder":"810","distractor":"814","target":"absent","response":"present","rt":"98.5","correct":false,"confidence":1}]