[{"trial_n":1,"min":25,"max":230,"target":"present","response":"absent","rt":5237.8000000119,"correct":false,"confidence":-1},{"trial_n":2,"min":25,"max":230,"target":"present","response":"absent","rt":1288.400000006,"correct":false,"confidence":-1},{"trial_n":3,"min":9,"max":246,"target":"absent","response":"absent","rt":1284.3000000119,"correct":true,"confidence":-1},{"trial_n":4,"min":9,"max":246,"target":"absent","response":"absent","rt":799,"correct":true,"confidence":-1},{"trial_n":5,"min":25,"max":230,"target":"present","response":"present","rt":1535,"correct":true,"confidence":-1},{"trial_n":6,"min":25,"max":230,"target":"absent","response":"absent","rt":1065.599999994,"correct":true,"confidence":-1},{"trial_n":7,"min":41,"max":214,"target":"absent","response":"absent","rt":709,"correct":true,"confidence":-1},{"trial_n":8,"min":41,"max":214,"target":"absent","response":"present","rt":1141.3999999762,"correct":false,"confidence":-1},{"trial_n":9,"min":25,"max":230,"target":"absent","response":"absent","rt":1965.6000000238,"correct":true,"confidence":-1},{"trial_n":10,"min":25,"max":230,"target":"absent","response":"absent","rt":678,"correct":true,"confidence":-1},{"trial_n":11,"min":33,"max":222,"target":"absent","response":"absent","rt":652.40000000596,"correct":true,"confidence":-1},{"trial_n":12,"min":33,"max":222,"target":"present","response":"absent","rt":168.69999998808,"correct":false,"confidence":-1},{"trial_n":13,"min":25,"max":230,"target":"absent","response":"present","rt":858.70000001788,"correct":false,"confidence":-1},{"trial_n":14,"min":17,"max":238,"target":"absent","response":"present","rt":1481.8000000119,"correct":false,"confidence":-1},{"trial_n":15,"min":9,"max":246,"target":"present","response":"present","rt":984.29999998212,"correct":true,"confidence":-1},{"trial_n":16,"min":9,"max":246,"target":"present","response":"present","rt":1837.599999994,"correct":true,"confidence":-1},{"trial_n":17,"min":17,"max":238,"target":"present","response":"present","rt":970.29999998212,"correct":true,"confidence":-1},{"trial_n":18,"min":17,"max":238,"target":"absent","response":"absent","rt":1134.3000000119,"correct":true,"confidence":-1},{"trial_n":19,"min":25,"max":230,"target":"absent","response":"absent","rt":447.5,"correct":true,"confidence":-1},{"trial_n":20,"min":25,"max":230,"target":"absent","response":"absent","rt":507.19999998808,"correct":true,"confidence":-1},{"trial_n":21,"min":29,"max":226,"target":"absent","response":"absent","rt":970.40000000596,"correct":true,"confidence":3},{"trial_n":22,"min":29,"max":226,"target":"absent","response":"present","rt":1096.900000006,"correct":false,"confidence":5},{"trial_n":23,"min":25,"max":230,"target":"absent","response":"present","rt":1513.8000000119,"correct":false,"confidence":4},{"trial_n":24,"min":21,"max":234,"target":"present","response":"present","rt":1499.900000006,"correct":true,"confidence":5},{"trial_n":25,"min":21,"max":234,"target":"present","response":"present","rt":1375.900000006,"correct":true,"confidence":5},{"trial_n":26,"min":25,"max":230,"target":"present","response":"present","rt":1439.5,"correct":true,"confidence":5},{"trial_n":27,"min":25,"max":230,"target":"present","response":"present","rt":1834.900000006,"correct":true,"confidence":5},{"trial_n":28,"min":29,"max":226,"target":"present","response":"present","rt":945.5,"correct":true,"confidence":5},{"trial_n":29,"min":29,"max":226,"target":"absent","response":"absent","rt":986.89999997616,"correct":true,"confidence":5},{"trial_n":30,"min":33,"max":222,"target":"absent","response":"absent","rt":1061.400000006,"correct":true,"confidence":5},{"trial_n":31,"min":33,"max":222,"target":"absent","response":"absent","rt":983.5,"correct":true,"confidence":4},{"trial_n":32,"min":35,"max":220,"target":"absent","response":"absent","rt":806.59999999404,"correct":true,"confidence":5},{"trial_n":33,"min":35,"max":220,"target":"present","response":"present","rt":1185.8000000119,"correct":true,"confidence":5},{"trial_n":34,"min":37,"max":218,"target":"absent","response":"absent","rt":784,"correct":true,"confidence":5},{"trial_n":35,"min":37,"max":218,"target":"present","response":"present","rt":986.40000000596,"correct":true,"confidence":5},{"trial_n":36,"min":39,"max":216,"target":"absent","response":"absent","rt":809.09999999404,"correct":true,"confidence":4},{"trial_n":37,"min":39,"max":216,"target":"present","response":"present","rt":809.29999998212,"correct":true,"confidence":5},{"trial_n":38,"min":41,"max":214,"target":"present","response":"present","rt":986.30000001192,"correct":true,"confidence":5},{"trial_n":39,"min":41,"max":214,"target":"present","response":"present","rt":1120,"correct":true,"confidence":5},{"trial_n":40,"min":43,"max":212,"target":"absent","response":"absent","rt":1630.1999999881,"correct":true,"confidence":3},{"trial_n":41,"min":43,"max":212,"target":"absent","response":"absent","rt":1004,"correct":true,"confidence":5},{"trial_n":42,"min":44,"max":211,"target":"absent","response":"absent","rt":1616.7000000179,"correct":true,"confidence":3},{"trial_n":43,"min":44,"max":211,"target":"present","response":"present","rt":822.69999998808,"correct":true,"confidence":5},{"trial_n":44,"min":45,"max":210,"target":"present","response":"present","rt":854.59999999404,"correct":true,"confidence":5},{"trial_n":45,"min":45,"max":210,"target":"absent","response":"absent","rt":830.70000001788,"correct":true,"confidence":5},{"trial_n":46,"min":46,"max":209,"target":"present","response":"present","rt":989.40000000596,"correct":true,"confidence":5},{"trial_n":47,"min":46,"max":209,"target":"present","response":"absent","rt":1086.8000000119,"correct":false,"confidence":3},{"trial_n":48,"min":45,"max":210,"target":"present","response":"present","rt":963.5,"correct":true,"confidence":5},{"trial_n":49,"min":45,"max":210,"target":"absent","response":"absent","rt":988.5,"correct":true,"confidence":5},{"trial_n":50,"min":46,"max":209,"target":"present","response":"present","rt":881.20000001788,"correct":true,"confidence":5},{"trial_n":51,"min":46,"max":209,"target":"present","response":"present","rt":856.5,"correct":true,"confidence":5},{"trial_n":52,"min":47,"max":208,"target":"absent","response":"absent","rt":1026.400000006,"correct":true,"confidence":5},{"trial_n":53,"min":47,"max":208,"target":"absent","response":"absent","rt":861,"correct":true,"confidence":5},{"trial_n":54,"min":48,"max":207,"target":"present","response":"present","rt":719.59999999404,"correct":true,"confidence":5},{"trial_n":55,"min":48,"max":207,"target":"present","response":"present","rt":838.69999998808,"correct":true,"confidence":5},{"trial_n":56,"min":49,"max":206,"target":"present","response":"present","rt":967.70000001788,"correct":true,"confidence":5},{"trial_n":57,"min":49,"max":206,"target":"absent","response":"absent","rt":875.90000000596,"correct":true,"confidence":5},{"trial_n":58,"min":50,"max":205,"target":"present","response":"present","rt":766.40000000596,"correct":true,"confidence":5},{"trial_n":59,"min":50,"max":205,"target":"present","response":"present","rt":800.30000001192,"correct":true,"confidence":5},{"trial_n":60,"min":51,"max":204,"target":"present","response":"present","rt":821.29999998212,"correct":true,"confidence":5},{"trial_n":61,"min":51,"max":204,"target":"present","response":"present","rt":992.10000002384,"correct":true,"confidence":5},{"trial_n":62,"min":52,"max":203,"target":"absent","response":"absent","rt":862,"correct":true,"confidence":5},{"trial_n":63,"min":52,"max":203,"target":"absent","response":"absent","rt":836.09999999404,"correct":true,"confidence":5},{"trial_n":64,"min":53,"max":202,"target":"present","response":"present","rt":933.09999999404,"correct":true,"confidence":5},{"trial_n":65,"min":53,"max":202,"target":"absent","response":"absent","rt":944.20000001788,"correct":true,"confidence":5},{"trial_n":66,"min":54,"max":201,"target":"absent","response":"absent","rt":1089,"correct":true,"confidence":5},{"trial_n":67,"min":54,"max":201,"target":"present","response":"present","rt":938.90000000596,"correct":true,"confidence":5},{"trial_n":68,"min":55,"max":200,"target":"present","response":"present","rt":1180.7000000179,"correct":true,"confidence":5},{"trial_n":69,"min":55,"max":200,"target":"present","response":"present","rt":1057.599999994,"correct":true,"confidence":5},{"trial_n":70,"min":56,"max":199,"target":"present","response":"absent","rt":777.80000001192,"correct":false,"confidence":5},{"trial_n":71,"min":41,"max":214,"target":"present","response":"absent","rt":4018.099999994,"correct":false,"confidence":-1},{"trial_n":72,"min":41,"max":214,"target":"present","response":"present","rt":1128.900000006,"correct":true,"confidence":-1},{"trial_n":73,"min":41,"max":214,"target":"absent","response":"absent","rt":1071.8000000119,"correct":true,"confidence":-1},{"trial_n":74,"min":57,"max":198,"target":"absent","response":"absent","rt":1114.5,"correct":true,"confidence":-1},{"trial_n":75,"min":57,"max":198,"target":"present","response":"present","rt":1044.6999999881,"correct":true,"confidence":-1},{"trial_n":76,"min":73,"max":182,"target":"present","response":"absent","rt":1045.3000000119,"correct":false,"confidence":-1},{"trial_n":77,"min":57,"max":198,"target":"present","response":"present","rt":813.19999998808,"correct":true,"confidence":-1},{"trial_n":78,"min":57,"max":198,"target":"present","response":"present","rt":940.40000000596,"correct":true,"confidence":-1},{"trial_n":79,"min":73,"max":182,"target":"absent","response":"absent","rt":1669.1999999881,"correct":true,"confidence":-1},{"trial_n":80,"min":73,"max":182,"target":"present","response":"present","rt":1220.099999994,"correct":true,"confidence":-1},{"trial_n":81,"min":81,"max":174,"target":"present","response":"present","rt":2248.7999999821,"correct":true,"confidence":-1},{"trial_n":82,"min":81,"max":174,"target":"absent","response":"absent","rt":1336,"correct":true,"confidence":-1},{"trial_n":83,"min":89,"max":166,"target":"absent","response":"absent","rt":729.10000002384,"correct":true,"confidence":-1},{"trial_n":84,"min":89,"max":166,"target":"absent","response":"absent","rt":770,"correct":true,"confidence":-1},{"trial_n":85,"min":97,"max":158,"target":"present","response":"absent","rt":1502.1999999881,"correct":false,"confidence":-1},{"trial_n":86,"min":89,"max":166,"target":"absent","response":"present","rt":1211.900000006,"correct":false,"confidence":-1},{"trial_n":87,"min":81,"max":174,"target":"absent","response":"present","rt":989.79999998212,"correct":false,"confidence":-1},{"trial_n":88,"min":73,"max":182,"target":"absent","response":"absent","rt":1107.3000000119,"correct":true,"confidence":-1},{"trial_n":89,"min":73,"max":182,"target":"present","response":"present","rt":884.39999997616,"correct":true,"confidence":-1},{"trial_n":90,"min":81,"max":174,"target":"present","response":"present","rt":832.29999998212,"correct":true,"confidence":-1},{"trial_n":91,"min":81,"max":174,"target":"present","response":"present","rt":851.30000001192,"correct":true,"confidence":5},{"trial_n":92,"min":85,"max":170,"target":"present","response":"present","rt":709.69999998808,"correct":true,"confidence":5},{"trial_n":93,"min":85,"max":170,"target":"absent","response":"absent","rt":2995.599999994,"correct":true,"confidence":3},{"trial_n":94,"min":89,"max":166,"target":"absent","response":"absent","rt":2527.3000000119,"correct":true,"confidence":2},{"trial_n":95,"min":89,"max":166,"target":"present","response":"present","rt":1194.1999999881,"correct":true,"confidence":5},{"trial_n":96,"min":93,"max":162,"target":"absent","response":"absent","rt":2093.3000000119,"correct":true,"confidence":2},{"trial_n":97,"min":93,"max":162,"target":"absent","response":"present","rt":781.30000001192,"correct":false,"confidence":4},{"trial_n":98,"min":89,"max":166,"target":"present","response":"present","rt":1876.099999994,"correct":true,"confidence":2},{"trial_n":99,"min":89,"max":166,"target":"absent","response":"absent","rt":2662.900000006,"correct":true,"confidence":2},{"trial_n":100,"min":93,"max":162,"target":"absent","response":"present","rt":1393.5,"correct":false,"confidence":2},{"trial_n":101,"min":91,"max":164,"target":"present","response":"present","rt":905.30000001192,"correct":true,"confidence":5},{"trial_n":102,"min":91,"max":164,"target":"present","response":"present","rt":762.69999998808,"correct":true,"confidence":5},{"trial_n":103,"min":93,"max":162,"target":"present","response":"present","rt":1277.1000000238,"correct":true,"confidence":5},{"trial_n":104,"min":93,"max":162,"target":"absent","response":"absent","rt":2998.599999994,"correct":true,"confidence":3},{"trial_n":105,"min":95,"max":160,"target":"present","response":"absent","rt":2573.2999999821,"correct":false,"confidence":3},{"trial_n":106,"min":93,"max":162,"target":"absent","response":"absent","rt":2416.2999999821,"correct":true,"confidence":2},{"trial_n":107,"min":93,"max":162,"target":"present","response":"present","rt":839.59999999404,"correct":true,"confidence":4},{"trial_n":108,"min":95,"max":160,"target":"present","response":"present","rt":780.80000001192,"correct":true,"confidence":5},{"trial_n":109,"min":95,"max":160,"target":"absent","response":"present","rt":1692.6999999881,"correct":false,"confidence":3},{"trial_n":110,"min":93,"max":162,"target":"absent","response":"present","rt":1569.400000006,"correct":false,"confidence":2},{"trial_n":111,"min":92,"max":163,"target":"absent","response":"absent","rt":2089.099999994,"correct":true,"confidence":2},{"trial_n":112,"min":92,"max":163,"target":"absent","response":"absent","rt":1327.599999994,"correct":true,"confidence":5},{"trial_n":113,"min":93,"max":162,"target":"absent","response":"present","rt":1580.2999999821,"correct":false,"confidence":4},{"trial_n":114,"min":92,"max":163,"target":"present","response":"present","rt":1361.400000006,"correct":true,"confidence":4},{"trial_n":115,"min":92,"max":163,"target":"absent","response":"present","rt":829.30000001192,"correct":false,"confidence":5},{"trial_n":116,"min":91,"max":164,"target":"present","response":"present","rt":1120.400000006,"correct":true,"confidence":3},{"trial_n":117,"min":91,"max":164,"target":"present","response":"present","rt":1162.6999999881,"correct":true,"confidence":5},{"trial_n":118,"min":92,"max":163,"target":"absent","response":"absent","rt":1565.2999999821,"correct":true,"confidence":5},{"trial_n":119,"min":92,"max":163,"target":"present","response":"absent","rt":1212.099999994,"correct":false,"confidence":3},{"trial_n":120,"min":91,"max":164,"target":"present","response":"present","rt":933.70000001788,"correct":true,"confidence":5},{"trial_n":121,"min":91,"max":164,"target":"absent","response":"present","rt":1295.599999994,"correct":false,"confidence":3},{"trial_n":122,"min":90,"max":165,"target":"absent","response":"absent","rt":1098.3000000119,"correct":true,"confidence":5},{"trial_n":123,"min":90,"max":165,"target":"present","response":"present","rt":1778.400000006,"correct":true,"confidence":2},{"trial_n":124,"min":91,"max":164,"target":"absent","response":"present","rt":875.59999999404,"correct":false,"confidence":5},{"trial_n":125,"min":90,"max":165,"target":"present","response":"absent","rt":1441.400000006,"correct":false,"confidence":4},{"trial_n":126,"min":89,"max":166,"target":"absent","response":"present","rt":966.40000000596,"correct":false,"confidence":4},{"trial_n":127,"min":88,"max":167,"target":"absent","response":"absent","rt":1250.2999999821,"correct":true,"confidence":4},{"trial_n":128,"min":88,"max":167,"target":"absent","response":"absent","rt":833.90000000596,"correct":true,"confidence":5},{"trial_n":129,"min":89,"max":166,"target":"present","response":"absent","rt":4010.8999999762,"correct":false,"confidence":3},{"trial_n":130,"min":88,"max":167,"target":"present","response":"absent","rt":1165.400000006,"correct":false,"confidence":3},{"trial_n":131,"min":87,"max":168,"target":"present","response":"present","rt":1010.6999999881,"correct":true,"confidence":4},{"trial_n":132,"min":87,"max":168,"target":"present","response":"present","rt":892.30000001192,"correct":true,"confidence":4},{"trial_n":133,"min":88,"max":167,"target":"present","response":"present","rt":1226.5,"correct":true,"confidence":4},{"trial_n":134,"min":88,"max":167,"target":"present","response":"present","rt":988.10000002384,"correct":true,"confidence":4},{"trial_n":135,"min":89,"max":166,"target":"absent","response":"present","rt":890.40000000596,"correct":false,"confidence":4},{"trial_n":136,"min":88,"max":167,"target":"present","response":"present","rt":1186.5,"correct":true,"confidence":2},{"trial_n":137,"min":88,"max":167,"target":"absent","response":"absent","rt":1462.3000000119,"correct":true,"confidence":2},{"trial_n":138,"min":89,"max":166,"target":"absent","response":"present","rt":921.60000002384,"correct":false,"confidence":2},{"trial_n":139,"min":88,"max":167,"target":"absent","response":"absent","rt":1507.5,"correct":true,"confidence":2},{"trial_n":140,"min":88,"max":167,"target":"present","response":"present","rt":1119.5,"correct":true,"confidence":2}]