[{"trial_n":1,"span":8,"encoder":"21746962","distractor":"31746962","target":"present","response":"absent","rt":"8883.6000000015","correct":false,"confidence":-1},{"trial_n":2,"span":6,"encoder":"929011","distractor":"989011","target":"present","response":"present","rt":"2613.6999999993","correct":true,"confidence":-1},{"trial_n":3,"span":6,"encoder":"607537","distractor":"607536","target":"absent","response":"absent","rt":"1709","correct":true,"confidence":-1},{"trial_n":4,"span":8,"encoder":"40172127","distractor":"40172027","target":"absent","response":"absent","rt":"1843.1000000015","correct":true,"confidence":-1},{"trial_n":5,"span":8,"encoder":"08486534","distractor":"02486534","target":"present","response":"present","rt":"2452.799999997","correct":true,"confidence":-1},{"trial_n":6,"span":10,"encoder":"2565021909","distractor":"2265021909","target":"present","response":"absent","rt":"1131.6999999993","correct":false,"confidence":-1},{"trial_n":7,"span":8,"encoder":"74839731","distractor":"74839734","target":"present","response":"present","rt":"2531.3999999985","correct":true,"confidence":-1},{"trial_n":8,"span":8,"encoder":"37540607","distractor":"37540601","target":"absent","response":"absent","rt":"1073.8000000007","correct":true,"confidence":-1},{"trial_n":9,"span":10,"encoder":"9273904730","distractor":"9273944730","target":"absent","response":"present","rt":"1618.1999999993","correct":false,"confidence":-1},{"trial_n":10,"span":8,"encoder":"51767658","distractor":"56767658","target":"absent","response":"absent","rt":"3845.1000000015","correct":true,"confidence":-1},{"trial_n":11,"span":8,"encoder":"30101748","distractor":"30105748","target":"present","response":"present","rt":"996.69999999925","correct":true,"confidence":-1},{"trial_n":12,"span":9,"encoder":"603382698","distractor":"603387698","target":"absent","response":"present","rt":"1624","correct":false,"confidence":-1},{"trial_n":13,"span":8,"encoder":"96196454","distractor":"96116454","target":"present","response":"present","rt":"2620.0999999978","correct":true,"confidence":-1},{"trial_n":14,"span":8,"encoder":"86468957","distractor":"76468957","target":"absent","response":"absent","rt":"1524.6000000015","correct":true,"confidence":-1},{"trial_n":15,"span":9,"encoder":"982376434","distractor":"982376634","target":"present","response":"present","rt":"1373.4000000022","correct":true,"confidence":-1},{"trial_n":16,"span":9,"encoder":"198788685","distractor":"194788685","target":"absent","response":"present","rt":"1200.299999997","correct":false,"confidence":-1},{"trial_n":17,"span":8,"encoder":"01573603","distractor":"07573603","target":"absent","response":"absent","rt":"623.69999999925","correct":true,"confidence":-1},{"trial_n":18,"span":8,"encoder":"41885252","distractor":"41885352","target":"present","response":"present","rt":"649.30000000075","correct":true,"confidence":-1},{"trial_n":19,"span":9,"encoder":"891750552","distractor":"891750652","target":"present","response":"absent","rt":"1677","correct":false,"confidence":-1},{"trial_n":20,"span":8,"encoder":"12876553","distractor":"12876253","target":"present","response":"present","rt":"2320.3999999985","correct":true,"confidence":-1},{"trial_n":21,"span":8,"encoder":"20387645","distractor":"20387642","target":"absent","response":"absent","rt":"2302.799999997","correct":true,"confidence":2},{"trial_n":22,"span":9,"encoder":"648991694","distractor":"640991694","target":"absent","response":"present","rt":"3690.5","correct":false,"confidence":2},{"trial_n":23,"span":8,"encoder":"27368257","distractor":"27368557","target":"absent","response":"absent","rt":"2960.3000000007","correct":true,"confidence":3},{"trial_n":24,"span":8,"encoder":"50843285","distractor":"50843685","target":"present","response":"present","rt":"2395.8999999985","correct":true,"confidence":3},{"trial_n":25,"span":9,"encoder":"690424591","distractor":"690924591","target":"present","response":"present","rt":"2962.3999999985","correct":true,"confidence":3},{"trial_n":26,"span":9,"encoder":"208326621","distractor":"208396621","target":"present","response":"present","rt":"3544.5","correct":true,"confidence":2},{"trial_n":27,"span":10,"encoder":"9753247159","distractor":"9793247159","target":"absent","response":"absent","rt":"2793.3999999985","correct":true,"confidence":3},{"trial_n":28,"span":10,"encoder":"5492402451","distractor":"9492402451","target":"present","response":"present","rt":"3019.0999999978","correct":true,"confidence":2},{"trial_n":29,"span":11,"encoder":"76590578583","distractor":"76592578583","target":"absent","response":"absent","rt":"2245.5","correct":true,"confidence":3},{"trial_n":30,"span":11,"encoder":"58038572071","distractor":"98038572071","target":"absent","response":"absent","rt":"1682","correct":true,"confidence":3},{"trial_n":31,"span":12,"encoder":"810364151457","distractor":"810364151257","target":"present","response":"present","rt":"2461.3999999985","correct":true,"confidence":2},{"trial_n":32,"span":12,"encoder":"253135577916","distractor":"233135577916","target":"absent","response":"absent","rt":"1597.8000000007","correct":true,"confidence":2},{"trial_n":33,"span":13,"encoder":"0403232853266","distractor":"0403232853066","target":"present","response":"absent","rt":"2542.0999999978","correct":false,"confidence":2},{"trial_n":34,"span":12,"encoder":"175932095133","distractor":"175932095433","target":"present","response":"absent","rt":"3240.3999999985","correct":false,"confidence":3},{"trial_n":35,"span":11,"encoder":"58472110623","distractor":"58472810623","target":"absent","response":"present","rt":"3332.0999999978","correct":false,"confidence":3},{"trial_n":36,"span":10,"encoder":"7045201376","distractor":"7045200376","target":"absent","response":"present","rt":"2180.799999997","correct":false,"confidence":4},{"trial_n":37,"span":9,"encoder":"543817855","distractor":"542817855","target":"present","response":"absent","rt":"988.80000000075","correct":false,"confidence":2},{"trial_n":38,"span":8,"encoder":"56162743","distractor":"56167743","target":"present","response":"present","rt":"7159.8999999985","correct":true,"confidence":2},{"trial_n":39,"span":8,"encoder":"25732158","distractor":"25762158","target":"absent","response":"absent","rt":"2181.1000000015","correct":true,"confidence":5},{"trial_n":40,"span":9,"encoder":"361201756","distractor":"366201756","target":"absent","response":"absent","rt":"2189.3999999985","correct":true,"confidence":1},{"trial_n":41,"span":9,"encoder":"550623528","distractor":"350623528","target":"absent","response":"absent","rt":"3373","correct":true,"confidence":3},{"trial_n":42,"span":10,"encoder":"9447949827","distractor":"9447943827","target":"absent","response":"absent","rt":"2622.1999999993","correct":true,"confidence":4},{"trial_n":43,"span":10,"encoder":"9189738233","distractor":"9189735233","target":"absent","response":"absent","rt":"1855.1999999993","correct":true,"confidence":4},{"trial_n":44,"span":11,"encoder":"28613848505","distractor":"28613848005","target":"absent","response":"absent","rt":"1646.8000000007","correct":true,"confidence":4},{"trial_n":45,"span":11,"encoder":"90739915785","distractor":"40739915785","target":"absent","response":"present","rt":"2597.4000000022","correct":false,"confidence":2},{"trial_n":46,"span":10,"encoder":"2433493583","distractor":"2403493583","target":"absent","response":"absent","rt":"3156.799999997","correct":true,"confidence":3},{"trial_n":47,"span":10,"encoder":"1529797800","distractor":"1529797880","target":"present","response":"present","rt":"7834.0999999978","correct":true,"confidence":4},{"trial_n":48,"span":11,"encoder":"14875435936","distractor":"14875433936","target":"present","response":"absent","rt":"3208.8000000007","correct":false,"confidence":2},{"trial_n":49,"span":10,"encoder":"2464422920","distractor":"2464412920","target":"absent","response":"absent","rt":"1751.0999999978","correct":true,"confidence":1},{"trial_n":50,"span":10,"encoder":"8799628767","distractor":"8799623767","target":"absent","response":"absent","rt":"2106.6999999993","correct":true,"confidence":2},{"trial_n":51,"span":11,"encoder":"78945552089","distractor":"78940552089","target":"absent","response":"absent","rt":"2718.1000000015","correct":true,"confidence":3},{"trial_n":52,"span":11,"encoder":"65565750156","distractor":"65565750153","target":"present","response":"present","rt":"2135.799999997","correct":true,"confidence":4},{"trial_n":53,"span":12,"encoder":"362642768633","distractor":"362642768733","target":"present","response":"present","rt":"2093.9000000022","correct":true,"confidence":2},{"trial_n":54,"span":12,"encoder":"947874286935","distractor":"947674286935","target":"present","response":"present","rt":"4406.6000000015","correct":true,"confidence":5},{"trial_n":55,"span":13,"encoder":"8913652007904","distractor":"7913652007904","target":"present","response":"present","rt":"2669.8000000007","correct":true,"confidence":3},{"trial_n":56,"span":13,"encoder":"8797878199674","distractor":"8792878199674","target":"absent","response":"absent","rt":"1594.6000000015","correct":true,"confidence":2},{"trial_n":57,"span":14,"encoder":"79908897671958","distractor":"74908897671958","target":"absent","response":"present","rt":"5543.6000000015","correct":false,"confidence":3},{"trial_n":58,"span":13,"encoder":"7435545358981","distractor":"7435545358901","target":"present","response":"present","rt":"5072.9000000022","correct":true,"confidence":4},{"trial_n":59,"span":13,"encoder":"6283466123123","distractor":"6283466153123","target":"absent","response":"absent","rt":"1855.3999999985","correct":true,"confidence":2},{"trial_n":60,"span":14,"encoder":"39694087310214","distractor":"39694087110214","target":"absent","response":"absent","rt":"1518.700000003","correct":true,"confidence":2},{"trial_n":61,"span":14,"encoder":"83861907722087","distractor":"83861907722083","target":"present","response":"absent","rt":"3500.3000000007","correct":false,"confidence":1},{"trial_n":62,"span":13,"encoder":"8303935513848","distractor":"8301935513848","target":"present","response":"present","rt":"2518.5","correct":true,"confidence":3},{"trial_n":63,"span":13,"encoder":"8451295000882","distractor":"8451295000884","target":"present","response":"present","rt":"2209.6000000015","correct":true,"confidence":3},{"trial_n":64,"span":14,"encoder":"65883847481690","distractor":"65883857481690","target":"present","response":"absent","rt":"3478.8999999985","correct":false,"confidence":2},{"trial_n":65,"span":13,"encoder":"1498477875058","distractor":"1498477875048","target":"present","response":"present","rt":"3164.3999999985","correct":true,"confidence":4},{"trial_n":66,"span":13,"encoder":"7133933695508","distractor":"7133939695508","target":"present","response":"present","rt":"2014.5","correct":true,"confidence":3},{"trial_n":67,"span":14,"encoder":"31045117170639","distractor":"31045117070639","target":"present","response":"present","rt":"2648.3000000007","correct":true,"confidence":2},{"trial_n":68,"span":14,"encoder":"10570935400705","distractor":"10570935400706","target":"present","response":"absent","rt":"1806.6999999993","correct":false,"confidence":2},{"trial_n":69,"span":13,"encoder":"9070246568829","distractor":"9470246568829","target":"absent","response":"present","rt":"2529.700000003","correct":false,"confidence":2},{"trial_n":70,"span":12,"encoder":"739857171292","distractor":"739857171192","target":"present","response":"absent","rt":"4771.1999999993","correct":false,"confidence":2},{"trial_n":71,"span":8,"encoder":"63447953","distractor":"67447953","target":"present","response":"absent","rt":"6663.6000000015","correct":false,"confidence":-1},{"trial_n":72,"span":7,"encoder":"4729898","distractor":"4729198","target":"present","response":"present","rt":"4418.5","correct":true,"confidence":-1},{"trial_n":73,"span":7,"encoder":"1891542","distractor":"1891942","target":"absent","response":"absent","rt":"3736.6999999993","correct":true,"confidence":-1},{"trial_n":74,"span":8,"encoder":"24685951","distractor":"24685151","target":"absent","response":"absent","rt":"3016.3999999985","correct":true,"confidence":-1},{"trial_n":75,"span":8,"encoder":"77040453","distractor":"75040453","target":"present","response":"present","rt":"5930.5999999978","correct":true,"confidence":-1},{"trial_n":76,"span":9,"encoder":"242228496","distractor":"232228496","target":"present","response":"present","rt":"2837.5999999978","correct":true,"confidence":-1},{"trial_n":77,"span":9,"encoder":"247677757","distractor":"247677752","target":"absent","response":"present","rt":"5317.8000000007","correct":false,"confidence":-1},{"trial_n":78,"span":8,"encoder":"47591285","distractor":"45591285","target":"present","response":"present","rt":"3351","correct":true,"confidence":-1},{"trial_n":79,"span":8,"encoder":"74640224","distractor":"74640229","target":"absent","response":"absent","rt":"3193.4000000022","correct":true,"confidence":-1},{"trial_n":80,"span":9,"encoder":"635629721","distractor":"635669721","target":"present","response":"absent","rt":"1279.1000000015","correct":false,"confidence":-1},{"trial_n":81,"span":8,"encoder":"55610940","distractor":"55614940","target":"absent","response":"absent","rt":"1735.3000000007","correct":true,"confidence":-1},{"trial_n":82,"span":8,"encoder":"86737686","distractor":"86737586","target":"present","response":"present","rt":"1279.6999999993","correct":true,"confidence":-1},{"trial_n":83,"span":9,"encoder":"407845597","distractor":"497845597","target":"absent","response":"absent","rt":"1317.1999999993","correct":true,"confidence":-1},{"trial_n":84,"span":9,"encoder":"267673670","distractor":"267673660","target":"present","response":"absent","rt":"847.10000000149","correct":false,"confidence":-1},{"trial_n":85,"span":8,"encoder":"44039511","distractor":"44099511","target":"absent","response":"present","rt":"1092.6999999993","correct":false,"confidence":-1},{"trial_n":86,"span":7,"encoder":"7962258","distractor":"7962257","target":"absent","response":"absent","rt":"2175.8999999985","correct":true,"confidence":-1},{"trial_n":87,"span":7,"encoder":"5217097","distractor":"5207097","target":"present","response":"present","rt":"2237.0999999978","correct":true,"confidence":-1},{"trial_n":88,"span":8,"encoder":"55568826","distractor":"55568886","target":"absent","response":"absent","rt":"3637.799999997","correct":true,"confidence":-1},{"trial_n":89,"span":8,"encoder":"81661537","distractor":"81631537","target":"present","response":"present","rt":"3073.6999999993","correct":true,"confidence":-1},{"trial_n":90,"span":9,"encoder":"015911702","distractor":"015913702","target":"present","response":"present","rt":"3431.5","correct":true,"confidence":-1},{"trial_n":91,"span":9,"encoder":"984513334","distractor":"284513334","target":"absent","response":"absent","rt":"1377.8000000007","correct":true,"confidence":2},{"trial_n":92,"span":10,"encoder":"1092443382","distractor":"1492443382","target":"present","response":"present","rt":"969.40000000224","correct":true,"confidence":2},{"trial_n":93,"span":10,"encoder":"7724371925","distractor":"7764371925","target":"present","response":"present","rt":"2745.8000000007","correct":true,"confidence":4},{"trial_n":94,"span":11,"encoder":"48929249373","distractor":"48929049373","target":"absent","response":"absent","rt":"4186","correct":true,"confidence":4},{"trial_n":95,"span":11,"encoder":"29377957420","distractor":"29377957422","target":"present","response":"present","rt":"5279.8000000007","correct":true,"confidence":3},{"trial_n":96,"span":12,"encoder":"678391608076","distractor":"678396608076","target":"present","response":"present","rt":"5002.8999999985","correct":true,"confidence":4},{"trial_n":97,"span":12,"encoder":"559531638127","distractor":"559931638127","target":"present","response":"present","rt":"4587.8999999985","correct":true,"confidence":3},{"trial_n":98,"span":13,"encoder":"1829809463332","distractor":"1829809443332","target":"absent","response":"absent","rt":"9906.299999997","correct":true,"confidence":3},{"trial_n":99,"span":13,"encoder":"4545605950017","distractor":"4545605930017","target":"absent","response":"absent","rt":"4404.3000000007","correct":true,"confidence":2},{"trial_n":100,"span":14,"encoder":"97360575174723","distractor":"97360575174725","target":"absent","response":"present","rt":"15038.5","correct":false,"confidence":4},{"trial_n":101,"span":13,"encoder":"4020835278535","distractor":"4020838278535","target":"absent","response":"present","rt":"2983.1999999993","correct":false,"confidence":2},{"trial_n":102,"span":12,"encoder":"277081410173","distractor":"277081420173","target":"present","response":"absent","rt":"4451.1999999993","correct":false,"confidence":3},{"trial_n":103,"span":11,"encoder":"25036592680","distractor":"25036592686","target":"absent","response":"absent","rt":"1166.3000000007","correct":true,"confidence":2},{"trial_n":104,"span":11,"encoder":"95316386834","distractor":"95336386834","target":"present","response":"present","rt":"3025.8999999985","correct":true,"confidence":3},{"trial_n":105,"span":12,"encoder":"321264713741","distractor":"321264413741","target":"absent","response":"absent","rt":"4747.4000000022","correct":true,"confidence":4},{"trial_n":106,"span":12,"encoder":"306641185529","distractor":"306648185529","target":"present","response":"absent","rt":"3775.8999999985","correct":false,"confidence":1},{"trial_n":107,"span":11,"encoder":"88931025084","distractor":"88931025054","target":"absent","response":"present","rt":"4818","correct":false,"confidence":2},{"trial_n":108,"span":10,"encoder":"3155091725","distractor":"7155091725","target":"absent","response":"present","rt":"5698.1999999993","correct":false,"confidence":2},{"trial_n":109,"span":9,"encoder":"449782437","distractor":"449782497","target":"absent","response":"present","rt":"5284.3000000007","correct":false,"confidence":4},{"trial_n":110,"span":8,"encoder":"58734962","distractor":"58784962","target":"absent","response":"absent","rt":"2359.5999999978","correct":true,"confidence":5},{"trial_n":111,"span":8,"encoder":"41490153","distractor":"41190153","target":"present","response":"present","rt":"4234.700000003","correct":true,"confidence":5},{"trial_n":112,"span":9,"encoder":"768664933","distractor":"768634933","target":"absent","response":"present","rt":"9102.4000000022","correct":false,"confidence":3},{"trial_n":113,"span":8,"encoder":"19029008","distractor":"19028008","target":"absent","response":"absent","rt":"4234.1000000015","correct":true,"confidence":3},{"trial_n":114,"span":8,"encoder":"26762006","distractor":"26962006","target":"present","response":"present","rt":"2919.1000000015","correct":true,"confidence":5},{"trial_n":115,"span":9,"encoder":"594024558","distractor":"596024558","target":"absent","response":"absent","rt":"2948.3999999985","correct":true,"confidence":5},{"trial_n":116,"span":9,"encoder":"545575794","distractor":"575575794","target":"present","response":"absent","rt":"2953.1000000015","correct":false,"confidence":5},{"trial_n":117,"span":8,"encoder":"93100660","distractor":"93000660","target":"absent","response":"absent","rt":"2594.1000000015","correct":true,"confidence":5},{"trial_n":118,"span":8,"encoder":"23466253","distractor":"24466253","target":"absent","response":"absent","rt":"2388.5999999978","correct":true,"confidence":4},{"trial_n":119,"span":9,"encoder":"014502711","distractor":"014502911","target":"present","response":"present","rt":"4473.6999999993","correct":true,"confidence":4},{"trial_n":120,"span":9,"encoder":"332858841","distractor":"332854841","target":"present","response":"absent","rt":"4241.5","correct":false,"confidence":2},{"trial_n":121,"span":8,"encoder":"58915665","distractor":"58215665","target":"absent","response":"absent","rt":"3497.6999999993","correct":true,"confidence":3},{"trial_n":122,"span":8,"encoder":"76192101","distractor":"75192101","target":"present","response":"present","rt":"3039.5","correct":true,"confidence":4},{"trial_n":123,"span":9,"encoder":"471004165","distractor":"471004195","target":"present","response":"present","rt":"4411.1999999993","correct":true,"confidence":3},{"trial_n":124,"span":9,"encoder":"857589265","distractor":"858589265","target":"absent","response":"absent","rt":"3042","correct":true,"confidence":5},{"trial_n":125,"span":10,"encoder":"5679641304","distractor":"5679641302","target":"absent","response":"absent","rt":"4047.8999999985","correct":true,"confidence":4},{"trial_n":126,"span":10,"encoder":"9952031895","distractor":"9992031895","target":"present","response":"present","rt":"2868.3000000007","correct":true,"confidence":5},{"trial_n":127,"span":11,"encoder":"13207356351","distractor":"53207356351","target":"absent","response":"present","rt":"9811.3000000007","correct":false,"confidence":3},{"trial_n":128,"span":10,"encoder":"5246782903","distractor":"5246582903","target":"present","response":"present","rt":"4701.5","correct":true,"confidence":5},{"trial_n":129,"span":10,"encoder":"3888354411","distractor":"3888356411","target":"present","response":"absent","rt":"3593.3000000007","correct":false,"confidence":2},{"trial_n":130,"span":9,"encoder":"362318707","distractor":"362312707","target":"absent","response":"absent","rt":"4672.1999999993","correct":true,"confidence":2},{"trial_n":131,"span":9,"encoder":"772596969","distractor":"772196969","target":"present","response":"present","rt":"3889","correct":true,"confidence":5},{"trial_n":132,"span":10,"encoder":"5140138216","distractor":"5140138266","target":"absent","response":"absent","rt":"3049.1000000015","correct":true,"confidence":5},{"trial_n":133,"span":10,"encoder":"0915403299","distractor":"0915493299","target":"absent","response":"absent","rt":"7128.8999999985","correct":true,"confidence":2},{"trial_n":134,"span":11,"encoder":"42225577080","distractor":"42221577080","target":"present","response":"present","rt":"4533.6000000015","correct":true,"confidence":5},{"trial_n":135,"span":11,"encoder":"56844269306","distractor":"56844269304","target":"present","response":"present","rt":"4634.1000000015","correct":true,"confidence":2},{"trial_n":136,"span":12,"encoder":"279374877345","distractor":"279374877349","target":"absent","response":"present","rt":"2608.5","correct":false,"confidence":1},{"trial_n":137,"span":11,"encoder":"18712127929","distractor":"18512127929","target":"present","response":"present","rt":"5567.8999999985","correct":true,"confidence":3},{"trial_n":138,"span":11,"encoder":"09549852037","distractor":"09549852237","target":"present","response":"absent","rt":"7071.6000000015","correct":false,"confidence":2},{"trial_n":139,"span":10,"encoder":"9576225397","distractor":"9576225797","target":"present","response":"present","rt":"10388.399999999","correct":true,"confidence":4},{"trial_n":140,"span":10,"encoder":"8309715598","distractor":"8309712598","target":"present","response":"absent","rt":"1058.6999999993","correct":false,"confidence":2}]