[{"trial_n":1,"min":25,"max":230,"target":"present","response":"absent","rt":6711.3000000119,"correct":false,"confidence":-1},{"trial_n":2,"min":25,"max":230,"target":"present","response":"present","rt":2640.8000000119,"correct":true,"confidence":-1},{"trial_n":3,"min":25,"max":230,"target":"absent","response":"present","rt":1540.6000000238,"correct":false,"confidence":-1},{"trial_n":4,"min":9,"max":246,"target":"absent","response":"absent","rt":1278.8000000119,"correct":true,"confidence":-1},{"trial_n":5,"min":9,"max":246,"target":"present","response":"present","rt":1103.8000000119,"correct":true,"confidence":-1},{"trial_n":6,"min":25,"max":230,"target":"absent","response":"absent","rt":760,"correct":true,"confidence":-1},{"trial_n":7,"min":25,"max":230,"target":"absent","response":"absent","rt":715.80000001192,"correct":true,"confidence":-1},{"trial_n":8,"min":41,"max":214,"target":"present","response":"present","rt":1227.8999999762,"correct":true,"confidence":-1},{"trial_n":9,"min":41,"max":214,"target":"present","response":"present","rt":743,"correct":true,"confidence":-1},{"trial_n":10,"min":57,"max":198,"target":"present","response":"present","rt":578.10000002384,"correct":true,"confidence":-1},{"trial_n":11,"min":57,"max":198,"target":"absent","response":"absent","rt":876.29999995232,"correct":true,"confidence":-1},{"trial_n":12,"min":65,"max":190,"target":"present","response":"present","rt":1139,"correct":true,"confidence":-1},{"trial_n":13,"min":65,"max":190,"target":"absent","response":"absent","rt":779.19999998808,"correct":true,"confidence":-1},{"trial_n":14,"min":73,"max":182,"target":"absent","response":"absent","rt":591.5,"correct":true,"confidence":-1},{"trial_n":15,"min":73,"max":182,"target":"absent","response":"absent","rt":492.60000002384,"correct":true,"confidence":-1},{"trial_n":16,"min":81,"max":174,"target":"absent","response":"absent","rt":499.90000003576,"correct":true,"confidence":-1},{"trial_n":17,"min":81,"max":174,"target":"present","response":"absent","rt":204.80000001192,"correct":false,"confidence":-1},{"trial_n":18,"min":73,"max":182,"target":"present","response":"present","rt":1939.8000000119,"correct":true,"confidence":-1},{"trial_n":19,"min":73,"max":182,"target":"present","response":"absent","rt":772.69999998808,"correct":false,"confidence":-1},{"trial_n":20,"min":65,"max":190,"target":"absent","response":"absent","rt":795.79999995232,"correct":true,"confidence":-1},{"trial_n":21,"min":65,"max":190,"target":"present","response":"present","rt":1797.6000000238,"correct":true,"confidence":4},{"trial_n":22,"min":69,"max":186,"target":"absent","response":"absent","rt":1012.5,"correct":true,"confidence":5},{"trial_n":23,"min":69,"max":186,"target":"present","response":"present","rt":808,"correct":true,"confidence":4},{"trial_n":24,"min":73,"max":182,"target":"present","response":"present","rt":902.90000003576,"correct":true,"confidence":4},{"trial_n":25,"min":73,"max":182,"target":"absent","response":"absent","rt":758,"correct":true,"confidence":5},{"trial_n":26,"min":77,"max":178,"target":"absent","response":"absent","rt":1216.3000000119,"correct":true,"confidence":4},{"trial_n":27,"min":77,"max":178,"target":"absent","response":"absent","rt":1111,"correct":true,"confidence":4},{"trial_n":28,"min":81,"max":174,"target":"present","response":"absent","rt":1160.6999999881,"correct":false,"confidence":4},{"trial_n":29,"min":77,"max":178,"target":"absent","response":"absent","rt":726.80000001192,"correct":true,"confidence":3},{"trial_n":30,"min":77,"max":178,"target":"present","response":"present","rt":1010.5999999642,"correct":true,"confidence":2},{"trial_n":31,"min":79,"max":176,"target":"absent","response":"absent","rt":1161.5999999642,"correct":true,"confidence":3},{"trial_n":32,"min":79,"max":176,"target":"present","response":"present","rt":734.39999997616,"correct":true,"confidence":4},{"trial_n":33,"min":81,"max":174,"target":"present","response":"absent","rt":1306.7999999523,"correct":false,"confidence":3},{"trial_n":34,"min":79,"max":176,"target":"absent","response":"absent","rt":1257.6000000238,"correct":true,"confidence":3},{"trial_n":35,"min":79,"max":176,"target":"absent","response":"absent","rt":1322.7000000477,"correct":true,"confidence":3},{"trial_n":36,"min":81,"max":174,"target":"present","response":"present","rt":985.40000003576,"correct":true,"confidence":2},{"trial_n":37,"min":81,"max":174,"target":"present","response":"absent","rt":1589.0999999642,"correct":false,"confidence":2},{"trial_n":38,"min":79,"max":176,"target":"present","response":"present","rt":962.5,"correct":true,"confidence":2},{"trial_n":39,"min":79,"max":176,"target":"present","response":"present","rt":1032.6999999881,"correct":true,"confidence":3},{"trial_n":40,"min":81,"max":174,"target":"present","response":"present","rt":1428.3999999762,"correct":true,"confidence":3},{"trial_n":41,"min":81,"max":174,"target":"present","response":"absent","rt":940,"correct":false,"confidence":3},{"trial_n":42,"min":80,"max":175,"target":"present","response":"present","rt":945.89999997616,"correct":true,"confidence":1},{"trial_n":43,"min":80,"max":175,"target":"absent","response":"absent","rt":1437.8000000119,"correct":true,"confidence":4},{"trial_n":44,"min":81,"max":174,"target":"present","response":"present","rt":753.59999996424,"correct":true,"confidence":3},{"trial_n":45,"min":81,"max":174,"target":"absent","response":"absent","rt":927.09999996424,"correct":true,"confidence":3},{"trial_n":46,"min":82,"max":173,"target":"absent","response":"absent","rt":1869.5,"correct":true,"confidence":1},{"trial_n":47,"min":82,"max":173,"target":"present","response":"present","rt":882.09999996424,"correct":true,"confidence":4},{"trial_n":48,"min":83,"max":172,"target":"present","response":"present","rt":773.29999995232,"correct":true,"confidence":3},{"trial_n":49,"min":83,"max":172,"target":"present","response":"absent","rt":924.80000001192,"correct":false,"confidence":2},{"trial_n":50,"min":82,"max":173,"target":"absent","response":"absent","rt":7270,"correct":true,"confidence":1},{"trial_n":51,"min":82,"max":173,"target":"present","response":"absent","rt":1349.8999999762,"correct":false,"confidence":3},{"trial_n":52,"min":81,"max":174,"target":"present","response":"present","rt":717.40000003576,"correct":true,"confidence":4},{"trial_n":53,"min":81,"max":174,"target":"present","response":"present","rt":955.89999997616,"correct":true,"confidence":4},{"trial_n":54,"min":82,"max":173,"target":"absent","response":"absent","rt":1103.3999999762,"correct":true,"confidence":3},{"trial_n":55,"min":82,"max":173,"target":"absent","response":"absent","rt":780.39999997616,"correct":true,"confidence":3},{"trial_n":56,"min":83,"max":172,"target":"absent","response":"absent","rt":1089,"correct":true,"confidence":3},{"trial_n":57,"min":83,"max":172,"target":"absent","response":"absent","rt":1178.1999999881,"correct":true,"confidence":3},{"trial_n":58,"min":84,"max":171,"target":"absent","response":"absent","rt":1184,"correct":true,"confidence":3},{"trial_n":59,"min":84,"max":171,"target":"absent","response":"absent","rt":715.79999995232,"correct":true,"confidence":3},{"trial_n":60,"min":85,"max":170,"target":"absent","response":"absent","rt":625.60000002384,"correct":true,"confidence":3},{"trial_n":61,"min":85,"max":170,"target":"present","response":"absent","rt":1760.0999999642,"correct":false,"confidence":1},{"trial_n":62,"min":84,"max":171,"target":"absent","response":"absent","rt":830.39999997616,"correct":true,"confidence":2},{"trial_n":63,"min":84,"max":171,"target":"present","response":"present","rt":1159.8999999762,"correct":true,"confidence":3},{"trial_n":64,"min":85,"max":170,"target":"present","response":"present","rt":782,"correct":true,"confidence":4},{"trial_n":65,"min":85,"max":170,"target":"absent","response":"absent","rt":1227.8000000119,"correct":true,"confidence":3},{"trial_n":66,"min":86,"max":169,"target":"absent","response":"present","rt":1527.3000000119,"correct":false,"confidence":2},{"trial_n":67,"min":85,"max":170,"target":"absent","response":"absent","rt":1220.3000000119,"correct":true,"confidence":2},{"trial_n":68,"min":85,"max":170,"target":"absent","response":"absent","rt":1232.6999999881,"correct":true,"confidence":2},{"trial_n":69,"min":86,"max":169,"target":"present","response":"absent","rt":793.19999998808,"correct":false,"confidence":2},{"trial_n":70,"min":85,"max":170,"target":"present","response":"present","rt":1020,"correct":true,"confidence":4},{"trial_n":71,"min":41,"max":214,"target":"present","response":"present","rt":2778.1999999881,"correct":true,"confidence":-1},{"trial_n":72,"min":41,"max":214,"target":"present","response":"present","rt":1673.1000000238,"correct":true,"confidence":-1},{"trial_n":73,"min":57,"max":198,"target":"absent","response":"absent","rt":1068.8999999762,"correct":true,"confidence":-1},{"trial_n":74,"min":57,"max":198,"target":"absent","response":"absent","rt":1229.4000000358,"correct":true,"confidence":-1},{"trial_n":75,"min":73,"max":182,"target":"present","response":"present","rt":1507,"correct":true,"confidence":-1},{"trial_n":76,"min":73,"max":182,"target":"present","response":"present","rt":725.39999997616,"correct":true,"confidence":-1},{"trial_n":77,"min":89,"max":166,"target":"absent","response":"absent","rt":1469.4000000358,"correct":true,"confidence":-1},{"trial_n":78,"min":89,"max":166,"target":"present","response":"absent","rt":710.90000003576,"correct":false,"confidence":-1},{"trial_n":79,"min":73,"max":182,"target":"present","response":"present","rt":844.69999998808,"correct":true,"confidence":-1},{"trial_n":80,"min":73,"max":182,"target":"present","response":"present","rt":757.69999998808,"correct":true,"confidence":-1},{"trial_n":81,"min":81,"max":174,"target":"absent","response":"absent","rt":636.80000001192,"correct":true,"confidence":-1},{"trial_n":82,"min":81,"max":174,"target":"present","response":"present","rt":1354.5,"correct":true,"confidence":-1},{"trial_n":83,"min":89,"max":166,"target":"absent","response":"absent","rt":714.5,"correct":true,"confidence":-1},{"trial_n":84,"min":89,"max":166,"target":"absent","response":"absent","rt":695.10000002384,"correct":true,"confidence":-1},{"trial_n":85,"min":97,"max":158,"target":"present","response":"absent","rt":705.19999998808,"correct":false,"confidence":-1},{"trial_n":86,"min":89,"max":166,"target":"absent","response":"present","rt":1022.5,"correct":false,"confidence":-1},{"trial_n":87,"min":81,"max":174,"target":"absent","response":"present","rt":1064.5,"correct":false,"confidence":-1},{"trial_n":88,"min":73,"max":182,"target":"absent","response":"absent","rt":1604.8000000119,"correct":true,"confidence":-1},{"trial_n":89,"min":73,"max":182,"target":"absent","response":"absent","rt":1268.1999999881,"correct":true,"confidence":-1},{"trial_n":90,"min":81,"max":174,"target":"absent","response":"absent","rt":473.09999996424,"correct":true,"confidence":-1},{"trial_n":91,"min":81,"max":174,"target":"absent","response":"absent","rt":673.5,"correct":true,"confidence":3},{"trial_n":92,"min":85,"max":170,"target":"present","response":"absent","rt":1735.3999999762,"correct":false,"confidence":1},{"trial_n":93,"min":81,"max":174,"target":"absent","response":"absent","rt":960.89999997616,"correct":true,"confidence":4},{"trial_n":94,"min":81,"max":174,"target":"present","response":"present","rt":1089.3999999762,"correct":true,"confidence":4},{"trial_n":95,"min":85,"max":170,"target":"present","response":"present","rt":1111.5,"correct":true,"confidence":5},{"trial_n":96,"min":85,"max":170,"target":"present","response":"present","rt":1364,"correct":true,"confidence":3},{"trial_n":97,"min":89,"max":166,"target":"present","response":"present","rt":1095.2000000477,"correct":true,"confidence":3},{"trial_n":98,"min":89,"max":166,"target":"absent","response":"absent","rt":1273.2999999523,"correct":true,"confidence":3},{"trial_n":99,"min":93,"max":162,"target":"absent","response":"present","rt":1179.8000000119,"correct":false,"confidence":1},{"trial_n":100,"min":89,"max":166,"target":"absent","response":"absent","rt":1213,"correct":true,"confidence":1},{"trial_n":101,"min":89,"max":166,"target":"absent","response":"present","rt":779.5,"correct":false,"confidence":3},{"trial_n":102,"min":87,"max":168,"target":"absent","response":"present","rt":801.30000001192,"correct":false,"confidence":2},{"trial_n":103,"min":85,"max":170,"target":"present","response":"absent","rt":610.5,"correct":false,"confidence":4},{"trial_n":104,"min":83,"max":172,"target":"present","response":"present","rt":944.5,"correct":true,"confidence":1},{"trial_n":105,"min":83,"max":172,"target":"present","response":"present","rt":678.5,"correct":true,"confidence":5},{"trial_n":106,"min":85,"max":170,"target":"absent","response":"absent","rt":953.20000004768,"correct":true,"confidence":4},{"trial_n":107,"min":85,"max":170,"target":"present","response":"present","rt":981.80000001192,"correct":true,"confidence":4},{"trial_n":108,"min":87,"max":168,"target":"present","response":"absent","rt":683.10000002384,"correct":false,"confidence":1},{"trial_n":109,"min":85,"max":170,"target":"present","response":"present","rt":821,"correct":true,"confidence":2},{"trial_n":110,"min":85,"max":170,"target":"present","response":"present","rt":1278.8999999762,"correct":true,"confidence":3},{"trial_n":111,"min":86,"max":169,"target":"present","response":"absent","rt":1065.3000000119,"correct":false,"confidence":3},{"trial_n":112,"min":85,"max":170,"target":"absent","response":"absent","rt":1407.8000000119,"correct":true,"confidence":4},{"trial_n":113,"min":85,"max":170,"target":"present","response":"present","rt":968.5,"correct":true,"confidence":1},{"trial_n":114,"min":86,"max":169,"target":"present","response":"absent","rt":1422.5999999642,"correct":false,"confidence":1},{"trial_n":115,"min":85,"max":170,"target":"present","response":"present","rt":802.60000002384,"correct":true,"confidence":2},{"trial_n":116,"min":85,"max":170,"target":"present","response":"present","rt":744.80000001192,"correct":true,"confidence":4},{"trial_n":117,"min":86,"max":169,"target":"absent","response":"absent","rt":830.10000002384,"correct":true,"confidence":3},{"trial_n":118,"min":86,"max":169,"target":"absent","response":"present","rt":924,"correct":false,"confidence":2},{"trial_n":119,"min":85,"max":170,"target":"absent","response":"absent","rt":1353.1000000238,"correct":true,"confidence":4},{"trial_n":120,"min":85,"max":170,"target":"present","response":"absent","rt":1563.8000000119,"correct":false,"confidence":1},{"trial_n":121,"min":84,"max":171,"target":"absent","response":"present","rt":794.5,"correct":false,"confidence":3},{"trial_n":122,"min":83,"max":172,"target":"present","response":"absent","rt":1143.3999999762,"correct":false,"confidence":2},{"trial_n":123,"min":82,"max":173,"target":"absent","response":"absent","rt":894.5,"correct":true,"confidence":4},{"trial_n":124,"min":82,"max":173,"target":"present","response":"absent","rt":1213.6000000238,"correct":false,"confidence":3},{"trial_n":125,"min":81,"max":174,"target":"present","response":"present","rt":993.69999998808,"correct":true,"confidence":5},{"trial_n":126,"min":81,"max":174,"target":"present","response":"present","rt":866.79999995232,"correct":true,"confidence":2},{"trial_n":127,"min":82,"max":173,"target":"absent","response":"absent","rt":837.60000002384,"correct":true,"confidence":1},{"trial_n":128,"min":82,"max":173,"target":"present","response":"present","rt":626.39999997616,"correct":true,"confidence":5},{"trial_n":129,"min":83,"max":172,"target":"present","response":"present","rt":682.09999996424,"correct":true,"confidence":4},{"trial_n":130,"min":83,"max":172,"target":"absent","response":"absent","rt":803.30000001192,"correct":true,"confidence":1},{"trial_n":131,"min":84,"max":171,"target":"present","response":"present","rt":670.10000002384,"correct":true,"confidence":5},{"trial_n":132,"min":84,"max":171,"target":"absent","response":"absent","rt":1488.9000000358,"correct":true,"confidence":4},{"trial_n":133,"min":85,"max":170,"target":"absent","response":"absent","rt":787.69999998808,"correct":true,"confidence":3},{"trial_n":134,"min":85,"max":170,"target":"absent","response":"absent","rt":927.19999998808,"correct":true,"confidence":1},{"trial_n":135,"min":86,"max":169,"target":"absent","response":"absent","rt":797.69999998808,"correct":true,"confidence":1},{"trial_n":136,"min":86,"max":169,"target":"absent","response":"absent","rt":838.30000001192,"correct":true,"confidence":1},{"trial_n":137,"min":87,"max":168,"target":"present","response":"present","rt":754.5,"correct":true,"confidence":2},{"trial_n":138,"min":87,"max":168,"target":"present","response":"present","rt":1208.5999999642,"correct":true,"confidence":3},{"trial_n":139,"min":88,"max":167,"target":"absent","response":"absent","rt":831,"correct":true,"confidence":1},{"trial_n":140,"min":88,"max":167,"target":"absent","response":"present","rt":825.5,"correct":false,"confidence":1}]