[{"trial_n":1,"span":8,"encoder":"45320847","distractor":"49320847","target":"present","response":"absent","rt":"8135.299999997","correct":false,"confidence":-1},{"trial_n":2,"span":6,"encoder":"941573","distractor":"941570","target":"present","response":"present","rt":"2636.200000003","correct":true,"confidence":-1},{"trial_n":3,"span":6,"encoder":"535680","distractor":"535684","target":"absent","response":"absent","rt":"1921.200000003","correct":true,"confidence":-1},{"trial_n":4,"span":8,"encoder":"13503304","distractor":"13503305","target":"absent","response":"absent","rt":"3189.3999999911","correct":true,"confidence":-1},{"trial_n":5,"span":8,"encoder":"18423837","distractor":"18493837","target":"present","response":"present","rt":"3005.799999997","correct":true,"confidence":-1},{"trial_n":6,"span":10,"encoder":"9213716308","distractor":"9213716300","target":"absent","response":"absent","rt":"4168.599999994","correct":true,"confidence":-1},{"trial_n":7,"span":10,"encoder":"8497809952","distractor":"8497869952","target":"absent","response":"absent","rt":"5000.299999997","correct":true,"confidence":-1},{"trial_n":8,"span":12,"encoder":"998745519814","distractor":"998745419814","target":"absent","response":"absent","rt":"4681.6000000089","correct":true,"confidence":-1},{"trial_n":9,"span":12,"encoder":"658023386390","distractor":"658023386360","target":"absent","response":"absent","rt":"10836.599999994","correct":true,"confidence":-1},{"trial_n":10,"span":14,"encoder":"04334135857215","distractor":"04334135857115","target":"present","response":"present","rt":"2302.400000006","correct":true,"confidence":-1},{"trial_n":11,"span":14,"encoder":"41724216258168","distractor":"41724116258168","target":"present","response":"absent","rt":"4307.200000003","correct":false,"confidence":-1},{"trial_n":12,"span":13,"encoder":"9708540318528","distractor":"9798540318528","target":"absent","response":"absent","rt":"1774.799999997","correct":true,"confidence":-1},{"trial_n":13,"span":13,"encoder":"7548074595224","distractor":"7548074595264","target":"present","response":"absent","rt":"62197.299999997","correct":false,"confidence":-1},{"trial_n":14,"span":12,"encoder":"889223217669","distractor":"489223217669","target":"absent","response":"absent","rt":"2059.8000000119","correct":true,"confidence":-1},{"trial_n":15,"span":12,"encoder":"569556249302","distractor":"569556249202","target":"present","response":"absent","rt":"2600.700000003","correct":false,"confidence":-1},{"trial_n":16,"span":11,"encoder":"89188674416","distractor":"89688674416","target":"present","response":"present","rt":"3791.900000006","correct":true,"confidence":-1},{"trial_n":17,"span":11,"encoder":"80951099360","distractor":"80951079360","target":"absent","response":"absent","rt":"6836.1000000089","correct":true,"confidence":-1},{"trial_n":18,"span":12,"encoder":"766846376284","distractor":"726846376284","target":"present","response":"absent","rt":"72366.299999997","correct":false,"confidence":-1},{"trial_n":19,"span":11,"encoder":"31679354478","distractor":"31679350478","target":"present","response":"present","rt":"3529.299999997","correct":true,"confidence":-1},{"trial_n":20,"span":11,"encoder":"25655422622","distractor":"25655422632","target":"absent","response":"absent","rt":"1696.799999997","correct":true,"confidence":-1},{"trial_n":21,"span":12,"encoder":"883604047103","distractor":"883604047104","target":"absent","response":"absent","rt":"4710.099999994","correct":true,"confidence":2},{"trial_n":22,"span":12,"encoder":"446480206669","distractor":"446480208669","target":"absent","response":"absent","rt":"2848.799999997","correct":true,"confidence":5},{"trial_n":23,"span":13,"encoder":"7053278855366","distractor":"5053278855366","target":"absent","response":"present","rt":"2654.5","correct":false,"confidence":2},{"trial_n":24,"span":12,"encoder":"696856724706","distractor":"696856714706","target":"present","response":"present","rt":"4158.299999997","correct":true,"confidence":3},{"trial_n":25,"span":12,"encoder":"725321329801","distractor":"525321329801","target":"present","response":"absent","rt":"1949","correct":false,"confidence":1},{"trial_n":26,"span":11,"encoder":"62780500021","distractor":"62780500921","target":"present","response":"absent","rt":"12873.899999991","correct":false,"confidence":2},{"trial_n":27,"span":10,"encoder":"5911611603","distractor":"4911611603","target":"absent","response":"absent","rt":"3191.700000003","correct":true,"confidence":3},{"trial_n":28,"span":10,"encoder":"3127303957","distractor":"3127343957","target":"absent","response":"present","rt":"7283.6000000089","correct":false,"confidence":2},{"trial_n":29,"span":9,"encoder":"093444445","distractor":"093444495","target":"absent","response":"present","rt":"4542.799999997","correct":false,"confidence":4},{"trial_n":30,"span":8,"encoder":"15942652","distractor":"15942952","target":"absent","response":"absent","rt":"6377.1999999881","correct":true,"confidence":4},{"trial_n":31,"span":8,"encoder":"68042114","distractor":"68042814","target":"present","response":"present","rt":"5575.299999997","correct":true,"confidence":4},{"trial_n":32,"span":9,"encoder":"543441906","distractor":"543441902","target":"absent","response":"absent","rt":"4010.700000003","correct":true,"confidence":5},{"trial_n":33,"span":9,"encoder":"841199605","distractor":"341199605","target":"present","response":"present","rt":"2786.5","correct":true,"confidence":5},{"trial_n":34,"span":10,"encoder":"1493541735","distractor":"1493541745","target":"present","response":"absent","rt":"3140","correct":false,"confidence":3},{"trial_n":35,"span":9,"encoder":"058111019","distractor":"058111010","target":"absent","response":"present","rt":"5226.599999994","correct":false,"confidence":2},{"trial_n":36,"span":8,"encoder":"11611170","distractor":"12611170","target":"absent","response":"absent","rt":"1721","correct":true,"confidence":5},{"trial_n":37,"span":8,"encoder":"72778597","distractor":"72778897","target":"absent","response":"present","rt":"2698.5","correct":false,"confidence":3},{"trial_n":38,"span":7,"encoder":"8875327","distractor":"8865327","target":"present","response":"present","rt":"2975","correct":true,"confidence":5},{"trial_n":39,"span":7,"encoder":"7999142","distractor":"7999102","target":"absent","response":"present","rt":"5246.6000000089","correct":false,"confidence":4},{"trial_n":40,"span":6,"encoder":"606989","distractor":"606988","target":"absent","response":"absent","rt":"3214","correct":true,"confidence":5},{"trial_n":41,"span":6,"encoder":"639244","distractor":"239244","target":"present","response":"present","rt":"2130.599999994","correct":true,"confidence":5},{"trial_n":42,"span":7,"encoder":"3175160","distractor":"3275160","target":"present","response":"absent","rt":"2556.6999999881","correct":false,"confidence":3},{"trial_n":43,"span":6,"encoder":"910145","distractor":"910149","target":"absent","response":"absent","rt":"2252.200000003","correct":true,"confidence":5},{"trial_n":44,"span":6,"encoder":"822463","distractor":"922463","target":"absent","response":"absent","rt":"1740.900000006","correct":true,"confidence":4},{"trial_n":45,"span":7,"encoder":"5705559","distractor":"5805559","target":"present","response":"present","rt":"3265","correct":true,"confidence":3},{"trial_n":46,"span":7,"encoder":"1738656","distractor":"1738659","target":"present","response":"present","rt":"4341.1999999881","correct":true,"confidence":4},{"trial_n":47,"span":8,"encoder":"03038031","distractor":"63038031","target":"present","response":"present","rt":"2256.5","correct":true,"confidence":5},{"trial_n":48,"span":8,"encoder":"54888348","distractor":"54888338","target":"present","response":"absent","rt":"7367.299999997","correct":false,"confidence":2},{"trial_n":49,"span":7,"encoder":"2848322","distractor":"2848922","target":"present","response":"present","rt":"2555.1999999881","correct":true,"confidence":4},{"trial_n":50,"span":7,"encoder":"6784546","distractor":"6724546","target":"absent","response":"present","rt":"18533.299999997","correct":false,"confidence":3},{"trial_n":51,"span":6,"encoder":"655237","distractor":"650237","target":"present","response":"present","rt":"1865.8999999911","correct":true,"confidence":5},{"trial_n":52,"span":6,"encoder":"737504","distractor":"737604","target":"present","response":"present","rt":"2097.299999997","correct":true,"confidence":5},{"trial_n":53,"span":7,"encoder":"0339954","distractor":"0339950","target":"present","response":"absent","rt":"3366.5","correct":false,"confidence":3},{"trial_n":54,"span":6,"encoder":"034480","distractor":"034180","target":"absent","response":"absent","rt":"5079","correct":true,"confidence":3},{"trial_n":55,"span":6,"encoder":"845017","distractor":"842017","target":"present","response":"present","rt":"4280.299999997","correct":true,"confidence":3},{"trial_n":56,"span":7,"encoder":"6323371","distractor":"6323271","target":"absent","response":"absent","rt":"3262.700000003","correct":true,"confidence":3},{"trial_n":57,"span":7,"encoder":"4164843","distractor":"4194843","target":"present","response":"present","rt":"5454.400000006","correct":true,"confidence":2},{"trial_n":58,"span":8,"encoder":"31770117","distractor":"31170117","target":"present","response":"absent","rt":"5029.200000003","correct":false,"confidence":3},{"trial_n":59,"span":7,"encoder":"2255709","distractor":"2455709","target":"absent","response":"absent","rt":"5689.3999999911","correct":true,"confidence":2},{"trial_n":60,"span":7,"encoder":"0851959","distractor":"0451959","target":"absent","response":"absent","rt":"3314.700000003","correct":true,"confidence":5},{"trial_n":61,"span":8,"encoder":"46202754","distractor":"86202754","target":"present","response":"absent","rt":"3022.1999999881","correct":false,"confidence":4},{"trial_n":62,"span":7,"encoder":"9291339","distractor":"9391339","target":"present","response":"present","rt":"4557.700000003","correct":true,"confidence":3},{"trial_n":63,"span":7,"encoder":"9939290","distractor":"9939090","target":"absent","response":"absent","rt":"2771.299999997","correct":true,"confidence":5},{"trial_n":64,"span":8,"encoder":"19818353","distractor":"19818303","target":"absent","response":"absent","rt":"3259.6000000089","correct":true,"confidence":5},{"trial_n":65,"span":8,"encoder":"55224293","distractor":"55224296","target":"absent","response":"absent","rt":"4159.700000003","correct":true,"confidence":3},{"trial_n":66,"span":9,"encoder":"447704678","distractor":"447702678","target":"absent","response":"present","rt":"3318.200000003","correct":false,"confidence":2},{"trial_n":67,"span":8,"encoder":"29518424","distractor":"79518424","target":"present","response":"present","rt":"3100.1000000089","correct":true,"confidence":4},{"trial_n":68,"span":8,"encoder":"97854359","distractor":"97854358","target":"present","response":"absent","rt":"3435.8000000119","correct":false,"confidence":3},{"trial_n":69,"span":7,"encoder":"7457773","distractor":"7447773","target":"present","response":"present","rt":"3567.8000000119","correct":true,"confidence":4},{"trial_n":70,"span":7,"encoder":"7454831","distractor":"7454631","target":"present","response":"present","rt":"4966.799999997","correct":true,"confidence":4},{"trial_n":71,"span":8,"encoder":"28772591","distractor":"28772531","target":"present","response":"present","rt":"6820.8999999911","correct":true,"confidence":-1},{"trial_n":72,"span":8,"encoder":"72197218","distractor":"72197618","target":"present","response":"present","rt":"3448.400000006","correct":true,"confidence":-1},{"trial_n":73,"span":9,"encoder":"442309376","distractor":"442305376","target":"absent","response":"absent","rt":"4441.200000003","correct":true,"confidence":-1},{"trial_n":74,"span":9,"encoder":"929034047","distractor":"229034047","target":"absent","response":"absent","rt":"3368.5","correct":true,"confidence":-1},{"trial_n":75,"span":10,"encoder":"1941168771","distractor":"1941162771","target":"present","response":"present","rt":"4645.299999997","correct":true,"confidence":-1},{"trial_n":76,"span":10,"encoder":"6854655660","distractor":"6858655660","target":"absent","response":"absent","rt":"2675.099999994","correct":true,"confidence":-1},{"trial_n":77,"span":11,"encoder":"32487127956","distractor":"32587127956","target":"present","response":"present","rt":"74552.599999994","correct":true,"confidence":-1},{"trial_n":78,"span":11,"encoder":"90436154277","distractor":"90436154270","target":"present","response":"present","rt":"2038","correct":true,"confidence":-1},{"trial_n":79,"span":12,"encoder":"383202667325","distractor":"383202667305","target":"absent","response":"absent","rt":"6708.6999999881","correct":true,"confidence":-1},{"trial_n":80,"span":12,"encoder":"404164522539","distractor":"434164522539","target":"present","response":"present","rt":"2367.1000000089","correct":true,"confidence":-1},{"trial_n":81,"span":13,"encoder":"5717851378312","distractor":"5717851378314","target":"absent","response":"absent","rt":"5384.799999997","correct":true,"confidence":-1},{"trial_n":82,"span":13,"encoder":"7999006641170","distractor":"7999006641173","target":"absent","response":"absent","rt":"3651.8999999911","correct":true,"confidence":-1},{"trial_n":83,"span":14,"encoder":"44802155104639","distractor":"44502155104639","target":"absent","response":"absent","rt":"6031.5","correct":true,"confidence":-1},{"trial_n":84,"span":14,"encoder":"52232368379175","distractor":"52232363379175","target":"present","response":"present","rt":"8487.8999999911","correct":true,"confidence":-1},{"trial_n":85,"span":15,"encoder":"743456029680445","distractor":"743456027680445","target":"present","response":"absent","rt":"3128","correct":false,"confidence":-1},{"trial_n":86,"span":14,"encoder":"14323259614000","distractor":"14323259617000","target":"absent","response":"absent","rt":"2541.5","correct":true,"confidence":-1},{"trial_n":87,"span":14,"encoder":"15300621414965","distractor":"15300621714965","target":"present","response":"absent","rt":"5026.599999994","correct":false,"confidence":-1},{"trial_n":88,"span":13,"encoder":"9585632679460","distractor":"9585632679360","target":"present","response":"present","rt":"2398.400000006","correct":true,"confidence":-1},{"trial_n":89,"span":13,"encoder":"7676706567460","distractor":"7676306567460","target":"present","response":"present","rt":"7574.6000000089","correct":true,"confidence":-1},{"trial_n":90,"span":14,"encoder":"84103865581875","distractor":"74103865581875","target":"present","response":"present","rt":"891.59999999404","correct":true,"confidence":-1},{"trial_n":91,"span":14,"encoder":"61018279279012","distractor":"61018979279012","target":"present","response":"present","rt":"24555.899999991","correct":true,"confidence":1},{"trial_n":92,"span":15,"encoder":"298822209854952","distractor":"208822209854952","target":"present","response":"present","rt":"3102.099999994","correct":true,"confidence":5},{"trial_n":93,"span":15,"encoder":"722498369123414","distractor":"722498569123414","target":"absent","response":"present","rt":"11940.900000006","correct":false,"confidence":2},{"trial_n":94,"span":14,"encoder":"88960128770354","distractor":"88960128770356","target":"present","response":"present","rt":"5921.1000000089","correct":true,"confidence":1},{"trial_n":95,"span":14,"encoder":"85202452457926","distractor":"85202454457926","target":"absent","response":"absent","rt":"15255.099999994","correct":true,"confidence":3},{"trial_n":96,"span":15,"encoder":"686761191392676","distractor":"646761191392676","target":"present","response":"present","rt":"23797.799999997","correct":true,"confidence":2},{"trial_n":97,"span":15,"encoder":"117012366089860","distractor":"117013366089860","target":"absent","response":"present","rt":"4086.700000003","correct":false,"confidence":1},{"trial_n":98,"span":14,"encoder":"01371248255091","distractor":"01371248205091","target":"absent","response":"absent","rt":"5901.799999997","correct":true,"confidence":5},{"trial_n":99,"span":14,"encoder":"74073164774968","distractor":"74073164771968","target":"absent","response":"present","rt":"11332.400000006","correct":false,"confidence":1},{"trial_n":100,"span":13,"encoder":"3239411729018","distractor":"3239411739018","target":"present","response":"present","rt":"13111.200000003","correct":true,"confidence":2},{"trial_n":101,"span":13,"encoder":"9621201588730","distractor":"9621301588730","target":"absent","response":"absent","rt":"4494.5","correct":true,"confidence":1},{"trial_n":102,"span":14,"encoder":"55729944254103","distractor":"55729944254153","target":"present","response":"present","rt":"3243","correct":true,"confidence":4},{"trial_n":103,"span":14,"encoder":"92666897344953","distractor":"92666899344953","target":"absent","response":"absent","rt":"14493.900000006","correct":true,"confidence":3},{"trial_n":104,"span":15,"encoder":"480148383835199","distractor":"480149383835199","target":"present","response":"present","rt":"5665.900000006","correct":true,"confidence":4},{"trial_n":105,"span":15,"encoder":"091440231725423","distractor":"091240231725423","target":"present","response":"present","rt":"6663.400000006","correct":true,"confidence":3},{"trial_n":106,"span":16,"encoder":"2027098428349211","distractor":"2027098498349211","target":"present","response":"present","rt":"7324.799999997","correct":true,"confidence":1},{"trial_n":107,"span":16,"encoder":"0948058361749286","distractor":"0948058361749285","target":"absent","response":"absent","rt":"3684.400000006","correct":true,"confidence":2},{"trial_n":108,"span":17,"encoder":"24918781790658479","distractor":"24918785790658479","target":"absent","response":"absent","rt":"41469","correct":true,"confidence":1},{"trial_n":109,"span":17,"encoder":"38370211596248220","distractor":"38370211996248220","target":"absent","response":"present","rt":"2385.400000006","correct":false,"confidence":2},{"trial_n":110,"span":16,"encoder":"9684513640377104","distractor":"9684519640377104","target":"present","response":"absent","rt":"5472.099999994","correct":false,"confidence":1},{"trial_n":111,"span":15,"encoder":"927216529570285","distractor":"920216529570285","target":"present","response":"present","rt":"6873.200000003","correct":true,"confidence":1},{"trial_n":112,"span":15,"encoder":"377790853805942","distractor":"377790853805042","target":"present","response":"present","rt":"10907.200000003","correct":true,"confidence":1},{"trial_n":113,"span":16,"encoder":"2986211731848626","distractor":"2986211731848606","target":"present","response":"present","rt":"2455.799999997","correct":true,"confidence":5},{"trial_n":114,"span":16,"encoder":"4992563533030047","distractor":"4992363533030047","target":"present","response":"present","rt":"6473.799999997","correct":true,"confidence":3},{"trial_n":115,"span":17,"encoder":"58177137876317014","distractor":"58176137876317014","target":"present","response":"present","rt":"6673.8000000119","correct":true,"confidence":5},{"trial_n":116,"span":17,"encoder":"10431807432729182","distractor":"10431807432722182","target":"absent","response":"absent","rt":"11521.400000006","correct":true,"confidence":3},{"trial_n":117,"span":18,"encoder":"203869697858156057","distractor":"203869699858156057","target":"absent","response":"absent","rt":"6234.400000006","correct":true,"confidence":4},{"trial_n":118,"span":18,"encoder":"505481282010819292","distractor":"505481282010814292","target":"absent","response":"absent","rt":"15929.299999997","correct":true,"confidence":3},{"trial_n":119,"span":19,"encoder":"4641383112540746448","distractor":"4641383132540746448","target":"present","response":"present","rt":"4817.700000003","correct":true,"confidence":4},{"trial_n":120,"span":19,"encoder":"2219755062305288156","distractor":"2219755062305228156","target":"absent","response":"absent","rt":"5317.799999997","correct":true,"confidence":5},{"trial_n":121,"span":20,"encoder":"12743224806340342664","distractor":"12243224806340342664","target":"absent","response":"present","rt":"4481.700000003","correct":false,"confidence":1},{"trial_n":122,"span":19,"encoder":"9767505166086472323","distractor":"0767505166086472323","target":"present","response":"absent","rt":"8472.200000003","correct":false,"confidence":1},{"trial_n":123,"span":18,"encoder":"249471276995644652","distractor":"249471276895644652","target":"present","response":"present","rt":"3478.3000000119","correct":true,"confidence":5},{"trial_n":124,"span":18,"encoder":"603888405565751368","distractor":"603882405565751368","target":"absent","response":"present","rt":"6975","correct":false,"confidence":3},{"trial_n":125,"span":17,"encoder":"08403151441873466","distractor":"08405151441873466","target":"absent","response":"present","rt":"6145.400000006","correct":false,"confidence":1},{"trial_n":126,"span":16,"encoder":"6708225040021883","distractor":"6700225040021883","target":"absent","response":"absent","rt":"3372.200000003","correct":true,"confidence":5},{"trial_n":127,"span":16,"encoder":"2220694153323305","distractor":"2260694153323305","target":"present","response":"present","rt":"3354.6000000089","correct":true,"confidence":5},{"trial_n":128,"span":17,"encoder":"69961652718537215","distractor":"60961652718537215","target":"present","response":"absent","rt":"8442.3000000119","correct":false,"confidence":3},{"trial_n":129,"span":16,"encoder":"7021208948283768","distractor":"7021208948284768","target":"absent","response":"absent","rt":"5889.5","correct":true,"confidence":4},{"trial_n":130,"span":16,"encoder":"7811034526040814","distractor":"7811034526070814","target":"absent","response":"absent","rt":"28788","correct":true,"confidence":1},{"trial_n":131,"span":17,"encoder":"98589931744759408","distractor":"98519931744759408","target":"present","response":"present","rt":"2888.1000000089","correct":true,"confidence":5},{"trial_n":132,"span":17,"encoder":"48106714129265656","distractor":"41106714129265656","target":"absent","response":"absent","rt":"3872.799999997","correct":true,"confidence":5},{"trial_n":133,"span":18,"encoder":"864906120870252264","distractor":"864906120870252274","target":"present","response":"present","rt":"3834.299999997","correct":true,"confidence":4},{"trial_n":134,"span":18,"encoder":"574529885211621348","distractor":"574529885211621358","target":"present","response":"absent","rt":"10838.199999988","correct":false,"confidence":3},{"trial_n":135,"span":17,"encoder":"49711883673137130","distractor":"89711883673137130","target":"absent","response":"absent","rt":"10075.5","correct":true,"confidence":2},{"trial_n":136,"span":17,"encoder":"46235690435715367","distractor":"46235690435711367","target":"present","response":"absent","rt":"6794.1000000089","correct":false,"confidence":1},{"trial_n":137,"span":16,"encoder":"6633942082032269","distractor":"6633742082032269","target":"absent","response":"absent","rt":"4120.700000003","correct":true,"confidence":4},{"trial_n":138,"span":16,"encoder":"7202368633949630","distractor":"7202368633249630","target":"absent","response":"present","rt":"14115.299999997","correct":false,"confidence":2},{"trial_n":139,"span":15,"encoder":"586915722289511","distractor":"586915722219511","target":"absent","response":"present","rt":"9211.6000000089","correct":false,"confidence":1},{"trial_n":140,"span":14,"encoder":"33490934780842","distractor":"13490934780842","target":"absent","response":"present","rt":"3628.299999997","correct":false,"confidence":2}]