[{"trial_n":1,"span":8,"encoder":"54840197","distractor":"50840197","target":"present","response":"absent","rt":"9808","correct":false,"confidence":-1},{"trial_n":2,"span":6,"encoder":"135135","distractor":"185135","target":"present","response":"present","rt":"1433.3000000119","correct":true,"confidence":-1},{"trial_n":3,"span":6,"encoder":"386415","distractor":"386615","target":"absent","response":"absent","rt":"1217.900000006","correct":true,"confidence":-1},{"trial_n":4,"span":8,"encoder":"24742787","distractor":"24740787","target":"absent","response":"absent","rt":"2593.5","correct":true,"confidence":-1},{"trial_n":5,"span":8,"encoder":"64515446","distractor":"64515346","target":"present","response":"absent","rt":"1418.400000006","correct":false,"confidence":-1},{"trial_n":6,"span":6,"encoder":"762100","distractor":"762140","target":"absent","response":"absent","rt":"1290.2000000179","correct":true,"confidence":-1},{"trial_n":7,"span":6,"encoder":"056934","distractor":"056924","target":"present","response":"present","rt":"2503","correct":true,"confidence":-1},{"trial_n":8,"span":8,"encoder":"48532933","distractor":"48532913","target":"present","response":"absent","rt":"1088.400000006","correct":false,"confidence":-1},{"trial_n":9,"span":6,"encoder":"453382","distractor":"493382","target":"absent","response":"present","rt":"1829.5","correct":false,"confidence":-1},{"trial_n":10,"span":4,"encoder":"7755","distractor":"8755","target":"present","response":"present","rt":"1150.6000000238","correct":true,"confidence":-1},{"trial_n":11,"span":4,"encoder":"7815","distractor":"7315","target":"present","response":"present","rt":"1446.1999999881","correct":true,"confidence":-1},{"trial_n":12,"span":5,"encoder":"23009","distractor":"23509","target":"absent","response":"absent","rt":"1497.8000000119","correct":true,"confidence":-1},{"trial_n":13,"span":5,"encoder":"21004","distractor":"21000","target":"present","response":"present","rt":"854.40000000596","correct":true,"confidence":-1},{"trial_n":14,"span":6,"encoder":"233433","distractor":"233439","target":"absent","response":"absent","rt":"2342.8000000119","correct":true,"confidence":-1},{"trial_n":15,"span":6,"encoder":"068089","distractor":"068088","target":"absent","response":"absent","rt":"986.69999998808","correct":true,"confidence":-1},{"trial_n":16,"span":7,"encoder":"7191283","distractor":"7291283","target":"absent","response":"present","rt":"1315","correct":false,"confidence":-1},{"trial_n":17,"span":6,"encoder":"632084","distractor":"632034","target":"absent","response":"present","rt":"1136.599999994","correct":false,"confidence":-1},{"trial_n":18,"span":5,"encoder":"58321","distractor":"58326","target":"present","response":"present","rt":"1176.6000000238","correct":true,"confidence":-1},{"trial_n":19,"span":5,"encoder":"84614","distractor":"84624","target":"absent","response":"present","rt":"941.60000002384","correct":false,"confidence":-1},{"trial_n":20,"span":4,"encoder":"3873","distractor":"9873","target":"absent","response":"present","rt":"1069.900000006","correct":false,"confidence":-1},{"trial_n":21,"span":3,"encoder":"016","distractor":"316","target":"absent","response":"absent","rt":"1579.400000006","correct":true,"confidence":4},{"trial_n":22,"span":3,"encoder":"323","distractor":"321","target":"absent","response":"absent","rt":"1453.8999999762","correct":true,"confidence":5},{"trial_n":23,"span":4,"encoder":"6574","distractor":"6570","target":"present","response":"present","rt":"1137.900000006","correct":true,"confidence":5},{"trial_n":24,"span":4,"encoder":"2572","distractor":"2552","target":"absent","response":"absent","rt":"849.69999998808","correct":true,"confidence":5},{"trial_n":25,"span":5,"encoder":"94357","distractor":"98357","target":"present","response":"present","rt":"1533.599999994","correct":true,"confidence":4},{"trial_n":26,"span":5,"encoder":"38184","distractor":"38984","target":"absent","response":"absent","rt":"1364.1999999881","correct":true,"confidence":5},{"trial_n":27,"span":6,"encoder":"254178","distractor":"234178","target":"present","response":"present","rt":"4086.1999999881","correct":true,"confidence":3},{"trial_n":28,"span":6,"encoder":"423180","distractor":"423189","target":"absent","response":"absent","rt":"836.90000000596","correct":true,"confidence":4},{"trial_n":29,"span":7,"encoder":"8408029","distractor":"8408024","target":"absent","response":"absent","rt":"1275","correct":true,"confidence":4},{"trial_n":30,"span":7,"encoder":"7657057","distractor":"7257057","target":"absent","response":"present","rt":"1099.599999994","correct":false,"confidence":3},{"trial_n":31,"span":6,"encoder":"356369","distractor":"336369","target":"present","response":"present","rt":"2872.599999994","correct":true,"confidence":5},{"trial_n":32,"span":6,"encoder":"637418","distractor":"637414","target":"absent","response":"absent","rt":"873.30000001192","correct":true,"confidence":5},{"trial_n":33,"span":7,"encoder":"0868274","distractor":"0868074","target":"present","response":"present","rt":"6217.5","correct":true,"confidence":3},{"trial_n":34,"span":7,"encoder":"7648618","distractor":"7648608","target":"absent","response":"absent","rt":"839.30000001192","correct":true,"confidence":4},{"trial_n":35,"span":8,"encoder":"66409555","distractor":"66499555","target":"absent","response":"absent","rt":"3062.6999999881","correct":true,"confidence":3},{"trial_n":36,"span":8,"encoder":"09196418","distractor":"09176418","target":"present","response":"present","rt":"3004.400000006","correct":true,"confidence":4},{"trial_n":37,"span":9,"encoder":"770997640","distractor":"760997640","target":"present","response":"present","rt":"1628.2999999821","correct":true,"confidence":4},{"trial_n":38,"span":9,"encoder":"146237015","distractor":"146237005","target":"present","response":"present","rt":"1517.3000000119","correct":true,"confidence":3},{"trial_n":39,"span":10,"encoder":"2765150875","distractor":"2762150875","target":"absent","response":"present","rt":"3113.2000000179","correct":false,"confidence":3},{"trial_n":40,"span":9,"encoder":"071887456","distractor":"070887456","target":"present","response":"present","rt":"3098.2999999821","correct":true,"confidence":4},{"trial_n":41,"span":9,"encoder":"785451741","distractor":"785452741","target":"present","response":"present","rt":"1902.5","correct":true,"confidence":4},{"trial_n":42,"span":10,"encoder":"0704649123","distractor":"0104649123","target":"present","response":"present","rt":"2199.7999999821","correct":true,"confidence":4},{"trial_n":43,"span":10,"encoder":"8529027362","distractor":"8509027362","target":"present","response":"present","rt":"3360.7999999821","correct":true,"confidence":3},{"trial_n":44,"span":11,"encoder":"88551707183","distractor":"88551701183","target":"present","response":"present","rt":"2290.3000000119","correct":true,"confidence":4},{"trial_n":45,"span":11,"encoder":"45430451578","distractor":"45430051578","target":"absent","response":"absent","rt":"8062.2999999821","correct":true,"confidence":3},{"trial_n":46,"span":12,"encoder":"993153357535","distractor":"993153357565","target":"absent","response":"absent","rt":"5379.7999999821","correct":true,"confidence":3},{"trial_n":47,"span":12,"encoder":"825703913323","distractor":"825702913323","target":"present","response":"present","rt":"2934.3000000119","correct":true,"confidence":3},{"trial_n":48,"span":13,"encoder":"3548229580323","distractor":"3548229584323","target":"absent","response":"present","rt":"3188.6999999881","correct":false,"confidence":2},{"trial_n":49,"span":12,"encoder":"894940341601","distractor":"894940343601","target":"present","response":"absent","rt":"7923.2999999821","correct":false,"confidence":3},{"trial_n":50,"span":11,"encoder":"04972581512","distractor":"04972581562","target":"absent","response":"present","rt":"2195.6000000238","correct":false,"confidence":2},{"trial_n":51,"span":10,"encoder":"4348497492","distractor":"7348497492","target":"absent","response":"present","rt":"3862.7000000179","correct":false,"confidence":3},{"trial_n":52,"span":9,"encoder":"170221363","distractor":"150221363","target":"present","response":"present","rt":"2071.3000000119","correct":true,"confidence":3},{"trial_n":53,"span":9,"encoder":"015888671","distractor":"015888673","target":"absent","response":"absent","rt":"1644.1000000238","correct":true,"confidence":4},{"trial_n":54,"span":10,"encoder":"2662039688","distractor":"2662039188","target":"present","response":"present","rt":"3926.1000000238","correct":true,"confidence":3},{"trial_n":55,"span":10,"encoder":"5337925171","distractor":"5837925171","target":"present","response":"present","rt":"4204.6999999881","correct":true,"confidence":3},{"trial_n":56,"span":11,"encoder":"01741486298","distractor":"01341486298","target":"present","response":"present","rt":"2510.599999994","correct":true,"confidence":3},{"trial_n":57,"span":11,"encoder":"23251353398","distractor":"23251753398","target":"absent","response":"absent","rt":"9624.2000000179","correct":true,"confidence":3},{"trial_n":58,"span":12,"encoder":"500890250545","distractor":"500840250545","target":"present","response":"present","rt":"5984.5","correct":true,"confidence":2},{"trial_n":59,"span":12,"encoder":"795508767962","distractor":"792508767962","target":"present","response":"present","rt":"4009.599999994","correct":true,"confidence":2},{"trial_n":60,"span":13,"encoder":"7807815995814","distractor":"7807815996814","target":"present","response":"present","rt":"2710.1999999881","correct":true,"confidence":2},{"trial_n":61,"span":13,"encoder":"7753512354077","distractor":"7753512354070","target":"absent","response":"absent","rt":"1260.900000006","correct":true,"confidence":5},{"trial_n":62,"span":14,"encoder":"30974829380928","distractor":"30974229380928","target":"present","response":"present","rt":"2499","correct":true,"confidence":3},{"trial_n":63,"span":14,"encoder":"82330104610856","distractor":"82330104610853","target":"absent","response":"absent","rt":"1310.400000006","correct":true,"confidence":5},{"trial_n":64,"span":15,"encoder":"024674412281572","distractor":"024674812281572","target":"present","response":"present","rt":"29033.399999976","correct":true,"confidence":2},{"trial_n":65,"span":15,"encoder":"558618683848041","distractor":"558618683849041","target":"absent","response":"present","rt":"3006.099999994","correct":false,"confidence":3},{"trial_n":66,"span":14,"encoder":"99206680850990","distractor":"99406680850990","target":"absent","response":"present","rt":"3784.5","correct":false,"confidence":3},{"trial_n":67,"span":13,"encoder":"2570903765743","distractor":"2570703765743","target":"present","response":"present","rt":"3372.6999999881","correct":true,"confidence":2},{"trial_n":68,"span":13,"encoder":"1051639106015","distractor":"1051639506015","target":"present","response":"absent","rt":"7415.900000006","correct":false,"confidence":1},{"trial_n":69,"span":12,"encoder":"503316246172","distractor":"503416246172","target":"present","response":"present","rt":"2853.099999994","correct":true,"confidence":3},{"trial_n":70,"span":12,"encoder":"029122410905","distractor":"024122410905","target":"absent","response":"present","rt":"2816.6999999881","correct":false,"confidence":3},{"trial_n":71,"span":8,"encoder":"61596339","distractor":"01596339","target":"present","response":"present","rt":"4891","correct":true,"confidence":-1},{"trial_n":72,"span":8,"encoder":"23569103","distractor":"23569303","target":"present","response":"present","rt":"2865.599999994","correct":true,"confidence":-1},{"trial_n":73,"span":9,"encoder":"029114668","distractor":"023114668","target":"absent","response":"absent","rt":"3152.900000006","correct":true,"confidence":-1},{"trial_n":74,"span":9,"encoder":"200173812","distractor":"200183812","target":"absent","response":"absent","rt":"3457.8000000119","correct":true,"confidence":-1},{"trial_n":75,"span":10,"encoder":"8305506355","distractor":"8305506655","target":"present","response":"present","rt":"3814.7999999821","correct":true,"confidence":-1},{"trial_n":76,"span":10,"encoder":"1898455620","distractor":"1898455650","target":"absent","response":"absent","rt":"8536.3000000119","correct":true,"confidence":-1},{"trial_n":77,"span":11,"encoder":"29903549012","distractor":"29903540012","target":"present","response":"present","rt":"4593.6999999881","correct":true,"confidence":-1},{"trial_n":78,"span":11,"encoder":"14405761338","distractor":"14405761330","target":"absent","response":"absent","rt":"1941.099999994","correct":true,"confidence":-1},{"trial_n":79,"span":12,"encoder":"202774476120","distractor":"202774476320","target":"present","response":"absent","rt":"4791.099999994","correct":false,"confidence":-1},{"trial_n":80,"span":11,"encoder":"02976682939","distractor":"02976682039","target":"present","response":"present","rt":"5879.7999999821","correct":true,"confidence":-1},{"trial_n":81,"span":11,"encoder":"01980900301","distractor":"01980900801","target":"present","response":"present","rt":"2258.400000006","correct":true,"confidence":-1},{"trial_n":82,"span":12,"encoder":"822692737541","distractor":"802692737541","target":"present","response":"present","rt":"3511.3999999762","correct":true,"confidence":-1},{"trial_n":83,"span":12,"encoder":"541480663384","distractor":"544480663384","target":"absent","response":"absent","rt":"7472.3999999762","correct":true,"confidence":-1},{"trial_n":84,"span":13,"encoder":"6051036049030","distractor":"6011036049030","target":"absent","response":"absent","rt":"2996.5","correct":true,"confidence":-1},{"trial_n":85,"span":13,"encoder":"2088589143318","distractor":"2088581143318","target":"absent","response":"present","rt":"22150.299999982","correct":false,"confidence":-1},{"trial_n":86,"span":12,"encoder":"977592073485","distractor":"977597073485","target":"present","response":"present","rt":"4200.1999999881","correct":true,"confidence":-1},{"trial_n":87,"span":12,"encoder":"024386086342","distractor":"024376086342","target":"present","response":"present","rt":"3623.900000006","correct":true,"confidence":-1},{"trial_n":88,"span":13,"encoder":"6577946022355","distractor":"3577946022355","target":"present","response":"present","rt":"5965.7999999821","correct":true,"confidence":-1},{"trial_n":89,"span":13,"encoder":"5657100231977","distractor":"5357100231977","target":"present","response":"present","rt":"2664.1000000238","correct":true,"confidence":-1},{"trial_n":90,"span":14,"encoder":"67968229637535","distractor":"69968229637535","target":"present","response":"present","rt":"2241.3000000119","correct":true,"confidence":-1},{"trial_n":91,"span":14,"encoder":"43795656134274","distractor":"43795657134274","target":"absent","response":"present","rt":"6176.7999999821","correct":false,"confidence":3},{"trial_n":92,"span":13,"encoder":"0639776632809","distractor":"0639776662809","target":"absent","response":"absent","rt":"4128","correct":true,"confidence":4},{"trial_n":93,"span":13,"encoder":"2275436425903","distractor":"2275486425903","target":"absent","response":"present","rt":"78408.400000006","correct":false,"confidence":1},{"trial_n":94,"span":12,"encoder":"291535133611","distractor":"291545133611","target":"present","response":"absent","rt":"6290.5","correct":false,"confidence":2},{"trial_n":95,"span":11,"encoder":"81879692364","distractor":"81839692364","target":"absent","response":"absent","rt":"4242.3000000119","correct":true,"confidence":3},{"trial_n":96,"span":11,"encoder":"20733705280","distractor":"20733705285","target":"absent","response":"absent","rt":"5870","correct":true,"confidence":4},{"trial_n":97,"span":12,"encoder":"477275067039","distractor":"477295067039","target":"present","response":"present","rt":"11358.5","correct":true,"confidence":3},{"trial_n":98,"span":12,"encoder":"124548414963","distractor":"124548414663","target":"present","response":"present","rt":"3210.5","correct":true,"confidence":5},{"trial_n":99,"span":13,"encoder":"2789548121333","distractor":"2781548121333","target":"absent","response":"absent","rt":"15391.5","correct":true,"confidence":3},{"trial_n":100,"span":13,"encoder":"0515494718869","distractor":"0515494718819","target":"absent","response":"absent","rt":"3766.1999999881","correct":true,"confidence":4},{"trial_n":101,"span":14,"encoder":"77190741603452","distractor":"77190747603452","target":"absent","response":"absent","rt":"10532.099999994","correct":true,"confidence":4},{"trial_n":102,"span":14,"encoder":"01167726068250","distractor":"01167026068250","target":"absent","response":"absent","rt":"4781","correct":true,"confidence":5},{"trial_n":103,"span":15,"encoder":"675037746350368","distractor":"679037746350368","target":"absent","response":"absent","rt":"6741.8999999762","correct":true,"confidence":5},{"trial_n":104,"span":15,"encoder":"099366002014222","distractor":"099366302014222","target":"present","response":"present","rt":"8416.7999999821","correct":true,"confidence":4},{"trial_n":105,"span":16,"encoder":"4161606991997897","distractor":"4161606991937897","target":"present","response":"present","rt":"4690.599999994","correct":true,"confidence":5},{"trial_n":106,"span":16,"encoder":"2738156329465875","distractor":"2138156329465875","target":"present","response":"present","rt":"5205.2999999821","correct":true,"confidence":5},{"trial_n":107,"span":17,"encoder":"56179232659698820","distractor":"56170232659698820","target":"present","response":"present","rt":"7217","correct":true,"confidence":4},{"trial_n":108,"span":17,"encoder":"27207410482034547","distractor":"27207410482034542","target":"present","response":"absent","rt":"6587.5","correct":false,"confidence":4},{"trial_n":109,"span":16,"encoder":"5419807836476796","distractor":"5419807836276796","target":"present","response":"present","rt":"3441.400000006","correct":true,"confidence":5},{"trial_n":110,"span":16,"encoder":"8851516462949391","distractor":"8851516462949393","target":"absent","response":"absent","rt":"17654.099999994","correct":true,"confidence":5},{"trial_n":111,"span":17,"encoder":"17560216288117852","distractor":"17560212288117852","target":"present","response":"present","rt":"6626.5","correct":true,"confidence":4},{"trial_n":112,"span":17,"encoder":"03606602079054207","distractor":"03306602079054207","target":"present","response":"present","rt":"5096.2999999821","correct":true,"confidence":5},{"trial_n":113,"span":18,"encoder":"825911872562569415","distractor":"825911872562569412","target":"absent","response":"absent","rt":"1359.5","correct":true,"confidence":5},{"trial_n":114,"span":18,"encoder":"917109684022838816","distractor":"917109684021838816","target":"absent","response":"present","rt":"6688.5","correct":false,"confidence":3},{"trial_n":115,"span":17,"encoder":"31752357371018261","distractor":"31752327371018261","target":"present","response":"absent","rt":"8863.5","correct":false,"confidence":3},{"trial_n":116,"span":16,"encoder":"4436505655895728","distractor":"4446505655895728","target":"present","response":"present","rt":"8171.1999999881","correct":true,"confidence":5},{"trial_n":117,"span":16,"encoder":"8179660727673093","distractor":"8179660722673093","target":"absent","response":"present","rt":"8187.8000000119","correct":false,"confidence":3},{"trial_n":118,"span":15,"encoder":"382796629873066","distractor":"382096629873066","target":"absent","response":"absent","rt":"9662.400000006","correct":true,"confidence":5},{"trial_n":119,"span":15,"encoder":"743568971367724","distractor":"743568271367724","target":"present","response":"absent","rt":"6949.2999999821","correct":false,"confidence":4},{"trial_n":120,"span":14,"encoder":"86737971411770","distractor":"86737971417770","target":"present","response":"present","rt":"13403.599999994","correct":true,"confidence":5},{"trial_n":121,"span":14,"encoder":"22980837756294","distractor":"22980837726294","target":"absent","response":"present","rt":"7351.8999999762","correct":false,"confidence":3},{"trial_n":122,"span":13,"encoder":"1568313567033","distractor":"1598313567033","target":"present","response":"present","rt":"5490.5","correct":true,"confidence":2},{"trial_n":123,"span":13,"encoder":"1330891115269","distractor":"1330897115269","target":"present","response":"present","rt":"2269","correct":true,"confidence":4},{"trial_n":124,"span":14,"encoder":"99597734064765","distractor":"99597734064763","target":"present","response":"present","rt":"6615.900000006","correct":true,"confidence":2},{"trial_n":125,"span":14,"encoder":"46822129625544","distractor":"46822129825544","target":"present","response":"present","rt":"8390.3000000119","correct":true,"confidence":3},{"trial_n":126,"span":15,"encoder":"065462431274232","distractor":"065462431224232","target":"absent","response":"absent","rt":"4563.400000006","correct":true,"confidence":2},{"trial_n":127,"span":15,"encoder":"454252516032103","distractor":"054252516032103","target":"present","response":"absent","rt":"5954.1999999881","correct":false,"confidence":3},{"trial_n":128,"span":14,"encoder":"99981465847088","distractor":"99981475847088","target":"absent","response":"present","rt":"11221.200000018","correct":false,"confidence":3},{"trial_n":129,"span":13,"encoder":"9435970561795","distractor":"9235970561795","target":"absent","response":"absent","rt":"4380.6999999881","correct":true,"confidence":2},{"trial_n":130,"span":13,"encoder":"1513874988345","distractor":"1513174988345","target":"absent","response":"absent","rt":"7205.3999999762","correct":true,"confidence":2},{"trial_n":131,"span":14,"encoder":"96400711538358","distractor":"96400791538358","target":"absent","response":"absent","rt":"2646.599999994","correct":true,"confidence":3},{"trial_n":132,"span":14,"encoder":"69170502948514","distractor":"69130502948514","target":"absent","response":"present","rt":"6261","correct":false,"confidence":3},{"trial_n":133,"span":13,"encoder":"7840680518554","distractor":"7840680528554","target":"absent","response":"absent","rt":"5783.3000000119","correct":true,"confidence":3},{"trial_n":134,"span":13,"encoder":"8484271848281","distractor":"8484271648281","target":"absent","response":"present","rt":"9130.7000000179","correct":false,"confidence":1},{"trial_n":135,"span":12,"encoder":"727742456583","distractor":"727772456583","target":"absent","response":"absent","rt":"1648","correct":true,"confidence":1},{"trial_n":136,"span":12,"encoder":"920236940823","distractor":"920236947823","target":"present","response":"absent","rt":"3739.900000006","correct":false,"confidence":2},{"trial_n":137,"span":11,"encoder":"37928681141","distractor":"37928680141","target":"absent","response":"absent","rt":"3103.6999999881","correct":true,"confidence":4},{"trial_n":138,"span":11,"encoder":"47671931974","distractor":"47671931971","target":"absent","response":"absent","rt":"4932.3000000119","correct":true,"confidence":2},{"trial_n":139,"span":12,"encoder":"451422380250","distractor":"401422380250","target":"present","response":"present","rt":"4144.6999999881","correct":true,"confidence":3},{"trial_n":140,"span":12,"encoder":"686464470198","distractor":"686464770198","target":"present","response":"present","rt":"5300","correct":true,"confidence":3}]