[{"trial_n":1,"n_dots":4.25,"target":"right","response":"left","rt":3147.6000000238,"correct":false,"confidence":-1},{"trial_n":2,"n_dots":4.25,"target":"right","response":"right","rt":934.40000003576,"correct":true,"confidence":-1},{"trial_n":3,"n_dots":4.25,"target":"right","response":"right","rt":375.90000003576,"correct":true,"confidence":-1},{"trial_n":4,"n_dots":3.85,"target":"left","response":"left","rt":319.29999995232,"correct":true,"confidence":-1},{"trial_n":5,"n_dots":3.85,"target":"right","response":"left","rt":458.80000001192,"correct":false,"confidence":-1},{"trial_n":6,"n_dots":4.25,"target":"left","response":"left","rt":323.40000003576,"correct":true,"confidence":-1},{"trial_n":7,"n_dots":4.25,"target":"left","response":"right","rt":141.80000001192,"correct":false,"confidence":-1},{"trial_n":8,"n_dots":4.45,"target":"left","response":"left","rt":1807,"correct":true,"confidence":-1},{"trial_n":9,"n_dots":4.45,"target":"right","response":"right","rt":246.80000001192,"correct":true,"confidence":-1},{"trial_n":10,"n_dots":4.25,"target":"right","response":"right","rt":124.30000001192,"correct":true,"confidence":-1},{"trial_n":11,"n_dots":4.25,"target":"left","response":"left","rt":312.69999998808,"correct":true,"confidence":-1},{"trial_n":12,"n_dots":4.05,"target":"right","response":"right","rt":368.89999997616,"correct":true,"confidence":-1},{"trial_n":13,"n_dots":4.05,"target":"right","response":"right","rt":342.60000002384,"correct":true,"confidence":-1},{"trial_n":14,"n_dots":3.95,"target":"left","response":"left","rt":517.5,"correct":true,"confidence":-1},{"trial_n":15,"n_dots":3.95,"target":"left","response":"right","rt":50239.300000012,"correct":false,"confidence":-1},{"trial_n":16,"n_dots":4.05,"target":"right","response":"right","rt":1157.1000000238,"correct":true,"confidence":-1},{"trial_n":17,"n_dots":4.05,"target":"right","response":"right","rt":813.30000001192,"correct":true,"confidence":-1},{"trial_n":18,"n_dots":3.95,"target":"right","response":"right","rt":942.80000001192,"correct":true,"confidence":-1},{"trial_n":19,"n_dots":3.95,"target":"right","response":"right","rt":776.80000001192,"correct":true,"confidence":-1},{"trial_n":20,"n_dots":3.85,"target":"right","response":"left","rt":1505.5,"correct":false,"confidence":-1},{"trial_n":21,"n_dots":3.95,"target":"right","response":"right","rt":1012.5999999642,"correct":true,"confidence":3},{"trial_n":22,"n_dots":3.95,"target":"right","response":"right","rt":1182.9000000358,"correct":true,"confidence":3},{"trial_n":23,"n_dots":3.85,"target":"left","response":"right","rt":770.59999996424,"correct":false,"confidence":1},{"trial_n":24,"n_dots":3.95,"target":"left","response":"left","rt":572,"correct":true,"confidence":4},{"trial_n":25,"n_dots":3.95,"target":"left","response":"left","rt":698.60000002384,"correct":true,"confidence":4},{"trial_n":26,"n_dots":3.85,"target":"left","response":"left","rt":1300.1000000238,"correct":true,"confidence":2},{"trial_n":27,"n_dots":3.85,"target":"left","response":"right","rt":1860.5,"correct":false,"confidence":3},{"trial_n":28,"n_dots":3.95,"target":"right","response":"right","rt":1115.4000000358,"correct":true,"confidence":5},{"trial_n":29,"n_dots":3.95,"target":"left","response":"right","rt":1274.8000000119,"correct":false,"confidence":4},{"trial_n":30,"n_dots":4.05,"target":"left","response":"right","rt":1205.5,"correct":false,"confidence":3},{"trial_n":31,"n_dots":4.15,"target":"left","response":"right","rt":3926.1000000238,"correct":false,"confidence":2},{"trial_n":32,"n_dots":4.25,"target":"right","response":"right","rt":6063.3999999762,"correct":true,"confidence":1},{"trial_n":33,"n_dots":4.25,"target":"right","response":"right","rt":622.5,"correct":true,"confidence":5},{"trial_n":34,"n_dots":4.15,"target":"left","response":"left","rt":1282.5999999642,"correct":true,"confidence":5},{"trial_n":35,"n_dots":4.15,"target":"right","response":"right","rt":944.60000002384,"correct":true,"confidence":4},{"trial_n":36,"n_dots":4.05,"target":"left","response":"left","rt":1946.1000000238,"correct":true,"confidence":1},{"trial_n":37,"n_dots":4.05,"target":"right","response":"right","rt":572.5,"correct":true,"confidence":4},{"trial_n":38,"n_dots":3.95,"target":"right","response":"right","rt":373.19999998808,"correct":true,"confidence":4},{"trial_n":39,"n_dots":3.95,"target":"left","response":"left","rt":775.80000001192,"correct":true,"confidence":4},{"trial_n":40,"n_dots":3.85,"target":"right","response":"right","rt":1442.3999999762,"correct":true,"confidence":3},{"trial_n":41,"n_dots":3.85,"target":"left","response":"left","rt":866.59999996424,"correct":true,"confidence":2},{"trial_n":42,"n_dots":3.75,"target":"left","response":"right","rt":811.89999997616,"correct":false,"confidence":2},{"trial_n":43,"n_dots":3.85,"target":"left","response":"right","rt":1003.5999999642,"correct":false,"confidence":4},{"trial_n":44,"n_dots":3.95,"target":"left","response":"left","rt":538.40000003576,"correct":true,"confidence":5},{"trial_n":45,"n_dots":3.95,"target":"left","response":"left","rt":1564.1000000238,"correct":true,"confidence":3},{"trial_n":46,"n_dots":3.85,"target":"right","response":"right","rt":1053.8999999762,"correct":true,"confidence":3},{"trial_n":47,"n_dots":3.85,"target":"left","response":"left","rt":778.89999997616,"correct":true,"confidence":3},{"trial_n":48,"n_dots":3.75,"target":"right","response":"right","rt":760.10000002384,"correct":true,"confidence":5},{"trial_n":49,"n_dots":3.75,"target":"right","response":"right","rt":640.90000003576,"correct":true,"confidence":5},{"trial_n":50,"n_dots":3.65,"target":"left","response":"right","rt":897.09999996424,"correct":false,"confidence":5},{"trial_n":51,"n_dots":3.75,"target":"left","response":"left","rt":736.09999996424,"correct":true,"confidence":3},{"trial_n":52,"n_dots":3.75,"target":"right","response":"right","rt":1649.0999999642,"correct":true,"confidence":2},{"trial_n":53,"n_dots":3.65,"target":"left","response":"left","rt":675,"correct":true,"confidence":3},{"trial_n":54,"n_dots":3.65,"target":"left","response":"left","rt":581.80000001192,"correct":true,"confidence":3},{"trial_n":55,"n_dots":3.55,"target":"left","response":"left","rt":778.10000002384,"correct":true,"confidence":4},{"trial_n":56,"n_dots":3.55,"target":"right","response":"right","rt":876,"correct":true,"confidence":1},{"trial_n":57,"n_dots":3.45,"target":"left","response":"left","rt":832.30000001192,"correct":true,"confidence":2},{"trial_n":58,"n_dots":3.45,"target":"left","response":"left","rt":618,"correct":true,"confidence":2},{"trial_n":59,"n_dots":3.35,"target":"left","response":"right","rt":943.59999996424,"correct":false,"confidence":2},{"trial_n":60,"n_dots":3.45,"target":"right","response":"right","rt":650.69999998808,"correct":true,"confidence":5},{"trial_n":61,"n_dots":3.45,"target":"left","response":"left","rt":686.80000001192,"correct":true,"confidence":3},{"trial_n":62,"n_dots":3.35,"target":"right","response":"right","rt":242.10000002384,"correct":true,"confidence":4},{"trial_n":63,"n_dots":3.35,"target":"right","response":"left","rt":5170.1999999881,"correct":false,"confidence":3},{"trial_n":64,"n_dots":3.45,"target":"right","response":"right","rt":645.19999998808,"correct":true,"confidence":4},{"trial_n":65,"n_dots":3.45,"target":"right","response":"right","rt":643.30000001192,"correct":true,"confidence":1},{"trial_n":66,"n_dots":3.35,"target":"right","response":"right","rt":5331.0999999642,"correct":true,"confidence":3},{"trial_n":67,"n_dots":3.35,"target":"right","response":"right","rt":1190.1999999881,"correct":true,"confidence":5},{"trial_n":68,"n_dots":3.25,"target":"left","response":"left","rt":816.10000002384,"correct":true,"confidence":2},{"trial_n":69,"n_dots":3.25,"target":"right","response":"right","rt":750.39999997616,"correct":true,"confidence":3},{"trial_n":70,"n_dots":3.15,"target":"left","response":"left","rt":856.70000004768,"correct":true,"confidence":3},{"trial_n":71,"n_dots":3.15,"target":"right","response":"right","rt":790.69999998808,"correct":true,"confidence":2},{"trial_n":72,"n_dots":3.05,"target":"left","response":"left","rt":1084.6000000238,"correct":true,"confidence":2},{"trial_n":73,"n_dots":3.05,"target":"right","response":"right","rt":928.19999998808,"correct":true,"confidence":3},{"trial_n":74,"n_dots":2.95,"target":"right","response":"right","rt":717.29999995232,"correct":true,"confidence":2},{"trial_n":75,"n_dots":2.95,"target":"right","response":"right","rt":811,"correct":true,"confidence":3},{"trial_n":76,"n_dots":2.85,"target":"left","response":"right","rt":783.80000001192,"correct":false,"confidence":3},{"trial_n":77,"n_dots":2.95,"target":"right","response":"right","rt":11388.899999976,"correct":true,"confidence":1},{"trial_n":78,"n_dots":2.95,"target":"left","response":"right","rt":803.39999997616,"correct":false,"confidence":2},{"trial_n":79,"n_dots":3.05,"target":"right","response":"right","rt":1245.8999999762,"correct":true,"confidence":1},{"trial_n":80,"n_dots":3.05,"target":"left","response":"left","rt":721.19999998808,"correct":true,"confidence":2},{"trial_n":81,"n_dots":2.95,"target":"right","response":"right","rt":293.79999995232,"correct":true,"confidence":4},{"trial_n":82,"n_dots":2.95,"target":"left","response":"right","rt":647.20000004768,"correct":false,"confidence":4},{"trial_n":83,"n_dots":3.05,"target":"left","response":"left","rt":1382.6999999881,"correct":true,"confidence":2},{"trial_n":84,"n_dots":3.05,"target":"left","response":"left","rt":12061.5,"correct":true,"confidence":2},{"trial_n":85,"n_dots":2.95,"target":"left","response":"left","rt":740.40000003576,"correct":true,"confidence":2},{"trial_n":86,"n_dots":2.95,"target":"right","response":"right","rt":449.5,"correct":true,"confidence":3},{"trial_n":87,"n_dots":2.85,"target":"left","response":"right","rt":429.89999997616,"correct":false,"confidence":3},{"trial_n":88,"n_dots":2.95,"target":"right","response":"right","rt":692.80000001192,"correct":true,"confidence":2},{"trial_n":89,"n_dots":2.95,"target":"right","response":"right","rt":497.29999995232,"correct":true,"confidence":2},{"trial_n":90,"n_dots":2.85,"target":"left","response":"left","rt":710.5,"correct":true,"confidence":2},{"trial_n":91,"n_dots":2.85,"target":"right","response":"right","rt":582,"correct":true,"confidence":2},{"trial_n":92,"n_dots":2.75,"target":"right","response":"right","rt":839.20000004768,"correct":true,"confidence":1},{"trial_n":93,"n_dots":2.75,"target":"right","response":"left","rt":499,"correct":false,"confidence":1},{"trial_n":94,"n_dots":2.85,"target":"left","response":"right","rt":507.19999998808,"correct":false,"confidence":1},{"trial_n":95,"n_dots":2.95,"target":"left","response":"left","rt":624.19999998808,"correct":true,"confidence":1},{"trial_n":96,"n_dots":2.95,"target":"right","response":"left","rt":1308.3999999762,"correct":false,"confidence":2},{"trial_n":97,"n_dots":3.05,"target":"right","response":"right","rt":1687.5,"correct":true,"confidence":3},{"trial_n":98,"n_dots":3.05,"target":"right","response":"left","rt":1192.7999999523,"correct":false,"confidence":2},{"trial_n":99,"n_dots":3.15,"target":"left","response":"left","rt":477.69999998808,"correct":true,"confidence":1},{"trial_n":100,"n_dots":3.15,"target":"right","response":"left","rt":869.69999998808,"correct":false,"confidence":1},{"trial_n":101,"n_dots":3.25,"target":"left","response":"left","rt":637.60000002384,"correct":true,"confidence":3},{"trial_n":102,"n_dots":3.25,"target":"left","response":"left","rt":484.30000001192,"correct":true,"confidence":3},{"trial_n":103,"n_dots":3.15,"target":"left","response":"left","rt":439,"correct":true,"confidence":3},{"trial_n":104,"n_dots":3.15,"target":"left","response":"right","rt":1299.3999999762,"correct":false,"confidence":1},{"trial_n":105,"n_dots":3.25,"target":"left","response":"left","rt":559.20000004768,"correct":true,"confidence":2},{"trial_n":106,"n_dots":3.25,"target":"right","response":"right","rt":445.30000001192,"correct":true,"confidence":2},{"trial_n":107,"n_dots":3.15,"target":"right","response":"left","rt":678.80000001192,"correct":false,"confidence":2},{"trial_n":108,"n_dots":3.25,"target":"left","response":"left","rt":288.19999998808,"correct":true,"confidence":1},{"trial_n":109,"n_dots":3.25,"target":"right","response":"right","rt":833.69999998808,"correct":true,"confidence":2},{"trial_n":110,"n_dots":3.15,"target":"left","response":"left","rt":3066.1999999881,"correct":true,"confidence":1},{"trial_n":111,"n_dots":3.15,"target":"left","response":"left","rt":1213.9000000358,"correct":true,"confidence":2},{"trial_n":112,"n_dots":3.05,"target":"right","response":"right","rt":617.39999997616,"correct":true,"confidence":2},{"trial_n":113,"n_dots":3.05,"target":"left","response":"left","rt":541.90000003576,"correct":true,"confidence":2},{"trial_n":114,"n_dots":2.95,"target":"right","response":"right","rt":1071.4000000358,"correct":true,"confidence":2},{"trial_n":115,"n_dots":2.95,"target":"right","response":"right","rt":21132.800000012,"correct":true,"confidence":3},{"trial_n":116,"n_dots":2.85,"target":"right","response":"left","rt":782.89999997616,"correct":false,"confidence":2},{"trial_n":117,"n_dots":2.95,"target":"left","response":"left","rt":480.59999996424,"correct":true,"confidence":3},{"trial_n":118,"n_dots":2.95,"target":"right","response":"right","rt":962.69999998808,"correct":true,"confidence":2},{"trial_n":119,"n_dots":2.85,"target":"left","response":"left","rt":505.89999997616,"correct":true,"confidence":2},{"trial_n":120,"n_dots":2.85,"target":"left","response":"left","rt":101,"correct":true,"confidence":2}]