[{"trial_n":1,"span":8,"encoder":"86533348","distractor":"86538348","target":"present","response":"present","rt":"3161.1000000238","correct":true,"confidence":-1},{"trial_n":2,"span":8,"encoder":"14253909","distractor":"14253907","target":"present","response":"absent","rt":"3275.6000000238","correct":false,"confidence":-1},{"trial_n":3,"span":6,"encoder":"948406","distractor":"948476","target":"absent","response":"absent","rt":"3010","correct":true,"confidence":-1},{"trial_n":4,"span":6,"encoder":"309783","distractor":"609783","target":"absent","response":"absent","rt":"1331","correct":true,"confidence":-1},{"trial_n":5,"span":8,"encoder":"26342537","distractor":"26242537","target":"present","response":"absent","rt":"2887.9000000358","correct":false,"confidence":-1},{"trial_n":6,"span":6,"encoder":"798066","distractor":"098066","target":"absent","response":"absent","rt":"1482.7000000477","correct":true,"confidence":-1},{"trial_n":7,"span":6,"encoder":"397979","distractor":"397279","target":"present","response":"present","rt":"2437","correct":true,"confidence":-1},{"trial_n":8,"span":8,"encoder":"33974863","distractor":"33974363","target":"absent","response":"absent","rt":"3721","correct":true,"confidence":-1},{"trial_n":9,"span":8,"encoder":"61195796","distractor":"61695796","target":"present","response":"present","rt":"3547","correct":true,"confidence":-1},{"trial_n":10,"span":10,"encoder":"1240033976","distractor":"1249033976","target":"present","response":"absent","rt":"1697.8000000119","correct":false,"confidence":-1},{"trial_n":11,"span":8,"encoder":"28681614","distractor":"28681611","target":"absent","response":"absent","rt":"2819.6000000238","correct":true,"confidence":-1},{"trial_n":12,"span":8,"encoder":"62480365","distractor":"62410365","target":"absent","response":"present","rt":"2754.8000000119","correct":false,"confidence":-1},{"trial_n":13,"span":7,"encoder":"4005519","distractor":"4005819","target":"absent","response":"absent","rt":"2524.5","correct":true,"confidence":-1},{"trial_n":14,"span":7,"encoder":"1336210","distractor":"1376210","target":"present","response":"present","rt":"2141.8000000119","correct":true,"confidence":-1},{"trial_n":15,"span":8,"encoder":"84577069","distractor":"81577069","target":"present","response":"present","rt":"2859.5","correct":true,"confidence":-1},{"trial_n":16,"span":8,"encoder":"69055783","distractor":"69095783","target":"present","response":"present","rt":"2191.6000000238","correct":true,"confidence":-1},{"trial_n":17,"span":9,"encoder":"051141332","distractor":"051121332","target":"absent","response":"absent","rt":"2691.4000000358","correct":true,"confidence":-1},{"trial_n":18,"span":9,"encoder":"657721578","distractor":"658721578","target":"present","response":"present","rt":"2532.5","correct":true,"confidence":-1},{"trial_n":19,"span":10,"encoder":"6156042614","distractor":"6196042614","target":"present","response":"present","rt":"2833.3999999762","correct":true,"confidence":-1},{"trial_n":20,"span":10,"encoder":"3625751727","distractor":"3625751729","target":"absent","response":"absent","rt":"1982.5","correct":true,"confidence":-1},{"trial_n":21,"span":11,"encoder":"16505517028","distractor":"16505512028","target":"present","response":"present","rt":"4473.4000000358","correct":true,"confidence":2},{"trial_n":22,"span":11,"encoder":"58461730799","distractor":"58421730799","target":"absent","response":"present","rt":"5141.8000000119","correct":false,"confidence":3},{"trial_n":23,"span":10,"encoder":"8577308224","distractor":"8577408224","target":"absent","response":"absent","rt":"3944.2000000477","correct":true,"confidence":2},{"trial_n":24,"span":10,"encoder":"9402855025","distractor":"9432855025","target":"present","response":"present","rt":"5429.6000000238","correct":true,"confidence":2},{"trial_n":25,"span":11,"encoder":"57091594197","distractor":"51091594197","target":"present","response":"absent","rt":"2003.5","correct":false,"confidence":1},{"trial_n":26,"span":10,"encoder":"0234779158","distractor":"0234779958","target":"absent","response":"absent","rt":"2654.3999999762","correct":true,"confidence":3},{"trial_n":27,"span":10,"encoder":"0463900604","distractor":"0463902604","target":"absent","response":"absent","rt":"2237.6999999881","correct":true,"confidence":4},{"trial_n":28,"span":11,"encoder":"04101146174","distractor":"04101246174","target":"absent","response":"absent","rt":"1856.8999999762","correct":true,"confidence":4},{"trial_n":29,"span":11,"encoder":"26520328849","distractor":"26520828849","target":"present","response":"present","rt":"3524.3000000119","correct":true,"confidence":3},{"trial_n":30,"span":12,"encoder":"932692550224","distractor":"932592550224","target":"present","response":"present","rt":"3692.1000000238","correct":true,"confidence":2},{"trial_n":31,"span":12,"encoder":"786973600378","distractor":"786973600372","target":"present","response":"present","rt":"7045.1999999881","correct":true,"confidence":2},{"trial_n":32,"span":13,"encoder":"1242978503431","distractor":"1242978603431","target":"present","response":"present","rt":"3192.6999999881","correct":true,"confidence":3},{"trial_n":33,"span":13,"encoder":"0976080479501","distractor":"0276080479501","target":"absent","response":"absent","rt":"2562.5","correct":true,"confidence":4},{"trial_n":34,"span":14,"encoder":"45019314883252","distractor":"45019314883258","target":"absent","response":"absent","rt":"2019.1000000238","correct":true,"confidence":4},{"trial_n":35,"span":14,"encoder":"92448626715721","distractor":"92448626711721","target":"absent","response":"present","rt":"4834.4000000358","correct":false,"confidence":2},{"trial_n":36,"span":13,"encoder":"3049238958690","distractor":"3449238958690","target":"absent","response":"absent","rt":"3218.7000000477","correct":true,"confidence":1},{"trial_n":37,"span":13,"encoder":"3149585967645","distractor":"4149585967645","target":"absent","response":"present","rt":"5574.1999999881","correct":false,"confidence":2},{"trial_n":38,"span":12,"encoder":"769573525080","distractor":"569573525080","target":"present","response":"present","rt":"10878.5","correct":true,"confidence":2},{"trial_n":39,"span":12,"encoder":"784608780660","distractor":"784608720660","target":"absent","response":"absent","rt":"4008.6000000238","correct":true,"confidence":2},{"trial_n":40,"span":13,"encoder":"7226942980757","distractor":"7226942980767","target":"absent","response":"absent","rt":"2300.0999999642","correct":true,"confidence":1},{"trial_n":41,"span":13,"encoder":"5917099742879","distractor":"5917099442879","target":"absent","response":"absent","rt":"6812.5","correct":true,"confidence":2},{"trial_n":42,"span":14,"encoder":"50319279438173","distractor":"50319279436173","target":"absent","response":"present","rt":"3904.8999999762","correct":false,"confidence":1},{"trial_n":43,"span":13,"encoder":"4075383071469","distractor":"4065383071469","target":"present","response":"present","rt":"5835","correct":true,"confidence":2},{"trial_n":44,"span":13,"encoder":"2974517055185","distractor":"2974517055985","target":"absent","response":"present","rt":"7165.4000000358","correct":false,"confidence":1},{"trial_n":45,"span":12,"encoder":"176833017453","distractor":"166833017453","target":"present","response":"absent","rt":"5416.5","correct":false,"confidence":1},{"trial_n":46,"span":11,"encoder":"75537732269","distractor":"75537736269","target":"absent","response":"absent","rt":"6058.9000000358","correct":true,"confidence":1},{"trial_n":47,"span":11,"encoder":"49255215918","distractor":"09255215918","target":"absent","response":"present","rt":"2663.5","correct":false,"confidence":2},{"trial_n":48,"span":10,"encoder":"7574189743","distractor":"3574189743","target":"present","response":"present","rt":"7988.7000000477","correct":true,"confidence":2},{"trial_n":49,"span":10,"encoder":"3396771723","distractor":"3396701723","target":"present","response":"present","rt":"4217.8999999762","correct":true,"confidence":1},{"trial_n":50,"span":11,"encoder":"09983855186","distractor":"09983851186","target":"present","response":"present","rt":"4457.5999999642","correct":true,"confidence":1},{"trial_n":51,"span":11,"encoder":"62770353219","distractor":"69770353219","target":"absent","response":"present","rt":"4886.2000000477","correct":false,"confidence":3},{"trial_n":52,"span":10,"encoder":"3156795708","distractor":"3156795700","target":"present","response":"absent","rt":"5891.8000000119","correct":false,"confidence":1},{"trial_n":53,"span":9,"encoder":"426866339","distractor":"426866332","target":"present","response":"present","rt":"3091.2000000477","correct":true,"confidence":4},{"trial_n":54,"span":9,"encoder":"732573515","distractor":"782573515","target":"present","response":"present","rt":"3976.3000000119","correct":true,"confidence":3},{"trial_n":55,"span":10,"encoder":"3838089660","distractor":"3138089660","target":"absent","response":"present","rt":"12522.300000012","correct":false,"confidence":2},{"trial_n":56,"span":9,"encoder":"762548084","distractor":"722548084","target":"present","response":"present","rt":"3885.9000000358","correct":true,"confidence":2},{"trial_n":57,"span":9,"encoder":"718284039","distractor":"718284034","target":"present","response":"present","rt":"3435.5","correct":true,"confidence":2},{"trial_n":58,"span":10,"encoder":"9612374733","distractor":"9612374713","target":"present","response":"absent","rt":"3900.1999999881","correct":false,"confidence":1},{"trial_n":59,"span":9,"encoder":"621597537","distractor":"621597837","target":"absent","response":"absent","rt":"3685.4000000358","correct":true,"confidence":3},{"trial_n":60,"span":9,"encoder":"118127288","distractor":"118427288","target":"present","response":"present","rt":"4030.5999999642","correct":true,"confidence":2},{"trial_n":61,"span":10,"encoder":"3112352906","distractor":"3812352906","target":"absent","response":"absent","rt":"3853.2999999523","correct":true,"confidence":1},{"trial_n":62,"span":10,"encoder":"1670145088","distractor":"1670147088","target":"absent","response":"present","rt":"4039.6999999881","correct":false,"confidence":3},{"trial_n":63,"span":9,"encoder":"652562138","distractor":"652562131","target":"absent","response":"absent","rt":"3632.6000000238","correct":true,"confidence":1},{"trial_n":64,"span":9,"encoder":"186976760","distractor":"186970760","target":"present","response":"present","rt":"3650.1999999881","correct":true,"confidence":3},{"trial_n":65,"span":10,"encoder":"4078546888","distractor":"4078566888","target":"present","response":"absent","rt":"6458.7000000477","correct":false,"confidence":1},{"trial_n":66,"span":9,"encoder":"053728274","distractor":"043728274","target":"present","response":"present","rt":"3292.1000000238","correct":true,"confidence":3},{"trial_n":67,"span":9,"encoder":"241842505","distractor":"241842515","target":"absent","response":"absent","rt":"3714.8000000119","correct":true,"confidence":3},{"trial_n":68,"span":10,"encoder":"3981218208","distractor":"3986218208","target":"absent","response":"absent","rt":"3445.6000000238","correct":true,"confidence":2},{"trial_n":69,"span":10,"encoder":"2606247715","distractor":"2606547715","target":"present","response":"present","rt":"3938.3999999762","correct":true,"confidence":1},{"trial_n":70,"span":11,"encoder":"11003945341","distractor":"11803945341","target":"present","response":"absent","rt":"5187.0999999642","correct":false,"confidence":2},{"trial_n":71,"span":8,"encoder":"82519980","distractor":"42519980","target":"present","response":"present","rt":"9525.5","correct":true,"confidence":-1},{"trial_n":72,"span":8,"encoder":"84451710","distractor":"84451810","target":"present","response":"present","rt":"4382.6999999881","correct":true,"confidence":-1},{"trial_n":73,"span":9,"encoder":"880164367","distractor":"880164387","target":"absent","response":"absent","rt":"9037.6999999881","correct":true,"confidence":-1},{"trial_n":74,"span":9,"encoder":"145705516","distractor":"145708516","target":"absent","response":"absent","rt":"1909.3000000119","correct":true,"confidence":-1},{"trial_n":75,"span":10,"encoder":"7011393491","distractor":"7511393491","target":"present","response":"present","rt":"6265.3999999762","correct":true,"confidence":-1},{"trial_n":76,"span":10,"encoder":"9753264971","distractor":"9353264971","target":"present","response":"present","rt":"8322.1999999881","correct":true,"confidence":-1},{"trial_n":77,"span":11,"encoder":"60342043703","distractor":"60342043403","target":"absent","response":"absent","rt":"2258.9000000358","correct":true,"confidence":-1},{"trial_n":78,"span":11,"encoder":"69331306794","distractor":"69331306799","target":"present","response":"present","rt":"8535.7000000477","correct":true,"confidence":-1},{"trial_n":79,"span":12,"encoder":"216537688619","distractor":"216537680619","target":"absent","response":"absent","rt":"4371.8999999762","correct":true,"confidence":-1},{"trial_n":80,"span":12,"encoder":"796980162090","distractor":"796980162096","target":"present","response":"present","rt":"1625.7000000477","correct":true,"confidence":-1},{"trial_n":81,"span":13,"encoder":"3528266019022","distractor":"3228266019022","target":"present","response":"present","rt":"8010.6000000238","correct":true,"confidence":-1},{"trial_n":82,"span":13,"encoder":"0663780885262","distractor":"0663780886262","target":"present","response":"absent","rt":"10165.900000036","correct":false,"confidence":-1},{"trial_n":83,"span":12,"encoder":"349906995319","distractor":"349006995319","target":"present","response":"present","rt":"8976.5999999642","correct":true,"confidence":-1},{"trial_n":84,"span":12,"encoder":"400825153703","distractor":"600825153703","target":"absent","response":"present","rt":"2432.4000000358","correct":false,"confidence":-1},{"trial_n":85,"span":11,"encoder":"32111454252","distractor":"32111414252","target":"present","response":"present","rt":"4303.2000000477","correct":true,"confidence":-1},{"trial_n":86,"span":11,"encoder":"33152792218","distractor":"33152782218","target":"absent","response":"absent","rt":"11307.300000012","correct":true,"confidence":-1},{"trial_n":87,"span":12,"encoder":"462049480548","distractor":"562049480548","target":"absent","response":"absent","rt":"4662.9000000358","correct":true,"confidence":-1},{"trial_n":88,"span":12,"encoder":"118618341031","distractor":"118618371031","target":"present","response":"present","rt":"7414.5","correct":true,"confidence":-1},{"trial_n":89,"span":13,"encoder":"7474672558793","distractor":"7174672558793","target":"absent","response":"absent","rt":"5367.5","correct":true,"confidence":-1},{"trial_n":90,"span":13,"encoder":"6614648316340","distractor":"6611648316340","target":"present","response":"present","rt":"3335.9000000358","correct":true,"confidence":-1},{"trial_n":91,"span":14,"encoder":"13681422325672","distractor":"10681422325672","target":"absent","response":"absent","rt":"2934.1999999881","correct":true,"confidence":4},{"trial_n":92,"span":14,"encoder":"85151371375500","distractor":"85151371975500","target":"present","response":"present","rt":"7205.8000000119","correct":true,"confidence":2},{"trial_n":93,"span":15,"encoder":"039278114987845","distractor":"039248114987845","target":"present","response":"present","rt":"7279.0999999642","correct":true,"confidence":3},{"trial_n":94,"span":15,"encoder":"657823691726261","distractor":"657803691726261","target":"absent","response":"absent","rt":"9919.9000000358","correct":true,"confidence":1},{"trial_n":95,"span":16,"encoder":"3190051786480447","distractor":"3290051786480447","target":"absent","response":"absent","rt":"9128.9000000358","correct":true,"confidence":2},{"trial_n":96,"span":16,"encoder":"4170505486309007","distractor":"4170535486309007","target":"present","response":"present","rt":"7288.7999999523","correct":true,"confidence":2},{"trial_n":97,"span":17,"encoder":"07920870832895281","distractor":"07900870832895281","target":"present","response":"present","rt":"8257.6000000238","correct":true,"confidence":2},{"trial_n":98,"span":17,"encoder":"96423770668587556","distractor":"96423750668587556","target":"absent","response":"absent","rt":"4239.1999999881","correct":true,"confidence":3},{"trial_n":99,"span":18,"encoder":"324611082508313960","distractor":"324661082508313960","target":"absent","response":"present","rt":"9696.5","correct":false,"confidence":3},{"trial_n":100,"span":17,"encoder":"70697515217218252","distractor":"70697515217218152","target":"absent","response":"absent","rt":"2857.1999999881","correct":true,"confidence":3},{"trial_n":101,"span":17,"encoder":"21627397765859667","distractor":"21627397765859661","target":"absent","response":"absent","rt":"2418.4000000358","correct":true,"confidence":5},{"trial_n":102,"span":18,"encoder":"011723996071104497","distractor":"011723996071164497","target":"present","response":"present","rt":"10419.899999976","correct":true,"confidence":1},{"trial_n":103,"span":18,"encoder":"051244753273413279","distractor":"051244753273414279","target":"absent","response":"absent","rt":"2715","correct":true,"confidence":5},{"trial_n":104,"span":19,"encoder":"2412789754125838227","distractor":"2412789254125838227","target":"present","response":"present","rt":"11068.800000012","correct":true,"confidence":1},{"trial_n":105,"span":19,"encoder":"3975808807005455034","distractor":"3975808807005455634","target":"present","response":"present","rt":"3214.9000000358","correct":true,"confidence":3},{"trial_n":106,"span":20,"encoder":"01032518282955838748","distractor":"01039518282955838748","target":"absent","response":"present","rt":"7062.1000000238","correct":false,"confidence":1},{"trial_n":107,"span":19,"encoder":"9512770995437504746","distractor":"9512770995437504706","target":"absent","response":"absent","rt":"2865.4000000358","correct":true,"confidence":5},{"trial_n":108,"span":19,"encoder":"4684085855864960294","distractor":"4684045855864960294","target":"present","response":"present","rt":"13101.300000012","correct":true,"confidence":2},{"trial_n":109,"span":20,"encoder":"91284837267122467906","distractor":"91284837263122467906","target":"present","response":"absent","rt":"10956.5","correct":false,"confidence":1},{"trial_n":110,"span":19,"encoder":"1117153820958537516","distractor":"1417153820958537516","target":"present","response":"present","rt":"2487.7000000477","correct":true,"confidence":5},{"trial_n":111,"span":19,"encoder":"5969367127515254409","distractor":"5969367127715254409","target":"absent","response":"absent","rt":"16232.900000036","correct":true,"confidence":1},{"trial_n":112,"span":20,"encoder":"83398423350061009198","distractor":"83398423350061009398","target":"absent","response":"absent","rt":"4155","correct":true,"confidence":5},{"trial_n":113,"span":20,"encoder":"63395300351175314798","distractor":"63395300351175314788","target":"present","response":"present","rt":"2036.5","correct":true,"confidence":5},{"trial_n":114,"span":21,"encoder":"778044807063646756338","distractor":"778044807063646756238","target":"absent","response":"absent","rt":"2599.6000000238","correct":true,"confidence":5},{"trial_n":115,"span":21,"encoder":"583041218221404792354","distractor":"583041218721404792354","target":"absent","response":"absent","rt":"7737","correct":true,"confidence":2},{"trial_n":116,"span":22,"encoder":"5628102897598075103228","distractor":"5628102896598075103228","target":"absent","response":"present","rt":"4840.1999999881","correct":false,"confidence":1},{"trial_n":117,"span":21,"encoder":"096447022281345667738","distractor":"596447022281345667738","target":"absent","response":"absent","rt":"15651.699999988","correct":true,"confidence":1},{"trial_n":118,"span":21,"encoder":"942019827249756866663","distractor":"942017827249756866663","target":"absent","response":"present","rt":"9068","correct":false,"confidence":2},{"trial_n":119,"span":20,"encoder":"03473012807272258737","distractor":"03479012807272258737","target":"present","response":"present","rt":"12069.400000036","correct":true,"confidence":2},{"trial_n":120,"span":20,"encoder":"38617741560226789269","distractor":"38317741560226789269","target":"present","response":"present","rt":"9116.8000000119","correct":true,"confidence":1},{"trial_n":121,"span":21,"encoder":"019069770655388543483","distractor":"014069770655388543483","target":"absent","response":"absent","rt":"6682.6000000238","correct":true,"confidence":5},{"trial_n":122,"span":21,"encoder":"105154715315145810700","distractor":"105154715315045810700","target":"present","response":"absent","rt":"11366","correct":false,"confidence":1},{"trial_n":123,"span":20,"encoder":"12067389885336144540","distractor":"12967389885336144540","target":"absent","response":"present","rt":"9998.6000000238","correct":false,"confidence":2},{"trial_n":124,"span":19,"encoder":"2329166324176306345","distractor":"2329166324176386345","target":"absent","response":"present","rt":"14200.700000048","correct":false,"confidence":2},{"trial_n":125,"span":18,"encoder":"586094616226272006","distractor":"586094216226272006","target":"present","response":"absent","rt":"10545.599999964","correct":false,"confidence":2},{"trial_n":126,"span":17,"encoder":"40271115798573065","distractor":"40271115708573065","target":"present","response":"present","rt":"7643.1999999881","correct":true,"confidence":2},{"trial_n":127,"span":17,"encoder":"97531573426844687","distractor":"97531573476844687","target":"present","response":"present","rt":"12563.199999988","correct":true,"confidence":2},{"trial_n":128,"span":18,"encoder":"662535348138701134","distractor":"662535348138700134","target":"absent","response":"absent","rt":"3193.3999999762","correct":true,"confidence":3},{"trial_n":129,"span":18,"encoder":"544164534308866139","distractor":"544164534301866139","target":"present","response":"present","rt":"2411","correct":true,"confidence":5},{"trial_n":130,"span":19,"encoder":"3488099162474875294","distractor":"3488099562474875294","target":"absent","response":"present","rt":"9150.4000000358","correct":false,"confidence":2},{"trial_n":131,"span":18,"encoder":"495585634993024571","distractor":"495585634993025571","target":"present","response":"absent","rt":"5117.1999999881","correct":false,"confidence":4},{"trial_n":132,"span":17,"encoder":"52068986055824421","distractor":"52068986055894421","target":"absent","response":"absent","rt":"4414.7000000477","correct":true,"confidence":2},{"trial_n":133,"span":17,"encoder":"89369413348866265","distractor":"89369413848866265","target":"present","response":"present","rt":"10177.300000012","correct":true,"confidence":2},{"trial_n":134,"span":18,"encoder":"536084303544755526","distractor":"536044303544755526","target":"present","response":"present","rt":"6954.7999999523","correct":true,"confidence":3},{"trial_n":135,"span":18,"encoder":"507789721602237297","distractor":"307789721602237297","target":"present","response":"present","rt":"5492.5","correct":true,"confidence":2},{"trial_n":136,"span":19,"encoder":"7746400191407900837","distractor":"7746400191407300837","target":"absent","response":"absent","rt":"10707.600000024","correct":true,"confidence":3},{"trial_n":137,"span":19,"encoder":"0325352585260555973","distractor":"0325352535260555973","target":"absent","response":"absent","rt":"7656.8999999762","correct":true,"confidence":1},{"trial_n":138,"span":20,"encoder":"70368643844919925960","distractor":"60368643844919925960","target":"absent","response":"absent","rt":"10280.899999976","correct":true,"confidence":3},{"trial_n":139,"span":20,"encoder":"96251116787713392120","distractor":"96251116787713892120","target":"present","response":"absent","rt":"7847.9000000358","correct":false,"confidence":2},{"trial_n":140,"span":19,"encoder":"6187028014605086873","distractor":"6107028014605086873","target":"present","response":"absent","rt":"6887.3000000119","correct":false,"confidence":2}]