[{"trial_n":1,"span":8,"encoder":"90695933","distractor":"90495933","target":"present","response":"present","rt":"2354.4000000358","correct":true,"confidence":-1},{"trial_n":2,"span":8,"encoder":"61989149","distractor":"61189149","target":"present","response":"absent","rt":"2701.1999999881","correct":false,"confidence":-1},{"trial_n":3,"span":6,"encoder":"760766","distractor":"730766","target":"absent","response":"absent","rt":"3830.1999999881","correct":true,"confidence":-1},{"trial_n":4,"span":6,"encoder":"335007","distractor":"335047","target":"absent","response":"absent","rt":"2693","correct":true,"confidence":-1},{"trial_n":5,"span":8,"encoder":"49396339","distractor":"89396339","target":"present","response":"present","rt":"3201.8999999762","correct":true,"confidence":-1},{"trial_n":6,"span":8,"encoder":"54687116","distractor":"54687316","target":"present","response":"present","rt":"1337.9000000358","correct":true,"confidence":-1},{"trial_n":7,"span":10,"encoder":"6858582624","distractor":"6858982624","target":"absent","response":"present","rt":"2509.8000000119","correct":false,"confidence":-1},{"trial_n":8,"span":8,"encoder":"81637450","distractor":"81635450","target":"present","response":"present","rt":"2743.8999999762","correct":true,"confidence":-1},{"trial_n":9,"span":8,"encoder":"11308397","distractor":"71308397","target":"absent","response":"absent","rt":"760.19999998808","correct":true,"confidence":-1},{"trial_n":10,"span":10,"encoder":"7734200947","distractor":"7734200943","target":"absent","response":"absent","rt":"1556.5","correct":true,"confidence":-1},{"trial_n":11,"span":10,"encoder":"4959324037","distractor":"4959314037","target":"present","response":"present","rt":"1077","correct":true,"confidence":-1},{"trial_n":12,"span":11,"encoder":"86515968770","distractor":"86815968770","target":"absent","response":"present","rt":"1320.8000000119","correct":false,"confidence":-1},{"trial_n":13,"span":10,"encoder":"0670898013","distractor":"0670894013","target":"absent","response":"present","rt":"1112.0999999642","correct":false,"confidence":-1},{"trial_n":14,"span":9,"encoder":"303192113","distractor":"303192613","target":"present","response":"present","rt":"1639.4000000358","correct":true,"confidence":-1},{"trial_n":15,"span":9,"encoder":"445566325","distractor":"445566328","target":"present","response":"absent","rt":"2430.8000000119","correct":false,"confidence":-1},{"trial_n":16,"span":8,"encoder":"00772059","distractor":"00772009","target":"absent","response":"absent","rt":"2369","correct":true,"confidence":-1},{"trial_n":17,"span":8,"encoder":"86076557","distractor":"86074557","target":"absent","response":"present","rt":"1487.9000000358","correct":false,"confidence":-1},{"trial_n":18,"span":7,"encoder":"0427633","distractor":"0427433","target":"present","response":"absent","rt":"1526","correct":false,"confidence":-1},{"trial_n":19,"span":6,"encoder":"932357","distractor":"032357","target":"absent","response":"present","rt":"1404.3999999762","correct":false,"confidence":-1},{"trial_n":20,"span":5,"encoder":"14656","distractor":"17656","target":"present","response":"absent","rt":"12650.5","correct":false,"confidence":-1},{"trial_n":21,"span":4,"encoder":"5888","distractor":"5988","target":"absent","response":"absent","rt":"1913.8000000119","correct":true,"confidence":3},{"trial_n":22,"span":4,"encoder":"1417","distractor":"4417","target":"absent","response":"absent","rt":"1660.1000000238","correct":true,"confidence":5},{"trial_n":23,"span":5,"encoder":"09417","distractor":"69417","target":"present","response":"present","rt":"1485.8000000119","correct":true,"confidence":5},{"trial_n":24,"span":5,"encoder":"35654","distractor":"35674","target":"absent","response":"absent","rt":"2682.6999999881","correct":true,"confidence":5},{"trial_n":25,"span":6,"encoder":"320737","distractor":"320757","target":"present","response":"present","rt":"2992.8000000119","correct":true,"confidence":5},{"trial_n":26,"span":6,"encoder":"356788","distractor":"356688","target":"absent","response":"absent","rt":"1947.0999999642","correct":true,"confidence":3},{"trial_n":27,"span":7,"encoder":"4127220","distractor":"4127260","target":"absent","response":"absent","rt":"3768.5999999642","correct":true,"confidence":5},{"trial_n":28,"span":7,"encoder":"7467958","distractor":"7469958","target":"absent","response":"absent","rt":"2716.7000000477","correct":true,"confidence":5},{"trial_n":29,"span":8,"encoder":"42617944","distractor":"42607944","target":"absent","response":"absent","rt":"3202.0999999642","correct":true,"confidence":4},{"trial_n":30,"span":8,"encoder":"20395355","distractor":"20395345","target":"present","response":"present","rt":"3288.4000000358","correct":true,"confidence":5},{"trial_n":31,"span":9,"encoder":"549478964","distractor":"549578964","target":"present","response":"absent","rt":"1057.1000000238","correct":false,"confidence":1},{"trial_n":32,"span":8,"encoder":"40378402","distractor":"40379402","target":"absent","response":"absent","rt":"3050.3000000119","correct":true,"confidence":5},{"trial_n":33,"span":8,"encoder":"94127938","distractor":"94627938","target":"present","response":"present","rt":"3540.6000000238","correct":true,"confidence":5},{"trial_n":34,"span":9,"encoder":"785278984","distractor":"985278984","target":"present","response":"present","rt":"3740.3000000119","correct":true,"confidence":4},{"trial_n":35,"span":9,"encoder":"543541579","distractor":"543641579","target":"absent","response":"present","rt":"922.09999996424","correct":false,"confidence":3},{"trial_n":36,"span":8,"encoder":"97158703","distractor":"97158773","target":"absent","response":"absent","rt":"2478.2999999523","correct":true,"confidence":5},{"trial_n":37,"span":8,"encoder":"09004136","distractor":"59004136","target":"absent","response":"absent","rt":"2960.3000000119","correct":true,"confidence":5},{"trial_n":38,"span":9,"encoder":"660223663","distractor":"660223662","target":"absent","response":"absent","rt":"4912.7999999523","correct":true,"confidence":5},{"trial_n":39,"span":9,"encoder":"890000266","distractor":"590000266","target":"present","response":"absent","rt":"3849.9000000358","correct":false,"confidence":2},{"trial_n":40,"span":8,"encoder":"69625746","distractor":"69628746","target":"absent","response":"absent","rt":"3193.1999999881","correct":true,"confidence":4},{"trial_n":41,"span":8,"encoder":"49204611","distractor":"47204611","target":"absent","response":"present","rt":"2258.5999999642","correct":false,"confidence":2},{"trial_n":42,"span":7,"encoder":"3448636","distractor":"3408636","target":"present","response":"present","rt":"2475.6999999881","correct":true,"confidence":3},{"trial_n":43,"span":7,"encoder":"0207429","distractor":"0287429","target":"absent","response":"absent","rt":"2188.1000000238","correct":true,"confidence":4},{"trial_n":44,"span":8,"encoder":"42885313","distractor":"41885313","target":"present","response":"present","rt":"3346","correct":true,"confidence":5},{"trial_n":45,"span":8,"encoder":"36103624","distractor":"36103625","target":"absent","response":"absent","rt":"2396.1999999881","correct":true,"confidence":5},{"trial_n":46,"span":9,"encoder":"277561190","distractor":"677561190","target":"absent","response":"absent","rt":"2266.1000000238","correct":true,"confidence":5},{"trial_n":47,"span":9,"encoder":"367867531","distractor":"367867731","target":"absent","response":"present","rt":"1146.9000000358","correct":false,"confidence":3},{"trial_n":48,"span":8,"encoder":"38501402","distractor":"38501401","target":"present","response":"present","rt":"2644.1000000238","correct":true,"confidence":5},{"trial_n":49,"span":8,"encoder":"41891375","distractor":"41891385","target":"present","response":"absent","rt":"817.69999998808","correct":false,"confidence":1},{"trial_n":50,"span":7,"encoder":"8782868","distractor":"8784868","target":"present","response":"present","rt":"2909.6999999881","correct":true,"confidence":5},{"trial_n":51,"span":7,"encoder":"6754647","distractor":"7754647","target":"present","response":"present","rt":"1473.4000000358","correct":true,"confidence":1},{"trial_n":52,"span":8,"encoder":"34554293","distractor":"34504293","target":"absent","response":"absent","rt":"3566.6000000238","correct":true,"confidence":4},{"trial_n":53,"span":8,"encoder":"30505909","distractor":"30505999","target":"present","response":"present","rt":"4966.3999999762","correct":true,"confidence":4},{"trial_n":54,"span":9,"encoder":"056401554","distractor":"056101554","target":"absent","response":"absent","rt":"2618","correct":true,"confidence":5},{"trial_n":55,"span":9,"encoder":"766371111","distractor":"766379111","target":"present","response":"present","rt":"3836.5","correct":true,"confidence":4},{"trial_n":56,"span":10,"encoder":"8029890393","distractor":"8009890393","target":"present","response":"present","rt":"3185.3000000119","correct":true,"confidence":3},{"trial_n":57,"span":10,"encoder":"2942447904","distractor":"2242447904","target":"present","response":"absent","rt":"2634.0999999642","correct":false,"confidence":1},{"trial_n":58,"span":9,"encoder":"736284911","distractor":"739284911","target":"present","response":"present","rt":"1722.6000000238","correct":true,"confidence":1},{"trial_n":59,"span":9,"encoder":"466105728","distractor":"466101728","target":"absent","response":"absent","rt":"16550.800000012","correct":true,"confidence":1},{"trial_n":60,"span":10,"encoder":"7134435406","distractor":"7134235406","target":"present","response":"present","rt":"1263.2999999523","correct":true,"confidence":4},{"trial_n":61,"span":10,"encoder":"6173840981","distractor":"6173640981","target":"absent","response":"absent","rt":"3449.7000000477","correct":true,"confidence":5},{"trial_n":62,"span":11,"encoder":"30061248063","distractor":"30061208063","target":"present","response":"absent","rt":"1512.5","correct":false,"confidence":1},{"trial_n":63,"span":10,"encoder":"5925800633","distractor":"5925800653","target":"present","response":"present","rt":"3412.3000000119","correct":true,"confidence":5},{"trial_n":64,"span":10,"encoder":"1130061180","distractor":"1130061185","target":"present","response":"absent","rt":"1633.3000000119","correct":false,"confidence":5},{"trial_n":65,"span":9,"encoder":"222130274","distractor":"222130774","target":"present","response":"present","rt":"2973.0999999642","correct":true,"confidence":5},{"trial_n":66,"span":9,"encoder":"408697097","distractor":"408497097","target":"absent","response":"absent","rt":"2399.3999999762","correct":true,"confidence":4},{"trial_n":67,"span":10,"encoder":"8218217238","distractor":"8218287238","target":"present","response":"present","rt":"3160.8000000119","correct":true,"confidence":5},{"trial_n":68,"span":10,"encoder":"1275315085","distractor":"1255315085","target":"absent","response":"absent","rt":"2089.1000000238","correct":true,"confidence":1},{"trial_n":69,"span":11,"encoder":"65026586615","distractor":"05026586615","target":"present","response":"present","rt":"1280.9000000358","correct":true,"confidence":2},{"trial_n":70,"span":11,"encoder":"79362535740","distractor":"79372535740","target":"present","response":"present","rt":"2610.3000000119","correct":true,"confidence":5},{"trial_n":71,"span":8,"encoder":"75880517","distractor":"75886517","target":"present","response":"absent","rt":"2547.5999999642","correct":false,"confidence":-1},{"trial_n":72,"span":7,"encoder":"0372034","distractor":"0572034","target":"present","response":"present","rt":"1263.3000000119","correct":true,"confidence":-1},{"trial_n":73,"span":7,"encoder":"9595754","distractor":"9895754","target":"absent","response":"absent","rt":"118645.60000002","correct":true,"confidence":-1},{"trial_n":74,"span":8,"encoder":"58039011","distractor":"58839011","target":"absent","response":"present","rt":"3798","correct":false,"confidence":-1},{"trial_n":75,"span":7,"encoder":"3623880","distractor":"3723880","target":"present","response":"present","rt":"2836.6999999881","correct":true,"confidence":-1},{"trial_n":76,"span":7,"encoder":"7703507","distractor":"7303507","target":"absent","response":"present","rt":"3378","correct":false,"confidence":-1},{"trial_n":77,"span":6,"encoder":"494423","distractor":"494453","target":"absent","response":"present","rt":"1037.7999999523","correct":false,"confidence":-1},{"trial_n":78,"span":5,"encoder":"29578","distractor":"29678","target":"absent","response":"present","rt":"617.30000001192","correct":false,"confidence":-1},{"trial_n":79,"span":4,"encoder":"9870","distractor":"9877","target":"absent","response":"absent","rt":"722.89999997616","correct":true,"confidence":-1},{"trial_n":80,"span":4,"encoder":"9501","distractor":"9503","target":"present","response":"present","rt":"1095.6999999881","correct":true,"confidence":-1},{"trial_n":81,"span":5,"encoder":"97154","distractor":"98154","target":"present","response":"absent","rt":"1307.5","correct":false,"confidence":-1},{"trial_n":82,"span":4,"encoder":"9168","distractor":"9128","target":"absent","response":"present","rt":"1279.5999999642","correct":false,"confidence":-1},{"trial_n":83,"span":3,"encoder":"463","distractor":"423","target":"present","response":"present","rt":"1865.1999999881","correct":true,"confidence":-1},{"trial_n":84,"span":3,"encoder":"172","distractor":"872","target":"absent","response":"absent","rt":"4211.8000000119","correct":true,"confidence":-1},{"trial_n":85,"span":4,"encoder":"2706","distractor":"2736","target":"absent","response":"absent","rt":"1171.3999999762","correct":true,"confidence":-1},{"trial_n":86,"span":4,"encoder":"8194","distractor":"9194","target":"absent","response":"present","rt":"603.39999997616","correct":false,"confidence":-1},{"trial_n":87,"span":3,"encoder":"953","distractor":"952","target":"present","response":"present","rt":"1267.6999999881","correct":true,"confidence":-1},{"trial_n":88,"span":3,"encoder":"905","distractor":"906","target":"absent","response":"present","rt":"14308.899999976","correct":false,"confidence":-1},{"trial_n":89,"span":2,"encoder":"40","distractor":"30","target":"absent","response":"absent","rt":"1036.7000000477","correct":true,"confidence":-1},{"trial_n":90,"span":2,"encoder":"46","distractor":"56","target":"absent","response":"absent","rt":"680.80000001192","correct":true,"confidence":-1},{"trial_n":91,"span":3,"encoder":"393","distractor":"392","target":"absent","response":"absent","rt":"1255.5999999642","correct":true,"confidence":5},{"trial_n":92,"span":3,"encoder":"190","distractor":"130","target":"present","response":"present","rt":"1102","correct":true,"confidence":5},{"trial_n":93,"span":4,"encoder":"2910","distractor":"2920","target":"absent","response":"absent","rt":"1087.6999999881","correct":true,"confidence":5},{"trial_n":94,"span":4,"encoder":"4734","distractor":"4704","target":"present","response":"present","rt":"1485.6999999881","correct":true,"confidence":4},{"trial_n":95,"span":5,"encoder":"37161","distractor":"37961","target":"present","response":"absent","rt":"1589.3999999762","correct":false,"confidence":3},{"trial_n":96,"span":4,"encoder":"4137","distractor":"5137","target":"absent","response":"absent","rt":"1610.9000000358","correct":true,"confidence":5},{"trial_n":97,"span":4,"encoder":"7263","distractor":"7203","target":"present","response":"present","rt":"1505.3000000119","correct":true,"confidence":4},{"trial_n":98,"span":5,"encoder":"90366","distractor":"80366","target":"present","response":"present","rt":"1708.6999999881","correct":true,"confidence":5},{"trial_n":99,"span":5,"encoder":"66054","distractor":"67054","target":"absent","response":"present","rt":"1578.6000000238","correct":false,"confidence":2},{"trial_n":100,"span":4,"encoder":"8411","distractor":"8451","target":"present","response":"present","rt":"1694.0999999642","correct":true,"confidence":5},{"trial_n":101,"span":4,"encoder":"9872","distractor":"7872","target":"absent","response":"absent","rt":"2306.6999999881","correct":true,"confidence":4},{"trial_n":102,"span":5,"encoder":"29160","distractor":"39160","target":"present","response":"present","rt":"1235.1000000238","correct":true,"confidence":5},{"trial_n":103,"span":5,"encoder":"69624","distractor":"62624","target":"present","response":"present","rt":"2020.3000000119","correct":true,"confidence":5},{"trial_n":104,"span":6,"encoder":"006023","distractor":"046023","target":"absent","response":"absent","rt":"1829.1000000238","correct":true,"confidence":5},{"trial_n":105,"span":6,"encoder":"943322","distractor":"941322","target":"present","response":"present","rt":"2297.8000000119","correct":true,"confidence":4},{"trial_n":106,"span":7,"encoder":"8008794","distractor":"8708794","target":"present","response":"present","rt":"2878.8999999762","correct":true,"confidence":5},{"trial_n":107,"span":7,"encoder":"8787139","distractor":"8787439","target":"present","response":"present","rt":"2231.5","correct":true,"confidence":5},{"trial_n":108,"span":8,"encoder":"88659000","distractor":"08659000","target":"absent","response":"absent","rt":"2213.7999999523","correct":true,"confidence":5},{"trial_n":109,"span":8,"encoder":"01091346","distractor":"01081346","target":"absent","response":"absent","rt":"3997","correct":true,"confidence":4},{"trial_n":110,"span":9,"encoder":"993100426","distractor":"793100426","target":"absent","response":"absent","rt":"2165.1999999881","correct":true,"confidence":5},{"trial_n":111,"span":9,"encoder":"676168124","distractor":"676167124","target":"absent","response":"absent","rt":"3550.1000000238","correct":true,"confidence":3},{"trial_n":112,"span":10,"encoder":"3442651786","distractor":"3442651776","target":"absent","response":"absent","rt":"2805.5","correct":true,"confidence":4},{"trial_n":113,"span":10,"encoder":"7103218189","distractor":"9103218189","target":"absent","response":"absent","rt":"2860.6999999881","correct":true,"confidence":3},{"trial_n":114,"span":11,"encoder":"96824035451","distractor":"96824038451","target":"present","response":"absent","rt":"4976","correct":false,"confidence":2},{"trial_n":115,"span":10,"encoder":"2500175824","distractor":"2530175824","target":"present","response":"present","rt":"220.20000004768","correct":true,"confidence":4},{"trial_n":116,"span":10,"encoder":"1299571892","distractor":"1299571492","target":"absent","response":"present","rt":"1204.8999999762","correct":false,"confidence":1},{"trial_n":117,"span":9,"encoder":"193439764","distractor":"193439744","target":"present","response":"present","rt":"2701.1999999881","correct":true,"confidence":2},{"trial_n":118,"span":9,"encoder":"673168657","distractor":"673165657","target":"present","response":"present","rt":"8526.6000000238","correct":true,"confidence":2},{"trial_n":119,"span":10,"encoder":"0228519103","distractor":"0228529103","target":"present","response":"absent","rt":"1747.3000000119","correct":false,"confidence":1},{"trial_n":120,"span":9,"encoder":"725254341","distractor":"725259341","target":"absent","response":"absent","rt":"3736.1999999881","correct":true,"confidence":3},{"trial_n":121,"span":9,"encoder":"135240854","distractor":"135210854","target":"present","response":"present","rt":"1992.8000000119","correct":true,"confidence":2},{"trial_n":122,"span":10,"encoder":"5725225146","distractor":"5725225140","target":"present","response":"present","rt":"4181.6000000238","correct":true,"confidence":5},{"trial_n":123,"span":10,"encoder":"5007852213","distractor":"5707852213","target":"present","response":"absent","rt":"4197.9000000358","correct":false,"confidence":2},{"trial_n":124,"span":9,"encoder":"155350650","distractor":"155450650","target":"present","response":"present","rt":"1076.3999999762","correct":true,"confidence":3},{"trial_n":125,"span":9,"encoder":"122783584","distractor":"122483584","target":"absent","response":"absent","rt":"2460.8000000119","correct":true,"confidence":5},{"trial_n":126,"span":10,"encoder":"9566394254","distractor":"9566394258","target":"present","response":"absent","rt":"6097.4000000358","correct":false,"confidence":2},{"trial_n":127,"span":9,"encoder":"327930066","distractor":"327930056","target":"present","response":"present","rt":"2906.4000000358","correct":true,"confidence":4},{"trial_n":128,"span":9,"encoder":"316970698","distractor":"346970698","target":"present","response":"absent","rt":"5816.3999999762","correct":false,"confidence":2},{"trial_n":129,"span":8,"encoder":"04719355","distractor":"04719315","target":"absent","response":"absent","rt":"3014.6999999881","correct":true,"confidence":3},{"trial_n":130,"span":8,"encoder":"52603397","distractor":"52903397","target":"absent","response":"absent","rt":"1453.4000000358","correct":true,"confidence":2},{"trial_n":131,"span":9,"encoder":"936580633","distractor":"936580635","target":"absent","response":"absent","rt":"6003.5","correct":true,"confidence":4},{"trial_n":132,"span":9,"encoder":"199895079","distractor":"199896079","target":"absent","response":"present","rt":"1099","correct":false,"confidence":1},{"trial_n":133,"span":8,"encoder":"80021564","distractor":"80021964","target":"present","response":"present","rt":"5757.6999999881","correct":true,"confidence":3},{"trial_n":134,"span":8,"encoder":"21071104","distractor":"27071104","target":"absent","response":"absent","rt":"1516.9000000358","correct":true,"confidence":5},{"trial_n":135,"span":9,"encoder":"802754711","distractor":"802754710","target":"absent","response":"absent","rt":"3770.4000000358","correct":true,"confidence":5},{"trial_n":136,"span":9,"encoder":"650382677","distractor":"670382677","target":"present","response":"present","rt":"2870.8000000119","correct":true,"confidence":3},{"trial_n":137,"span":10,"encoder":"5985093412","distractor":"5975093412","target":"present","response":"present","rt":"1619.7999999523","correct":true,"confidence":2},{"trial_n":138,"span":10,"encoder":"3273218859","distractor":"3275218859","target":"present","response":"present","rt":"291.19999998808","correct":true,"confidence":1},{"trial_n":139,"span":11,"encoder":"15676134621","distractor":"15676134620","target":"present","response":"present","rt":"441.30000001192","correct":true,"confidence":1},{"trial_n":140,"span":11,"encoder":"01860906939","distractor":"01863906939","target":"present","response":"present","rt":"2003.6000000238","correct":true,"confidence":2}]