[{"trial_n":1,"min":25,"max":230,"target":"present","response":"absent","rt":5843.4000000022,"correct":false,"confidence":-1},{"trial_n":2,"min":25,"max":230,"target":"present","response":"present","rt":2403.6999999993,"correct":true,"confidence":-1},{"trial_n":3,"min":25,"max":230,"target":"absent","response":"present","rt":515.80000000075,"correct":false,"confidence":-1},{"trial_n":4,"min":9,"max":246,"target":"absent","response":"absent","rt":2466.4000000022,"correct":true,"confidence":-1},{"trial_n":5,"min":9,"max":246,"target":"present","response":"present","rt":1095.8999999985,"correct":true,"confidence":-1},{"trial_n":6,"min":25,"max":230,"target":"present","response":"present","rt":713.40000000224,"correct":true,"confidence":-1},{"trial_n":7,"min":25,"max":230,"target":"present","response":"present","rt":814.20000000298,"correct":true,"confidence":-1},{"trial_n":8,"min":41,"max":214,"target":"present","response":"absent","rt":452,"correct":false,"confidence":-1},{"trial_n":9,"min":25,"max":230,"target":"present","response":"present","rt":531.69999999925,"correct":true,"confidence":-1},{"trial_n":10,"min":25,"max":230,"target":"absent","response":"present","rt":504.30000000075,"correct":false,"confidence":-1},{"trial_n":11,"min":17,"max":238,"target":"present","response":"absent","rt":819.40000000224,"correct":false,"confidence":-1},{"trial_n":12,"min":9,"max":246,"target":"present","response":"present","rt":1444.4000000022,"correct":true,"confidence":-1},{"trial_n":13,"min":9,"max":246,"target":"absent","response":"present","rt":527.30000000075,"correct":false,"confidence":-1},{"trial_n":14,"min":1,"max":254,"target":"present","response":"present","rt":515,"correct":true,"confidence":-1},{"trial_n":15,"min":1,"max":254,"target":"present","response":"present","rt":648,"correct":true,"confidence":-1},{"trial_n":16,"min":9,"max":246,"target":"present","response":"present","rt":601.80000000075,"correct":true,"confidence":-1},{"trial_n":17,"min":9,"max":246,"target":"present","response":"absent","rt":957.10000000149,"correct":false,"confidence":-1},{"trial_n":18,"min":1,"max":254,"target":"present","response":"present","rt":448,"correct":true,"confidence":-1},{"trial_n":19,"min":1,"max":254,"target":"absent","response":"absent","rt":466,"correct":true,"confidence":-1},{"trial_n":20,"min":9,"max":246,"target":"absent","response":"absent","rt":394.19999999925,"correct":true,"confidence":-1},{"trial_n":21,"min":9,"max":246,"target":"absent","response":"absent","rt":608.60000000149,"correct":true,"confidence":3},{"trial_n":22,"min":13,"max":242,"target":"present","response":"absent","rt":711.5,"correct":false,"confidence":3},{"trial_n":23,"min":9,"max":246,"target":"present","response":"present","rt":827.60000000149,"correct":true,"confidence":2},{"trial_n":24,"min":9,"max":246,"target":"absent","response":"absent","rt":1379.9000000022,"correct":true,"confidence":3},{"trial_n":25,"min":13,"max":242,"target":"absent","response":"absent","rt":673.90000000224,"correct":true,"confidence":3},{"trial_n":26,"min":13,"max":242,"target":"absent","response":"absent","rt":597.90000000224,"correct":true,"confidence":4},{"trial_n":27,"min":17,"max":238,"target":"present","response":"absent","rt":725.30000000075,"correct":false,"confidence":4},{"trial_n":28,"min":13,"max":242,"target":"absent","response":"absent","rt":893.70000000298,"correct":true,"confidence":4},{"trial_n":29,"min":13,"max":242,"target":"absent","response":"absent","rt":692.40000000224,"correct":true,"confidence":4},{"trial_n":30,"min":17,"max":238,"target":"present","response":"present","rt":1478.200000003,"correct":true,"confidence":3},{"trial_n":31,"min":17,"max":238,"target":"present","response":"present","rt":1170.6000000015,"correct":true,"confidence":4},{"trial_n":32,"min":19,"max":236,"target":"absent","response":"absent","rt":797.69999999925,"correct":true,"confidence":4},{"trial_n":33,"min":19,"max":236,"target":"present","response":"present","rt":1828.700000003,"correct":true,"confidence":5},{"trial_n":34,"min":21,"max":234,"target":"absent","response":"absent","rt":661.10000000149,"correct":true,"confidence":4},{"trial_n":35,"min":21,"max":234,"target":"present","response":"present","rt":1109.9000000022,"correct":true,"confidence":3},{"trial_n":36,"min":23,"max":232,"target":"absent","response":"absent","rt":624.19999999925,"correct":true,"confidence":4},{"trial_n":37,"min":23,"max":232,"target":"absent","response":"absent","rt":612.90000000224,"correct":true,"confidence":4},{"trial_n":38,"min":25,"max":230,"target":"present","response":"present","rt":1134.200000003,"correct":true,"confidence":5},{"trial_n":39,"min":25,"max":230,"target":"absent","response":"absent","rt":597.30000000075,"correct":true,"confidence":4},{"trial_n":40,"min":27,"max":228,"target":"present","response":"present","rt":952.5,"correct":true,"confidence":5},{"trial_n":41,"min":27,"max":228,"target":"absent","response":"absent","rt":691.80000000075,"correct":true,"confidence":4},{"trial_n":42,"min":28,"max":227,"target":"absent","response":"absent","rt":463.10000000149,"correct":true,"confidence":4},{"trial_n":43,"min":28,"max":227,"target":"present","response":"present","rt":761.90000000224,"correct":true,"confidence":5},{"trial_n":44,"min":29,"max":226,"target":"present","response":"present","rt":717.40000000224,"correct":true,"confidence":5},{"trial_n":45,"min":29,"max":226,"target":"present","response":"present","rt":232.20000000298,"correct":true,"confidence":5},{"trial_n":46,"min":30,"max":225,"target":"absent","response":"absent","rt":549.80000000075,"correct":true,"confidence":5},{"trial_n":47,"min":30,"max":225,"target":"present","response":"present","rt":638.69999999925,"correct":true,"confidence":4},{"trial_n":48,"min":31,"max":224,"target":"present","response":"present","rt":615.5,"correct":true,"confidence":4},{"trial_n":49,"min":31,"max":224,"target":"absent","response":"absent","rt":953.30000000075,"correct":true,"confidence":3},{"trial_n":50,"min":32,"max":223,"target":"absent","response":"absent","rt":621.39999999851,"correct":true,"confidence":4},{"trial_n":51,"min":32,"max":223,"target":"present","response":"present","rt":688.30000000075,"correct":true,"confidence":4},{"trial_n":52,"min":33,"max":222,"target":"absent","response":"absent","rt":953.10000000149,"correct":true,"confidence":4},{"trial_n":53,"min":33,"max":222,"target":"present","response":"present","rt":594.20000000298,"correct":true,"confidence":3},{"trial_n":54,"min":34,"max":221,"target":"absent","response":"absent","rt":640.30000000075,"correct":true,"confidence":3},{"trial_n":55,"min":34,"max":221,"target":"absent","response":"absent","rt":710,"correct":true,"confidence":4},{"trial_n":56,"min":35,"max":220,"target":"absent","response":"absent","rt":364.10000000149,"correct":true,"confidence":4},{"trial_n":57,"min":35,"max":220,"target":"absent","response":"absent","rt":300.5,"correct":true,"confidence":4},{"trial_n":58,"min":36,"max":219,"target":"absent","response":"absent","rt":355.20000000298,"correct":true,"confidence":4},{"trial_n":59,"min":36,"max":219,"target":"present","response":"present","rt":853.89999999851,"correct":true,"confidence":5},{"trial_n":60,"min":37,"max":218,"target":"absent","response":"absent","rt":647,"correct":true,"confidence":3},{"trial_n":61,"min":37,"max":218,"target":"absent","response":"absent","rt":1143,"correct":true,"confidence":4},{"trial_n":62,"min":38,"max":217,"target":"present","response":"present","rt":906.5,"correct":true,"confidence":5},{"trial_n":63,"min":38,"max":217,"target":"present","response":"present","rt":929.19999999925,"correct":true,"confidence":4},{"trial_n":64,"min":39,"max":216,"target":"present","response":"present","rt":535.20000000298,"correct":true,"confidence":4},{"trial_n":65,"min":39,"max":216,"target":"present","response":"present","rt":1209,"correct":true,"confidence":4},{"trial_n":66,"min":40,"max":215,"target":"absent","response":"absent","rt":535.40000000224,"correct":true,"confidence":3},{"trial_n":67,"min":40,"max":215,"target":"present","response":"present","rt":730.10000000149,"correct":true,"confidence":4},{"trial_n":68,"min":41,"max":214,"target":"absent","response":"absent","rt":637.19999999925,"correct":true,"confidence":3},{"trial_n":69,"min":41,"max":214,"target":"absent","response":"absent","rt":458,"correct":true,"confidence":3},{"trial_n":70,"min":42,"max":213,"target":"absent","response":"absent","rt":109.69999999925,"correct":true,"confidence":4},{"trial_n":71,"min":41,"max":214,"target":"present","response":"present","rt":2561.6000000015,"correct":true,"confidence":-1},{"trial_n":72,"min":41,"max":214,"target":"present","response":"present","rt":307.70000000298,"correct":true,"confidence":-1},{"trial_n":73,"min":57,"max":198,"target":"absent","response":"absent","rt":1705.4000000022,"correct":true,"confidence":-1},{"trial_n":74,"min":57,"max":198,"target":"absent","response":"present","rt":587.10000000149,"correct":false,"confidence":-1},{"trial_n":75,"min":41,"max":214,"target":"present","response":"present","rt":681.20000000298,"correct":true,"confidence":-1},{"trial_n":76,"min":41,"max":214,"target":"absent","response":"absent","rt":504.30000000075,"correct":true,"confidence":-1},{"trial_n":77,"min":57,"max":198,"target":"absent","response":"absent","rt":560.90000000224,"correct":true,"confidence":-1},{"trial_n":78,"min":57,"max":198,"target":"present","response":"present","rt":863.30000000075,"correct":true,"confidence":-1},{"trial_n":79,"min":73,"max":182,"target":"absent","response":"absent","rt":1225.700000003,"correct":true,"confidence":-1},{"trial_n":80,"min":73,"max":182,"target":"present","response":"present","rt":1259.5999999978,"correct":true,"confidence":-1},{"trial_n":81,"min":81,"max":174,"target":"present","response":"present","rt":562.60000000149,"correct":true,"confidence":-1},{"trial_n":82,"min":81,"max":174,"target":"present","response":"present","rt":541.5,"correct":true,"confidence":-1},{"trial_n":83,"min":89,"max":166,"target":"present","response":"absent","rt":509.90000000224,"correct":false,"confidence":-1},{"trial_n":84,"min":81,"max":174,"target":"absent","response":"absent","rt":527.20000000298,"correct":true,"confidence":-1},{"trial_n":85,"min":81,"max":174,"target":"present","response":"present","rt":679,"correct":true,"confidence":-1},{"trial_n":86,"min":89,"max":166,"target":"present","response":"present","rt":554,"correct":true,"confidence":-1},{"trial_n":87,"min":89,"max":166,"target":"absent","response":"absent","rt":523.90000000224,"correct":true,"confidence":-1},{"trial_n":88,"min":97,"max":158,"target":"present","response":"absent","rt":475.09999999776,"correct":false,"confidence":-1},{"trial_n":89,"min":89,"max":166,"target":"present","response":"present","rt":737.80000000075,"correct":true,"confidence":-1},{"trial_n":90,"min":89,"max":166,"target":"absent","response":"absent","rt":472.5,"correct":true,"confidence":-1},{"trial_n":91,"min":93,"max":162,"target":"absent","response":"present","rt":502.80000000075,"correct":false,"confidence":3},{"trial_n":92,"min":89,"max":166,"target":"absent","response":"absent","rt":474.39999999851,"correct":true,"confidence":4},{"trial_n":93,"min":89,"max":166,"target":"absent","response":"absent","rt":946.5,"correct":true,"confidence":2},{"trial_n":94,"min":93,"max":162,"target":"present","response":"absent","rt":1422.9000000022,"correct":false,"confidence":3},{"trial_n":95,"min":89,"max":166,"target":"absent","response":"present","rt":1891.3000000007,"correct":false,"confidence":1},{"trial_n":96,"min":85,"max":170,"target":"present","response":"absent","rt":1061.9000000022,"correct":false,"confidence":3},{"trial_n":97,"min":81,"max":174,"target":"absent","response":"present","rt":1192.1999999993,"correct":false,"confidence":2},{"trial_n":98,"min":77,"max":178,"target":"present","response":"present","rt":450.90000000224,"correct":true,"confidence":4},{"trial_n":99,"min":77,"max":178,"target":"present","response":"present","rt":6259.700000003,"correct":true,"confidence":2},{"trial_n":100,"min":81,"max":174,"target":"absent","response":"absent","rt":879.89999999851,"correct":true,"confidence":4},{"trial_n":101,"min":81,"max":174,"target":"absent","response":"absent","rt":3806.0999999978,"correct":true,"confidence":2},{"trial_n":102,"min":83,"max":172,"target":"present","response":"present","rt":381.89999999851,"correct":true,"confidence":4},{"trial_n":103,"min":83,"max":172,"target":"absent","response":"absent","rt":767,"correct":true,"confidence":4},{"trial_n":104,"min":85,"max":170,"target":"absent","response":"absent","rt":1007.700000003,"correct":true,"confidence":3},{"trial_n":105,"min":85,"max":170,"target":"absent","response":"absent","rt":1672.8000000007,"correct":true,"confidence":1},{"trial_n":106,"min":87,"max":168,"target":"absent","response":"absent","rt":788.10000000149,"correct":true,"confidence":3},{"trial_n":107,"min":87,"max":168,"target":"present","response":"absent","rt":2383,"correct":false,"confidence":1},{"trial_n":108,"min":85,"max":170,"target":"absent","response":"absent","rt":754.89999999851,"correct":true,"confidence":4},{"trial_n":109,"min":85,"max":170,"target":"present","response":"absent","rt":1403.5,"correct":false,"confidence":4},{"trial_n":110,"min":83,"max":172,"target":"present","response":"present","rt":555.29999999702,"correct":true,"confidence":2},{"trial_n":111,"min":83,"max":172,"target":"absent","response":"absent","rt":1747.3000000007,"correct":true,"confidence":2},{"trial_n":112,"min":84,"max":171,"target":"absent","response":"absent","rt":874.5,"correct":true,"confidence":2},{"trial_n":113,"min":84,"max":171,"target":"present","response":"present","rt":397.69999999925,"correct":true,"confidence":3},{"trial_n":114,"min":85,"max":170,"target":"present","response":"absent","rt":829.30000000075,"correct":false,"confidence":3},{"trial_n":115,"min":84,"max":171,"target":"present","response":"present","rt":572.30000000075,"correct":true,"confidence":4},{"trial_n":116,"min":84,"max":171,"target":"present","response":"present","rt":686.30000000075,"correct":true,"confidence":3},{"trial_n":117,"min":85,"max":170,"target":"absent","response":"absent","rt":733.80000000075,"correct":true,"confidence":2},{"trial_n":118,"min":85,"max":170,"target":"absent","response":"present","rt":1633.4000000022,"correct":false,"confidence":1},{"trial_n":119,"min":84,"max":171,"target":"absent","response":"absent","rt":1296.8000000007,"correct":true,"confidence":1},{"trial_n":120,"min":84,"max":171,"target":"present","response":"absent","rt":593.39999999851,"correct":false,"confidence":1},{"trial_n":121,"min":83,"max":172,"target":"absent","response":"absent","rt":887.30000000075,"correct":true,"confidence":4},{"trial_n":122,"min":83,"max":172,"target":"present","response":"absent","rt":884,"correct":false,"confidence":3},{"trial_n":123,"min":82,"max":173,"target":"present","response":"absent","rt":2051,"correct":false,"confidence":3},{"trial_n":124,"min":81,"max":174,"target":"present","response":"present","rt":951.39999999851,"correct":true,"confidence":2},{"trial_n":125,"min":81,"max":174,"target":"absent","response":"present","rt":3005,"correct":false,"confidence":2},{"trial_n":126,"min":80,"max":175,"target":"present","response":"present","rt":423.80000000075,"correct":true,"confidence":4},{"trial_n":127,"min":80,"max":175,"target":"absent","response":"absent","rt":7107.3000000007,"correct":true,"confidence":1},{"trial_n":128,"min":81,"max":174,"target":"absent","response":"absent","rt":471.40000000224,"correct":true,"confidence":2},{"trial_n":129,"min":81,"max":174,"target":"present","response":"absent","rt":852.30000000075,"correct":false,"confidence":2},{"trial_n":130,"min":80,"max":175,"target":"present","response":"present","rt":317.80000000075,"correct":true,"confidence":3},{"trial_n":131,"min":80,"max":175,"target":"absent","response":"absent","rt":894.39999999851,"correct":true,"confidence":2},{"trial_n":132,"min":81,"max":174,"target":"absent","response":"absent","rt":847,"correct":true,"confidence":4},{"trial_n":133,"min":81,"max":174,"target":"absent","response":"absent","rt":1274.5,"correct":true,"confidence":3},{"trial_n":134,"min":82,"max":173,"target":"present","response":"present","rt":446.89999999851,"correct":true,"confidence":5},{"trial_n":135,"min":82,"max":173,"target":"present","response":"absent","rt":948.19999999925,"correct":false,"confidence":3},{"trial_n":136,"min":81,"max":174,"target":"absent","response":"absent","rt":1176.9000000022,"correct":true,"confidence":4},{"trial_n":137,"min":81,"max":174,"target":"present","response":"present","rt":801.40000000224,"correct":true,"confidence":3},{"trial_n":138,"min":82,"max":173,"target":"present","response":"absent","rt":1102.5999999978,"correct":false,"confidence":2},{"trial_n":139,"min":81,"max":174,"target":"present","response":"absent","rt":416.09999999776,"correct":false,"confidence":2},{"trial_n":140,"min":80,"max":175,"target":"absent","response":"absent","rt":926.10000000149,"correct":true,"confidence":4}]