[{"trial_n":1,"span":8,"encoder":"57556349","distractor":"57536349","target":"present","response":"present","rt":"3053.3000000119","correct":true,"confidence":-1},{"trial_n":2,"span":8,"encoder":"80489768","distractor":"80459768","target":"present","response":"present","rt":"1597.4000000358","correct":true,"confidence":-1},{"trial_n":3,"span":10,"encoder":"1273542342","distractor":"1273542442","target":"absent","response":"absent","rt":"4012.5999999642","correct":true,"confidence":-1},{"trial_n":4,"span":10,"encoder":"1028090564","distractor":"1028095564","target":"absent","response":"present","rt":"1958.1000000238","correct":false,"confidence":-1},{"trial_n":5,"span":8,"encoder":"87732242","distractor":"87732248","target":"present","response":"absent","rt":"503.19999998808","correct":false,"confidence":-1},{"trial_n":6,"span":6,"encoder":"431839","distractor":"431838","target":"present","response":"present","rt":"2792.5","correct":true,"confidence":-1},{"trial_n":7,"span":6,"encoder":"022281","distractor":"022288","target":"present","response":"absent","rt":"2386.4000000358","correct":false,"confidence":-1},{"trial_n":8,"span":4,"encoder":"9361","distractor":"6361","target":"absent","response":"present","rt":"514.69999998808","correct":false,"confidence":-1},{"trial_n":9,"span":2,"encoder":"69","distractor":"68","target":"absent","response":"absent","rt":"1252.5","correct":true,"confidence":-1},{"trial_n":10,"span":2,"encoder":"38","distractor":"78","target":"absent","response":"absent","rt":"1479.6000000238","correct":true,"confidence":-1},{"trial_n":11,"span":4,"encoder":"0349","distractor":"0149","target":"present","response":"present","rt":"1131.3000000119","correct":true,"confidence":-1},{"trial_n":12,"span":4,"encoder":"0518","distractor":"0558","target":"absent","response":"absent","rt":"1102.4000000358","correct":true,"confidence":-1},{"trial_n":13,"span":5,"encoder":"66589","distractor":"65589","target":"absent","response":"absent","rt":"1457.5","correct":true,"confidence":-1},{"trial_n":14,"span":5,"encoder":"31915","distractor":"61915","target":"present","response":"present","rt":"412.69999998808","correct":true,"confidence":-1},{"trial_n":15,"span":6,"encoder":"935073","distractor":"935072","target":"absent","response":"absent","rt":"352.10000002384","correct":true,"confidence":-1},{"trial_n":16,"span":6,"encoder":"346679","distractor":"376679","target":"present","response":"present","rt":"1395.4000000358","correct":true,"confidence":-1},{"trial_n":17,"span":7,"encoder":"2337242","distractor":"2337742","target":"absent","response":"absent","rt":"2074.5","correct":true,"confidence":-1},{"trial_n":18,"span":7,"encoder":"6246390","distractor":"4246390","target":"present","response":"present","rt":"112.19999998808","correct":true,"confidence":-1},{"trial_n":19,"span":8,"encoder":"47831202","distractor":"97831202","target":"absent","response":"absent","rt":"643.40000003576","correct":true,"confidence":-1},{"trial_n":20,"span":8,"encoder":"24572754","distractor":"20572754","target":"present","response":"present","rt":"8509.6999999881","correct":true,"confidence":-1},{"trial_n":21,"span":9,"encoder":"504734347","distractor":"804734347","target":"present","response":"absent","rt":"854.5","correct":false,"confidence":1},{"trial_n":22,"span":8,"encoder":"66304703","distractor":"66309703","target":"present","response":"absent","rt":"3032.8000000119","correct":false,"confidence":3},{"trial_n":23,"span":7,"encoder":"0534211","distractor":"4534211","target":"present","response":"present","rt":"2135.6999999881","correct":true,"confidence":5},{"trial_n":24,"span":7,"encoder":"8346264","distractor":"8346269","target":"absent","response":"absent","rt":"2633.8999999762","correct":true,"confidence":5},{"trial_n":25,"span":8,"encoder":"95550682","distractor":"95250682","target":"absent","response":"present","rt":"78.400000035763","correct":false,"confidence":1},{"trial_n":26,"span":7,"encoder":"0337962","distractor":"0337992","target":"present","response":"present","rt":"24.899999976158","correct":true,"confidence":1},{"trial_n":27,"span":7,"encoder":"3608501","distractor":"3608511","target":"absent","response":"absent","rt":"63.099999964237","correct":true,"confidence":1},{"trial_n":28,"span":8,"encoder":"57980315","distractor":"57980365","target":"absent","response":"absent","rt":"650.19999998808","correct":true,"confidence":1},{"trial_n":29,"span":8,"encoder":"65911230","distractor":"65991230","target":"present","response":"present","rt":"271.80000001192","correct":true,"confidence":1},{"trial_n":30,"span":9,"encoder":"748803028","distractor":"748807028","target":"absent","response":"absent","rt":"11.099999964237","correct":true,"confidence":1},{"trial_n":31,"span":9,"encoder":"800121816","distractor":"800521816","target":"absent","response":"absent","rt":"52.100000023842","correct":true,"confidence":1},{"trial_n":32,"span":10,"encoder":"3793699991","distractor":"3793699191","target":"present","response":"absent","rt":"152.80000001192","correct":false,"confidence":1},{"trial_n":33,"span":9,"encoder":"542728224","distractor":"540728224","target":"present","response":"present","rt":"51.099999964237","correct":true,"confidence":1},{"trial_n":34,"span":9,"encoder":"560473457","distractor":"560413457","target":"present","response":"present","rt":"62.899999976158","correct":true,"confidence":1},{"trial_n":35,"span":10,"encoder":"2309277476","distractor":"2304277476","target":"present","response":"absent","rt":"771.29999995232","correct":false,"confidence":1},{"trial_n":36,"span":9,"encoder":"944143042","distractor":"944144042","target":"present","response":"absent","rt":"351.19999998808","correct":false,"confidence":1},{"trial_n":37,"span":8,"encoder":"85191688","distractor":"85151688","target":"absent","response":"absent","rt":"112.80000001192","correct":true,"confidence":1},{"trial_n":38,"span":8,"encoder":"91378597","distractor":"91348597","target":"present","response":"present","rt":"193.60000002384","correct":true,"confidence":1},{"trial_n":39,"span":9,"encoder":"517366709","distractor":"517066709","target":"present","response":"present","rt":"35.100000023842","correct":true,"confidence":1},{"trial_n":40,"span":9,"encoder":"650206355","distractor":"650206356","target":"present","response":"absent","rt":"64.199999988079","correct":false,"confidence":1},{"trial_n":41,"span":8,"encoder":"30337774","distractor":"30337744","target":"present","response":"present","rt":"45.899999976158","correct":true,"confidence":1},{"trial_n":42,"span":8,"encoder":"07824133","distractor":"07834133","target":"present","response":"present","rt":"81.100000023842","correct":true,"confidence":1},{"trial_n":43,"span":9,"encoder":"658997414","distractor":"658997464","target":"absent","response":"absent","rt":"55.800000011921","correct":true,"confidence":1},{"trial_n":44,"span":9,"encoder":"888313232","distractor":"888913232","target":"present","response":"present","rt":"193.80000001192","correct":true,"confidence":1},{"trial_n":45,"span":10,"encoder":"8089150101","distractor":"8089850101","target":"present","response":"present","rt":"24","correct":true,"confidence":1},{"trial_n":46,"span":10,"encoder":"2462452935","distractor":"2462452975","target":"absent","response":"present","rt":"92.100000023842","correct":false,"confidence":1},{"trial_n":47,"span":9,"encoder":"283533130","distractor":"283633130","target":"present","response":"absent","rt":"351.30000001192","correct":false,"confidence":1},{"trial_n":48,"span":8,"encoder":"69986103","distractor":"69980103","target":"absent","response":"absent","rt":"402.69999998808","correct":true,"confidence":1},{"trial_n":49,"span":8,"encoder":"76597408","distractor":"76597406","target":"present","response":"present","rt":"525.19999998808","correct":true,"confidence":1},{"trial_n":50,"span":9,"encoder":"585394014","distractor":"185394014","target":"absent","response":"present","rt":"197.09999996424","correct":false,"confidence":1},{"trial_n":51,"span":8,"encoder":"04192656","distractor":"94192656","target":"absent","response":"present","rt":"200.69999998808","correct":false,"confidence":1},{"trial_n":52,"span":7,"encoder":"7553445","distractor":"7551445","target":"absent","response":"absent","rt":"326.59999996424","correct":true,"confidence":1},{"trial_n":53,"span":7,"encoder":"1440950","distractor":"0440950","target":"absent","response":"absent","rt":"155.30000001192","correct":true,"confidence":1},{"trial_n":54,"span":8,"encoder":"45778918","distractor":"45775918","target":"present","response":"absent","rt":"106.10000002384","correct":false,"confidence":1},{"trial_n":55,"span":7,"encoder":"1564058","distractor":"1764058","target":"present","response":"absent","rt":"191.19999998808","correct":false,"confidence":1},{"trial_n":56,"span":6,"encoder":"480294","distractor":"680294","target":"absent","response":"present","rt":"26.699999988079","correct":false,"confidence":1},{"trial_n":57,"span":5,"encoder":"97797","distractor":"97297","target":"absent","response":"absent","rt":"404.10000002384","correct":true,"confidence":1},{"trial_n":58,"span":5,"encoder":"13979","distractor":"17979","target":"absent","response":"present","rt":"291.5","correct":false,"confidence":1},{"trial_n":59,"span":4,"encoder":"9694","distractor":"9604","target":"absent","response":"absent","rt":"140","correct":true,"confidence":1},{"trial_n":60,"span":4,"encoder":"3308","distractor":"3338","target":"present","response":"present","rt":"74.800000011921","correct":true,"confidence":1},{"trial_n":61,"span":5,"encoder":"19300","distractor":"19200","target":"present","response":"present","rt":"154.30000001192","correct":true,"confidence":1},{"trial_n":62,"span":5,"encoder":"10780","distractor":"17780","target":"absent","response":"present","rt":"131.60000002384","correct":false,"confidence":1},{"trial_n":63,"span":4,"encoder":"7425","distractor":"7427","target":"present","response":"present","rt":"118.39999997616","correct":true,"confidence":1},{"trial_n":64,"span":4,"encoder":"0728","distractor":"4728","target":"present","response":"present","rt":"169.30000001192","correct":true,"confidence":1},{"trial_n":65,"span":5,"encoder":"46286","distractor":"46216","target":"present","response":"absent","rt":"183.69999998808","correct":false,"confidence":1},{"trial_n":66,"span":4,"encoder":"4884","distractor":"4888","target":"absent","response":"absent","rt":"13.5","correct":true,"confidence":1},{"trial_n":67,"span":4,"encoder":"9030","distractor":"9039","target":"absent","response":"present","rt":"291.19999998808","correct":false,"confidence":1},{"trial_n":68,"span":3,"encoder":"156","distractor":"356","target":"absent","response":"absent","rt":"52.100000023842","correct":true,"confidence":1},{"trial_n":69,"span":3,"encoder":"346","distractor":"386","target":"absent","response":"present","rt":"14.699999988079","correct":false,"confidence":1},{"trial_n":70,"span":2,"encoder":"54","distractor":"58","target":"absent","response":"absent","rt":"184.69999998808","correct":true,"confidence":1},{"trial_n":71,"span":8,"encoder":"40306741","distractor":"40306751","target":"present","response":"present","rt":"3294.1999999881","correct":true,"confidence":-1},{"trial_n":72,"span":8,"encoder":"80234444","distractor":"80234494","target":"present","response":"present","rt":"7.1999999880791","correct":true,"confidence":-1},{"trial_n":73,"span":9,"encoder":"318180808","distractor":"318180804","target":"absent","response":"absent","rt":"61","correct":true,"confidence":-1},{"trial_n":74,"span":9,"encoder":"726749116","distractor":"726749166","target":"absent","response":"present","rt":"118.09999996424","correct":false,"confidence":-1},{"trial_n":75,"span":8,"encoder":"07736292","distractor":"07536292","target":"present","response":"present","rt":"44.600000023842","correct":true,"confidence":-1},{"trial_n":76,"span":8,"encoder":"02469645","distractor":"02466645","target":"absent","response":"present","rt":"82.699999988079","correct":false,"confidence":-1},{"trial_n":77,"span":7,"encoder":"3477064","distractor":"3477864","target":"present","response":"absent","rt":"69.699999988079","correct":false,"confidence":-1},{"trial_n":78,"span":6,"encoder":"560416","distractor":"660416","target":"present","response":"present","rt":"23","correct":true,"confidence":-1},{"trial_n":79,"span":6,"encoder":"881369","distractor":"881366","target":"absent","response":"absent","rt":"125.69999998808","correct":true,"confidence":-1},{"trial_n":80,"span":7,"encoder":"4367593","distractor":"4367193","target":"absent","response":"absent","rt":"107.90000003576","correct":true,"confidence":-1},{"trial_n":81,"span":7,"encoder":"7150309","distractor":"7100309","target":"absent","response":"present","rt":"98.199999988079","correct":false,"confidence":-1},{"trial_n":82,"span":6,"encoder":"514598","distractor":"514578","target":"present","response":"absent","rt":"29.5","correct":false,"confidence":-1},{"trial_n":83,"span":5,"encoder":"38017","distractor":"30017","target":"absent","response":"absent","rt":"146.40000003576","correct":true,"confidence":-1},{"trial_n":84,"span":5,"encoder":"08678","distractor":"78678","target":"present","response":"present","rt":"11.400000035763","correct":true,"confidence":-1},{"trial_n":85,"span":6,"encoder":"829914","distractor":"829910","target":"absent","response":"absent","rt":"160.5","correct":true,"confidence":-1},{"trial_n":86,"span":6,"encoder":"746096","distractor":"746036","target":"present","response":"absent","rt":"63","correct":false,"confidence":-1},{"trial_n":87,"span":5,"encoder":"09569","distractor":"09669","target":"absent","response":"absent","rt":"54","correct":true,"confidence":-1},{"trial_n":88,"span":5,"encoder":"85417","distractor":"85427","target":"present","response":"present","rt":"39","correct":true,"confidence":-1},{"trial_n":89,"span":6,"encoder":"718789","distractor":"718786","target":"present","response":"present","rt":"18.799999952316","correct":true,"confidence":-1},{"trial_n":90,"span":6,"encoder":"592862","distractor":"552862","target":"present","response":"present","rt":"84.300000011921","correct":true,"confidence":-1},{"trial_n":91,"span":7,"encoder":"3472356","distractor":"3476356","target":"absent","response":"present","rt":"85.5","correct":false,"confidence":1},{"trial_n":92,"span":6,"encoder":"118402","distractor":"018402","target":"present","response":"absent","rt":"131.39999997616","correct":false,"confidence":1},{"trial_n":93,"span":5,"encoder":"19905","distractor":"19945","target":"absent","response":"present","rt":"223.5","correct":false,"confidence":1},{"trial_n":94,"span":4,"encoder":"4157","distractor":"4457","target":"present","response":"present","rt":"75.800000011921","correct":true,"confidence":1},{"trial_n":95,"span":4,"encoder":"8203","distractor":"8207","target":"absent","response":"present","rt":"218.69999998808","correct":false,"confidence":1},{"trial_n":96,"span":3,"encoder":"551","distractor":"751","target":"present","response":"present","rt":"49.5","correct":true,"confidence":1},{"trial_n":97,"span":3,"encoder":"219","distractor":"919","target":"absent","response":"present","rt":"159.5","correct":false,"confidence":1},{"trial_n":98,"span":2,"encoder":"06","distractor":"08","target":"present","response":"absent","rt":"85.5","correct":false,"confidence":1},{"trial_n":99,"span":2,"encoder":"72","distractor":"73","target":"present","response":"absent","rt":"18.199999988079","correct":false,"confidence":1},{"trial_n":100,"span":2,"encoder":"40","distractor":"43","target":"present","response":"absent","rt":"841.60000002384","correct":false,"confidence":1},{"trial_n":101,"span":2,"encoder":"90","distractor":"98","target":"present","response":"absent","rt":"9.8000000119209","correct":false,"confidence":1},{"trial_n":102,"span":2,"encoder":"57","distractor":"53","target":"present","response":"present","rt":"150.09999996424","correct":true,"confidence":1},{"trial_n":103,"span":2,"encoder":"55","distractor":"51","target":"absent","response":"present","rt":"40.800000011921","correct":false,"confidence":1},{"trial_n":104,"span":2,"encoder":"06","distractor":"09","target":"absent","response":"absent","rt":"53.599999964237","correct":true,"confidence":1},{"trial_n":105,"span":2,"encoder":"10","distractor":"11","target":"absent","response":"absent","rt":"42.5","correct":true,"confidence":1},{"trial_n":106,"span":3,"encoder":"371","distractor":"377","target":"absent","response":"present","rt":"212.89999997616","correct":false,"confidence":1},{"trial_n":107,"span":2,"encoder":"43","distractor":"13","target":"present","response":"present","rt":"196.79999995232","correct":true,"confidence":1},{"trial_n":108,"span":2,"encoder":"73","distractor":"74","target":"absent","response":"absent","rt":"96.100000023842","correct":true,"confidence":1},{"trial_n":109,"span":3,"encoder":"473","distractor":"470","target":"absent","response":"present","rt":"65","correct":false,"confidence":1},{"trial_n":110,"span":2,"encoder":"41","distractor":"31","target":"present","response":"present","rt":"2254.3999999762","correct":true,"confidence":5},{"trial_n":111,"span":2,"encoder":"18","distractor":"48","target":"present","response":"present","rt":"1058.3999999762","correct":true,"confidence":5},{"trial_n":112,"span":3,"encoder":"201","distractor":"001","target":"absent","response":"absent","rt":"1583.1999999881","correct":true,"confidence":5},{"trial_n":113,"span":3,"encoder":"740","distractor":"540","target":"present","response":"present","rt":"1826.5999999642","correct":true,"confidence":5},{"trial_n":114,"span":4,"encoder":"9926","distractor":"0926","target":"absent","response":"present","rt":"98","correct":false,"confidence":1},{"trial_n":115,"span":3,"encoder":"097","distractor":"297","target":"present","response":"present","rt":"11.300000011921","correct":true,"confidence":1},{"trial_n":116,"span":3,"encoder":"370","distractor":"350","target":"absent","response":"present","rt":"506.39999997616","correct":false,"confidence":1},{"trial_n":117,"span":2,"encoder":"56","distractor":"59","target":"absent","response":"present","rt":"35.399999976158","correct":false,"confidence":1},{"trial_n":118,"span":2,"encoder":"99","distractor":"29","target":"absent","response":"absent","rt":"114.60000002384","correct":true,"confidence":1},{"trial_n":119,"span":2,"encoder":"70","distractor":"80","target":"absent","response":"present","rt":"45.299999952316","correct":false,"confidence":1},{"trial_n":120,"span":2,"encoder":"54","distractor":"55","target":"present","response":"absent","rt":"47.399999976158","correct":false,"confidence":1},{"trial_n":121,"span":2,"encoder":"20","distractor":"80","target":"present","response":"absent","rt":"73.399999976158","correct":false,"confidence":1},{"trial_n":122,"span":2,"encoder":"99","distractor":"79","target":"absent","response":"absent","rt":"23.899999976158","correct":true,"confidence":1},{"trial_n":123,"span":2,"encoder":"59","distractor":"19","target":"present","response":"present","rt":"105.30000001192","correct":true,"confidence":1},{"trial_n":124,"span":3,"encoder":"191","distractor":"197","target":"absent","response":"absent","rt":"115.5","correct":true,"confidence":1},{"trial_n":125,"span":3,"encoder":"506","distractor":"501","target":"absent","response":"absent","rt":"111.59999996424","correct":true,"confidence":1},{"trial_n":126,"span":4,"encoder":"7121","distractor":"7321","target":"absent","response":"absent","rt":"50.399999976158","correct":true,"confidence":1},{"trial_n":127,"span":4,"encoder":"2696","distractor":"7696","target":"present","response":"present","rt":"36.899999976158","correct":true,"confidence":1},{"trial_n":128,"span":5,"encoder":"19664","distractor":"17664","target":"present","response":"present","rt":"21.699999988079","correct":true,"confidence":1},{"trial_n":129,"span":5,"encoder":"57654","distractor":"57054","target":"present","response":"absent","rt":"116","correct":false,"confidence":1},{"trial_n":130,"span":4,"encoder":"1564","distractor":"1567","target":"present","response":"present","rt":"92.100000023842","correct":true,"confidence":1},{"trial_n":131,"span":4,"encoder":"7678","distractor":"7658","target":"absent","response":"present","rt":"88.5","correct":false,"confidence":1},{"trial_n":132,"span":3,"encoder":"759","distractor":"709","target":"absent","response":"present","rt":"1.8000000119209","correct":false,"confidence":1},{"trial_n":133,"span":2,"encoder":"50","distractor":"57","target":"absent","response":"absent","rt":"31.800000011921","correct":true,"confidence":1},{"trial_n":134,"span":2,"encoder":"16","distractor":"13","target":"absent","response":"absent","rt":"55.400000035763","correct":true,"confidence":1},{"trial_n":135,"span":3,"encoder":"021","distractor":"521","target":"present","response":"absent","rt":"139.30000001192","correct":false,"confidence":1},{"trial_n":136,"span":2,"encoder":"62","distractor":"68","target":"absent","response":"absent","rt":"62","correct":true,"confidence":1},{"trial_n":137,"span":2,"encoder":"59","distractor":"50","target":"present","response":"absent","rt":"57.100000023842","correct":false,"confidence":1},{"trial_n":138,"span":2,"encoder":"20","distractor":"23","target":"present","response":"absent","rt":"8","correct":false,"confidence":1},{"trial_n":139,"span":2,"encoder":"50","distractor":"57","target":"present","response":"present","rt":"87","correct":true,"confidence":1},{"trial_n":140,"span":2,"encoder":"28","distractor":"26","target":"present","response":"absent","rt":"149.59999996424","correct":false,"confidence":1}]