[{"trial_n":1,"min":25,"max":230,"target":"present","response":"present","rt":4981.5,"correct":true,"confidence":-1},{"trial_n":2,"min":25,"max":230,"target":"present","response":"present","rt":1532.3000000119,"correct":true,"confidence":-1},{"trial_n":3,"min":41,"max":214,"target":"absent","response":"absent","rt":1108.1999999881,"correct":true,"confidence":-1},{"trial_n":4,"min":41,"max":214,"target":"absent","response":"absent","rt":706.19999998808,"correct":true,"confidence":-1},{"trial_n":5,"min":57,"max":198,"target":"present","response":"present","rt":1041.6999999881,"correct":true,"confidence":-1},{"trial_n":6,"min":57,"max":198,"target":"absent","response":"absent","rt":1581.5,"correct":true,"confidence":-1},{"trial_n":7,"min":73,"max":182,"target":"absent","response":"absent","rt":804.5,"correct":true,"confidence":-1},{"trial_n":8,"min":73,"max":182,"target":"present","response":"present","rt":1002.3999999762,"correct":true,"confidence":-1},{"trial_n":9,"min":89,"max":166,"target":"absent","response":"absent","rt":1002.3000000119,"correct":true,"confidence":-1},{"trial_n":10,"min":89,"max":166,"target":"absent","response":"absent","rt":765.60000002384,"correct":true,"confidence":-1},{"trial_n":11,"min":97,"max":158,"target":"present","response":"absent","rt":781.19999998808,"correct":false,"confidence":-1},{"trial_n":12,"min":89,"max":166,"target":"present","response":"absent","rt":964.30000001192,"correct":false,"confidence":-1},{"trial_n":13,"min":81,"max":174,"target":"absent","response":"absent","rt":1203.6000000238,"correct":true,"confidence":-1},{"trial_n":14,"min":81,"max":174,"target":"present","response":"absent","rt":800,"correct":false,"confidence":-1},{"trial_n":15,"min":73,"max":182,"target":"absent","response":"absent","rt":842.59999996424,"correct":true,"confidence":-1},{"trial_n":16,"min":73,"max":182,"target":"present","response":"present","rt":885.80000001192,"correct":true,"confidence":-1},{"trial_n":17,"min":81,"max":174,"target":"absent","response":"absent","rt":1297.3999999762,"correct":true,"confidence":-1},{"trial_n":18,"min":81,"max":174,"target":"present","response":"present","rt":954.5,"correct":true,"confidence":-1},{"trial_n":19,"min":89,"max":166,"target":"present","response":"present","rt":888.30000001192,"correct":true,"confidence":-1},{"trial_n":20,"min":89,"max":166,"target":"present","response":"present","rt":781.5,"correct":true,"confidence":-1},{"trial_n":21,"min":93,"max":162,"target":"present","response":"present","rt":1527.6999999881,"correct":true,"confidence":2},{"trial_n":22,"min":93,"max":162,"target":"present","response":"present","rt":1417.6000000238,"correct":true,"confidence":3},{"trial_n":23,"min":97,"max":158,"target":"present","response":"present","rt":1879.6999999881,"correct":true,"confidence":2},{"trial_n":24,"min":97,"max":158,"target":"absent","response":"present","rt":977,"correct":false,"confidence":3},{"trial_n":25,"min":93,"max":162,"target":"absent","response":"absent","rt":2575.6000000238,"correct":true,"confidence":2},{"trial_n":26,"min":93,"max":162,"target":"present","response":"present","rt":1359.6000000238,"correct":true,"confidence":2},{"trial_n":27,"min":97,"max":158,"target":"present","response":"absent","rt":2389.6999999881,"correct":false,"confidence":3},{"trial_n":28,"min":93,"max":162,"target":"present","response":"absent","rt":9158.6999999881,"correct":false,"confidence":1},{"trial_n":29,"min":89,"max":166,"target":"absent","response":"absent","rt":2471.6999999881,"correct":true,"confidence":1},{"trial_n":30,"min":89,"max":166,"target":"absent","response":"absent","rt":1520.4000000358,"correct":true,"confidence":3},{"trial_n":31,"min":91,"max":164,"target":"absent","response":"absent","rt":1080.3999999762,"correct":true,"confidence":3},{"trial_n":32,"min":91,"max":164,"target":"absent","response":"absent","rt":1233.5,"correct":true,"confidence":3},{"trial_n":33,"min":93,"max":162,"target":"present","response":"present","rt":1960.4000000358,"correct":true,"confidence":2},{"trial_n":34,"min":93,"max":162,"target":"present","response":"absent","rt":961.39999997616,"correct":false,"confidence":3},{"trial_n":35,"min":91,"max":164,"target":"present","response":"absent","rt":940.30000001192,"correct":false,"confidence":4},{"trial_n":36,"min":89,"max":166,"target":"present","response":"absent","rt":991.5,"correct":false,"confidence":3},{"trial_n":37,"min":87,"max":168,"target":"present","response":"absent","rt":997.80000001192,"correct":false,"confidence":3},{"trial_n":38,"min":85,"max":170,"target":"absent","response":"absent","rt":986.60000002384,"correct":true,"confidence":3},{"trial_n":39,"min":85,"max":170,"target":"present","response":"absent","rt":1181.4000000358,"correct":false,"confidence":3},{"trial_n":40,"min":83,"max":172,"target":"present","response":"absent","rt":911.80000001192,"correct":false,"confidence":2},{"trial_n":41,"min":82,"max":173,"target":"absent","response":"absent","rt":1107.3999999762,"correct":true,"confidence":2},{"trial_n":42,"min":82,"max":173,"target":"absent","response":"absent","rt":1259.1999999881,"correct":true,"confidence":2},{"trial_n":43,"min":83,"max":172,"target":"absent","response":"absent","rt":2076.9000000358,"correct":true,"confidence":2},{"trial_n":44,"min":83,"max":172,"target":"absent","response":"absent","rt":2826.7000000477,"correct":true,"confidence":3},{"trial_n":45,"min":84,"max":171,"target":"absent","response":"absent","rt":1374.5,"correct":true,"confidence":2},{"trial_n":46,"min":84,"max":171,"target":"present","response":"present","rt":1861.5999999642,"correct":true,"confidence":3},{"trial_n":47,"min":85,"max":170,"target":"present","response":"present","rt":868.59999996424,"correct":true,"confidence":3},{"trial_n":48,"min":85,"max":170,"target":"present","response":"absent","rt":1219.5999999642,"correct":false,"confidence":3},{"trial_n":49,"min":84,"max":171,"target":"absent","response":"absent","rt":878.10000002384,"correct":true,"confidence":3},{"trial_n":50,"min":84,"max":171,"target":"absent","response":"absent","rt":3248.3000000119,"correct":true,"confidence":2},{"trial_n":51,"min":85,"max":170,"target":"absent","response":"absent","rt":1302.9000000358,"correct":true,"confidence":3},{"trial_n":52,"min":85,"max":170,"target":"absent","response":"absent","rt":905.40000003576,"correct":true,"confidence":2},{"trial_n":53,"min":86,"max":169,"target":"absent","response":"absent","rt":1572.5,"correct":true,"confidence":3},{"trial_n":54,"min":86,"max":169,"target":"present","response":"absent","rt":1669.6999999881,"correct":false,"confidence":3},{"trial_n":55,"min":85,"max":170,"target":"absent","response":"absent","rt":3858.1999999881,"correct":true,"confidence":2},{"trial_n":56,"min":85,"max":170,"target":"absent","response":"absent","rt":1654.8000000119,"correct":true,"confidence":3},{"trial_n":57,"min":86,"max":169,"target":"present","response":"present","rt":922.59999996424,"correct":true,"confidence":3},{"trial_n":58,"min":86,"max":169,"target":"absent","response":"absent","rt":1012.1999999881,"correct":true,"confidence":2},{"trial_n":59,"min":87,"max":168,"target":"absent","response":"absent","rt":906.60000002384,"correct":true,"confidence":3},{"trial_n":60,"min":87,"max":168,"target":"present","response":"absent","rt":1003.8000000119,"correct":false,"confidence":3},{"trial_n":61,"min":86,"max":169,"target":"absent","response":"absent","rt":980.89999997616,"correct":true,"confidence":3},{"trial_n":62,"min":86,"max":169,"target":"present","response":"present","rt":1226.8000000119,"correct":true,"confidence":2},{"trial_n":63,"min":87,"max":168,"target":"absent","response":"absent","rt":1087.6000000238,"correct":true,"confidence":3},{"trial_n":64,"min":87,"max":168,"target":"present","response":"present","rt":763.19999998808,"correct":true,"confidence":3},{"trial_n":65,"min":88,"max":167,"target":"absent","response":"absent","rt":989.89999997616,"correct":true,"confidence":2},{"trial_n":66,"min":88,"max":167,"target":"absent","response":"absent","rt":891.10000002384,"correct":true,"confidence":3},{"trial_n":67,"min":89,"max":166,"target":"present","response":"absent","rt":891,"correct":false,"confidence":3},{"trial_n":68,"min":88,"max":167,"target":"present","response":"absent","rt":816.60000002384,"correct":false,"confidence":3},{"trial_n":69,"min":87,"max":168,"target":"present","response":"absent","rt":897.69999998808,"correct":false,"confidence":2},{"trial_n":70,"min":86,"max":169,"target":"present","response":"absent","rt":1656.6999999881,"correct":false,"confidence":3},{"trial_n":71,"min":41,"max":214,"target":"present","response":"present","rt":3240.8999999762,"correct":true,"confidence":-1},{"trial_n":72,"min":41,"max":214,"target":"present","response":"present","rt":609,"correct":true,"confidence":-1},{"trial_n":73,"min":57,"max":198,"target":"absent","response":"absent","rt":920,"correct":true,"confidence":-1},{"trial_n":74,"min":57,"max":198,"target":"absent","response":"present","rt":1204.3000000119,"correct":false,"confidence":-1},{"trial_n":75,"min":41,"max":214,"target":"present","response":"present","rt":1452.8999999762,"correct":true,"confidence":-1},{"trial_n":76,"min":41,"max":214,"target":"absent","response":"absent","rt":852.69999998808,"correct":true,"confidence":-1},{"trial_n":77,"min":57,"max":198,"target":"present","response":"present","rt":901.30000001192,"correct":true,"confidence":-1},{"trial_n":78,"min":57,"max":198,"target":"absent","response":"absent","rt":957.60000002384,"correct":true,"confidence":-1},{"trial_n":79,"min":73,"max":182,"target":"absent","response":"absent","rt":2925.8999999762,"correct":true,"confidence":-1},{"trial_n":80,"min":73,"max":182,"target":"absent","response":"absent","rt":540.69999998808,"correct":true,"confidence":-1},{"trial_n":81,"min":81,"max":174,"target":"present","response":"present","rt":1238.5,"correct":true,"confidence":-1},{"trial_n":82,"min":81,"max":174,"target":"present","response":"present","rt":465.80000001192,"correct":true,"confidence":-1},{"trial_n":83,"min":89,"max":166,"target":"present","response":"present","rt":740.69999998808,"correct":true,"confidence":-1},{"trial_n":84,"min":89,"max":166,"target":"absent","response":"present","rt":965.30000001192,"correct":false,"confidence":-1},{"trial_n":85,"min":81,"max":174,"target":"present","response":"present","rt":982.59999996424,"correct":true,"confidence":-1},{"trial_n":86,"min":81,"max":174,"target":"present","response":"present","rt":485.19999998808,"correct":true,"confidence":-1},{"trial_n":87,"min":89,"max":166,"target":"present","response":"present","rt":748.89999997616,"correct":true,"confidence":-1},{"trial_n":88,"min":89,"max":166,"target":"absent","response":"present","rt":659.80000001192,"correct":false,"confidence":-1},{"trial_n":89,"min":81,"max":174,"target":"present","response":"absent","rt":2022.0999999642,"correct":false,"confidence":-1},{"trial_n":90,"min":73,"max":182,"target":"present","response":"present","rt":629.39999997616,"correct":true,"confidence":-1},{"trial_n":91,"min":73,"max":182,"target":"absent","response":"absent","rt":922.5,"correct":true,"confidence":3},{"trial_n":92,"min":77,"max":178,"target":"present","response":"present","rt":873.19999998808,"correct":true,"confidence":4},{"trial_n":93,"min":77,"max":178,"target":"present","response":"present","rt":757.89999997616,"correct":true,"confidence":3},{"trial_n":94,"min":81,"max":174,"target":"present","response":"present","rt":2136.5,"correct":true,"confidence":1},{"trial_n":95,"min":81,"max":174,"target":"present","response":"present","rt":1228.1999999881,"correct":true,"confidence":1},{"trial_n":96,"min":85,"max":170,"target":"absent","response":"absent","rt":4231.3000000119,"correct":true,"confidence":1},{"trial_n":97,"min":85,"max":170,"target":"present","response":"present","rt":1057.5999999642,"correct":true,"confidence":3},{"trial_n":98,"min":89,"max":166,"target":"absent","response":"present","rt":1455.9000000358,"correct":false,"confidence":2},{"trial_n":99,"min":85,"max":170,"target":"absent","response":"present","rt":870.39999997616,"correct":false,"confidence":3},{"trial_n":100,"min":81,"max":174,"target":"absent","response":"present","rt":2905.5999999642,"correct":false,"confidence":1},{"trial_n":101,"min":79,"max":176,"target":"absent","response":"present","rt":862.40000003576,"correct":false,"confidence":2},{"trial_n":102,"min":77,"max":178,"target":"absent","response":"present","rt":782.39999997616,"correct":false,"confidence":3},{"trial_n":103,"min":75,"max":180,"target":"present","response":"present","rt":697.60000002384,"correct":true,"confidence":4},{"trial_n":104,"min":75,"max":180,"target":"absent","response":"absent","rt":1167.5,"correct":true,"confidence":5},{"trial_n":105,"min":77,"max":178,"target":"absent","response":"absent","rt":1596.8999999762,"correct":true,"confidence":3},{"trial_n":106,"min":77,"max":178,"target":"absent","response":"absent","rt":865,"correct":true,"confidence":3},{"trial_n":107,"min":79,"max":176,"target":"present","response":"present","rt":834.10000002384,"correct":true,"confidence":3},{"trial_n":108,"min":79,"max":176,"target":"absent","response":"present","rt":1170.9000000358,"correct":false,"confidence":2},{"trial_n":109,"min":77,"max":178,"target":"present","response":"present","rt":598.5,"correct":true,"confidence":3},{"trial_n":110,"min":77,"max":178,"target":"present","response":"present","rt":1102.8999999762,"correct":true,"confidence":4},{"trial_n":111,"min":78,"max":177,"target":"absent","response":"present","rt":769.89999997616,"correct":false,"confidence":1},{"trial_n":112,"min":77,"max":178,"target":"absent","response":"absent","rt":1020.5999999642,"correct":true,"confidence":3},{"trial_n":113,"min":77,"max":178,"target":"absent","response":"absent","rt":2215.5,"correct":true,"confidence":1},{"trial_n":114,"min":78,"max":177,"target":"absent","response":"absent","rt":1170.1999999881,"correct":true,"confidence":3},{"trial_n":115,"min":78,"max":177,"target":"absent","response":"absent","rt":1050.3999999762,"correct":true,"confidence":4},{"trial_n":116,"min":79,"max":176,"target":"absent","response":"present","rt":1959.6000000238,"correct":false,"confidence":1},{"trial_n":117,"min":78,"max":177,"target":"present","response":"present","rt":1034.4000000358,"correct":true,"confidence":1},{"trial_n":118,"min":78,"max":177,"target":"absent","response":"absent","rt":1084.8000000119,"correct":true,"confidence":2},{"trial_n":119,"min":79,"max":176,"target":"present","response":"present","rt":838.89999997616,"correct":true,"confidence":3},{"trial_n":120,"min":79,"max":176,"target":"present","response":"present","rt":721.09999996424,"correct":true,"confidence":4},{"trial_n":121,"min":80,"max":175,"target":"present","response":"present","rt":721.89999997616,"correct":true,"confidence":3},{"trial_n":122,"min":80,"max":175,"target":"present","response":"present","rt":803,"correct":true,"confidence":4},{"trial_n":123,"min":81,"max":174,"target":"present","response":"present","rt":1612.9000000358,"correct":true,"confidence":3},{"trial_n":124,"min":81,"max":174,"target":"absent","response":"present","rt":3010.2999999523,"correct":false,"confidence":1},{"trial_n":125,"min":80,"max":175,"target":"absent","response":"absent","rt":1595.1999999881,"correct":true,"confidence":2},{"trial_n":126,"min":80,"max":175,"target":"absent","response":"absent","rt":1621.3000000119,"correct":true,"confidence":1},{"trial_n":127,"min":81,"max":174,"target":"absent","response":"absent","rt":1819.8999999762,"correct":true,"confidence":1},{"trial_n":128,"min":81,"max":174,"target":"absent","response":"present","rt":1838.3000000119,"correct":false,"confidence":1},{"trial_n":129,"min":80,"max":175,"target":"absent","response":"absent","rt":937.90000003576,"correct":true,"confidence":2},{"trial_n":130,"min":80,"max":175,"target":"absent","response":"present","rt":1363.7999999523,"correct":false,"confidence":2},{"trial_n":131,"min":79,"max":176,"target":"present","response":"present","rt":859.80000001192,"correct":true,"confidence":3},{"trial_n":132,"min":79,"max":176,"target":"present","response":"present","rt":785.29999995232,"correct":true,"confidence":3},{"trial_n":133,"min":80,"max":175,"target":"present","response":"present","rt":826.69999998808,"correct":true,"confidence":3},{"trial_n":134,"min":80,"max":175,"target":"present","response":"present","rt":723.19999998808,"correct":true,"confidence":3},{"trial_n":135,"min":81,"max":174,"target":"present","response":"present","rt":683.80000001192,"correct":true,"confidence":3},{"trial_n":136,"min":81,"max":174,"target":"absent","response":"absent","rt":1098.1000000238,"correct":true,"confidence":3},{"trial_n":137,"min":82,"max":173,"target":"present","response":"absent","rt":863.59999996424,"correct":false,"confidence":1},{"trial_n":138,"min":81,"max":174,"target":"present","response":"present","rt":809.69999998808,"correct":true,"confidence":2},{"trial_n":139,"min":81,"max":174,"target":"present","response":"present","rt":897.30000001192,"correct":true,"confidence":2},{"trial_n":140,"min":82,"max":173,"target":"present","response":"present","rt":801.20000004768,"correct":true,"confidence":4}]