[{"trial_n":1,"min":25,"max":230,"target":"present","response":"absent","rt":7440.799999997,"correct":false,"confidence":-1},{"trial_n":2,"min":25,"max":230,"target":"present","response":"present","rt":2077.700000003,"correct":true,"confidence":-1},{"trial_n":3,"min":25,"max":230,"target":"absent","response":"absent","rt":859.29999999702,"correct":true,"confidence":-1},{"trial_n":4,"min":41,"max":214,"target":"absent","response":"absent","rt":573.70000000298,"correct":true,"confidence":-1},{"trial_n":5,"min":41,"max":214,"target":"present","response":"present","rt":995,"correct":true,"confidence":-1},{"trial_n":6,"min":57,"max":198,"target":"absent","response":"absent","rt":790.20000000298,"correct":true,"confidence":-1},{"trial_n":7,"min":57,"max":198,"target":"present","response":"present","rt":707.09999999404,"correct":true,"confidence":-1},{"trial_n":8,"min":73,"max":182,"target":"present","response":"present","rt":723.20000000298,"correct":true,"confidence":-1},{"trial_n":9,"min":73,"max":182,"target":"absent","response":"absent","rt":848,"correct":true,"confidence":-1},{"trial_n":10,"min":89,"max":166,"target":"absent","response":"absent","rt":1111,"correct":true,"confidence":-1},{"trial_n":11,"min":89,"max":166,"target":"absent","response":"absent","rt":761.89999999106,"correct":true,"confidence":-1},{"trial_n":12,"min":97,"max":158,"target":"present","response":"absent","rt":1002.799999997,"correct":false,"confidence":-1},{"trial_n":13,"min":89,"max":166,"target":"present","response":"absent","rt":1088.900000006,"correct":false,"confidence":-1},{"trial_n":14,"min":81,"max":174,"target":"absent","response":"absent","rt":525.60000000894,"correct":true,"confidence":-1},{"trial_n":15,"min":81,"max":174,"target":"absent","response":"absent","rt":457.09999999404,"correct":true,"confidence":-1},{"trial_n":16,"min":89,"max":166,"target":"present","response":"absent","rt":474.19999998808,"correct":false,"confidence":-1},{"trial_n":17,"min":81,"max":174,"target":"absent","response":"absent","rt":513.5,"correct":true,"confidence":-1},{"trial_n":18,"min":81,"max":174,"target":"absent","response":"present","rt":847.70000000298,"correct":false,"confidence":-1},{"trial_n":19,"min":73,"max":182,"target":"present","response":"absent","rt":971.5,"correct":false,"confidence":-1},{"trial_n":20,"min":65,"max":190,"target":"present","response":"present","rt":905,"correct":true,"confidence":-1},{"trial_n":21,"min":65,"max":190,"target":"present","response":"present","rt":993.29999999702,"correct":true,"confidence":5},{"trial_n":22,"min":69,"max":186,"target":"present","response":"present","rt":788,"correct":true,"confidence":5},{"trial_n":23,"min":69,"max":186,"target":"present","response":"present","rt":739.10000000894,"correct":true,"confidence":4},{"trial_n":24,"min":73,"max":182,"target":"present","response":"present","rt":803.90000000596,"correct":true,"confidence":4},{"trial_n":25,"min":73,"max":182,"target":"absent","response":"absent","rt":1080.299999997,"correct":true,"confidence":4},{"trial_n":26,"min":77,"max":178,"target":"present","response":"present","rt":1649.3999999911,"correct":true,"confidence":4},{"trial_n":27,"min":77,"max":178,"target":"present","response":"present","rt":828.39999999106,"correct":true,"confidence":4},{"trial_n":28,"min":81,"max":174,"target":"absent","response":"present","rt":2254.1000000089,"correct":false,"confidence":2},{"trial_n":29,"min":77,"max":178,"target":"absent","response":"absent","rt":842.5,"correct":true,"confidence":3},{"trial_n":30,"min":77,"max":178,"target":"present","response":"present","rt":1051,"correct":true,"confidence":3},{"trial_n":31,"min":79,"max":176,"target":"absent","response":"present","rt":1493.099999994,"correct":false,"confidence":2},{"trial_n":32,"min":77,"max":178,"target":"present","response":"present","rt":680.29999999702,"correct":true,"confidence":4},{"trial_n":33,"min":77,"max":178,"target":"absent","response":"absent","rt":478.59999999404,"correct":true,"confidence":5},{"trial_n":34,"min":79,"max":176,"target":"absent","response":"absent","rt":578.90000000596,"correct":true,"confidence":4},{"trial_n":35,"min":79,"max":176,"target":"absent","response":"absent","rt":585,"correct":true,"confidence":4},{"trial_n":36,"min":81,"max":174,"target":"present","response":"present","rt":1097.200000003,"correct":true,"confidence":4},{"trial_n":37,"min":81,"max":174,"target":"present","response":"present","rt":1554.099999994,"correct":true,"confidence":3},{"trial_n":38,"min":83,"max":172,"target":"absent","response":"absent","rt":685,"correct":true,"confidence":3},{"trial_n":39,"min":83,"max":172,"target":"present","response":"absent","rt":1224.599999994,"correct":false,"confidence":3},{"trial_n":40,"min":81,"max":174,"target":"present","response":"absent","rt":693.90000000596,"correct":false,"confidence":4},{"trial_n":41,"min":80,"max":175,"target":"absent","response":"absent","rt":815.89999999106,"correct":true,"confidence":3},{"trial_n":42,"min":80,"max":175,"target":"absent","response":"present","rt":1299.200000003,"correct":false,"confidence":2},{"trial_n":43,"min":79,"max":176,"target":"absent","response":"absent","rt":1292.700000003,"correct":true,"confidence":4},{"trial_n":44,"min":79,"max":176,"target":"absent","response":"absent","rt":1452,"correct":true,"confidence":1},{"trial_n":45,"min":80,"max":175,"target":"absent","response":"absent","rt":737.20000000298,"correct":true,"confidence":3},{"trial_n":46,"min":80,"max":175,"target":"present","response":"present","rt":862.10000000894,"correct":true,"confidence":3},{"trial_n":47,"min":81,"max":174,"target":"present","response":"absent","rt":1405.8999999911,"correct":false,"confidence":2},{"trial_n":48,"min":80,"max":175,"target":"present","response":"present","rt":1150.200000003,"correct":true,"confidence":4},{"trial_n":49,"min":80,"max":175,"target":"absent","response":"absent","rt":698.40000000596,"correct":true,"confidence":2},{"trial_n":50,"min":81,"max":174,"target":"absent","response":"absent","rt":1021.200000003,"correct":true,"confidence":2},{"trial_n":51,"min":81,"max":174,"target":"present","response":"absent","rt":1772.8999999911,"correct":false,"confidence":4},{"trial_n":52,"min":80,"max":175,"target":"present","response":"present","rt":651.59999999404,"correct":true,"confidence":5},{"trial_n":53,"min":80,"max":175,"target":"absent","response":"present","rt":1856.5,"correct":false,"confidence":3},{"trial_n":54,"min":79,"max":176,"target":"present","response":"present","rt":979.10000000894,"correct":true,"confidence":3},{"trial_n":55,"min":79,"max":176,"target":"absent","response":"absent","rt":1428.400000006,"correct":true,"confidence":4},{"trial_n":56,"min":80,"max":175,"target":"absent","response":"absent","rt":810.30000001192,"correct":true,"confidence":3},{"trial_n":57,"min":80,"max":175,"target":"present","response":"present","rt":1008.200000003,"correct":true,"confidence":4},{"trial_n":58,"min":81,"max":174,"target":"present","response":"absent","rt":782.09999999404,"correct":false,"confidence":4},{"trial_n":59,"min":80,"max":175,"target":"present","response":"present","rt":979.20000000298,"correct":true,"confidence":2},{"trial_n":60,"min":80,"max":175,"target":"absent","response":"absent","rt":1735,"correct":true,"confidence":4},{"trial_n":61,"min":81,"max":174,"target":"present","response":"present","rt":559.5,"correct":true,"confidence":5},{"trial_n":62,"min":81,"max":174,"target":"absent","response":"absent","rt":1184,"correct":true,"confidence":3},{"trial_n":63,"min":82,"max":173,"target":"present","response":"present","rt":1076.799999997,"correct":true,"confidence":2},{"trial_n":64,"min":82,"max":173,"target":"present","response":"present","rt":640.09999999404,"correct":true,"confidence":3},{"trial_n":65,"min":83,"max":172,"target":"present","response":"present","rt":729.70000000298,"correct":true,"confidence":4},{"trial_n":66,"min":83,"max":172,"target":"absent","response":"absent","rt":505.79999999702,"correct":true,"confidence":4},{"trial_n":67,"min":84,"max":171,"target":"absent","response":"absent","rt":480.10000000894,"correct":true,"confidence":5},{"trial_n":68,"min":84,"max":171,"target":"absent","response":"absent","rt":401.29999999702,"correct":true,"confidence":4},{"trial_n":69,"min":85,"max":170,"target":"absent","response":"absent","rt":718,"correct":true,"confidence":4},{"trial_n":70,"min":85,"max":170,"target":"present","response":"present","rt":537.10000000894,"correct":true,"confidence":4},{"trial_n":71,"min":41,"max":214,"target":"present","response":"present","rt":2056.599999994,"correct":true,"confidence":-1},{"trial_n":72,"min":41,"max":214,"target":"present","response":"present","rt":486.69999998808,"correct":true,"confidence":-1},{"trial_n":73,"min":57,"max":198,"target":"absent","response":"absent","rt":1409.900000006,"correct":true,"confidence":-1},{"trial_n":74,"min":57,"max":198,"target":"absent","response":"absent","rt":673.70000000298,"correct":true,"confidence":-1},{"trial_n":75,"min":73,"max":182,"target":"present","response":"present","rt":741.29999999702,"correct":true,"confidence":-1},{"trial_n":76,"min":73,"max":182,"target":"present","response":"present","rt":821.09999999404,"correct":true,"confidence":-1},{"trial_n":77,"min":89,"max":166,"target":"absent","response":"absent","rt":648.79999999702,"correct":true,"confidence":-1},{"trial_n":78,"min":89,"max":166,"target":"present","response":"present","rt":1329.200000003,"correct":true,"confidence":-1},{"trial_n":79,"min":105,"max":150,"target":"absent","response":"present","rt":534.09999999404,"correct":false,"confidence":-1},{"trial_n":80,"min":89,"max":166,"target":"absent","response":"absent","rt":919.79999999702,"correct":true,"confidence":-1},{"trial_n":81,"min":89,"max":166,"target":"absent","response":"absent","rt":540.70000000298,"correct":true,"confidence":-1},{"trial_n":82,"min":97,"max":158,"target":"absent","response":"present","rt":687.79999999702,"correct":false,"confidence":-1},{"trial_n":83,"min":89,"max":166,"target":"present","response":"present","rt":621.09999999404,"correct":true,"confidence":-1},{"trial_n":84,"min":89,"max":166,"target":"present","response":"absent","rt":704.5,"correct":false,"confidence":-1},{"trial_n":85,"min":81,"max":174,"target":"absent","response":"present","rt":800.59999999404,"correct":false,"confidence":-1},{"trial_n":86,"min":73,"max":182,"target":"present","response":"present","rt":504,"correct":true,"confidence":-1},{"trial_n":87,"min":73,"max":182,"target":"absent","response":"present","rt":578.09999999404,"correct":false,"confidence":-1},{"trial_n":88,"min":65,"max":190,"target":"absent","response":"present","rt":460.10000000894,"correct":false,"confidence":-1},{"trial_n":89,"min":57,"max":198,"target":"absent","response":"absent","rt":1116,"correct":true,"confidence":-1},{"trial_n":90,"min":57,"max":198,"target":"present","response":"present","rt":539.39999999106,"correct":true,"confidence":-1},{"trial_n":91,"min":61,"max":194,"target":"present","response":"present","rt":585.70000000298,"correct":true,"confidence":5},{"trial_n":92,"min":61,"max":194,"target":"present","response":"present","rt":736.5,"correct":true,"confidence":5},{"trial_n":93,"min":65,"max":190,"target":"present","response":"present","rt":1051,"correct":true,"confidence":5},{"trial_n":94,"min":65,"max":190,"target":"present","response":"present","rt":690.5,"correct":true,"confidence":5},{"trial_n":95,"min":69,"max":186,"target":"present","response":"present","rt":619.5,"correct":true,"confidence":5},{"trial_n":96,"min":69,"max":186,"target":"absent","response":"absent","rt":701,"correct":true,"confidence":5},{"trial_n":97,"min":73,"max":182,"target":"absent","response":"absent","rt":813.20000000298,"correct":true,"confidence":5},{"trial_n":98,"min":73,"max":182,"target":"present","response":"present","rt":626.20000000298,"correct":true,"confidence":5},{"trial_n":99,"min":77,"max":178,"target":"present","response":"present","rt":870.70000000298,"correct":true,"confidence":5},{"trial_n":100,"min":77,"max":178,"target":"absent","response":"absent","rt":760.70000000298,"correct":true,"confidence":5},{"trial_n":101,"min":79,"max":176,"target":"absent","response":"absent","rt":1157,"correct":true,"confidence":5},{"trial_n":102,"min":79,"max":176,"target":"absent","response":"absent","rt":1046,"correct":true,"confidence":4},{"trial_n":103,"min":81,"max":174,"target":"absent","response":"absent","rt":1289.599999994,"correct":true,"confidence":3},{"trial_n":104,"min":81,"max":174,"target":"present","response":"present","rt":658.10000000894,"correct":true,"confidence":4},{"trial_n":105,"min":83,"max":172,"target":"present","response":"present","rt":696.90000000596,"correct":true,"confidence":4},{"trial_n":106,"min":83,"max":172,"target":"absent","response":"absent","rt":1002.5,"correct":true,"confidence":4},{"trial_n":107,"min":85,"max":170,"target":"present","response":"present","rt":1004.5,"correct":true,"confidence":3},{"trial_n":108,"min":85,"max":170,"target":"absent","response":"absent","rt":976.10000000894,"correct":true,"confidence":2},{"trial_n":109,"min":87,"max":168,"target":"present","response":"absent","rt":1716.400000006,"correct":false,"confidence":1},{"trial_n":110,"min":85,"max":170,"target":"present","response":"present","rt":1333.299999997,"correct":true,"confidence":1},{"trial_n":111,"min":85,"max":170,"target":"present","response":"present","rt":882.5,"correct":true,"confidence":3},{"trial_n":112,"min":86,"max":169,"target":"absent","response":"present","rt":2738.6000000089,"correct":false,"confidence":2},{"trial_n":113,"min":85,"max":170,"target":"absent","response":"absent","rt":1484.299999997,"correct":true,"confidence":1},{"trial_n":114,"min":85,"max":170,"target":"present","response":"absent","rt":1655.5,"correct":false,"confidence":1},{"trial_n":115,"min":84,"max":171,"target":"present","response":"present","rt":560,"correct":true,"confidence":3},{"trial_n":116,"min":84,"max":171,"target":"present","response":"present","rt":1524.200000003,"correct":true,"confidence":1},{"trial_n":117,"min":85,"max":170,"target":"present","response":"present","rt":970.29999999702,"correct":true,"confidence":4},{"trial_n":118,"min":85,"max":170,"target":"absent","response":"present","rt":848.29999999702,"correct":false,"confidence":2},{"trial_n":119,"min":84,"max":171,"target":"absent","response":"absent","rt":1008.700000003,"correct":true,"confidence":2},{"trial_n":120,"min":84,"max":171,"target":"absent","response":"present","rt":680.70000000298,"correct":false,"confidence":1},{"trial_n":121,"min":83,"max":172,"target":"present","response":"present","rt":644.19999998808,"correct":true,"confidence":4},{"trial_n":122,"min":83,"max":172,"target":"present","response":"absent","rt":793.5,"correct":false,"confidence":1},{"trial_n":123,"min":82,"max":173,"target":"present","response":"present","rt":1153.8999999911,"correct":true,"confidence":4},{"trial_n":124,"min":82,"max":173,"target":"absent","response":"absent","rt":1124.5,"correct":true,"confidence":4},{"trial_n":125,"min":83,"max":172,"target":"absent","response":"absent","rt":759,"correct":true,"confidence":4},{"trial_n":126,"min":83,"max":172,"target":"absent","response":"absent","rt":909.20000000298,"correct":true,"confidence":5},{"trial_n":127,"min":84,"max":171,"target":"absent","response":"absent","rt":1294.6000000089,"correct":true,"confidence":3},{"trial_n":128,"min":84,"max":171,"target":"present","response":"present","rt":530.39999999106,"correct":true,"confidence":4},{"trial_n":129,"min":85,"max":170,"target":"present","response":"present","rt":1845.599999994,"correct":true,"confidence":2},{"trial_n":130,"min":85,"max":170,"target":"present","response":"present","rt":748.79999999702,"correct":true,"confidence":2},{"trial_n":131,"min":86,"max":169,"target":"present","response":"present","rt":582.20000000298,"correct":true,"confidence":3},{"trial_n":132,"min":86,"max":169,"target":"absent","response":"absent","rt":862.70000000298,"correct":true,"confidence":3},{"trial_n":133,"min":87,"max":168,"target":"absent","response":"present","rt":1293,"correct":false,"confidence":1},{"trial_n":134,"min":86,"max":169,"target":"present","response":"present","rt":800,"correct":true,"confidence":1},{"trial_n":135,"min":86,"max":169,"target":"present","response":"absent","rt":903.20000000298,"correct":false,"confidence":1},{"trial_n":136,"min":85,"max":170,"target":"present","response":"absent","rt":2015.200000003,"correct":false,"confidence":2},{"trial_n":137,"min":84,"max":171,"target":"absent","response":"absent","rt":929,"correct":true,"confidence":1},{"trial_n":138,"min":84,"max":171,"target":"absent","response":"absent","rt":787.19999998808,"correct":true,"confidence":3},{"trial_n":139,"min":85,"max":170,"target":"absent","response":"absent","rt":1102.5,"correct":true,"confidence":2},{"trial_n":140,"min":85,"max":170,"target":"absent","response":"absent","rt":1025.5,"correct":true,"confidence":1}]