[{"trial_n":1,"n_dots":4.25,"target":"left","response":"right","rt":1232.5999999642,"correct":false,"confidence":-1},{"trial_n":2,"n_dots":4.25,"target":"right","response":"right","rt":624.39999997616,"correct":true,"confidence":-1},{"trial_n":3,"n_dots":4.25,"target":"right","response":"right","rt":721.19999998808,"correct":true,"confidence":-1},{"trial_n":4,"n_dots":3.85,"target":"left","response":"left","rt":505.09999996424,"correct":true,"confidence":-1},{"trial_n":5,"n_dots":3.85,"target":"right","response":"left","rt":785,"correct":false,"confidence":-1},{"trial_n":6,"n_dots":4.25,"target":"right","response":"right","rt":560.30000001192,"correct":true,"confidence":-1},{"trial_n":7,"n_dots":4.25,"target":"left","response":"left","rt":504.20000004768,"correct":true,"confidence":-1},{"trial_n":8,"n_dots":4.05,"target":"right","response":"right","rt":570.89999997616,"correct":true,"confidence":-1},{"trial_n":9,"n_dots":4.05,"target":"right","response":"right","rt":263.10000002384,"correct":true,"confidence":-1},{"trial_n":10,"n_dots":3.85,"target":"left","response":"left","rt":702.89999997616,"correct":true,"confidence":-1},{"trial_n":11,"n_dots":3.85,"target":"right","response":"right","rt":617.60000002384,"correct":true,"confidence":-1},{"trial_n":12,"n_dots":3.65,"target":"right","response":"right","rt":761.40000003576,"correct":true,"confidence":-1},{"trial_n":13,"n_dots":3.65,"target":"left","response":"left","rt":736.19999998808,"correct":true,"confidence":-1},{"trial_n":14,"n_dots":3.55,"target":"left","response":"left","rt":557.40000003576,"correct":true,"confidence":-1},{"trial_n":15,"n_dots":3.55,"target":"right","response":"left","rt":609.19999998808,"correct":false,"confidence":-1},{"trial_n":16,"n_dots":3.65,"target":"left","response":"left","rt":463.80000001192,"correct":true,"confidence":-1},{"trial_n":17,"n_dots":3.65,"target":"left","response":"left","rt":459.69999998808,"correct":true,"confidence":-1},{"trial_n":18,"n_dots":3.55,"target":"left","response":"left","rt":506.59999996424,"correct":true,"confidence":-1},{"trial_n":19,"n_dots":3.55,"target":"left","response":"left","rt":608.80000001192,"correct":true,"confidence":-1},{"trial_n":20,"n_dots":3.45,"target":"left","response":"left","rt":712.80000001192,"correct":true,"confidence":-1},{"trial_n":21,"n_dots":3.45,"target":"left","response":"left","rt":747.10000002384,"correct":true,"confidence":1},{"trial_n":22,"n_dots":3.35,"target":"right","response":"right","rt":680.09999996424,"correct":true,"confidence":3},{"trial_n":23,"n_dots":3.35,"target":"right","response":"left","rt":1564.2000000477,"correct":false,"confidence":2},{"trial_n":24,"n_dots":3.45,"target":"right","response":"right","rt":644.30000001192,"correct":true,"confidence":3},{"trial_n":25,"n_dots":3.45,"target":"left","response":"left","rt":4338.6999999881,"correct":true,"confidence":1},{"trial_n":26,"n_dots":3.35,"target":"left","response":"left","rt":1351.5999999642,"correct":true,"confidence":1},{"trial_n":27,"n_dots":3.35,"target":"right","response":"left","rt":1925.5999999642,"correct":false,"confidence":1},{"trial_n":28,"n_dots":3.45,"target":"right","response":"right","rt":742.30000001192,"correct":true,"confidence":2},{"trial_n":29,"n_dots":3.45,"target":"left","response":"left","rt":649.69999998808,"correct":true,"confidence":3},{"trial_n":30,"n_dots":3.35,"target":"right","response":"left","rt":1973,"correct":false,"confidence":1},{"trial_n":31,"n_dots":3.45,"target":"right","response":"right","rt":702.89999997616,"correct":true,"confidence":1},{"trial_n":32,"n_dots":3.45,"target":"left","response":"left","rt":905.69999998808,"correct":true,"confidence":2},{"trial_n":33,"n_dots":3.35,"target":"left","response":"left","rt":797.80000001192,"correct":true,"confidence":2},{"trial_n":34,"n_dots":3.35,"target":"right","response":"right","rt":726.29999995232,"correct":true,"confidence":2},{"trial_n":35,"n_dots":3.25,"target":"left","response":"right","rt":784.5,"correct":false,"confidence":1},{"trial_n":36,"n_dots":3.35,"target":"left","response":"left","rt":1114.5,"correct":true,"confidence":2},{"trial_n":37,"n_dots":3.35,"target":"right","response":"left","rt":1024.1999999881,"correct":false,"confidence":1},{"trial_n":38,"n_dots":3.45,"target":"right","response":"left","rt":610.39999997616,"correct":false,"confidence":3},{"trial_n":39,"n_dots":3.55,"target":"right","response":"right","rt":2100.3999999762,"correct":true,"confidence":1},{"trial_n":40,"n_dots":3.55,"target":"left","response":"left","rt":1284.3000000119,"correct":true,"confidence":1},{"trial_n":41,"n_dots":3.45,"target":"right","response":"right","rt":773.39999997616,"correct":true,"confidence":1},{"trial_n":42,"n_dots":3.45,"target":"right","response":"right","rt":3149.9000000358,"correct":true,"confidence":1},{"trial_n":43,"n_dots":3.35,"target":"left","response":"left","rt":806.5,"correct":true,"confidence":2},{"trial_n":44,"n_dots":3.35,"target":"right","response":"left","rt":1572.3999999762,"correct":false,"confidence":1},{"trial_n":45,"n_dots":3.45,"target":"left","response":"left","rt":920.5,"correct":true,"confidence":1},{"trial_n":46,"n_dots":3.45,"target":"left","response":"left","rt":623.10000002384,"correct":true,"confidence":2},{"trial_n":47,"n_dots":3.35,"target":"left","response":"left","rt":691.19999998808,"correct":true,"confidence":2},{"trial_n":48,"n_dots":3.35,"target":"left","response":"left","rt":991.89999997616,"correct":true,"confidence":3},{"trial_n":49,"n_dots":3.25,"target":"right","response":"right","rt":1053.5,"correct":true,"confidence":1},{"trial_n":50,"n_dots":3.25,"target":"right","response":"right","rt":1344.0999999642,"correct":true,"confidence":3},{"trial_n":51,"n_dots":3.15,"target":"right","response":"right","rt":1144.6000000238,"correct":true,"confidence":1},{"trial_n":52,"n_dots":3.15,"target":"left","response":"left","rt":648.90000003576,"correct":true,"confidence":3},{"trial_n":53,"n_dots":3.05,"target":"right","response":"right","rt":1504.6999999881,"correct":true,"confidence":1},{"trial_n":54,"n_dots":3.05,"target":"left","response":"left","rt":2708.8999999762,"correct":true,"confidence":2},{"trial_n":55,"n_dots":2.95,"target":"left","response":"left","rt":617.69999998808,"correct":true,"confidence":2},{"trial_n":56,"n_dots":2.95,"target":"left","response":"left","rt":1248.3000000119,"correct":true,"confidence":1},{"trial_n":57,"n_dots":2.85,"target":"right","response":"right","rt":1095,"correct":true,"confidence":2},{"trial_n":58,"n_dots":2.85,"target":"right","response":"left","rt":998.60000002384,"correct":false,"confidence":2},{"trial_n":59,"n_dots":2.95,"target":"left","response":"left","rt":654.5,"correct":true,"confidence":2},{"trial_n":60,"n_dots":2.95,"target":"left","response":"left","rt":472.69999998808,"correct":true,"confidence":3},{"trial_n":61,"n_dots":2.85,"target":"left","response":"left","rt":943.70000004768,"correct":true,"confidence":1},{"trial_n":62,"n_dots":2.85,"target":"left","response":"left","rt":1223.2000000477,"correct":true,"confidence":1},{"trial_n":63,"n_dots":2.75,"target":"right","response":"left","rt":1162.8999999762,"correct":false,"confidence":2},{"trial_n":64,"n_dots":2.85,"target":"left","response":"right","rt":1423.8999999762,"correct":false,"confidence":1},{"trial_n":65,"n_dots":2.95,"target":"left","response":"left","rt":661.29999995232,"correct":true,"confidence":2},{"trial_n":66,"n_dots":2.95,"target":"right","response":"right","rt":882.5,"correct":true,"confidence":2},{"trial_n":67,"n_dots":2.85,"target":"right","response":"left","rt":1188.6000000238,"correct":false,"confidence":1},{"trial_n":68,"n_dots":2.95,"target":"right","response":"left","rt":906.90000003576,"correct":false,"confidence":1},{"trial_n":69,"n_dots":3.05,"target":"right","response":"right","rt":1704.3000000119,"correct":true,"confidence":1},{"trial_n":70,"n_dots":3.05,"target":"left","response":"left","rt":985.19999998808,"correct":true,"confidence":1},{"trial_n":71,"n_dots":2.95,"target":"left","response":"left","rt":942.69999998808,"correct":true,"confidence":1},{"trial_n":72,"n_dots":2.95,"target":"left","response":"left","rt":796.59999996424,"correct":true,"confidence":2},{"trial_n":73,"n_dots":2.85,"target":"right","response":"right","rt":1036.3999999762,"correct":true,"confidence":1},{"trial_n":74,"n_dots":2.85,"target":"right","response":"right","rt":910.90000003576,"correct":true,"confidence":1},{"trial_n":75,"n_dots":2.75,"target":"left","response":"right","rt":1841.3000000119,"correct":false,"confidence":1},{"trial_n":76,"n_dots":2.85,"target":"right","response":"right","rt":955.30000001192,"correct":true,"confidence":2},{"trial_n":77,"n_dots":2.85,"target":"left","response":"left","rt":1266.3000000119,"correct":true,"confidence":1},{"trial_n":78,"n_dots":2.75,"target":"right","response":"left","rt":1126.5,"correct":false,"confidence":1},{"trial_n":79,"n_dots":2.85,"target":"left","response":"left","rt":864,"correct":true,"confidence":2},{"trial_n":80,"n_dots":2.85,"target":"left","response":"right","rt":2255.8000000119,"correct":false,"confidence":1},{"trial_n":81,"n_dots":2.95,"target":"right","response":"left","rt":810.10000002384,"correct":false,"confidence":1},{"trial_n":82,"n_dots":3.05,"target":"right","response":"right","rt":885,"correct":true,"confidence":2},{"trial_n":83,"n_dots":3.05,"target":"right","response":"right","rt":1049.3999999762,"correct":true,"confidence":1},{"trial_n":84,"n_dots":2.95,"target":"right","response":"left","rt":729.5,"correct":false,"confidence":1},{"trial_n":85,"n_dots":3.05,"target":"right","response":"right","rt":1218.5999999642,"correct":true,"confidence":2},{"trial_n":86,"n_dots":3.05,"target":"right","response":"left","rt":806.80000001192,"correct":false,"confidence":1},{"trial_n":87,"n_dots":3.15,"target":"left","response":"left","rt":1095.8000000119,"correct":true,"confidence":2},{"trial_n":88,"n_dots":3.15,"target":"right","response":"left","rt":1105.0999999642,"correct":false,"confidence":1},{"trial_n":89,"n_dots":3.25,"target":"right","response":"right","rt":836.5,"correct":true,"confidence":3},{"trial_n":90,"n_dots":3.25,"target":"right","response":"left","rt":715.80000001192,"correct":false,"confidence":1},{"trial_n":91,"n_dots":3.35,"target":"right","response":"right","rt":776.80000001192,"correct":true,"confidence":1},{"trial_n":92,"n_dots":3.35,"target":"right","response":"right","rt":1162.1999999881,"correct":true,"confidence":2},{"trial_n":93,"n_dots":3.25,"target":"left","response":"right","rt":835.89999997616,"correct":false,"confidence":1},{"trial_n":94,"n_dots":3.35,"target":"left","response":"left","rt":422.69999998808,"correct":true,"confidence":3},{"trial_n":95,"n_dots":3.35,"target":"left","response":"left","rt":592.69999998808,"correct":true,"confidence":1},{"trial_n":96,"n_dots":3.25,"target":"right","response":"right","rt":1099.8000000119,"correct":true,"confidence":2},{"trial_n":97,"n_dots":3.25,"target":"left","response":"left","rt":726.60000002384,"correct":true,"confidence":3},{"trial_n":98,"n_dots":3.15,"target":"left","response":"left","rt":670.39999997616,"correct":true,"confidence":1},{"trial_n":99,"n_dots":3.15,"target":"left","response":"left","rt":833.69999998808,"correct":true,"confidence":2},{"trial_n":100,"n_dots":3.05,"target":"right","response":"right","rt":1328.5,"correct":true,"confidence":1},{"trial_n":101,"n_dots":3.05,"target":"left","response":"left","rt":347.60000002384,"correct":true,"confidence":3},{"trial_n":102,"n_dots":2.95,"target":"left","response":"left","rt":483.39999997616,"correct":true,"confidence":3},{"trial_n":103,"n_dots":2.95,"target":"left","response":"left","rt":1223.0999999642,"correct":true,"confidence":2},{"trial_n":104,"n_dots":2.85,"target":"left","response":"left","rt":610.5,"correct":true,"confidence":1},{"trial_n":105,"n_dots":2.85,"target":"left","response":"left","rt":486.59999996424,"correct":true,"confidence":3},{"trial_n":106,"n_dots":2.75,"target":"left","response":"left","rt":1163.5,"correct":true,"confidence":1},{"trial_n":107,"n_dots":2.75,"target":"right","response":"right","rt":1318.1000000238,"correct":true,"confidence":1},{"trial_n":108,"n_dots":2.65,"target":"right","response":"left","rt":1179.3000000119,"correct":false,"confidence":1},{"trial_n":109,"n_dots":2.75,"target":"left","response":"left","rt":1323.6000000238,"correct":true,"confidence":2},{"trial_n":110,"n_dots":2.75,"target":"right","response":"right","rt":1198.3999999762,"correct":true,"confidence":1},{"trial_n":111,"n_dots":2.65,"target":"right","response":"right","rt":852.79999995232,"correct":true,"confidence":2},{"trial_n":112,"n_dots":2.65,"target":"right","response":"right","rt":624.89999997616,"correct":true,"confidence":1},{"trial_n":113,"n_dots":2.55,"target":"right","response":"left","rt":1110.1000000238,"correct":false,"confidence":1},{"trial_n":114,"n_dots":2.65,"target":"left","response":"right","rt":875.40000003576,"correct":false,"confidence":2},{"trial_n":115,"n_dots":2.75,"target":"left","response":"right","rt":662.5,"correct":false,"confidence":1},{"trial_n":116,"n_dots":2.85,"target":"right","response":"right","rt":301.39999997616,"correct":true,"confidence":3},{"trial_n":117,"n_dots":2.85,"target":"right","response":"right","rt":628.69999998808,"correct":true,"confidence":2},{"trial_n":118,"n_dots":2.75,"target":"right","response":"right","rt":1109.6999999881,"correct":true,"confidence":1},{"trial_n":119,"n_dots":2.75,"target":"left","response":"right","rt":1472.5,"correct":false,"confidence":2},{"trial_n":120,"n_dots":2.85,"target":"left","response":"left","rt":759.59999996424,"correct":true,"confidence":1}]