[{"trial_n":1,"n_dots":4.25,"target":"right","response":"left","rt":6508.200000003,"correct":false,"confidence":-1},{"trial_n":2,"n_dots":4.25,"target":"left","response":"right","rt":1209.1000000089,"correct":false,"confidence":-1},{"trial_n":3,"n_dots":4.65,"target":"right","response":"left","rt":1867.8999999911,"correct":false,"confidence":-1},{"trial_n":4,"n_dots":5.05,"target":"right","response":"right","rt":2000,"correct":true,"confidence":-1},{"trial_n":5,"n_dots":5.05,"target":"right","response":"right","rt":552.60000000894,"correct":true,"confidence":-1},{"trial_n":6,"n_dots":4.65,"target":"right","response":"left","rt":1022.099999994,"correct":false,"confidence":-1},{"trial_n":7,"n_dots":5.05,"target":"right","response":"right","rt":363.20000000298,"correct":true,"confidence":-1},{"trial_n":8,"n_dots":5.05,"target":"left","response":"left","rt":383.59999999404,"correct":true,"confidence":-1},{"trial_n":9,"n_dots":4.85,"target":"left","response":"right","rt":432.60000000894,"correct":false,"confidence":-1},{"trial_n":10,"n_dots":5.05,"target":"left","response":"left","rt":312.70000000298,"correct":true,"confidence":-1},{"trial_n":11,"n_dots":5.05,"target":"left","response":"left","rt":498.29999999702,"correct":true,"confidence":-1},{"trial_n":12,"n_dots":4.85,"target":"right","response":"left","rt":347.5,"correct":false,"confidence":-1},{"trial_n":13,"n_dots":4.95,"target":"right","response":"right","rt":1837.200000003,"correct":true,"confidence":-1},{"trial_n":14,"n_dots":4.95,"target":"left","response":"left","rt":421.20000000298,"correct":true,"confidence":-1},{"trial_n":15,"n_dots":4.85,"target":"right","response":"right","rt":299.90000000596,"correct":true,"confidence":-1},{"trial_n":16,"n_dots":4.85,"target":"right","response":"right","rt":457.5,"correct":true,"confidence":-1},{"trial_n":17,"n_dots":4.75,"target":"left","response":"left","rt":375.40000000596,"correct":true,"confidence":-1},{"trial_n":18,"n_dots":4.75,"target":"right","response":"right","rt":316.09999999404,"correct":true,"confidence":-1},{"trial_n":19,"n_dots":4.65,"target":"right","response":"right","rt":309.89999999106,"correct":true,"confidence":-1},{"trial_n":20,"n_dots":4.65,"target":"left","response":"left","rt":291.29999999702,"correct":true,"confidence":-1},{"trial_n":21,"n_dots":4.55,"target":"right","response":"right","rt":261.09999999404,"correct":true,"confidence":4},{"trial_n":22,"n_dots":4.55,"target":"left","response":"left","rt":296.10000000894,"correct":true,"confidence":5},{"trial_n":23,"n_dots":4.45,"target":"right","response":"right","rt":351.5,"correct":true,"confidence":4},{"trial_n":24,"n_dots":4.45,"target":"left","response":"left","rt":302.70000000298,"correct":true,"confidence":5},{"trial_n":25,"n_dots":4.35,"target":"left","response":"left","rt":299.5,"correct":true,"confidence":5},{"trial_n":26,"n_dots":4.35,"target":"right","response":"right","rt":291.39999999106,"correct":true,"confidence":5},{"trial_n":27,"n_dots":4.25,"target":"right","response":"right","rt":285.5,"correct":true,"confidence":5},{"trial_n":28,"n_dots":4.25,"target":"left","response":"left","rt":70,"correct":true,"confidence":4},{"trial_n":29,"n_dots":4.15,"target":"right","response":"right","rt":279.90000000596,"correct":true,"confidence":5},{"trial_n":30,"n_dots":4.15,"target":"right","response":"right","rt":137,"correct":true,"confidence":5},{"trial_n":31,"n_dots":4.05,"target":"left","response":"left","rt":853.20000000298,"correct":true,"confidence":3},{"trial_n":32,"n_dots":4.05,"target":"right","response":"left","rt":1470,"correct":false,"confidence":2},{"trial_n":33,"n_dots":4.15,"target":"left","response":"left","rt":824.20000000298,"correct":true,"confidence":3},{"trial_n":34,"n_dots":4.15,"target":"right","response":"right","rt":810.59999999404,"correct":true,"confidence":4},{"trial_n":35,"n_dots":4.05,"target":"left","response":"left","rt":740.40000000596,"correct":true,"confidence":4},{"trial_n":36,"n_dots":4.05,"target":"left","response":"left","rt":784.20000000298,"correct":true,"confidence":5},{"trial_n":37,"n_dots":3.95,"target":"left","response":"left","rt":697.30000001192,"correct":true,"confidence":5},{"trial_n":38,"n_dots":3.95,"target":"left","response":"left","rt":1386.5,"correct":true,"confidence":2},{"trial_n":39,"n_dots":3.85,"target":"left","response":"left","rt":779.70000000298,"correct":true,"confidence":4},{"trial_n":40,"n_dots":3.85,"target":"right","response":"right","rt":497.89999999106,"correct":true,"confidence":5},{"trial_n":41,"n_dots":3.75,"target":"left","response":"right","rt":2530.900000006,"correct":false,"confidence":2},{"trial_n":42,"n_dots":3.85,"target":"left","response":"left","rt":522.5,"correct":true,"confidence":3},{"trial_n":43,"n_dots":3.85,"target":"right","response":"right","rt":399.79999999702,"correct":true,"confidence":4},{"trial_n":44,"n_dots":3.75,"target":"right","response":"right","rt":387.5,"correct":true,"confidence":4},{"trial_n":45,"n_dots":3.75,"target":"left","response":"left","rt":309.70000000298,"correct":true,"confidence":3},{"trial_n":46,"n_dots":3.65,"target":"left","response":"left","rt":374.79999999702,"correct":true,"confidence":3},{"trial_n":47,"n_dots":3.65,"target":"right","response":"right","rt":551.5,"correct":true,"confidence":2},{"trial_n":48,"n_dots":3.55,"target":"right","response":"right","rt":844.5,"correct":true,"confidence":1},{"trial_n":49,"n_dots":3.55,"target":"left","response":"left","rt":522.90000000596,"correct":true,"confidence":2},{"trial_n":50,"n_dots":3.45,"target":"left","response":"left","rt":633.60000000894,"correct":true,"confidence":2},{"trial_n":51,"n_dots":3.45,"target":"left","response":"right","rt":1281.5,"correct":false,"confidence":1},{"trial_n":52,"n_dots":3.55,"target":"left","response":"left","rt":2254.299999997,"correct":true,"confidence":1},{"trial_n":53,"n_dots":3.55,"target":"left","response":"left","rt":1167.200000003,"correct":true,"confidence":3},{"trial_n":54,"n_dots":3.45,"target":"right","response":"left","rt":544.70000000298,"correct":false,"confidence":2},{"trial_n":55,"n_dots":3.55,"target":"left","response":"left","rt":487.60000000894,"correct":true,"confidence":3},{"trial_n":56,"n_dots":3.55,"target":"right","response":"left","rt":1177.200000003,"correct":false,"confidence":2},{"trial_n":57,"n_dots":3.65,"target":"left","response":"left","rt":482.60000000894,"correct":true,"confidence":2},{"trial_n":58,"n_dots":3.65,"target":"left","response":"left","rt":528.70000000298,"correct":true,"confidence":1},{"trial_n":59,"n_dots":3.55,"target":"right","response":"right","rt":774.80000001192,"correct":true,"confidence":1},{"trial_n":60,"n_dots":3.55,"target":"left","response":"left","rt":333.40000000596,"correct":true,"confidence":2},{"trial_n":61,"n_dots":3.45,"target":"right","response":"right","rt":519.19999998808,"correct":true,"confidence":3},{"trial_n":62,"n_dots":3.45,"target":"right","response":"right","rt":686.69999998808,"correct":true,"confidence":2},{"trial_n":63,"n_dots":3.35,"target":"right","response":"left","rt":593.40000000596,"correct":false,"confidence":2},{"trial_n":64,"n_dots":3.45,"target":"right","response":"right","rt":361.90000000596,"correct":true,"confidence":3},{"trial_n":65,"n_dots":3.45,"target":"right","response":"right","rt":1305.1000000089,"correct":true,"confidence":3},{"trial_n":66,"n_dots":3.35,"target":"right","response":"right","rt":1890.799999997,"correct":true,"confidence":1},{"trial_n":67,"n_dots":3.35,"target":"left","response":"left","rt":314.59999999404,"correct":true,"confidence":1},{"trial_n":68,"n_dots":3.25,"target":"right","response":"left","rt":741.5,"correct":false,"confidence":1},{"trial_n":69,"n_dots":3.35,"target":"left","response":"left","rt":678,"correct":true,"confidence":2},{"trial_n":70,"n_dots":3.35,"target":"left","response":"left","rt":450.5,"correct":true,"confidence":3},{"trial_n":71,"n_dots":3.25,"target":"right","response":"left","rt":320.5,"correct":false,"confidence":4},{"trial_n":72,"n_dots":3.35,"target":"right","response":"left","rt":712.10000000894,"correct":false,"confidence":2},{"trial_n":73,"n_dots":3.45,"target":"right","response":"left","rt":355.29999999702,"correct":false,"confidence":3},{"trial_n":74,"n_dots":3.55,"target":"right","response":"left","rt":547.30000001192,"correct":false,"confidence":2},{"trial_n":75,"n_dots":3.65,"target":"left","response":"left","rt":187.90000000596,"correct":true,"confidence":3},{"trial_n":76,"n_dots":3.65,"target":"right","response":"left","rt":798.79999999702,"correct":false,"confidence":2},{"trial_n":77,"n_dots":3.75,"target":"right","response":"left","rt":471.30000001192,"correct":false,"confidence":2},{"trial_n":78,"n_dots":3.85,"target":"left","response":"left","rt":444.80000001192,"correct":true,"confidence":2},{"trial_n":79,"n_dots":3.85,"target":"left","response":"left","rt":411.40000000596,"correct":true,"confidence":2},{"trial_n":80,"n_dots":3.75,"target":"right","response":"left","rt":1736.299999997,"correct":false,"confidence":1},{"trial_n":81,"n_dots":3.85,"target":"right","response":"right","rt":384.40000000596,"correct":true,"confidence":3},{"trial_n":82,"n_dots":3.85,"target":"right","response":"right","rt":351.5,"correct":true,"confidence":3},{"trial_n":83,"n_dots":3.75,"target":"left","response":"left","rt":298.79999999702,"correct":true,"confidence":4},{"trial_n":84,"n_dots":3.75,"target":"left","response":"left","rt":150.70000000298,"correct":true,"confidence":4},{"trial_n":85,"n_dots":3.65,"target":"left","response":"left","rt":313.40000000596,"correct":true,"confidence":5},{"trial_n":86,"n_dots":3.65,"target":"right","response":"left","rt":413.70000000298,"correct":false,"confidence":2},{"trial_n":87,"n_dots":3.75,"target":"left","response":"left","rt":444.89999999106,"correct":true,"confidence":3},{"trial_n":88,"n_dots":3.75,"target":"right","response":"left","rt":339.40000000596,"correct":false,"confidence":4},{"trial_n":89,"n_dots":3.85,"target":"left","response":"left","rt":274.5,"correct":true,"confidence":3},{"trial_n":90,"n_dots":3.85,"target":"left","response":"left","rt":355.90000000596,"correct":true,"confidence":4},{"trial_n":91,"n_dots":3.75,"target":"left","response":"left","rt":534,"correct":true,"confidence":3},{"trial_n":92,"n_dots":3.75,"target":"right","response":"right","rt":402.20000000298,"correct":true,"confidence":3},{"trial_n":93,"n_dots":3.65,"target":"right","response":"right","rt":201.90000000596,"correct":true,"confidence":3},{"trial_n":94,"n_dots":3.65,"target":"left","response":"left","rt":73.70000000298,"correct":true,"confidence":2},{"trial_n":95,"n_dots":3.55,"target":"right","response":"right","rt":167.09999999404,"correct":true,"confidence":4},{"trial_n":96,"n_dots":3.55,"target":"left","response":"left","rt":316.5,"correct":true,"confidence":3},{"trial_n":97,"n_dots":3.45,"target":"left","response":"left","rt":432.5,"correct":true,"confidence":1},{"trial_n":98,"n_dots":3.45,"target":"left","response":"left","rt":289.29999999702,"correct":true,"confidence":2},{"trial_n":99,"n_dots":3.35,"target":"right","response":"left","rt":315.59999999404,"correct":false,"confidence":2},{"trial_n":100,"n_dots":3.45,"target":"right","response":"left","rt":532.30000001192,"correct":false,"confidence":2},{"trial_n":101,"n_dots":3.55,"target":"left","response":"left","rt":174.5,"correct":true,"confidence":4},{"trial_n":102,"n_dots":3.55,"target":"left","response":"left","rt":441.90000000596,"correct":true,"confidence":3},{"trial_n":103,"n_dots":3.45,"target":"right","response":"right","rt":533.90000000596,"correct":true,"confidence":3},{"trial_n":104,"n_dots":3.45,"target":"left","response":"left","rt":271.39999999106,"correct":true,"confidence":4},{"trial_n":105,"n_dots":3.35,"target":"left","response":"left","rt":299.5,"correct":true,"confidence":3},{"trial_n":106,"n_dots":3.35,"target":"right","response":"right","rt":401.20000000298,"correct":true,"confidence":2},{"trial_n":107,"n_dots":3.25,"target":"left","response":"left","rt":68.5,"correct":true,"confidence":3},{"trial_n":108,"n_dots":3.25,"target":"right","response":"left","rt":662.80000001192,"correct":false,"confidence":3},{"trial_n":109,"n_dots":3.35,"target":"left","response":"left","rt":176.40000000596,"correct":true,"confidence":4},{"trial_n":110,"n_dots":3.35,"target":"left","response":"left","rt":257.70000000298,"correct":true,"confidence":5},{"trial_n":111,"n_dots":3.25,"target":"left","response":"left","rt":239.10000000894,"correct":true,"confidence":4},{"trial_n":112,"n_dots":3.25,"target":"left","response":"left","rt":91.699999988079,"correct":true,"confidence":4},{"trial_n":113,"n_dots":3.15,"target":"right","response":"right","rt":1193.3999999911,"correct":true,"confidence":2},{"trial_n":114,"n_dots":3.15,"target":"left","response":"left","rt":111.90000000596,"correct":true,"confidence":3},{"trial_n":115,"n_dots":3.05,"target":"right","response":"right","rt":576,"correct":true,"confidence":3},{"trial_n":116,"n_dots":3.05,"target":"left","response":"right","rt":1895.5,"correct":false,"confidence":1},{"trial_n":117,"n_dots":3.15,"target":"right","response":"right","rt":963,"correct":true,"confidence":1},{"trial_n":118,"n_dots":3.15,"target":"right","response":"left","rt":844.5,"correct":false,"confidence":2},{"trial_n":119,"n_dots":3.25,"target":"right","response":"right","rt":2363.6999999881,"correct":true,"confidence":3},{"trial_n":120,"n_dots":3.25,"target":"right","response":"left","rt":905.79999999702,"correct":false,"confidence":1}]