[{"trial_n":1,"n_dots":4.25,"target":"left","response":"right","rt":1142.8000000119,"correct":false,"confidence":-1},{"trial_n":2,"n_dots":4.25,"target":"left","response":"right","rt":791.70000001788,"correct":false,"confidence":-1},{"trial_n":3,"n_dots":4.65,"target":"right","response":"right","rt":730.19999998808,"correct":true,"confidence":-1},{"trial_n":4,"n_dots":4.65,"target":"left","response":"left","rt":577,"correct":true,"confidence":-1},{"trial_n":5,"n_dots":4.25,"target":"right","response":"right","rt":533.70000001788,"correct":true,"confidence":-1},{"trial_n":6,"n_dots":4.25,"target":"left","response":"right","rt":903.5,"correct":false,"confidence":-1},{"trial_n":7,"n_dots":4.65,"target":"right","response":"right","rt":263.5,"correct":true,"confidence":-1},{"trial_n":8,"n_dots":4.65,"target":"left","response":"left","rt":295.90000000596,"correct":true,"confidence":-1},{"trial_n":9,"n_dots":4.45,"target":"left","response":"left","rt":435.29999998212,"correct":true,"confidence":-1},{"trial_n":10,"n_dots":4.45,"target":"left","response":"left","rt":206.79999998212,"correct":true,"confidence":-1},{"trial_n":11,"n_dots":4.25,"target":"right","response":"right","rt":719.69999998808,"correct":true,"confidence":-1},{"trial_n":12,"n_dots":4.25,"target":"right","response":"right","rt":348.39999997616,"correct":true,"confidence":-1},{"trial_n":13,"n_dots":4.15,"target":"right","response":"right","rt":495.59999999404,"correct":true,"confidence":-1},{"trial_n":14,"n_dots":4.15,"target":"right","response":"right","rt":408.70000001788,"correct":true,"confidence":-1},{"trial_n":15,"n_dots":4.05,"target":"right","response":"right","rt":201.40000000596,"correct":true,"confidence":-1},{"trial_n":16,"n_dots":4.05,"target":"right","response":"right","rt":548.40000000596,"correct":true,"confidence":-1},{"trial_n":17,"n_dots":3.95,"target":"right","response":"right","rt":407.90000000596,"correct":true,"confidence":-1},{"trial_n":18,"n_dots":3.95,"target":"right","response":"right","rt":265.69999998808,"correct":true,"confidence":-1},{"trial_n":19,"n_dots":3.85,"target":"right","response":"right","rt":371.29999998212,"correct":true,"confidence":-1},{"trial_n":20,"n_dots":3.85,"target":"right","response":"right","rt":108.80000001192,"correct":true,"confidence":-1},{"trial_n":21,"n_dots":3.75,"target":"right","response":"right","rt":444.20000001788,"correct":true,"confidence":3},{"trial_n":22,"n_dots":3.75,"target":"left","response":"left","rt":1063.8999999762,"correct":true,"confidence":1},{"trial_n":23,"n_dots":3.65,"target":"left","response":"left","rt":350.30000001192,"correct":true,"confidence":3},{"trial_n":24,"n_dots":3.65,"target":"left","response":"left","rt":515.79999998212,"correct":true,"confidence":4},{"trial_n":25,"n_dots":3.55,"target":"left","response":"left","rt":435.80000001192,"correct":true,"confidence":4},{"trial_n":26,"n_dots":3.55,"target":"left","response":"right","rt":1521.400000006,"correct":false,"confidence":2},{"trial_n":27,"n_dots":3.65,"target":"left","response":"left","rt":791,"correct":true,"confidence":3},{"trial_n":28,"n_dots":3.65,"target":"right","response":"right","rt":469.5,"correct":true,"confidence":4},{"trial_n":29,"n_dots":3.55,"target":"left","response":"left","rt":365.69999998808,"correct":true,"confidence":3},{"trial_n":30,"n_dots":3.55,"target":"right","response":"right","rt":1338.400000006,"correct":true,"confidence":3},{"trial_n":31,"n_dots":3.45,"target":"left","response":"left","rt":472,"correct":true,"confidence":1},{"trial_n":32,"n_dots":3.45,"target":"left","response":"left","rt":1022,"correct":true,"confidence":1},{"trial_n":33,"n_dots":3.35,"target":"left","response":"left","rt":501.40000000596,"correct":true,"confidence":2},{"trial_n":34,"n_dots":3.35,"target":"right","response":"right","rt":345.10000002384,"correct":true,"confidence":3},{"trial_n":35,"n_dots":3.25,"target":"left","response":"right","rt":1007.099999994,"correct":false,"confidence":2},{"trial_n":36,"n_dots":3.35,"target":"right","response":"right","rt":400,"correct":true,"confidence":3},{"trial_n":37,"n_dots":3.35,"target":"right","response":"right","rt":722.59999999404,"correct":true,"confidence":3},{"trial_n":38,"n_dots":3.25,"target":"left","response":"left","rt":1017.2000000179,"correct":true,"confidence":3},{"trial_n":39,"n_dots":3.25,"target":"left","response":"left","rt":622,"correct":true,"confidence":3},{"trial_n":40,"n_dots":3.15,"target":"right","response":"right","rt":407.5,"correct":true,"confidence":3},{"trial_n":41,"n_dots":3.15,"target":"right","response":"right","rt":768.69999998808,"correct":true,"confidence":2},{"trial_n":42,"n_dots":3.05,"target":"left","response":"left","rt":613.70000001788,"correct":true,"confidence":2},{"trial_n":43,"n_dots":3.05,"target":"left","response":"right","rt":619.90000000596,"correct":false,"confidence":2},{"trial_n":44,"n_dots":3.15,"target":"right","response":"left","rt":489.70000001788,"correct":false,"confidence":2},{"trial_n":45,"n_dots":3.25,"target":"right","response":"left","rt":1231.599999994,"correct":false,"confidence":2},{"trial_n":46,"n_dots":3.35,"target":"right","response":"left","rt":623.70000001788,"correct":false,"confidence":2},{"trial_n":47,"n_dots":3.45,"target":"left","response":"left","rt":1624.3000000119,"correct":true,"confidence":2},{"trial_n":48,"n_dots":3.45,"target":"right","response":"right","rt":45.90000000596,"correct":true,"confidence":3},{"trial_n":49,"n_dots":3.35,"target":"left","response":"left","rt":7991.3000000119,"correct":true,"confidence":1},{"trial_n":50,"n_dots":3.35,"target":"left","response":"left","rt":449.09999999404,"correct":true,"confidence":2},{"trial_n":51,"n_dots":3.25,"target":"right","response":"right","rt":1256.7000000179,"correct":true,"confidence":2},{"trial_n":52,"n_dots":3.25,"target":"right","response":"right","rt":3062.599999994,"correct":true,"confidence":1},{"trial_n":53,"n_dots":3.15,"target":"right","response":"left","rt":990.80000001192,"correct":false,"confidence":2},{"trial_n":54,"n_dots":3.25,"target":"right","response":"right","rt":324.90000000596,"correct":true,"confidence":2},{"trial_n":55,"n_dots":3.25,"target":"left","response":"left","rt":421.69999998808,"correct":true,"confidence":3},{"trial_n":56,"n_dots":3.15,"target":"right","response":"right","rt":578.59999999404,"correct":true,"confidence":3},{"trial_n":57,"n_dots":3.15,"target":"left","response":"left","rt":1738.099999994,"correct":true,"confidence":3},{"trial_n":58,"n_dots":3.05,"target":"right","response":"right","rt":527,"correct":true,"confidence":3},{"trial_n":59,"n_dots":3.05,"target":"right","response":"right","rt":343.90000000596,"correct":true,"confidence":3},{"trial_n":60,"n_dots":2.95,"target":"left","response":"left","rt":513.89999997616,"correct":true,"confidence":3},{"trial_n":61,"n_dots":2.95,"target":"right","response":"left","rt":302.69999998808,"correct":false,"confidence":2},{"trial_n":62,"n_dots":3.05,"target":"right","response":"right","rt":554.5,"correct":true,"confidence":2},{"trial_n":63,"n_dots":3.05,"target":"right","response":"right","rt":734.80000001192,"correct":true,"confidence":3},{"trial_n":64,"n_dots":2.95,"target":"right","response":"right","rt":639.5,"correct":true,"confidence":3},{"trial_n":65,"n_dots":2.95,"target":"right","response":"right","rt":1018.1000000238,"correct":true,"confidence":2},{"trial_n":66,"n_dots":2.85,"target":"right","response":"left","rt":751.69999998808,"correct":false,"confidence":1},{"trial_n":67,"n_dots":2.95,"target":"right","response":"right","rt":386.59999999404,"correct":true,"confidence":2},{"trial_n":68,"n_dots":2.95,"target":"right","response":"right","rt":754.5,"correct":true,"confidence":2},{"trial_n":69,"n_dots":2.85,"target":"right","response":"right","rt":273.39999997616,"correct":true,"confidence":3},{"trial_n":70,"n_dots":2.85,"target":"right","response":"left","rt":1151.6999999881,"correct":false,"confidence":2},{"trial_n":71,"n_dots":2.95,"target":"left","response":"right","rt":1032,"correct":false,"confidence":2},{"trial_n":72,"n_dots":3.05,"target":"left","response":"left","rt":920.09999999404,"correct":true,"confidence":2},{"trial_n":73,"n_dots":3.05,"target":"left","response":"left","rt":464.69999998808,"correct":true,"confidence":3},{"trial_n":74,"n_dots":2.95,"target":"right","response":"right","rt":376,"correct":true,"confidence":3},{"trial_n":75,"n_dots":2.95,"target":"left","response":"left","rt":706.5,"correct":true,"confidence":2},{"trial_n":76,"n_dots":2.85,"target":"right","response":"right","rt":544,"correct":true,"confidence":3},{"trial_n":77,"n_dots":2.85,"target":"right","response":"right","rt":509.90000000596,"correct":true,"confidence":3},{"trial_n":78,"n_dots":2.75,"target":"left","response":"left","rt":608.5,"correct":true,"confidence":3},{"trial_n":79,"n_dots":2.75,"target":"left","response":"left","rt":471.20000001788,"correct":true,"confidence":3},{"trial_n":80,"n_dots":2.65,"target":"right","response":"right","rt":191.19999998808,"correct":true,"confidence":3},{"trial_n":81,"n_dots":2.65,"target":"right","response":"right","rt":12.90000000596,"correct":true,"confidence":1},{"trial_n":82,"n_dots":2.55,"target":"right","response":"right","rt":324.60000002384,"correct":true,"confidence":3},{"trial_n":83,"n_dots":2.55,"target":"left","response":"left","rt":364.29999998212,"correct":true,"confidence":3},{"trial_n":84,"n_dots":2.45,"target":"left","response":"right","rt":659.5,"correct":false,"confidence":2},{"trial_n":85,"n_dots":2.55,"target":"left","response":"right","rt":203.30000001192,"correct":false,"confidence":2},{"trial_n":86,"n_dots":2.65,"target":"left","response":"right","rt":714.80000001192,"correct":false,"confidence":2},{"trial_n":87,"n_dots":2.75,"target":"left","response":"left","rt":592.79999998212,"correct":true,"confidence":2},{"trial_n":88,"n_dots":2.75,"target":"right","response":"right","rt":489,"correct":true,"confidence":2},{"trial_n":89,"n_dots":2.65,"target":"left","response":"left","rt":553.29999998212,"correct":true,"confidence":2},{"trial_n":90,"n_dots":2.65,"target":"right","response":"right","rt":553.70000001788,"correct":true,"confidence":2},{"trial_n":91,"n_dots":2.55,"target":"left","response":"right","rt":511,"correct":false,"confidence":2},{"trial_n":92,"n_dots":2.65,"target":"left","response":"right","rt":244.29999998212,"correct":false,"confidence":2},{"trial_n":93,"n_dots":2.75,"target":"left","response":"right","rt":495.90000000596,"correct":false,"confidence":2},{"trial_n":94,"n_dots":2.85,"target":"left","response":"left","rt":836.09999999404,"correct":true,"confidence":3},{"trial_n":95,"n_dots":2.85,"target":"right","response":"right","rt":249.19999998808,"correct":true,"confidence":3},{"trial_n":96,"n_dots":2.75,"target":"left","response":"right","rt":872.19999998808,"correct":false,"confidence":3},{"trial_n":97,"n_dots":2.85,"target":"left","response":"left","rt":550.59999999404,"correct":true,"confidence":2},{"trial_n":98,"n_dots":2.85,"target":"right","response":"right","rt":584.40000000596,"correct":true,"confidence":2},{"trial_n":99,"n_dots":2.75,"target":"right","response":"right","rt":401.5,"correct":true,"confidence":2},{"trial_n":100,"n_dots":2.75,"target":"right","response":"right","rt":711.5,"correct":true,"confidence":2},{"trial_n":101,"n_dots":2.65,"target":"left","response":"right","rt":94.600000023842,"correct":false,"confidence":3},{"trial_n":102,"n_dots":2.75,"target":"left","response":"left","rt":498.69999998808,"correct":true,"confidence":2},{"trial_n":103,"n_dots":2.75,"target":"right","response":"right","rt":212,"correct":true,"confidence":3},{"trial_n":104,"n_dots":2.65,"target":"left","response":"left","rt":855.5,"correct":true,"confidence":2},{"trial_n":105,"n_dots":2.65,"target":"left","response":"right","rt":637.5,"correct":false,"confidence":2},{"trial_n":106,"n_dots":2.75,"target":"right","response":"right","rt":313.59999999404,"correct":true,"confidence":3},{"trial_n":107,"n_dots":2.75,"target":"left","response":"left","rt":521.09999999404,"correct":true,"confidence":3},{"trial_n":108,"n_dots":2.65,"target":"right","response":"right","rt":394.59999999404,"correct":true,"confidence":3},{"trial_n":109,"n_dots":2.65,"target":"left","response":"right","rt":299.59999999404,"correct":false,"confidence":3},{"trial_n":110,"n_dots":2.75,"target":"left","response":"left","rt":232,"correct":true,"confidence":2},{"trial_n":111,"n_dots":2.75,"target":"right","response":"right","rt":984,"correct":true,"confidence":2},{"trial_n":112,"n_dots":2.65,"target":"right","response":"left","rt":671,"correct":false,"confidence":3},{"trial_n":113,"n_dots":2.75,"target":"left","response":"left","rt":320.40000000596,"correct":true,"confidence":2},{"trial_n":114,"n_dots":2.75,"target":"left","response":"right","rt":666.5,"correct":false,"confidence":2},{"trial_n":115,"n_dots":2.85,"target":"left","response":"left","rt":422.39999997616,"correct":true,"confidence":2},{"trial_n":116,"n_dots":2.85,"target":"left","response":"right","rt":246.30000001192,"correct":false,"confidence":2},{"trial_n":117,"n_dots":2.95,"target":"left","response":"left","rt":351.09999999404,"correct":true,"confidence":3},{"trial_n":118,"n_dots":2.95,"target":"left","response":"left","rt":514.5,"correct":true,"confidence":3},{"trial_n":119,"n_dots":2.85,"target":"left","response":"right","rt":820.59999999404,"correct":false,"confidence":2},{"trial_n":120,"n_dots":2.95,"target":"right","response":"right","rt":660.40000000596,"correct":true,"confidence":3}]