[{"trial_n":1,"n_dots":4.25,"target":"right","response":"right","rt":58350.900000006,"correct":true,"confidence":-1},{"trial_n":2,"n_dots":4.25,"target":"right","response":"right","rt":7436.3000000119,"correct":true,"confidence":-1},{"trial_n":3,"n_dots":3.85,"target":"left","response":"left","rt":4194.6000000089,"correct":true,"confidence":-1},{"trial_n":4,"n_dots":3.85,"target":"right","response":"right","rt":1616.900000006,"correct":true,"confidence":-1},{"trial_n":5,"n_dots":3.45,"target":"left","response":"left","rt":634.40000000596,"correct":true,"confidence":-1},{"trial_n":6,"n_dots":3.45,"target":"right","response":"right","rt":557.60000000894,"correct":true,"confidence":-1},{"trial_n":7,"n_dots":3.05,"target":"left","response":"left","rt":502.20000000298,"correct":true,"confidence":-1},{"trial_n":8,"n_dots":3.05,"target":"left","response":"right","rt":636.80000001192,"correct":false,"confidence":-1},{"trial_n":9,"n_dots":3.25,"target":"right","response":"right","rt":675.70000000298,"correct":true,"confidence":-1},{"trial_n":10,"n_dots":3.25,"target":"right","response":"right","rt":463.09999999404,"correct":true,"confidence":-1},{"trial_n":11,"n_dots":3.05,"target":"right","response":"right","rt":434.09999999404,"correct":true,"confidence":-1},{"trial_n":12,"n_dots":3.05,"target":"right","response":"right","rt":445.5,"correct":true,"confidence":-1},{"trial_n":13,"n_dots":2.95,"target":"left","response":"left","rt":2511.900000006,"correct":true,"confidence":-1},{"trial_n":14,"n_dots":2.95,"target":"left","response":"left","rt":361.5,"correct":true,"confidence":-1},{"trial_n":15,"n_dots":2.85,"target":"left","response":"left","rt":573.60000000894,"correct":true,"confidence":-1},{"trial_n":16,"n_dots":2.85,"target":"left","response":"right","rt":449.20000000298,"correct":false,"confidence":-1},{"trial_n":17,"n_dots":2.95,"target":"left","response":"left","rt":761.20000000298,"correct":true,"confidence":-1},{"trial_n":18,"n_dots":2.95,"target":"right","response":"left","rt":4005.299999997,"correct":false,"confidence":-1},{"trial_n":19,"n_dots":3.05,"target":"left","response":"left","rt":1187.200000003,"correct":true,"confidence":-1},{"trial_n":20,"n_dots":3.05,"target":"left","response":"left","rt":368.80000001192,"correct":true,"confidence":-1},{"trial_n":21,"n_dots":2.95,"target":"right","response":"right","rt":21829.599999994,"correct":true,"confidence":2},{"trial_n":22,"n_dots":2.95,"target":"right","response":"right","rt":1884.200000003,"correct":true,"confidence":3},{"trial_n":23,"n_dots":2.85,"target":"right","response":"right","rt":5502.200000003,"correct":true,"confidence":2},{"trial_n":24,"n_dots":2.85,"target":"left","response":"right","rt":1353.400000006,"correct":false,"confidence":4},{"trial_n":25,"n_dots":2.95,"target":"right","response":"right","rt":1390.400000006,"correct":true,"confidence":3},{"trial_n":26,"n_dots":2.95,"target":"left","response":"left","rt":1346.5,"correct":true,"confidence":3},{"trial_n":27,"n_dots":2.85,"target":"left","response":"right","rt":1642.8000000119,"correct":false,"confidence":3},{"trial_n":28,"n_dots":2.95,"target":"right","response":"right","rt":1038.8999999911,"correct":true,"confidence":4},{"trial_n":29,"n_dots":2.95,"target":"right","response":"left","rt":1562.5,"correct":false,"confidence":2},{"trial_n":30,"n_dots":3.05,"target":"right","response":"right","rt":889.59999999404,"correct":true,"confidence":4},{"trial_n":31,"n_dots":3.05,"target":"right","response":"right","rt":3886.8999999911,"correct":true,"confidence":2},{"trial_n":32,"n_dots":2.95,"target":"left","response":"right","rt":592.60000000894,"correct":false,"confidence":3},{"trial_n":33,"n_dots":3.05,"target":"left","response":"right","rt":1015.799999997,"correct":false,"confidence":2},{"trial_n":34,"n_dots":3.15,"target":"right","response":"right","rt":1346.5,"correct":true,"confidence":2},{"trial_n":35,"n_dots":3.15,"target":"right","response":"right","rt":1229.8999999911,"correct":true,"confidence":2},{"trial_n":36,"n_dots":3.05,"target":"left","response":"left","rt":1340.8999999911,"correct":true,"confidence":3},{"trial_n":37,"n_dots":3.05,"target":"left","response":"left","rt":579.60000000894,"correct":true,"confidence":3},{"trial_n":38,"n_dots":2.95,"target":"right","response":"right","rt":970.39999999106,"correct":true,"confidence":2},{"trial_n":39,"n_dots":2.95,"target":"right","response":"right","rt":2732.400000006,"correct":true,"confidence":1},{"trial_n":40,"n_dots":2.85,"target":"right","response":"right","rt":1405,"correct":true,"confidence":1},{"trial_n":41,"n_dots":2.85,"target":"left","response":"right","rt":2226.200000003,"correct":false,"confidence":2},{"trial_n":42,"n_dots":2.95,"target":"right","response":"right","rt":2127.599999994,"correct":true,"confidence":3},{"trial_n":43,"n_dots":2.95,"target":"left","response":"left","rt":1408.099999994,"correct":true,"confidence":3},{"trial_n":44,"n_dots":2.85,"target":"right","response":"left","rt":1523.700000003,"correct":false,"confidence":3},{"trial_n":45,"n_dots":2.95,"target":"right","response":"right","rt":1133.3000000119,"correct":true,"confidence":3},{"trial_n":46,"n_dots":2.95,"target":"left","response":"left","rt":4859.299999997,"correct":true,"confidence":2},{"trial_n":47,"n_dots":2.85,"target":"right","response":"right","rt":10459.700000003,"correct":true,"confidence":2},{"trial_n":48,"n_dots":2.85,"target":"left","response":"right","rt":7414.799999997,"correct":false,"confidence":2},{"trial_n":49,"n_dots":2.95,"target":"left","response":"left","rt":2473.400000006,"correct":true,"confidence":3},{"trial_n":50,"n_dots":2.95,"target":"left","response":"left","rt":559.20000000298,"correct":true,"confidence":3},{"trial_n":51,"n_dots":2.85,"target":"right","response":"left","rt":11682.400000006,"correct":false,"confidence":2},{"trial_n":52,"n_dots":2.95,"target":"right","response":"right","rt":3024.900000006,"correct":true,"confidence":2},{"trial_n":53,"n_dots":2.95,"target":"right","response":"left","rt":17024.799999997,"correct":false,"confidence":1},{"trial_n":54,"n_dots":3.05,"target":"left","response":"left","rt":2400.8000000119,"correct":true,"confidence":4},{"trial_n":55,"n_dots":3.05,"target":"left","response":"left","rt":11946.100000009,"correct":true,"confidence":2},{"trial_n":56,"n_dots":2.95,"target":"right","response":"left","rt":59442.5,"correct":false,"confidence":1},{"trial_n":57,"n_dots":3.05,"target":"left","response":"left","rt":12756.899999991,"correct":true,"confidence":1},{"trial_n":58,"n_dots":3.05,"target":"right","response":"right","rt":5067.5,"correct":true,"confidence":4},{"trial_n":59,"n_dots":2.95,"target":"right","response":"right","rt":812.90000000596,"correct":true,"confidence":4},{"trial_n":60,"n_dots":2.95,"target":"left","response":"left","rt":2316.700000003,"correct":true,"confidence":4},{"trial_n":61,"n_dots":2.85,"target":"right","response":"right","rt":5485.299999997,"correct":true,"confidence":3},{"trial_n":62,"n_dots":2.85,"target":"left","response":"left","rt":1662.8000000119,"correct":true,"confidence":3},{"trial_n":63,"n_dots":2.75,"target":"left","response":"left","rt":8711.700000003,"correct":true,"confidence":2},{"trial_n":64,"n_dots":2.75,"target":"right","response":"left","rt":1756.1000000089,"correct":false,"confidence":2},{"trial_n":65,"n_dots":2.85,"target":"right","response":"right","rt":854.39999999106,"correct":true,"confidence":4},{"trial_n":66,"n_dots":2.85,"target":"left","response":"left","rt":9720.3999999911,"correct":true,"confidence":2},{"trial_n":67,"n_dots":2.75,"target":"left","response":"right","rt":1111.900000006,"correct":false,"confidence":1},{"trial_n":68,"n_dots":2.85,"target":"left","response":"right","rt":6259.5,"correct":false,"confidence":1},{"trial_n":69,"n_dots":2.95,"target":"left","response":"right","rt":1247.400000006,"correct":false,"confidence":2},{"trial_n":70,"n_dots":3.05,"target":"left","response":"left","rt":774.59999999404,"correct":true,"confidence":3},{"trial_n":71,"n_dots":3.05,"target":"left","response":"left","rt":3818.3000000119,"correct":true,"confidence":2},{"trial_n":72,"n_dots":2.95,"target":"left","response":"left","rt":529.60000000894,"correct":true,"confidence":2},{"trial_n":73,"n_dots":2.95,"target":"left","response":"left","rt":4038.6999999881,"correct":true,"confidence":2},{"trial_n":74,"n_dots":2.85,"target":"left","response":"left","rt":2117.599999994,"correct":true,"confidence":3},{"trial_n":75,"n_dots":2.85,"target":"right","response":"right","rt":1310,"correct":true,"confidence":3},{"trial_n":76,"n_dots":2.75,"target":"right","response":"right","rt":15064.900000006,"correct":true,"confidence":3},{"trial_n":77,"n_dots":2.75,"target":"left","response":"left","rt":3104.799999997,"correct":true,"confidence":2},{"trial_n":78,"n_dots":2.65,"target":"left","response":"right","rt":13939,"correct":false,"confidence":2},{"trial_n":79,"n_dots":2.75,"target":"left","response":"left","rt":926.90000000596,"correct":true,"confidence":3},{"trial_n":80,"n_dots":2.75,"target":"right","response":"left","rt":2148.900000006,"correct":false,"confidence":1},{"trial_n":81,"n_dots":2.85,"target":"right","response":"right","rt":1173.1000000089,"correct":true,"confidence":3},{"trial_n":82,"n_dots":2.85,"target":"left","response":"left","rt":1601.099999994,"correct":true,"confidence":2},{"trial_n":83,"n_dots":2.75,"target":"left","response":"right","rt":8216.799999997,"correct":false,"confidence":2},{"trial_n":84,"n_dots":2.85,"target":"left","response":"left","rt":1269.200000003,"correct":true,"confidence":4},{"trial_n":85,"n_dots":2.85,"target":"left","response":"left","rt":1048.3000000119,"correct":true,"confidence":2},{"trial_n":86,"n_dots":2.75,"target":"left","response":"left","rt":796.09999999404,"correct":true,"confidence":3},{"trial_n":87,"n_dots":2.75,"target":"left","response":"left","rt":3392.099999994,"correct":true,"confidence":3},{"trial_n":88,"n_dots":2.65,"target":"left","response":"right","rt":38942.5,"correct":false,"confidence":2},{"trial_n":89,"n_dots":2.75,"target":"right","response":"right","rt":2398.099999994,"correct":true,"confidence":1},{"trial_n":90,"n_dots":2.75,"target":"left","response":"right","rt":6908.799999997,"correct":false,"confidence":1},{"trial_n":91,"n_dots":2.85,"target":"right","response":"right","rt":1343.200000003,"correct":true,"confidence":3},{"trial_n":92,"n_dots":2.85,"target":"left","response":"left","rt":1474.8000000119,"correct":true,"confidence":2},{"trial_n":93,"n_dots":2.75,"target":"left","response":"right","rt":6511.799999997,"correct":false,"confidence":2},{"trial_n":94,"n_dots":2.85,"target":"left","response":"left","rt":2467.299999997,"correct":true,"confidence":3},{"trial_n":95,"n_dots":2.85,"target":"right","response":"left","rt":4925.599999994,"correct":false,"confidence":2},{"trial_n":96,"n_dots":2.95,"target":"right","response":"right","rt":2098.799999997,"correct":true,"confidence":4},{"trial_n":97,"n_dots":2.95,"target":"right","response":"right","rt":2170.799999997,"correct":true,"confidence":4},{"trial_n":98,"n_dots":2.85,"target":"right","response":"right","rt":4125.1000000089,"correct":true,"confidence":3},{"trial_n":99,"n_dots":2.85,"target":"right","response":"right","rt":12175.299999997,"correct":true,"confidence":2},{"trial_n":100,"n_dots":2.75,"target":"right","response":"right","rt":1197.1999999881,"correct":true,"confidence":4},{"trial_n":101,"n_dots":2.75,"target":"right","response":"right","rt":627.5,"correct":true,"confidence":4},{"trial_n":102,"n_dots":2.65,"target":"left","response":"left","rt":5027.299999997,"correct":true,"confidence":3},{"trial_n":103,"n_dots":2.65,"target":"right","response":"right","rt":3090.799999997,"correct":true,"confidence":2},{"trial_n":104,"n_dots":2.55,"target":"right","response":"right","rt":1076.8000000119,"correct":true,"confidence":2},{"trial_n":105,"n_dots":2.55,"target":"right","response":"right","rt":1507,"correct":true,"confidence":2},{"trial_n":106,"n_dots":2.45,"target":"right","response":"right","rt":1043.099999994,"correct":true,"confidence":2},{"trial_n":107,"n_dots":2.45,"target":"right","response":"right","rt":1793.099999994,"correct":true,"confidence":3},{"trial_n":108,"n_dots":2.35,"target":"right","response":"right","rt":1044,"correct":true,"confidence":2},{"trial_n":109,"n_dots":2.35,"target":"right","response":"right","rt":665.79999999702,"correct":true,"confidence":4},{"trial_n":110,"n_dots":2.25,"target":"right","response":"right","rt":850.89999999106,"correct":true,"confidence":2},{"trial_n":111,"n_dots":2.25,"target":"right","response":"right","rt":721.59999999404,"correct":true,"confidence":3},{"trial_n":112,"n_dots":2.15,"target":"right","response":"right","rt":931.10000000894,"correct":true,"confidence":3},{"trial_n":113,"n_dots":2.15,"target":"right","response":"right","rt":812.09999999404,"correct":true,"confidence":3},{"trial_n":114,"n_dots":2.05,"target":"left","response":"right","rt":1225.700000003,"correct":false,"confidence":2},{"trial_n":115,"n_dots":2.15,"target":"right","response":"left","rt":909.09999999404,"correct":false,"confidence":2},{"trial_n":116,"n_dots":2.25,"target":"left","response":"right","rt":815.79999999702,"correct":false,"confidence":1},{"trial_n":117,"n_dots":2.35,"target":"left","response":"left","rt":952.09999999404,"correct":true,"confidence":2},{"trial_n":118,"n_dots":2.35,"target":"left","response":"left","rt":1362.400000006,"correct":true,"confidence":2},{"trial_n":119,"n_dots":2.25,"target":"left","response":"right","rt":682.10000000894,"correct":false,"confidence":2},{"trial_n":120,"n_dots":2.35,"target":"left","response":"left","rt":1160,"correct":true,"confidence":2}]