[{"trial_n":1,"min":25,"max":230,"target":"present","response":"present","rt":4398,"correct":true,"confidence":-1},{"trial_n":2,"min":25,"max":230,"target":"present","response":"present","rt":863.29999995232,"correct":true,"confidence":-1},{"trial_n":3,"min":41,"max":214,"target":"absent","response":"present","rt":510.10000014305,"correct":false,"confidence":-1},{"trial_n":4,"min":25,"max":230,"target":"absent","response":"present","rt":1831.5999999046,"correct":false,"confidence":-1},{"trial_n":5,"min":9,"max":246,"target":"present","response":"present","rt":3272.3999998569,"correct":true,"confidence":-1},{"trial_n":6,"min":9,"max":246,"target":"present","response":"present","rt":627.10000014305,"correct":true,"confidence":-1},{"trial_n":7,"min":25,"max":230,"target":"absent","response":"absent","rt":805.30000019073,"correct":true,"confidence":-1},{"trial_n":8,"min":25,"max":230,"target":"absent","response":"absent","rt":672.90000009537,"correct":true,"confidence":-1},{"trial_n":9,"min":41,"max":214,"target":"present","response":"present","rt":645.39999985695,"correct":true,"confidence":-1},{"trial_n":10,"min":41,"max":214,"target":"absent","response":"absent","rt":624.29999995232,"correct":true,"confidence":-1},{"trial_n":11,"min":49,"max":206,"target":"present","response":"present","rt":562.89999985695,"correct":true,"confidence":-1},{"trial_n":12,"min":49,"max":206,"target":"present","response":"present","rt":978.40000009537,"correct":true,"confidence":-1},{"trial_n":13,"min":57,"max":198,"target":"present","response":"absent","rt":628,"correct":false,"confidence":-1},{"trial_n":14,"min":49,"max":206,"target":"absent","response":"absent","rt":764.40000009537,"correct":true,"confidence":-1},{"trial_n":15,"min":49,"max":206,"target":"absent","response":"absent","rt":589.90000009537,"correct":true,"confidence":-1},{"trial_n":16,"min":57,"max":198,"target":"present","response":"present","rt":692.10000014305,"correct":true,"confidence":-1},{"trial_n":17,"min":57,"max":198,"target":"absent","response":"absent","rt":509.40000009537,"correct":true,"confidence":-1},{"trial_n":18,"min":65,"max":190,"target":"absent","response":"absent","rt":537.59999990463,"correct":true,"confidence":-1},{"trial_n":19,"min":65,"max":190,"target":"present","response":"present","rt":641.30000019073,"correct":true,"confidence":-1},{"trial_n":20,"min":73,"max":182,"target":"present","response":"present","rt":564.10000014305,"correct":true,"confidence":-1},{"trial_n":21,"min":73,"max":182,"target":"absent","response":"absent","rt":707.59999990463,"correct":true,"confidence":5},{"trial_n":22,"min":77,"max":178,"target":"absent","response":"present","rt":1323.1999998093,"correct":false,"confidence":3},{"trial_n":23,"min":73,"max":182,"target":"absent","response":"present","rt":1012,"correct":false,"confidence":3},{"trial_n":24,"min":69,"max":186,"target":"absent","response":"present","rt":689.09999990463,"correct":false,"confidence":3},{"trial_n":25,"min":65,"max":190,"target":"absent","response":"absent","rt":636.79999995232,"correct":true,"confidence":3},{"trial_n":26,"min":65,"max":190,"target":"present","response":"present","rt":863.20000004768,"correct":true,"confidence":4},{"trial_n":27,"min":69,"max":186,"target":"absent","response":"absent","rt":721.30000019073,"correct":true,"confidence":3},{"trial_n":28,"min":69,"max":186,"target":"present","response":"absent","rt":736.29999995232,"correct":false,"confidence":2},{"trial_n":29,"min":65,"max":190,"target":"present","response":"present","rt":551.70000004768,"correct":true,"confidence":4},{"trial_n":30,"min":65,"max":190,"target":"absent","response":"absent","rt":1190.3999998569,"correct":true,"confidence":3},{"trial_n":31,"min":67,"max":188,"target":"absent","response":"absent","rt":998.10000014305,"correct":true,"confidence":3},{"trial_n":32,"min":67,"max":188,"target":"absent","response":"absent","rt":974,"correct":true,"confidence":4},{"trial_n":33,"min":69,"max":186,"target":"absent","response":"absent","rt":936.79999995232,"correct":true,"confidence":5},{"trial_n":34,"min":69,"max":186,"target":"absent","response":"absent","rt":510.19999980927,"correct":true,"confidence":4},{"trial_n":35,"min":71,"max":184,"target":"absent","response":"absent","rt":644.09999990463,"correct":true,"confidence":4},{"trial_n":36,"min":71,"max":184,"target":"present","response":"present","rt":530.80000019073,"correct":true,"confidence":4},{"trial_n":37,"min":73,"max":182,"target":"present","response":"present","rt":606.5,"correct":true,"confidence":4},{"trial_n":38,"min":73,"max":182,"target":"present","response":"present","rt":846.5,"correct":true,"confidence":4},{"trial_n":39,"min":75,"max":180,"target":"absent","response":"absent","rt":819.69999980927,"correct":true,"confidence":3},{"trial_n":40,"min":75,"max":180,"target":"absent","response":"absent","rt":1056.3999998569,"correct":true,"confidence":3},{"trial_n":41,"min":76,"max":179,"target":"present","response":"present","rt":567.29999995232,"correct":true,"confidence":3},{"trial_n":42,"min":76,"max":179,"target":"present","response":"present","rt":470.59999990463,"correct":true,"confidence":3},{"trial_n":43,"min":77,"max":178,"target":"present","response":"absent","rt":638.70000004768,"correct":false,"confidence":3},{"trial_n":44,"min":76,"max":179,"target":"absent","response":"present","rt":529.5,"correct":false,"confidence":3},{"trial_n":45,"min":75,"max":180,"target":"present","response":"present","rt":653.40000009537,"correct":true,"confidence":3},{"trial_n":46,"min":75,"max":180,"target":"absent","response":"absent","rt":598.39999985695,"correct":true,"confidence":4},{"trial_n":47,"min":76,"max":179,"target":"present","response":"absent","rt":589.40000009537,"correct":false,"confidence":4},{"trial_n":48,"min":75,"max":180,"target":"absent","response":"absent","rt":773.5,"correct":true,"confidence":4},{"trial_n":49,"min":75,"max":180,"target":"absent","response":"present","rt":662.20000004768,"correct":false,"confidence":3},{"trial_n":50,"min":74,"max":181,"target":"absent","response":"absent","rt":1020.8000001907,"correct":true,"confidence":3},{"trial_n":51,"min":74,"max":181,"target":"absent","response":"absent","rt":1586.3999998569,"correct":true,"confidence":3},{"trial_n":52,"min":75,"max":180,"target":"absent","response":"absent","rt":505.20000004768,"correct":true,"confidence":3},{"trial_n":53,"min":75,"max":180,"target":"present","response":"present","rt":714.80000019073,"correct":true,"confidence":3},{"trial_n":54,"min":76,"max":179,"target":"present","response":"present","rt":629.40000009537,"correct":true,"confidence":4},{"trial_n":55,"min":76,"max":179,"target":"present","response":"absent","rt":1116.2000000477,"correct":false,"confidence":3},{"trial_n":56,"min":75,"max":180,"target":"present","response":"present","rt":566.70000004768,"correct":true,"confidence":4},{"trial_n":57,"min":75,"max":180,"target":"present","response":"present","rt":580.29999995232,"correct":true,"confidence":4},{"trial_n":58,"min":76,"max":179,"target":"present","response":"present","rt":522.09999990463,"correct":true,"confidence":4},{"trial_n":59,"min":76,"max":179,"target":"present","response":"present","rt":765.89999985695,"correct":true,"confidence":3},{"trial_n":60,"min":77,"max":178,"target":"absent","response":"absent","rt":1441.2000000477,"correct":true,"confidence":2},{"trial_n":61,"min":77,"max":178,"target":"present","response":"present","rt":1066.7999999523,"correct":true,"confidence":3},{"trial_n":62,"min":78,"max":177,"target":"absent","response":"absent","rt":1336.3000001907,"correct":true,"confidence":3},{"trial_n":63,"min":78,"max":177,"target":"present","response":"absent","rt":1755.5,"correct":false,"confidence":2},{"trial_n":64,"min":77,"max":178,"target":"absent","response":"present","rt":503.20000004768,"correct":false,"confidence":2},{"trial_n":65,"min":76,"max":179,"target":"present","response":"present","rt":599.5,"correct":true,"confidence":3},{"trial_n":66,"min":76,"max":179,"target":"present","response":"present","rt":856.40000009537,"correct":true,"confidence":4},{"trial_n":67,"min":77,"max":178,"target":"present","response":"absent","rt":806.89999985695,"correct":false,"confidence":3},{"trial_n":68,"min":76,"max":179,"target":"present","response":"absent","rt":832.29999995232,"correct":false,"confidence":2},{"trial_n":69,"min":75,"max":180,"target":"absent","response":"present","rt":512.20000004768,"correct":false,"confidence":3},{"trial_n":70,"min":74,"max":181,"target":"present","response":"absent","rt":591,"correct":false,"confidence":2},{"trial_n":71,"min":41,"max":214,"target":"present","response":"present","rt":1360.7000000477,"correct":true,"confidence":-1},{"trial_n":72,"min":41,"max":214,"target":"present","response":"present","rt":993.79999995232,"correct":true,"confidence":-1},{"trial_n":73,"min":57,"max":198,"target":"absent","response":"absent","rt":792.5,"correct":true,"confidence":-1},{"trial_n":74,"min":57,"max":198,"target":"absent","response":"absent","rt":616.89999985695,"correct":true,"confidence":-1},{"trial_n":75,"min":73,"max":182,"target":"present","response":"present","rt":507.20000004768,"correct":true,"confidence":-1},{"trial_n":76,"min":73,"max":182,"target":"present","response":"present","rt":601.79999995232,"correct":true,"confidence":-1},{"trial_n":77,"min":89,"max":166,"target":"present","response":"present","rt":601,"correct":true,"confidence":-1},{"trial_n":78,"min":89,"max":166,"target":"present","response":"absent","rt":591.40000009537,"correct":false,"confidence":-1},{"trial_n":79,"min":73,"max":182,"target":"absent","response":"present","rt":498.59999990463,"correct":false,"confidence":-1},{"trial_n":80,"min":57,"max":198,"target":"absent","response":"present","rt":333.5,"correct":false,"confidence":-1},{"trial_n":81,"min":49,"max":206,"target":"present","response":"present","rt":410.79999995232,"correct":true,"confidence":-1},{"trial_n":82,"min":49,"max":206,"target":"absent","response":"absent","rt":667.60000014305,"correct":true,"confidence":-1},{"trial_n":83,"min":57,"max":198,"target":"absent","response":"absent","rt":676.60000014305,"correct":true,"confidence":-1},{"trial_n":84,"min":57,"max":198,"target":"present","response":"present","rt":462.29999995232,"correct":true,"confidence":-1},{"trial_n":85,"min":65,"max":190,"target":"present","response":"present","rt":491.20000004768,"correct":true,"confidence":-1},{"trial_n":86,"min":65,"max":190,"target":"absent","response":"absent","rt":621.70000004768,"correct":true,"confidence":-1},{"trial_n":87,"min":73,"max":182,"target":"present","response":"present","rt":463.90000009537,"correct":true,"confidence":-1},{"trial_n":88,"min":73,"max":182,"target":"absent","response":"absent","rt":538.40000009537,"correct":true,"confidence":-1},{"trial_n":89,"min":81,"max":174,"target":"absent","response":"present","rt":784.40000009537,"correct":false,"confidence":-1},{"trial_n":90,"min":73,"max":182,"target":"present","response":"absent","rt":401.20000004768,"correct":false,"confidence":-1},{"trial_n":91,"min":69,"max":186,"target":"absent","response":"absent","rt":971.70000004768,"correct":true,"confidence":3},{"trial_n":92,"min":69,"max":186,"target":"present","response":"present","rt":477,"correct":true,"confidence":3},{"trial_n":93,"min":73,"max":182,"target":"absent","response":"absent","rt":561.10000014305,"correct":true,"confidence":2},{"trial_n":94,"min":73,"max":182,"target":"absent","response":"absent","rt":893.29999995232,"correct":true,"confidence":2},{"trial_n":95,"min":77,"max":178,"target":"present","response":"present","rt":504.5,"correct":true,"confidence":2},{"trial_n":96,"min":77,"max":178,"target":"absent","response":"absent","rt":545.5,"correct":true,"confidence":2},{"trial_n":97,"min":81,"max":174,"target":"present","response":"present","rt":2573.1999998093,"correct":true,"confidence":1},{"trial_n":98,"min":81,"max":174,"target":"absent","response":"absent","rt":863.5,"correct":true,"confidence":1},{"trial_n":99,"min":85,"max":170,"target":"absent","response":"absent","rt":1862.2000000477,"correct":true,"confidence":2},{"trial_n":100,"min":85,"max":170,"target":"absent","response":"absent","rt":1059.5999999046,"correct":true,"confidence":2},{"trial_n":101,"min":87,"max":168,"target":"present","response":"absent","rt":1026.0999999046,"correct":false,"confidence":2},{"trial_n":102,"min":85,"max":170,"target":"absent","response":"absent","rt":597.29999995232,"correct":true,"confidence":2},{"trial_n":103,"min":85,"max":170,"target":"present","response":"present","rt":498.39999985695,"correct":true,"confidence":2},{"trial_n":104,"min":87,"max":168,"target":"absent","response":"absent","rt":1170.7000000477,"correct":true,"confidence":1},{"trial_n":105,"min":87,"max":168,"target":"present","response":"absent","rt":595,"correct":false,"confidence":1},{"trial_n":106,"min":85,"max":170,"target":"present","response":"absent","rt":834.80000019073,"correct":false,"confidence":1},{"trial_n":107,"min":83,"max":172,"target":"absent","response":"present","rt":610.70000004768,"correct":false,"confidence":1},{"trial_n":108,"min":81,"max":174,"target":"present","response":"present","rt":554.5,"correct":true,"confidence":3},{"trial_n":109,"min":81,"max":174,"target":"absent","response":"absent","rt":1363.9000000954,"correct":true,"confidence":3},{"trial_n":110,"min":83,"max":172,"target":"absent","response":"absent","rt":482.5,"correct":true,"confidence":3},{"trial_n":111,"min":83,"max":172,"target":"present","response":"present","rt":737.29999995232,"correct":true,"confidence":3},{"trial_n":112,"min":84,"max":171,"target":"present","response":"absent","rt":709.70000004768,"correct":false,"confidence":3},{"trial_n":113,"min":83,"max":172,"target":"present","response":"present","rt":491.59999990463,"correct":true,"confidence":3},{"trial_n":114,"min":83,"max":172,"target":"absent","response":"present","rt":490.59999990463,"correct":false,"confidence":3},{"trial_n":115,"min":82,"max":173,"target":"present","response":"present","rt":512.69999980927,"correct":true,"confidence":2},{"trial_n":116,"min":82,"max":173,"target":"absent","response":"present","rt":494.70000004768,"correct":false,"confidence":2},{"trial_n":117,"min":81,"max":174,"target":"present","response":"absent","rt":751.20000004768,"correct":false,"confidence":2},{"trial_n":118,"min":80,"max":175,"target":"present","response":"present","rt":449.10000014305,"correct":true,"confidence":2},{"trial_n":119,"min":80,"max":175,"target":"present","response":"absent","rt":898.5,"correct":false,"confidence":3},{"trial_n":120,"min":79,"max":176,"target":"present","response":"present","rt":571.59999990463,"correct":true,"confidence":2},{"trial_n":121,"min":79,"max":176,"target":"absent","response":"present","rt":511.90000009537,"correct":false,"confidence":3},{"trial_n":122,"min":78,"max":177,"target":"absent","response":"absent","rt":739.29999995232,"correct":true,"confidence":2},{"trial_n":123,"min":78,"max":177,"target":"absent","response":"present","rt":456.89999985695,"correct":false,"confidence":2},{"trial_n":124,"min":77,"max":178,"target":"absent","response":"present","rt":427.40000009537,"correct":false,"confidence":2},{"trial_n":125,"min":76,"max":179,"target":"absent","response":"present","rt":435.70000004768,"correct":false,"confidence":2},{"trial_n":126,"min":75,"max":180,"target":"absent","response":"present","rt":728.60000014305,"correct":false,"confidence":2},{"trial_n":127,"min":74,"max":181,"target":"absent","response":"present","rt":743.90000009537,"correct":false,"confidence":2},{"trial_n":128,"min":73,"max":182,"target":"present","response":"absent","rt":547,"correct":false,"confidence":2},{"trial_n":129,"min":72,"max":183,"target":"absent","response":"present","rt":471,"correct":false,"confidence":2},{"trial_n":130,"min":71,"max":184,"target":"absent","response":"absent","rt":553.70000004768,"correct":true,"confidence":3},{"trial_n":131,"min":71,"max":184,"target":"present","response":"present","rt":515.29999995232,"correct":true,"confidence":4},{"trial_n":132,"min":72,"max":183,"target":"present","response":"present","rt":594,"correct":true,"confidence":2},{"trial_n":133,"min":72,"max":183,"target":"present","response":"absent","rt":1674.5,"correct":false,"confidence":3},{"trial_n":134,"min":71,"max":184,"target":"absent","response":"absent","rt":634.59999990463,"correct":true,"confidence":3},{"trial_n":135,"min":71,"max":184,"target":"present","response":"present","rt":465.79999995232,"correct":true,"confidence":4},{"trial_n":136,"min":72,"max":183,"target":"present","response":"present","rt":690.29999995232,"correct":true,"confidence":3},{"trial_n":137,"min":72,"max":183,"target":"present","response":"present","rt":805,"correct":true,"confidence":3},{"trial_n":138,"min":73,"max":182,"target":"present","response":"present","rt":689.79999995232,"correct":true,"confidence":3},{"trial_n":139,"min":73,"max":182,"target":"absent","response":"absent","rt":629.79999995232,"correct":true,"confidence":3},{"trial_n":140,"min":74,"max":181,"target":"present","response":"present","rt":689.70000004768,"correct":true,"confidence":3}]