[{"trial_n":1,"n_dots":4.25,"target":"right","response":"right","rt":568,"correct":true,"confidence":-1},{"trial_n":2,"n_dots":4.25,"target":"left","response":"left","rt":587,"correct":true,"confidence":-1},{"trial_n":3,"n_dots":3.85,"target":"right","response":"right","rt":108,"correct":true,"confidence":-1},{"trial_n":4,"n_dots":3.85,"target":"left","response":"left","rt":208,"correct":true,"confidence":-1},{"trial_n":5,"n_dots":3.45,"target":"left","response":"left","rt":2706,"correct":true,"confidence":-1},{"trial_n":6,"n_dots":3.45,"target":"right","response":"left","rt":374,"correct":false,"confidence":-1},{"trial_n":7,"n_dots":3.85,"target":"left","response":"left","rt":260,"correct":true,"confidence":-1},{"trial_n":8,"n_dots":3.85,"target":"left","response":"right","rt":6674,"correct":false,"confidence":-1},{"trial_n":9,"n_dots":4.05,"target":"left","response":"left","rt":191,"correct":true,"confidence":-1},{"trial_n":10,"n_dots":4.05,"target":"left","response":"left","rt":992,"correct":true,"confidence":-1},{"trial_n":11,"n_dots":3.85,"target":"left","response":"left","rt":92,"correct":true,"confidence":-1},{"trial_n":12,"n_dots":3.85,"target":"left","response":"left","rt":171,"correct":true,"confidence":-1},{"trial_n":13,"n_dots":3.75,"target":"left","response":"left","rt":841,"correct":true,"confidence":-1},{"trial_n":14,"n_dots":3.75,"target":"right","response":"left","rt":542,"correct":false,"confidence":-1},{"trial_n":15,"n_dots":3.85,"target":"right","response":"right","rt":775,"correct":true,"confidence":-1},{"trial_n":16,"n_dots":3.85,"target":"left","response":"left","rt":359.00000000001,"correct":true,"confidence":-1},{"trial_n":17,"n_dots":3.75,"target":"left","response":"left","rt":207,"correct":true,"confidence":-1},{"trial_n":18,"n_dots":3.75,"target":"left","response":"left","rt":740.00000000001,"correct":true,"confidence":-1},{"trial_n":19,"n_dots":3.65,"target":"right","response":"right","rt":687.99999999999,"correct":true,"confidence":-1},{"trial_n":20,"n_dots":3.65,"target":"left","response":"left","rt":174,"correct":true,"confidence":-1},{"trial_n":21,"n_dots":3.55,"target":"left","response":"left","rt":360,"correct":true,"confidence":3},{"trial_n":22,"n_dots":3.55,"target":"left","response":"left","rt":1167.9999999999,"correct":true,"confidence":4},{"trial_n":23,"n_dots":3.45,"target":"right","response":"left","rt":437,"correct":false,"confidence":3},{"trial_n":24,"n_dots":3.55,"target":"left","response":"right","rt":236,"correct":false,"confidence":3},{"trial_n":25,"n_dots":3.65,"target":"left","response":"left","rt":172,"correct":true,"confidence":4},{"trial_n":26,"n_dots":3.65,"target":"left","response":"left","rt":125,"correct":true,"confidence":4},{"trial_n":27,"n_dots":3.55,"target":"left","response":"left","rt":154,"correct":true,"confidence":3},{"trial_n":28,"n_dots":3.55,"target":"left","response":"right","rt":363,"correct":false,"confidence":3},{"trial_n":29,"n_dots":3.65,"target":"right","response":"right","rt":356,"correct":true,"confidence":3},{"trial_n":30,"n_dots":3.65,"target":"right","response":"right","rt":187.00000000006,"correct":true,"confidence":4},{"trial_n":31,"n_dots":3.55,"target":"right","response":"right","rt":643,"correct":true,"confidence":3},{"trial_n":32,"n_dots":3.55,"target":"right","response":"right","rt":154,"correct":true,"confidence":3},{"trial_n":33,"n_dots":3.45,"target":"left","response":"right","rt":399,"correct":false,"confidence":3},{"trial_n":34,"n_dots":3.55,"target":"left","response":"left","rt":746,"correct":true,"confidence":3},{"trial_n":35,"n_dots":3.55,"target":"left","response":"left","rt":219.99999999994,"correct":true,"confidence":3},{"trial_n":36,"n_dots":3.45,"target":"right","response":"right","rt":426,"correct":true,"confidence":4},{"trial_n":37,"n_dots":3.45,"target":"right","response":"right","rt":1261,"correct":true,"confidence":3},{"trial_n":38,"n_dots":3.35,"target":"right","response":"right","rt":275.99999999994,"correct":true,"confidence":4},{"trial_n":39,"n_dots":3.35,"target":"left","response":"left","rt":646,"correct":true,"confidence":4},{"trial_n":40,"n_dots":3.25,"target":"right","response":"right","rt":480,"correct":true,"confidence":3},{"trial_n":41,"n_dots":3.25,"target":"left","response":"left","rt":274.99999999994,"correct":true,"confidence":4},{"trial_n":42,"n_dots":3.15,"target":"right","response":"left","rt":244,"correct":false,"confidence":3},{"trial_n":43,"n_dots":3.25,"target":"left","response":"right","rt":262.99999999994,"correct":false,"confidence":4},{"trial_n":44,"n_dots":3.35,"target":"right","response":"right","rt":952.99999999994,"correct":true,"confidence":2},{"trial_n":45,"n_dots":3.35,"target":"right","response":"right","rt":617.99999999994,"correct":true,"confidence":3},{"trial_n":46,"n_dots":3.25,"target":"left","response":"left","rt":478.00000000012,"correct":true,"confidence":2},{"trial_n":47,"n_dots":3.25,"target":"right","response":"right","rt":573.99999999994,"correct":true,"confidence":3},{"trial_n":48,"n_dots":3.15,"target":"right","response":"right","rt":497,"correct":true,"confidence":2},{"trial_n":49,"n_dots":3.15,"target":"right","response":"right","rt":326,"correct":true,"confidence":3},{"trial_n":50,"n_dots":3.05,"target":"right","response":"right","rt":201,"correct":true,"confidence":3},{"trial_n":51,"n_dots":3.05,"target":"left","response":"left","rt":1131,"correct":true,"confidence":2},{"trial_n":52,"n_dots":2.95,"target":"left","response":"right","rt":328,"correct":false,"confidence":3},{"trial_n":53,"n_dots":3.05,"target":"right","response":"right","rt":531,"correct":true,"confidence":3},{"trial_n":54,"n_dots":3.05,"target":"left","response":"left","rt":476,"correct":true,"confidence":3},{"trial_n":55,"n_dots":2.95,"target":"right","response":"right","rt":1001,"correct":true,"confidence":2},{"trial_n":56,"n_dots":2.95,"target":"left","response":"left","rt":519,"correct":true,"confidence":2},{"trial_n":57,"n_dots":2.85,"target":"right","response":"right","rt":423.99999999988,"correct":true,"confidence":2},{"trial_n":58,"n_dots":2.85,"target":"right","response":"right","rt":496,"correct":true,"confidence":3},{"trial_n":59,"n_dots":2.75,"target":"left","response":"right","rt":167.00000000012,"correct":false,"confidence":2},{"trial_n":60,"n_dots":2.85,"target":"right","response":"right","rt":273,"correct":true,"confidence":3},{"trial_n":61,"n_dots":2.85,"target":"left","response":"left","rt":677,"correct":true,"confidence":2},{"trial_n":62,"n_dots":2.75,"target":"left","response":"left","rt":896,"correct":true,"confidence":2},{"trial_n":63,"n_dots":2.75,"target":"left","response":"right","rt":644,"correct":false,"confidence":2},{"trial_n":64,"n_dots":2.85,"target":"right","response":"left","rt":656.99999999988,"correct":false,"confidence":2},{"trial_n":65,"n_dots":2.95,"target":"left","response":"right","rt":319.99999999988,"correct":false,"confidence":2},{"trial_n":66,"n_dots":3.05,"target":"left","response":"left","rt":406,"correct":true,"confidence":3},{"trial_n":67,"n_dots":3.05,"target":"left","response":"right","rt":489.99999999988,"correct":false,"confidence":2},{"trial_n":68,"n_dots":3.15,"target":"left","response":"right","rt":994,"correct":false,"confidence":1},{"trial_n":69,"n_dots":3.25,"target":"left","response":"left","rt":518,"correct":true,"confidence":3},{"trial_n":70,"n_dots":3.25,"target":"right","response":"right","rt":352,"correct":true,"confidence":3},{"trial_n":71,"n_dots":3.15,"target":"left","response":"left","rt":505,"correct":true,"confidence":3},{"trial_n":72,"n_dots":3.15,"target":"right","response":"right","rt":327,"correct":true,"confidence":3},{"trial_n":73,"n_dots":3.05,"target":"right","response":"right","rt":560,"correct":true,"confidence":2},{"trial_n":74,"n_dots":3.05,"target":"right","response":"right","rt":398,"correct":true,"confidence":2},{"trial_n":75,"n_dots":2.95,"target":"left","response":"left","rt":293,"correct":true,"confidence":2},{"trial_n":76,"n_dots":2.95,"target":"right","response":"right","rt":220,"correct":true,"confidence":3},{"trial_n":77,"n_dots":2.85,"target":"right","response":"right","rt":237,"correct":true,"confidence":2},{"trial_n":78,"n_dots":2.85,"target":"left","response":"left","rt":537,"correct":true,"confidence":2},{"trial_n":79,"n_dots":2.75,"target":"left","response":"left","rt":398,"correct":true,"confidence":2},{"trial_n":80,"n_dots":2.75,"target":"right","response":"right","rt":119,"correct":true,"confidence":3},{"trial_n":81,"n_dots":2.65,"target":"right","response":"right","rt":713,"correct":true,"confidence":3},{"trial_n":82,"n_dots":2.65,"target":"left","response":"right","rt":344,"correct":false,"confidence":3},{"trial_n":83,"n_dots":2.75,"target":"right","response":"right","rt":590.99999999988,"correct":true,"confidence":3},{"trial_n":84,"n_dots":2.75,"target":"right","response":"left","rt":1059,"correct":false,"confidence":2},{"trial_n":85,"n_dots":2.85,"target":"left","response":"left","rt":529,"correct":true,"confidence":3},{"trial_n":86,"n_dots":2.85,"target":"right","response":"right","rt":195,"correct":true,"confidence":3},{"trial_n":87,"n_dots":2.75,"target":"left","response":"left","rt":1127,"correct":true,"confidence":1},{"trial_n":88,"n_dots":2.75,"target":"left","response":"right","rt":784.99999999988,"correct":false,"confidence":1},{"trial_n":89,"n_dots":2.85,"target":"left","response":"right","rt":717,"correct":false,"confidence":2},{"trial_n":90,"n_dots":2.95,"target":"right","response":"right","rt":281,"correct":true,"confidence":3},{"trial_n":91,"n_dots":2.95,"target":"left","response":"right","rt":640,"correct":false,"confidence":2},{"trial_n":92,"n_dots":3.05,"target":"right","response":"right","rt":542,"correct":true,"confidence":2},{"trial_n":93,"n_dots":3.05,"target":"right","response":"right","rt":554,"correct":true,"confidence":2},{"trial_n":94,"n_dots":2.95,"target":"right","response":"right","rt":1180,"correct":true,"confidence":2},{"trial_n":95,"n_dots":2.95,"target":"right","response":"right","rt":647,"correct":true,"confidence":2},{"trial_n":96,"n_dots":2.85,"target":"right","response":"right","rt":702,"correct":true,"confidence":2},{"trial_n":97,"n_dots":2.85,"target":"right","response":"right","rt":451,"correct":true,"confidence":3},{"trial_n":98,"n_dots":2.75,"target":"left","response":"left","rt":1018,"correct":true,"confidence":2},{"trial_n":99,"n_dots":2.75,"target":"right","response":"right","rt":358,"correct":true,"confidence":3},{"trial_n":100,"n_dots":2.65,"target":"right","response":"right","rt":348,"correct":true,"confidence":2},{"trial_n":101,"n_dots":2.65,"target":"left","response":"right","rt":780,"correct":false,"confidence":2},{"trial_n":102,"n_dots":2.75,"target":"right","response":"right","rt":608.99999999988,"correct":true,"confidence":4},{"trial_n":103,"n_dots":2.75,"target":"right","response":"right","rt":915.99999999988,"correct":true,"confidence":4},{"trial_n":104,"n_dots":2.65,"target":"left","response":"left","rt":1074.9999999999,"correct":true,"confidence":3},{"trial_n":105,"n_dots":2.65,"target":"right","response":"right","rt":1444,"correct":true,"confidence":3},{"trial_n":106,"n_dots":2.55,"target":"right","response":"right","rt":508.99999999988,"correct":true,"confidence":3},{"trial_n":107,"n_dots":2.55,"target":"left","response":"right","rt":539,"correct":false,"confidence":2},{"trial_n":108,"n_dots":2.65,"target":"left","response":"right","rt":418,"correct":false,"confidence":2},{"trial_n":109,"n_dots":2.75,"target":"right","response":"right","rt":856,"correct":true,"confidence":4},{"trial_n":110,"n_dots":2.75,"target":"right","response":"right","rt":562,"correct":true,"confidence":3},{"trial_n":111,"n_dots":2.65,"target":"left","response":"right","rt":699,"correct":false,"confidence":1},{"trial_n":112,"n_dots":2.75,"target":"left","response":"left","rt":1331,"correct":true,"confidence":3},{"trial_n":113,"n_dots":2.75,"target":"right","response":"right","rt":621,"correct":true,"confidence":2},{"trial_n":114,"n_dots":2.65,"target":"right","response":"right","rt":580,"correct":true,"confidence":3},{"trial_n":115,"n_dots":2.65,"target":"right","response":"right","rt":588,"correct":true,"confidence":2},{"trial_n":116,"n_dots":2.55,"target":"left","response":"right","rt":492.99999999988,"correct":false,"confidence":2},{"trial_n":117,"n_dots":2.65,"target":"left","response":"right","rt":611.99999999988,"correct":false,"confidence":1},{"trial_n":118,"n_dots":2.75,"target":"right","response":"right","rt":278,"correct":true,"confidence":3},{"trial_n":119,"n_dots":2.75,"target":"right","response":"right","rt":701,"correct":true,"confidence":2},{"trial_n":120,"n_dots":2.65,"target":"right","response":"right","rt":550.00000000012,"correct":true,"confidence":2}]