[{"trial_n":1,"span":8,"encoder":"98265612","distractor":"98265611","target":"present","response":"present","rt":"4150","correct":true,"confidence":-1},{"trial_n":2,"span":8,"encoder":"52219667","distractor":"52419667","target":"present","response":"absent","rt":"2284","correct":false,"confidence":-1},{"trial_n":3,"span":6,"encoder":"519886","distractor":"589886","target":"absent","response":"absent","rt":"2550","correct":true,"confidence":-1},{"trial_n":4,"span":6,"encoder":"070280","distractor":"070230","target":"absent","response":"absent","rt":"1971","correct":true,"confidence":-1},{"trial_n":5,"span":8,"encoder":"78589313","distractor":"78589373","target":"present","response":"present","rt":"1408","correct":true,"confidence":-1},{"trial_n":6,"span":8,"encoder":"79638856","distractor":"79638886","target":"present","response":"absent","rt":"1710","correct":false,"confidence":-1},{"trial_n":7,"span":6,"encoder":"018875","distractor":"018885","target":"present","response":"absent","rt":"1840","correct":false,"confidence":-1},{"trial_n":8,"span":4,"encoder":"7272","distractor":"0272","target":"present","response":"present","rt":"994","correct":true,"confidence":-1},{"trial_n":9,"span":4,"encoder":"2162","distractor":"4162","target":"absent","response":"absent","rt":"1476","correct":true,"confidence":-1},{"trial_n":10,"span":6,"encoder":"709051","distractor":"759051","target":"absent","response":"present","rt":"1419","correct":false,"confidence":-1},{"trial_n":11,"span":4,"encoder":"0854","distractor":"0054","target":"absent","response":"absent","rt":"1774","correct":true,"confidence":-1},{"trial_n":12,"span":4,"encoder":"0801","distractor":"1801","target":"present","response":"present","rt":"941","correct":true,"confidence":-1},{"trial_n":13,"span":5,"encoder":"11686","distractor":"11676","target":"absent","response":"present","rt":"1590","correct":false,"confidence":-1},{"trial_n":14,"span":4,"encoder":"7972","distractor":"8972","target":"absent","response":"absent","rt":"869","correct":true,"confidence":-1},{"trial_n":15,"span":4,"encoder":"8800","distractor":"8803","target":"present","response":"present","rt":"1011","correct":true,"confidence":-1},{"trial_n":16,"span":5,"encoder":"31376","distractor":"01376","target":"absent","response":"absent","rt":"1493","correct":true,"confidence":-1},{"trial_n":17,"span":5,"encoder":"98293","distractor":"98292","target":"present","response":"present","rt":"1128","correct":true,"confidence":-1},{"trial_n":18,"span":6,"encoder":"766801","distractor":"066801","target":"present","response":"present","rt":"941.00000000001","correct":true,"confidence":-1},{"trial_n":19,"span":6,"encoder":"992587","distractor":"995587","target":"absent","response":"absent","rt":"2472","correct":true,"confidence":-1},{"trial_n":20,"span":7,"encoder":"6970957","distractor":"6970947","target":"present","response":"present","rt":"917","correct":true,"confidence":-1},{"trial_n":21,"span":7,"encoder":"0370350","distractor":"0379350","target":"absent","response":"present","rt":"1000","correct":false,"confidence":4},{"trial_n":22,"span":6,"encoder":"832952","distractor":"832452","target":"present","response":"present","rt":"2347","correct":true,"confidence":3},{"trial_n":23,"span":6,"encoder":"755860","distractor":"755830","target":"present","response":"present","rt":"3176","correct":true,"confidence":3},{"trial_n":24,"span":7,"encoder":"8707550","distractor":"8707559","target":"present","response":"present","rt":"1914","correct":true,"confidence":3},{"trial_n":25,"span":7,"encoder":"3294928","distractor":"3294988","target":"present","response":"absent","rt":"3687","correct":false,"confidence":2},{"trial_n":26,"span":6,"encoder":"095128","distractor":"093128","target":"absent","response":"absent","rt":"2063","correct":true,"confidence":4},{"trial_n":27,"span":6,"encoder":"508143","distractor":"505143","target":"present","response":"present","rt":"1508","correct":true,"confidence":4},{"trial_n":28,"span":7,"encoder":"2020530","distractor":"5020530","target":"absent","response":"present","rt":"1651","correct":false,"confidence":3},{"trial_n":29,"span":6,"encoder":"556757","distractor":"552757","target":"absent","response":"absent","rt":"1808","correct":true,"confidence":4},{"trial_n":30,"span":6,"encoder":"105143","distractor":"805143","target":"absent","response":"absent","rt":"1646","correct":true,"confidence":4},{"trial_n":31,"span":7,"encoder":"7116764","distractor":"7116768","target":"present","response":"present","rt":"2032","correct":true,"confidence":3},{"trial_n":32,"span":7,"encoder":"2635343","distractor":"2635323","target":"absent","response":"absent","rt":"1735.9999999999","correct":true,"confidence":2},{"trial_n":33,"span":8,"encoder":"46580565","distractor":"44580565","target":"absent","response":"present","rt":"2118","correct":false,"confidence":3},{"trial_n":34,"span":7,"encoder":"9957205","distractor":"9950205","target":"absent","response":"present","rt":"1845.0000000001","correct":false,"confidence":4},{"trial_n":35,"span":6,"encoder":"967283","distractor":"967263","target":"absent","response":"absent","rt":"2827.9999999999","correct":true,"confidence":4},{"trial_n":36,"span":6,"encoder":"502760","distractor":"502766","target":"absent","response":"absent","rt":"2140","correct":true,"confidence":4},{"trial_n":37,"span":7,"encoder":"7458969","distractor":"7488969","target":"absent","response":"absent","rt":"2558.0000000001","correct":true,"confidence":3},{"trial_n":38,"span":7,"encoder":"1838899","distractor":"1838839","target":"present","response":"present","rt":"2203","correct":true,"confidence":3},{"trial_n":39,"span":8,"encoder":"78332396","distractor":"78337396","target":"absent","response":"present","rt":"1604","correct":false,"confidence":3},{"trial_n":40,"span":7,"encoder":"3799246","distractor":"4799246","target":"absent","response":"present","rt":"2209","correct":false,"confidence":4},{"trial_n":41,"span":6,"encoder":"883100","distractor":"883102","target":"absent","response":"absent","rt":"3583","correct":true,"confidence":3},{"trial_n":42,"span":6,"encoder":"007997","distractor":"004997","target":"present","response":"present","rt":"1459.9999999999","correct":true,"confidence":4},{"trial_n":43,"span":7,"encoder":"7918867","distractor":"7912867","target":"present","response":"present","rt":"1480.0000000001","correct":true,"confidence":4},{"trial_n":44,"span":7,"encoder":"1280409","distractor":"1080409","target":"present","response":"present","rt":"2443","correct":true,"confidence":4},{"trial_n":45,"span":8,"encoder":"60177588","distractor":"68177588","target":"present","response":"present","rt":"1526","correct":true,"confidence":3},{"trial_n":46,"span":8,"encoder":"06576778","distractor":"06576978","target":"present","response":"present","rt":"1828.9999999999","correct":true,"confidence":3},{"trial_n":47,"span":9,"encoder":"242464223","distractor":"243464223","target":"absent","response":"present","rt":"2550.9999999999","correct":false,"confidence":4},{"trial_n":48,"span":8,"encoder":"27025885","distractor":"27025785","target":"present","response":"present","rt":"1825","correct":true,"confidence":3},{"trial_n":49,"span":8,"encoder":"22493998","distractor":"22493958","target":"absent","response":"absent","rt":"1869.9999999999","correct":true,"confidence":3},{"trial_n":50,"span":9,"encoder":"987332981","distractor":"967332981","target":"absent","response":"present","rt":"3423","correct":false,"confidence":3},{"trial_n":51,"span":8,"encoder":"47220831","distractor":"47228831","target":"absent","response":"present","rt":"2141","correct":false,"confidence":2},{"trial_n":52,"span":7,"encoder":"5754333","distractor":"5754335","target":"present","response":"present","rt":"1521.0000000001","correct":true,"confidence":4},{"trial_n":53,"span":7,"encoder":"1895735","distractor":"1896735","target":"present","response":"present","rt":"1947","correct":true,"confidence":3},{"trial_n":54,"span":8,"encoder":"47288419","distractor":"07288419","target":"absent","response":"present","rt":"1358","correct":false,"confidence":3},{"trial_n":55,"span":7,"encoder":"6940726","distractor":"6990726","target":"absent","response":"present","rt":"1806","correct":false,"confidence":3},{"trial_n":56,"span":6,"encoder":"742026","distractor":"744026","target":"present","response":"present","rt":"2251.9999999999","correct":true,"confidence":3},{"trial_n":57,"span":6,"encoder":"253171","distractor":"953171","target":"present","response":"present","rt":"1627","correct":true,"confidence":3},{"trial_n":58,"span":7,"encoder":"3675899","distractor":"3675869","target":"absent","response":"absent","rt":"2375","correct":true,"confidence":3},{"trial_n":59,"span":7,"encoder":"8782079","distractor":"8482079","target":"present","response":"present","rt":"1348","correct":true,"confidence":3},{"trial_n":60,"span":8,"encoder":"38970669","distractor":"38970769","target":"present","response":"present","rt":"1605.9999999999","correct":true,"confidence":3},{"trial_n":61,"span":8,"encoder":"78484654","distractor":"78481654","target":"present","response":"present","rt":"1695","correct":true,"confidence":3},{"trial_n":62,"span":9,"encoder":"158632931","distractor":"358632931","target":"present","response":"absent","rt":"1895","correct":false,"confidence":2},{"trial_n":63,"span":8,"encoder":"84306967","distractor":"84303967","target":"present","response":"present","rt":"2164","correct":true,"confidence":3},{"trial_n":64,"span":8,"encoder":"98710388","distractor":"98910388","target":"absent","response":"present","rt":"1577","correct":false,"confidence":3},{"trial_n":65,"span":7,"encoder":"8953285","distractor":"8953685","target":"present","response":"present","rt":"1327","correct":true,"confidence":3},{"trial_n":66,"span":7,"encoder":"5488455","distractor":"5488655","target":"absent","response":"absent","rt":"2077","correct":true,"confidence":4},{"trial_n":67,"span":8,"encoder":"91858443","distractor":"91858448","target":"present","response":"present","rt":"1741.9999999999","correct":true,"confidence":4},{"trial_n":68,"span":8,"encoder":"18425796","distractor":"18455796","target":"absent","response":"absent","rt":"1667","correct":true,"confidence":3},{"trial_n":69,"span":9,"encoder":"552708485","distractor":"552708785","target":"present","response":"present","rt":"2157","correct":true,"confidence":4},{"trial_n":70,"span":9,"encoder":"894591990","distractor":"894591950","target":"absent","response":"absent","rt":"1509","correct":true,"confidence":3},{"trial_n":71,"span":8,"encoder":"19010230","distractor":"19014230","target":"present","response":"present","rt":"3822","correct":true,"confidence":-1},{"trial_n":72,"span":8,"encoder":"72518061","distractor":"72598061","target":"present","response":"absent","rt":"3541","correct":false,"confidence":-1},{"trial_n":73,"span":7,"encoder":"2421871","distractor":"2421071","target":"absent","response":"absent","rt":"2152","correct":true,"confidence":-1},{"trial_n":74,"span":7,"encoder":"5411999","distractor":"5411990","target":"absent","response":"absent","rt":"1638","correct":true,"confidence":-1},{"trial_n":75,"span":8,"encoder":"74089665","distractor":"74079665","target":"present","response":"absent","rt":"3309","correct":false,"confidence":-1},{"trial_n":76,"span":7,"encoder":"8004870","distractor":"8000870","target":"present","response":"absent","rt":"2789","correct":false,"confidence":-1},{"trial_n":77,"span":6,"encoder":"696322","distractor":"196322","target":"present","response":"present","rt":"3600","correct":true,"confidence":-1},{"trial_n":78,"span":6,"encoder":"491113","distractor":"491119","target":"present","response":"present","rt":"2268","correct":true,"confidence":-1},{"trial_n":79,"span":7,"encoder":"9798037","distractor":"9791037","target":"present","response":"absent","rt":"2306","correct":false,"confidence":-1},{"trial_n":80,"span":6,"encoder":"093882","distractor":"793882","target":"present","response":"present","rt":"1565.0000000001","correct":true,"confidence":-1},{"trial_n":81,"span":6,"encoder":"368334","distractor":"368394","target":"absent","response":"absent","rt":"2383","correct":true,"confidence":-1},{"trial_n":82,"span":7,"encoder":"4949125","distractor":"4249125","target":"absent","response":"absent","rt":"3904","correct":true,"confidence":-1},{"trial_n":83,"span":7,"encoder":"1074853","distractor":"1074855","target":"absent","response":"absent","rt":"1538","correct":true,"confidence":-1},{"trial_n":84,"span":8,"encoder":"32441134","distractor":"32491134","target":"present","response":"present","rt":"2143","correct":true,"confidence":-1},{"trial_n":85,"span":8,"encoder":"71973623","distractor":"51973623","target":"present","response":"present","rt":"5992","correct":true,"confidence":-1},{"trial_n":86,"span":9,"encoder":"657184173","distractor":"657184177","target":"present","response":"present","rt":"1981","correct":true,"confidence":-1},{"trial_n":87,"span":9,"encoder":"264043410","distractor":"266043410","target":"present","response":"present","rt":"4998","correct":true,"confidence":-1},{"trial_n":88,"span":10,"encoder":"4451499557","distractor":"4751499557","target":"absent","response":"present","rt":"3501","correct":false,"confidence":-1},{"trial_n":89,"span":9,"encoder":"890844225","distractor":"890844228","target":"absent","response":"absent","rt":"2297","correct":true,"confidence":-1},{"trial_n":90,"span":9,"encoder":"095381793","distractor":"095981793","target":"present","response":"absent","rt":"4296.0000000002","correct":false,"confidence":-1},{"trial_n":91,"span":8,"encoder":"58150681","distractor":"58120681","target":"present","response":"absent","rt":"4319","correct":false,"confidence":2},{"trial_n":92,"span":7,"encoder":"5326068","distractor":"5322068","target":"absent","response":"absent","rt":"2525","correct":true,"confidence":4},{"trial_n":93,"span":7,"encoder":"6816011","distractor":"6816811","target":"present","response":"present","rt":"1641","correct":true,"confidence":4},{"trial_n":94,"span":8,"encoder":"95791950","distractor":"95791900","target":"absent","response":"absent","rt":"2093.0000000002","correct":true,"confidence":4},{"trial_n":95,"span":8,"encoder":"36710428","distractor":"35710428","target":"present","response":"absent","rt":"4460","correct":false,"confidence":2},{"trial_n":96,"span":7,"encoder":"1611945","distractor":"1661945","target":"present","response":"present","rt":"2191","correct":true,"confidence":4},{"trial_n":97,"span":7,"encoder":"2797909","distractor":"2797900","target":"present","response":"present","rt":"2381","correct":true,"confidence":4},{"trial_n":98,"span":8,"encoder":"37217496","distractor":"39217496","target":"absent","response":"present","rt":"4534","correct":false,"confidence":3},{"trial_n":99,"span":7,"encoder":"7582343","distractor":"1582343","target":"present","response":"present","rt":"2961","correct":true,"confidence":3},{"trial_n":100,"span":7,"encoder":"2205715","distractor":"6205715","target":"absent","response":"absent","rt":"1795","correct":true,"confidence":4},{"trial_n":101,"span":8,"encoder":"24226340","distractor":"24296340","target":"present","response":"present","rt":"4923","correct":true,"confidence":3},{"trial_n":102,"span":8,"encoder":"93218022","distractor":"93219022","target":"absent","response":"present","rt":"2253","correct":false,"confidence":2},{"trial_n":103,"span":7,"encoder":"9950281","distractor":"9950283","target":"present","response":"present","rt":"3443.9999999998","correct":true,"confidence":4},{"trial_n":104,"span":7,"encoder":"6139612","distractor":"6129612","target":"absent","response":"present","rt":"4000","correct":false,"confidence":2},{"trial_n":105,"span":6,"encoder":"985271","distractor":"989271","target":"present","response":"present","rt":"4462.9999999998","correct":true,"confidence":2},{"trial_n":106,"span":6,"encoder":"098205","distractor":"098405","target":"absent","response":"absent","rt":"3460.9999999998","correct":true,"confidence":4},{"trial_n":107,"span":7,"encoder":"4412576","distractor":"4410576","target":"absent","response":"absent","rt":"3469","correct":true,"confidence":4},{"trial_n":108,"span":7,"encoder":"8567835","distractor":"8567135","target":"absent","response":"absent","rt":"1832","correct":true,"confidence":4},{"trial_n":109,"span":8,"encoder":"94168284","distractor":"54168284","target":"present","response":"absent","rt":"3969","correct":false,"confidence":2},{"trial_n":110,"span":7,"encoder":"5179210","distractor":"7179210","target":"present","response":"present","rt":"3619","correct":true,"confidence":2},{"trial_n":111,"span":7,"encoder":"4499394","distractor":"4499399","target":"absent","response":"absent","rt":"2800","correct":true,"confidence":4},{"trial_n":112,"span":8,"encoder":"90064948","distractor":"90064946","target":"absent","response":"absent","rt":"3389","correct":true,"confidence":4},{"trial_n":113,"span":8,"encoder":"44456626","distractor":"49456626","target":"present","response":"absent","rt":"3821","correct":false,"confidence":4},{"trial_n":114,"span":7,"encoder":"9205508","distractor":"9209508","target":"absent","response":"absent","rt":"1800","correct":true,"confidence":4},{"trial_n":115,"span":7,"encoder":"3794250","distractor":"3794253","target":"present","response":"present","rt":"2099","correct":true,"confidence":4},{"trial_n":116,"span":8,"encoder":"52489208","distractor":"52489288","target":"present","response":"present","rt":"2690","correct":true,"confidence":3},{"trial_n":117,"span":8,"encoder":"37958833","distractor":"37998833","target":"absent","response":"absent","rt":"2988.0000000002","correct":true,"confidence":3},{"trial_n":118,"span":9,"encoder":"866665058","distractor":"866665158","target":"present","response":"present","rt":"3125","correct":true,"confidence":3},{"trial_n":119,"span":9,"encoder":"932098348","distractor":"932498348","target":"absent","response":"present","rt":"3543.0000000002","correct":false,"confidence":3},{"trial_n":120,"span":8,"encoder":"19999510","distractor":"19999010","target":"present","response":"present","rt":"2255","correct":true,"confidence":4},{"trial_n":121,"span":8,"encoder":"15257781","distractor":"15257791","target":"absent","response":"absent","rt":"1320","correct":true,"confidence":4},{"trial_n":122,"span":9,"encoder":"244221361","distractor":"644221361","target":"absent","response":"absent","rt":"2626","correct":true,"confidence":3},{"trial_n":123,"span":9,"encoder":"424159719","distractor":"424156719","target":"present","response":"present","rt":"2394","correct":true,"confidence":3},{"trial_n":124,"span":10,"encoder":"4134973023","distractor":"4134943023","target":"absent","response":"present","rt":"2500","correct":false,"confidence":2},{"trial_n":125,"span":9,"encoder":"682601720","distractor":"672601720","target":"present","response":"absent","rt":"3045","correct":false,"confidence":2},{"trial_n":126,"span":8,"encoder":"70543540","distractor":"70543940","target":"present","response":"present","rt":"2604","correct":true,"confidence":4},{"trial_n":127,"span":8,"encoder":"04366285","distractor":"05366285","target":"absent","response":"present","rt":"2455","correct":false,"confidence":2},{"trial_n":128,"span":7,"encoder":"6530906","distractor":"6530946","target":"present","response":"present","rt":"2717","correct":true,"confidence":4},{"trial_n":129,"span":7,"encoder":"7000025","distractor":"7000425","target":"absent","response":"absent","rt":"2836","correct":true,"confidence":3},{"trial_n":130,"span":8,"encoder":"24245106","distractor":"24246106","target":"absent","response":"absent","rt":"3054","correct":true,"confidence":4},{"trial_n":131,"span":8,"encoder":"38073677","distractor":"38013677","target":"present","response":"absent","rt":"1958.9999999998","correct":false,"confidence":2},{"trial_n":132,"span":7,"encoder":"5997120","distractor":"5997920","target":"absent","response":"absent","rt":"2436.0000000002","correct":true,"confidence":3},{"trial_n":133,"span":7,"encoder":"6472869","distractor":"6422869","target":"present","response":"present","rt":"3251","correct":true,"confidence":3},{"trial_n":134,"span":8,"encoder":"75468114","distractor":"75466114","target":"absent","response":"absent","rt":"2673","correct":true,"confidence":3},{"trial_n":135,"span":8,"encoder":"54321334","distractor":"54328334","target":"absent","response":"absent","rt":"2989.0000000002","correct":true,"confidence":4},{"trial_n":136,"span":9,"encoder":"314359087","distractor":"314350087","target":"present","response":"present","rt":"2189","correct":true,"confidence":3},{"trial_n":137,"span":9,"encoder":"448868655","distractor":"448868658","target":"absent","response":"present","rt":"4077","correct":false,"confidence":4},{"trial_n":138,"span":8,"encoder":"48047717","distractor":"48347717","target":"absent","response":"absent","rt":"3789","correct":true,"confidence":3},{"trial_n":139,"span":8,"encoder":"78080638","distractor":"78080938","target":"absent","response":"absent","rt":"1688.9999999998","correct":true,"confidence":4},{"trial_n":140,"span":9,"encoder":"238118870","distractor":"238318870","target":"absent","response":"absent","rt":"3227.9999999998","correct":true,"confidence":3}]