[{"trial_n":1,"n_dots":4.25,"target":"left","response":"left","rt":3467.3999999762,"correct":true,"confidence":-1},{"trial_n":2,"n_dots":4.25,"target":"right","response":"right","rt":465.5,"correct":true,"confidence":-1},{"trial_n":3,"n_dots":3.85,"target":"left","response":"left","rt":510.10000002384,"correct":true,"confidence":-1},{"trial_n":4,"n_dots":3.85,"target":"left","response":"right","rt":291.80000007153,"correct":false,"confidence":-1},{"trial_n":5,"n_dots":4.25,"target":"right","response":"left","rt":489.69999992847,"correct":false,"confidence":-1},{"trial_n":6,"n_dots":4.65,"target":"right","response":"right","rt":2969.1000000238,"correct":true,"confidence":-1},{"trial_n":7,"n_dots":4.65,"target":"left","response":"left","rt":453,"correct":true,"confidence":-1},{"trial_n":8,"n_dots":4.45,"target":"left","response":"right","rt":420.60000002384,"correct":false,"confidence":-1},{"trial_n":9,"n_dots":4.65,"target":"right","response":"left","rt":573,"correct":false,"confidence":-1},{"trial_n":10,"n_dots":4.85,"target":"right","response":"left","rt":311.5,"correct":false,"confidence":-1},{"trial_n":11,"n_dots":5.05,"target":"right","response":"right","rt":237.89999997616,"correct":true,"confidence":-1},{"trial_n":12,"n_dots":5.05,"target":"right","response":"right","rt":291.29999995232,"correct":true,"confidence":-1},{"trial_n":13,"n_dots":4.95,"target":"left","response":"left","rt":54.100000023842,"correct":true,"confidence":-1},{"trial_n":14,"n_dots":4.95,"target":"right","response":"right","rt":353.69999992847,"correct":true,"confidence":-1},{"trial_n":15,"n_dots":4.85,"target":"left","response":"left","rt":171.20000004768,"correct":true,"confidence":-1},{"trial_n":16,"n_dots":4.85,"target":"left","response":"left","rt":37.200000047684,"correct":true,"confidence":-1},{"trial_n":17,"n_dots":4.75,"target":"left","response":"left","rt":306,"correct":true,"confidence":-1},{"trial_n":18,"n_dots":4.75,"target":"right","response":"right","rt":199.59999990463,"correct":true,"confidence":-1},{"trial_n":19,"n_dots":4.65,"target":"right","response":"right","rt":279.70000004768,"correct":true,"confidence":-1},{"trial_n":20,"n_dots":4.65,"target":"right","response":"right","rt":305.70000004768,"correct":true,"confidence":-1},{"trial_n":21,"n_dots":4.55,"target":"left","response":"left","rt":247.30000007153,"correct":true,"confidence":3},{"trial_n":22,"n_dots":4.55,"target":"left","response":"left","rt":290.30000007153,"correct":true,"confidence":4},{"trial_n":23,"n_dots":4.45,"target":"left","response":"left","rt":244.29999995232,"correct":true,"confidence":3},{"trial_n":24,"n_dots":4.45,"target":"left","response":"left","rt":266.60000002384,"correct":true,"confidence":3},{"trial_n":25,"n_dots":4.35,"target":"right","response":"left","rt":952.39999997616,"correct":false,"confidence":3},{"trial_n":26,"n_dots":4.45,"target":"right","response":"left","rt":1303,"correct":false,"confidence":3},{"trial_n":27,"n_dots":4.55,"target":"right","response":"right","rt":248,"correct":true,"confidence":4},{"trial_n":28,"n_dots":4.55,"target":"left","response":"left","rt":268.10000002384,"correct":true,"confidence":4},{"trial_n":29,"n_dots":4.45,"target":"right","response":"right","rt":305.30000007153,"correct":true,"confidence":3},{"trial_n":30,"n_dots":4.45,"target":"left","response":"left","rt":340.60000002384,"correct":true,"confidence":1},{"trial_n":31,"n_dots":4.35,"target":"left","response":"left","rt":671.89999997616,"correct":true,"confidence":1},{"trial_n":32,"n_dots":4.35,"target":"right","response":"right","rt":240.90000009537,"correct":true,"confidence":1},{"trial_n":33,"n_dots":4.25,"target":"right","response":"right","rt":261.30000007153,"correct":true,"confidence":1},{"trial_n":34,"n_dots":4.25,"target":"left","response":"left","rt":237.5,"correct":true,"confidence":1},{"trial_n":35,"n_dots":4.15,"target":"left","response":"left","rt":243.10000002384,"correct":true,"confidence":1},{"trial_n":36,"n_dots":4.15,"target":"left","response":"left","rt":646.39999997616,"correct":true,"confidence":1},{"trial_n":37,"n_dots":4.05,"target":"left","response":"right","rt":338.5,"correct":false,"confidence":1},{"trial_n":38,"n_dots":4.15,"target":"left","response":"left","rt":250.60000002384,"correct":true,"confidence":1},{"trial_n":39,"n_dots":4.15,"target":"right","response":"right","rt":245.5,"correct":true,"confidence":1},{"trial_n":40,"n_dots":4.05,"target":"right","response":"right","rt":196.39999997616,"correct":true,"confidence":1},{"trial_n":41,"n_dots":4.05,"target":"right","response":"right","rt":215.59999990463,"correct":true,"confidence":1},{"trial_n":42,"n_dots":3.95,"target":"left","response":"left","rt":53.200000047684,"correct":true,"confidence":1},{"trial_n":43,"n_dots":3.95,"target":"left","response":"left","rt":395.10000002384,"correct":true,"confidence":1},{"trial_n":44,"n_dots":3.85,"target":"right","response":"right","rt":104.29999995232,"correct":true,"confidence":1},{"trial_n":45,"n_dots":3.85,"target":"right","response":"right","rt":316.19999992847,"correct":true,"confidence":3},{"trial_n":46,"n_dots":3.75,"target":"right","response":"right","rt":100.5,"correct":true,"confidence":1},{"trial_n":47,"n_dots":3.75,"target":"left","response":"left","rt":473.39999997616,"correct":true,"confidence":1},{"trial_n":48,"n_dots":3.65,"target":"right","response":"right","rt":53.600000023842,"correct":true,"confidence":1},{"trial_n":49,"n_dots":3.65,"target":"left","response":"right","rt":236.89999997616,"correct":false,"confidence":1},{"trial_n":50,"n_dots":3.75,"target":"left","response":"right","rt":333,"correct":false,"confidence":1},{"trial_n":51,"n_dots":3.85,"target":"right","response":"right","rt":657,"correct":true,"confidence":1},{"trial_n":52,"n_dots":3.85,"target":"left","response":"left","rt":255.80000007153,"correct":true,"confidence":3},{"trial_n":53,"n_dots":3.75,"target":"left","response":"left","rt":1211.5,"correct":true,"confidence":4},{"trial_n":54,"n_dots":3.75,"target":"right","response":"right","rt":293,"correct":true,"confidence":1},{"trial_n":55,"n_dots":3.65,"target":"left","response":"right","rt":506.60000002384,"correct":false,"confidence":1},{"trial_n":56,"n_dots":3.75,"target":"right","response":"right","rt":187.80000007153,"correct":true,"confidence":1},{"trial_n":57,"n_dots":3.75,"target":"left","response":"right","rt":740.70000004768,"correct":false,"confidence":1},{"trial_n":58,"n_dots":3.85,"target":"right","response":"right","rt":313.70000004768,"correct":true,"confidence":1},{"trial_n":59,"n_dots":3.85,"target":"left","response":"right","rt":330.10000002384,"correct":false,"confidence":1},{"trial_n":60,"n_dots":3.95,"target":"left","response":"right","rt":511,"correct":false,"confidence":1},{"trial_n":61,"n_dots":4.05,"target":"right","response":"right","rt":562.89999997616,"correct":true,"confidence":1},{"trial_n":62,"n_dots":4.05,"target":"right","response":"left","rt":213.5,"correct":false,"confidence":1},{"trial_n":63,"n_dots":4.15,"target":"left","response":"right","rt":788.29999995232,"correct":false,"confidence":1},{"trial_n":64,"n_dots":4.25,"target":"right","response":"right","rt":493.19999992847,"correct":true,"confidence":1},{"trial_n":65,"n_dots":4.25,"target":"right","response":"right","rt":342.39999997616,"correct":true,"confidence":1},{"trial_n":66,"n_dots":4.15,"target":"left","response":"left","rt":399.70000004768,"correct":true,"confidence":1},{"trial_n":67,"n_dots":4.15,"target":"right","response":"right","rt":618.69999992847,"correct":true,"confidence":1},{"trial_n":68,"n_dots":4.05,"target":"right","response":"right","rt":3634.5,"correct":true,"confidence":1},{"trial_n":69,"n_dots":4.05,"target":"left","response":"left","rt":315.39999997616,"correct":true,"confidence":1},{"trial_n":70,"n_dots":3.95,"target":"left","response":"right","rt":378.80000007153,"correct":false,"confidence":1},{"trial_n":71,"n_dots":4.05,"target":"left","response":"right","rt":430.60000002384,"correct":false,"confidence":1},{"trial_n":72,"n_dots":4.15,"target":"right","response":"right","rt":420.79999995232,"correct":true,"confidence":1},{"trial_n":73,"n_dots":4.15,"target":"left","response":"right","rt":1992.8999999762,"correct":false,"confidence":1},{"trial_n":74,"n_dots":4.25,"target":"right","response":"left","rt":206.5,"correct":false,"confidence":1},{"trial_n":75,"n_dots":4.35,"target":"right","response":"right","rt":582.5,"correct":true,"confidence":1},{"trial_n":76,"n_dots":4.35,"target":"left","response":"right","rt":946.70000004768,"correct":false,"confidence":1},{"trial_n":77,"n_dots":4.45,"target":"left","response":"right","rt":4233.7999999523,"correct":false,"confidence":1},{"trial_n":78,"n_dots":4.55,"target":"left","response":"left","rt":17.100000023842,"correct":true,"confidence":1},{"trial_n":79,"n_dots":4.55,"target":"left","response":"right","rt":242.10000002384,"correct":false,"confidence":1},{"trial_n":80,"n_dots":4.65,"target":"right","response":"left","rt":289.5,"correct":false,"confidence":1},{"trial_n":81,"n_dots":4.75,"target":"right","response":"right","rt":320.90000009537,"correct":true,"confidence":1},{"trial_n":82,"n_dots":4.75,"target":"left","response":"left","rt":318.20000004768,"correct":true,"confidence":1},{"trial_n":83,"n_dots":4.65,"target":"left","response":"left","rt":453.10000002384,"correct":true,"confidence":1},{"trial_n":84,"n_dots":4.65,"target":"right","response":"right","rt":251.79999995232,"correct":true,"confidence":1},{"trial_n":85,"n_dots":4.55,"target":"right","response":"right","rt":307.5,"correct":true,"confidence":1},{"trial_n":86,"n_dots":4.55,"target":"left","response":"left","rt":260.5,"correct":true,"confidence":1},{"trial_n":87,"n_dots":4.45,"target":"left","response":"left","rt":325.89999997616,"correct":true,"confidence":1},{"trial_n":88,"n_dots":4.45,"target":"left","response":"right","rt":347.70000004768,"correct":false,"confidence":1},{"trial_n":89,"n_dots":4.55,"target":"right","response":"right","rt":288.20000004768,"correct":true,"confidence":1},{"trial_n":90,"n_dots":4.55,"target":"right","response":"right","rt":245.29999995232,"correct":true,"confidence":1},{"trial_n":91,"n_dots":4.45,"target":"left","response":"left","rt":262.29999995232,"correct":true,"confidence":1},{"trial_n":92,"n_dots":4.45,"target":"right","response":"right","rt":295,"correct":true,"confidence":1},{"trial_n":93,"n_dots":4.35,"target":"right","response":"right","rt":347.10000002384,"correct":true,"confidence":1},{"trial_n":94,"n_dots":4.35,"target":"left","response":"left","rt":267.30000007153,"correct":true,"confidence":1},{"trial_n":95,"n_dots":4.25,"target":"left","response":"left","rt":736.29999995232,"correct":true,"confidence":1},{"trial_n":96,"n_dots":4.25,"target":"right","response":"right","rt":412.79999995232,"correct":true,"confidence":1},{"trial_n":97,"n_dots":4.15,"target":"left","response":"right","rt":742.79999995232,"correct":false,"confidence":1},{"trial_n":98,"n_dots":4.25,"target":"right","response":"right","rt":304.39999997616,"correct":true,"confidence":1},{"trial_n":99,"n_dots":4.25,"target":"right","response":"right","rt":256.39999997616,"correct":true,"confidence":1},{"trial_n":100,"n_dots":4.15,"target":"left","response":"left","rt":223.89999997616,"correct":true,"confidence":1},{"trial_n":101,"n_dots":4.15,"target":"right","response":"right","rt":247.39999997616,"correct":true,"confidence":1},{"trial_n":102,"n_dots":4.05,"target":"left","response":"left","rt":265.39999997616,"correct":true,"confidence":1},{"trial_n":103,"n_dots":4.05,"target":"right","response":"right","rt":344.39999997616,"correct":true,"confidence":1},{"trial_n":104,"n_dots":3.95,"target":"right","response":"right","rt":286.89999997616,"correct":true,"confidence":1},{"trial_n":105,"n_dots":3.95,"target":"left","response":"left","rt":229.5,"correct":true,"confidence":1},{"trial_n":106,"n_dots":3.85,"target":"right","response":"right","rt":422.60000002384,"correct":true,"confidence":1},{"trial_n":107,"n_dots":3.85,"target":"right","response":"right","rt":698.70000004768,"correct":true,"confidence":1},{"trial_n":108,"n_dots":3.75,"target":"left","response":"left","rt":390.5,"correct":true,"confidence":1},{"trial_n":109,"n_dots":3.75,"target":"right","response":"right","rt":1055.5,"correct":true,"confidence":1},{"trial_n":110,"n_dots":3.65,"target":"left","response":"left","rt":385.59999990463,"correct":true,"confidence":1},{"trial_n":111,"n_dots":3.65,"target":"right","response":"left","rt":3985.6000000238,"correct":false,"confidence":1},{"trial_n":112,"n_dots":3.75,"target":"right","response":"right","rt":282.19999992847,"correct":true,"confidence":1},{"trial_n":113,"n_dots":3.75,"target":"left","response":"left","rt":233.5,"correct":true,"confidence":1},{"trial_n":114,"n_dots":3.65,"target":"right","response":"right","rt":807.20000004768,"correct":true,"confidence":1},{"trial_n":115,"n_dots":3.65,"target":"left","response":"left","rt":286,"correct":true,"confidence":1},{"trial_n":116,"n_dots":3.55,"target":"left","response":"right","rt":622.10000002384,"correct":false,"confidence":1},{"trial_n":117,"n_dots":3.65,"target":"left","response":"left","rt":332.5,"correct":true,"confidence":1},{"trial_n":118,"n_dots":3.65,"target":"right","response":"left","rt":914.39999997616,"correct":false,"confidence":1},{"trial_n":119,"n_dots":3.75,"target":"right","response":"right","rt":438.89999997616,"correct":true,"confidence":1},{"trial_n":120,"n_dots":3.75,"target":"right","response":"left","rt":444.80000007153,"correct":false,"confidence":1}]