[{"trial_n":1,"span":8,"encoder":"33147416","distractor":"33747416","target":"present","response":"present","rt":"5303.1000001431","correct":true,"confidence":-1},{"trial_n":2,"span":8,"encoder":"88091666","distractor":"88091566","target":"present","response":"present","rt":"1806.9000000954","correct":true,"confidence":-1},{"trial_n":3,"span":10,"encoder":"5727780040","distractor":"5728780040","target":"absent","response":"present","rt":"1924.9000000954","correct":false,"confidence":-1},{"trial_n":4,"span":8,"encoder":"50966522","distractor":"50986522","target":"absent","response":"present","rt":"8045.2999999523","correct":false,"confidence":-1},{"trial_n":5,"span":6,"encoder":"208775","distractor":"228775","target":"present","response":"present","rt":"8223","correct":true,"confidence":-1},{"trial_n":6,"span":6,"encoder":"885135","distractor":"885134","target":"absent","response":"absent","rt":"2462.1000001431","correct":true,"confidence":-1},{"trial_n":7,"span":8,"encoder":"49784368","distractor":"49784388","target":"absent","response":"absent","rt":"3581.2999999523","correct":true,"confidence":-1},{"trial_n":8,"span":8,"encoder":"44152614","distractor":"44152314","target":"absent","response":"absent","rt":"1849.7000000477","correct":true,"confidence":-1},{"trial_n":9,"span":10,"encoder":"1183907511","distractor":"1183907911","target":"absent","response":"present","rt":"3203.2999999523","correct":false,"confidence":-1},{"trial_n":10,"span":8,"encoder":"75039152","distractor":"75059152","target":"present","response":"absent","rt":"2626.8000001907","correct":false,"confidence":-1},{"trial_n":11,"span":6,"encoder":"284746","distractor":"884746","target":"absent","response":"present","rt":"2439.2999999523","correct":false,"confidence":-1},{"trial_n":12,"span":5,"encoder":"87513","distractor":"27513","target":"absent","response":"absent","rt":"2118.4000000954","correct":true,"confidence":-1},{"trial_n":13,"span":5,"encoder":"31921","distractor":"31221","target":"present","response":"absent","rt":"2305.1000001431","correct":false,"confidence":-1},{"trial_n":14,"span":4,"encoder":"5833","distractor":"5835","target":"present","response":"present","rt":"1977.3999998569","correct":true,"confidence":-1},{"trial_n":15,"span":4,"encoder":"4344","distractor":"4345","target":"absent","response":"absent","rt":"1199.2000000477","correct":true,"confidence":-1},{"trial_n":16,"span":5,"encoder":"95744","distractor":"95754","target":"present","response":"present","rt":"1330.2000000477","correct":true,"confidence":-1},{"trial_n":17,"span":5,"encoder":"93073","distractor":"99073","target":"absent","response":"absent","rt":"1799.4000000954","correct":true,"confidence":-1},{"trial_n":18,"span":6,"encoder":"333800","distractor":"336800","target":"present","response":"present","rt":"1319.1000001431","correct":true,"confidence":-1},{"trial_n":19,"span":6,"encoder":"700468","distractor":"700168","target":"absent","response":"absent","rt":"1709.2999999523","correct":true,"confidence":-1},{"trial_n":20,"span":7,"encoder":"9555415","distractor":"9535415","target":"absent","response":"absent","rt":"3958.2000000477","correct":true,"confidence":-1},{"trial_n":21,"span":7,"encoder":"2037261","distractor":"2017261","target":"absent","response":"absent","rt":"1780.5999999046","correct":true,"confidence":4},{"trial_n":22,"span":8,"encoder":"03471240","distractor":"03471740","target":"present","response":"absent","rt":"1995.2999999523","correct":false,"confidence":3},{"trial_n":23,"span":7,"encoder":"1653063","distractor":"1650063","target":"absent","response":"present","rt":"3202.2999999523","correct":false,"confidence":2},{"trial_n":24,"span":6,"encoder":"531213","distractor":"931213","target":"present","response":"present","rt":"1653.2000000477","correct":true,"confidence":4},{"trial_n":25,"span":6,"encoder":"988987","distractor":"388987","target":"absent","response":"absent","rt":"1475","correct":true,"confidence":4},{"trial_n":26,"span":7,"encoder":"4158901","distractor":"6158901","target":"present","response":"absent","rt":"1871.2000000477","correct":false,"confidence":3},{"trial_n":27,"span":6,"encoder":"547416","distractor":"547816","target":"absent","response":"absent","rt":"3018.2999999523","correct":true,"confidence":3},{"trial_n":28,"span":6,"encoder":"456759","distractor":"454759","target":"absent","response":"absent","rt":"1915.2999999523","correct":true,"confidence":4},{"trial_n":29,"span":7,"encoder":"7821754","distractor":"7822754","target":"absent","response":"absent","rt":"2149","correct":true,"confidence":4},{"trial_n":30,"span":7,"encoder":"3932255","distractor":"3632255","target":"absent","response":"absent","rt":"4608.2999999523","correct":true,"confidence":2},{"trial_n":31,"span":8,"encoder":"95377487","distractor":"95377987","target":"present","response":"present","rt":"1819.7000000477","correct":true,"confidence":4},{"trial_n":32,"span":8,"encoder":"56940062","distractor":"56940162","target":"present","response":"present","rt":"2897.7000000477","correct":true,"confidence":4},{"trial_n":33,"span":9,"encoder":"764211984","distractor":"564211984","target":"absent","response":"absent","rt":"2075.7999999523","correct":true,"confidence":4},{"trial_n":34,"span":9,"encoder":"680264971","distractor":"680264973","target":"present","response":"present","rt":"2251.6000001431","correct":true,"confidence":5},{"trial_n":35,"span":10,"encoder":"8158930956","distractor":"8158934956","target":"present","response":"present","rt":"3080.7999999523","correct":true,"confidence":3},{"trial_n":36,"span":10,"encoder":"1417825156","distractor":"1414825156","target":"present","response":"absent","rt":"2340.6000001431","correct":false,"confidence":2},{"trial_n":37,"span":9,"encoder":"250990689","distractor":"250590689","target":"absent","response":"absent","rt":"3252","correct":true,"confidence":3},{"trial_n":38,"span":9,"encoder":"465106808","distractor":"465106848","target":"absent","response":"present","rt":"2402.5","correct":false,"confidence":3},{"trial_n":39,"span":8,"encoder":"10833673","distractor":"10833675","target":"present","response":"present","rt":"2965.7999999523","correct":true,"confidence":3},{"trial_n":40,"span":8,"encoder":"68986936","distractor":"68986939","target":"present","response":"present","rt":"3146.6000001431","correct":true,"confidence":3},{"trial_n":41,"span":9,"encoder":"798034151","distractor":"795034151","target":"absent","response":"absent","rt":"1984.7000000477","correct":true,"confidence":2},{"trial_n":42,"span":9,"encoder":"975518546","distractor":"975518346","target":"absent","response":"absent","rt":"3284.6999998093","correct":true,"confidence":2},{"trial_n":43,"span":10,"encoder":"2627144249","distractor":"2527144249","target":"absent","response":"absent","rt":"1705.2000000477","correct":true,"confidence":3},{"trial_n":44,"span":10,"encoder":"0529382744","distractor":"0528382744","target":"absent","response":"absent","rt":"2796.7000000477","correct":true,"confidence":3},{"trial_n":45,"span":11,"encoder":"58687290023","distractor":"50687290023","target":"present","response":"absent","rt":"2802","correct":false,"confidence":3},{"trial_n":46,"span":10,"encoder":"4131392431","distractor":"4131382431","target":"absent","response":"present","rt":"2637.2000000477","correct":false,"confidence":2},{"trial_n":47,"span":9,"encoder":"813606704","distractor":"843606704","target":"present","response":"present","rt":"2576.7000000477","correct":true,"confidence":3},{"trial_n":48,"span":9,"encoder":"556806802","distractor":"556806808","target":"present","response":"absent","rt":"2252.6000001431","correct":false,"confidence":3},{"trial_n":49,"span":8,"encoder":"79295619","distractor":"79295719","target":"absent","response":"present","rt":"4811.9000000954","correct":false,"confidence":2},{"trial_n":50,"span":7,"encoder":"9007368","distractor":"9087368","target":"present","response":"present","rt":"2475","correct":true,"confidence":3},{"trial_n":51,"span":7,"encoder":"0742134","distractor":"0742130","target":"present","response":"absent","rt":"3534.2000000477","correct":false,"confidence":3},{"trial_n":52,"span":6,"encoder":"754380","distractor":"754381","target":"absent","response":"absent","rt":"2158.2999999523","correct":true,"confidence":5},{"trial_n":53,"span":6,"encoder":"335819","distractor":"135819","target":"present","response":"present","rt":"2023.3999998569","correct":true,"confidence":5},{"trial_n":54,"span":7,"encoder":"0995085","distractor":"0095085","target":"absent","response":"present","rt":"2654","correct":false,"confidence":5},{"trial_n":55,"span":6,"encoder":"049776","distractor":"045776","target":"absent","response":"absent","rt":"1584.7999999523","correct":true,"confidence":5},{"trial_n":56,"span":6,"encoder":"297870","distractor":"296870","target":"present","response":"present","rt":"2056.9000000954","correct":true,"confidence":5},{"trial_n":57,"span":7,"encoder":"7969031","distractor":"7961031","target":"present","response":"present","rt":"2399.6000001431","correct":true,"confidence":5},{"trial_n":58,"span":7,"encoder":"7359273","distractor":"7359773","target":"present","response":"present","rt":"1938.9000000954","correct":true,"confidence":5},{"trial_n":59,"span":8,"encoder":"02129884","distractor":"02829884","target":"present","response":"present","rt":"2050.7999999523","correct":true,"confidence":5},{"trial_n":60,"span":8,"encoder":"26817838","distractor":"26847838","target":"present","response":"absent","rt":"8248.7000000477","correct":false,"confidence":3},{"trial_n":61,"span":7,"encoder":"5204044","distractor":"5203044","target":"present","response":"present","rt":"2039.9000000954","correct":true,"confidence":4},{"trial_n":62,"span":7,"encoder":"9611248","distractor":"9611648","target":"present","response":"present","rt":"2048.2000000477","correct":true,"confidence":4},{"trial_n":63,"span":8,"encoder":"54839410","distractor":"54809410","target":"present","response":"present","rt":"3366.9000000954","correct":true,"confidence":3},{"trial_n":64,"span":8,"encoder":"23645326","distractor":"23648326","target":"present","response":"absent","rt":"2276.4000000954","correct":false,"confidence":3},{"trial_n":65,"span":7,"encoder":"8257172","distractor":"8257102","target":"present","response":"present","rt":"2862.2000000477","correct":true,"confidence":4},{"trial_n":66,"span":7,"encoder":"6458678","distractor":"6458608","target":"absent","response":"absent","rt":"2793.5","correct":true,"confidence":5},{"trial_n":67,"span":8,"encoder":"37673638","distractor":"37673637","target":"absent","response":"absent","rt":"2543.7000000477","correct":true,"confidence":5},{"trial_n":68,"span":8,"encoder":"41097132","distractor":"42097132","target":"absent","response":"absent","rt":"1963.1999998093","correct":true,"confidence":3},{"trial_n":69,"span":9,"encoder":"154258739","distractor":"554258739","target":"present","response":"absent","rt":"2844.5999999046","correct":false,"confidence":3},{"trial_n":70,"span":8,"encoder":"91418795","distractor":"61418795","target":"present","response":"present","rt":"4417.1999998093","correct":true,"confidence":3},{"trial_n":71,"span":8,"encoder":"90917469","distractor":"90917429","target":"present","response":"present","rt":"3759.7000000477","correct":true,"confidence":-1},{"trial_n":72,"span":8,"encoder":"67993001","distractor":"67943001","target":"present","response":"present","rt":"3631.7000000477","correct":true,"confidence":-1},{"trial_n":73,"span":9,"encoder":"535790683","distractor":"535690683","target":"absent","response":"present","rt":"4108.0999999046","correct":false,"confidence":-1},{"trial_n":74,"span":8,"encoder":"33950686","distractor":"33959686","target":"absent","response":"absent","rt":"682.29999995232","correct":true,"confidence":-1},{"trial_n":75,"span":8,"encoder":"67980010","distractor":"67780010","target":"present","response":"present","rt":"2457.6000001431","correct":true,"confidence":-1},{"trial_n":76,"span":9,"encoder":"187565126","distractor":"187562126","target":"present","response":"present","rt":"2343.5","correct":true,"confidence":-1},{"trial_n":77,"span":9,"encoder":"978509624","distractor":"978599624","target":"absent","response":"present","rt":"664.20000004768","correct":false,"confidence":-1},{"trial_n":78,"span":8,"encoder":"36321037","distractor":"86321037","target":"absent","response":"absent","rt":"507.5","correct":true,"confidence":-1},{"trial_n":79,"span":8,"encoder":"96753152","distractor":"96753162","target":"absent","response":"present","rt":"406.79999995232","correct":false,"confidence":-1},{"trial_n":80,"span":7,"encoder":"0586250","distractor":"2586250","target":"present","response":"absent","rt":"339","correct":false,"confidence":-1},{"trial_n":81,"span":6,"encoder":"671960","distractor":"671160","target":"absent","response":"absent","rt":"2655.8999998569","correct":true,"confidence":-1},{"trial_n":82,"span":6,"encoder":"656595","distractor":"659595","target":"absent","response":"absent","rt":"2908.5","correct":true,"confidence":-1},{"trial_n":83,"span":7,"encoder":"9598712","distractor":"9598711","target":"absent","response":"absent","rt":"1162.6999998093","correct":true,"confidence":-1},{"trial_n":84,"span":7,"encoder":"3509279","distractor":"3509579","target":"absent","response":"absent","rt":"630.70000004768","correct":true,"confidence":-1},{"trial_n":85,"span":8,"encoder":"23365851","distractor":"23368851","target":"present","response":"absent","rt":"473.29999995232","correct":false,"confidence":-1},{"trial_n":86,"span":7,"encoder":"8637068","distractor":"8637062","target":"absent","response":"present","rt":"686.40000009537","correct":false,"confidence":-1},{"trial_n":87,"span":6,"encoder":"306236","distractor":"306246","target":"present","response":"absent","rt":"565.59999990463","correct":false,"confidence":-1},{"trial_n":88,"span":5,"encoder":"05762","distractor":"05712","target":"present","response":"present","rt":"561.09999990463","correct":true,"confidence":-1},{"trial_n":89,"span":5,"encoder":"48415","distractor":"28415","target":"absent","response":"present","rt":"368.70000004768","correct":false,"confidence":-1},{"trial_n":90,"span":4,"encoder":"0798","distractor":"0498","target":"present","response":"present","rt":"1603.5999999046","correct":true,"confidence":-1},{"trial_n":91,"span":4,"encoder":"5705","distractor":"5755","target":"present","response":"present","rt":"1693.3999998569","correct":true,"confidence":5},{"trial_n":92,"span":5,"encoder":"75685","distractor":"75385","target":"present","response":"present","rt":"1817.9000000954","correct":true,"confidence":5},{"trial_n":93,"span":5,"encoder":"92374","distractor":"82374","target":"present","response":"present","rt":"1706.7999999523","correct":true,"confidence":5},{"trial_n":94,"span":6,"encoder":"835979","distractor":"835972","target":"present","response":"present","rt":"2712.1000001431","correct":true,"confidence":5},{"trial_n":95,"span":6,"encoder":"624550","distractor":"824550","target":"present","response":"present","rt":"1780.6000001431","correct":true,"confidence":5},{"trial_n":96,"span":7,"encoder":"4859348","distractor":"4059348","target":"absent","response":"absent","rt":"1343.1999998093","correct":true,"confidence":5},{"trial_n":97,"span":7,"encoder":"5896238","distractor":"5886238","target":"absent","response":"absent","rt":"2382","correct":true,"confidence":4},{"trial_n":98,"span":8,"encoder":"07297568","distractor":"07237568","target":"absent","response":"absent","rt":"1206.7999999523","correct":true,"confidence":2},{"trial_n":99,"span":8,"encoder":"22524345","distractor":"22526345","target":"absent","response":"absent","rt":"3186.2000000477","correct":true,"confidence":2},{"trial_n":100,"span":9,"encoder":"413702581","distractor":"413702583","target":"absent","response":"absent","rt":"2663","correct":true,"confidence":3},{"trial_n":101,"span":9,"encoder":"714908637","distractor":"794908637","target":"present","response":"present","rt":"4093.3999998569","correct":true,"confidence":3},{"trial_n":102,"span":10,"encoder":"2328866814","distractor":"2028866814","target":"present","response":"present","rt":"2418.8999998569","correct":true,"confidence":3},{"trial_n":103,"span":10,"encoder":"3732634278","distractor":"3732635278","target":"absent","response":"present","rt":"2205.1000001431","correct":false,"confidence":2},{"trial_n":104,"span":9,"encoder":"168955814","distractor":"168955014","target":"absent","response":"absent","rt":"4422.5","correct":true,"confidence":3},{"trial_n":105,"span":9,"encoder":"588897757","distractor":"548897757","target":"absent","response":"absent","rt":"4955.0999999046","correct":true,"confidence":2},{"trial_n":106,"span":10,"encoder":"3835379166","distractor":"3435379166","target":"present","response":"present","rt":"2041.5999999046","correct":true,"confidence":3},{"trial_n":107,"span":10,"encoder":"0507934282","distractor":"0507933282","target":"absent","response":"absent","rt":"1997.5999999046","correct":true,"confidence":1},{"trial_n":108,"span":11,"encoder":"79903141764","distractor":"79303141764","target":"absent","response":"present","rt":"2488","correct":false,"confidence":3},{"trial_n":109,"span":10,"encoder":"6634447463","distractor":"6634444463","target":"absent","response":"absent","rt":"5373.1999998093","correct":true,"confidence":2},{"trial_n":110,"span":10,"encoder":"9664272865","distractor":"6664272865","target":"present","response":"present","rt":"1616.5","correct":true,"confidence":3},{"trial_n":111,"span":11,"encoder":"49622647554","distractor":"49622648554","target":"present","response":"present","rt":"3263.7999999523","correct":true,"confidence":2},{"trial_n":112,"span":11,"encoder":"37130064008","distractor":"37130064608","target":"present","response":"absent","rt":"4680.7999999523","correct":false,"confidence":3},{"trial_n":113,"span":10,"encoder":"6996088442","distractor":"6991088442","target":"present","response":"present","rt":"3646.2999999523","correct":true,"confidence":2},{"trial_n":114,"span":10,"encoder":"8282474572","distractor":"8262474572","target":"present","response":"absent","rt":"1298.1000001431","correct":false,"confidence":2},{"trial_n":115,"span":9,"encoder":"454733944","distractor":"454737944","target":"absent","response":"absent","rt":"2976.8999998569","correct":true,"confidence":2},{"trial_n":116,"span":9,"encoder":"096738865","distractor":"090738865","target":"absent","response":"absent","rt":"2892.8999998569","correct":true,"confidence":2},{"trial_n":117,"span":10,"encoder":"6573913112","distractor":"6573413112","target":"present","response":"absent","rt":"2779.3999998569","correct":false,"confidence":2},{"trial_n":118,"span":9,"encoder":"706473348","distractor":"706474348","target":"present","response":"present","rt":"2480.2000000477","correct":true,"confidence":3},{"trial_n":119,"span":9,"encoder":"936284840","distractor":"931284840","target":"present","response":"present","rt":"4414.5","correct":true,"confidence":3},{"trial_n":120,"span":10,"encoder":"2999876089","distractor":"2999875089","target":"present","response":"present","rt":"2725.6999998093","correct":true,"confidence":3},{"trial_n":121,"span":10,"encoder":"5309162156","distractor":"5304162156","target":"absent","response":"absent","rt":"2480.7000000477","correct":true,"confidence":3},{"trial_n":122,"span":11,"encoder":"12486564878","distractor":"12486564876","target":"absent","response":"present","rt":"2573.6000001431","correct":false,"confidence":1},{"trial_n":123,"span":10,"encoder":"3404509055","distractor":"3409509055","target":"present","response":"absent","rt":"2256.0999999046","correct":false,"confidence":3},{"trial_n":124,"span":9,"encoder":"557665467","distractor":"597665467","target":"absent","response":"absent","rt":"4719.2000000477","correct":true,"confidence":2},{"trial_n":125,"span":9,"encoder":"722788943","distractor":"622788943","target":"present","response":"present","rt":"2875","correct":true,"confidence":3},{"trial_n":126,"span":10,"encoder":"3378502319","distractor":"3358502319","target":"absent","response":"absent","rt":"2628.8999998569","correct":true,"confidence":4},{"trial_n":127,"span":10,"encoder":"7476657594","distractor":"7456657594","target":"absent","response":"absent","rt":"2202","correct":true,"confidence":5},{"trial_n":128,"span":11,"encoder":"66610209109","distractor":"66660209109","target":"present","response":"present","rt":"2470.5999999046","correct":true,"confidence":5},{"trial_n":129,"span":11,"encoder":"77346912649","distractor":"77346812649","target":"present","response":"present","rt":"2662.7000000477","correct":true,"confidence":4},{"trial_n":130,"span":12,"encoder":"907892681022","distractor":"907896681022","target":"present","response":"present","rt":"2454.2000000477","correct":true,"confidence":2},{"trial_n":131,"span":12,"encoder":"232012488192","distractor":"232012488892","target":"present","response":"present","rt":"5302.5","correct":true,"confidence":3},{"trial_n":132,"span":13,"encoder":"0338890160385","distractor":"0338890260385","target":"absent","response":"present","rt":"5375.6000001431","correct":false,"confidence":2},{"trial_n":133,"span":12,"encoder":"013600625387","distractor":"013605625387","target":"present","response":"present","rt":"6825.5999999046","correct":true,"confidence":4},{"trial_n":134,"span":12,"encoder":"081964224239","distractor":"081964226239","target":"absent","response":"absent","rt":"3201.7000000477","correct":true,"confidence":4},{"trial_n":135,"span":13,"encoder":"4879044313600","distractor":"4879044313603","target":"absent","response":"absent","rt":"4062.7999999523","correct":true,"confidence":4},{"trial_n":136,"span":13,"encoder":"2814547964544","distractor":"2814545964544","target":"absent","response":"present","rt":"6230.3000001907","correct":false,"confidence":2},{"trial_n":137,"span":12,"encoder":"825779992841","distractor":"825759992841","target":"present","response":"absent","rt":"5420.7000000477","correct":false,"confidence":3},{"trial_n":138,"span":11,"encoder":"93900619864","distractor":"93900419864","target":"present","response":"present","rt":"3312.9000000954","correct":true,"confidence":3},{"trial_n":139,"span":11,"encoder":"18405424622","distractor":"18405426622","target":"absent","response":"absent","rt":"2023.5999999046","correct":true,"confidence":2},{"trial_n":140,"span":12,"encoder":"676219458325","distractor":"676219458385","target":"present","response":"present","rt":"2005.7999999523","correct":true,"confidence":3}]