[{"trial_n":1,"n_dots":4.25,"target":"left","response":"left","rt":4051.5999999046,"correct":true,"confidence":-1},{"trial_n":2,"n_dots":4.25,"target":"left","response":"left","rt":851.20000004768,"correct":true,"confidence":-1},{"trial_n":3,"n_dots":3.85,"target":"left","response":"left","rt":775.70000004768,"correct":true,"confidence":-1},{"trial_n":4,"n_dots":3.85,"target":"left","response":"left","rt":692.29999995232,"correct":true,"confidence":-1},{"trial_n":5,"n_dots":3.45,"target":"right","response":"right","rt":479.40000009537,"correct":true,"confidence":-1},{"trial_n":6,"n_dots":3.45,"target":"right","response":"right","rt":467.90000009537,"correct":true,"confidence":-1},{"trial_n":7,"n_dots":3.05,"target":"left","response":"left","rt":248.5,"correct":true,"confidence":-1},{"trial_n":8,"n_dots":3.05,"target":"right","response":"right","rt":641.30000019073,"correct":true,"confidence":-1},{"trial_n":9,"n_dots":2.85,"target":"right","response":"left","rt":496.79999995232,"correct":false,"confidence":-1},{"trial_n":10,"n_dots":3.05,"target":"left","response":"left","rt":663.39999985695,"correct":true,"confidence":-1},{"trial_n":11,"n_dots":3.05,"target":"left","response":"right","rt":507.5,"correct":false,"confidence":-1},{"trial_n":12,"n_dots":3.25,"target":"right","response":"left","rt":454.59999990463,"correct":false,"confidence":-1},{"trial_n":13,"n_dots":3.35,"target":"right","response":"left","rt":556.69999980927,"correct":false,"confidence":-1},{"trial_n":14,"n_dots":3.45,"target":"right","response":"left","rt":536.09999990463,"correct":false,"confidence":-1},{"trial_n":15,"n_dots":3.55,"target":"left","response":"right","rt":852.10000014305,"correct":false,"confidence":-1},{"trial_n":16,"n_dots":3.65,"target":"right","response":"right","rt":551,"correct":true,"confidence":-1},{"trial_n":17,"n_dots":3.65,"target":"right","response":"right","rt":340.70000004768,"correct":true,"confidence":-1},{"trial_n":18,"n_dots":3.55,"target":"left","response":"left","rt":589.10000014305,"correct":true,"confidence":-1},{"trial_n":19,"n_dots":3.55,"target":"left","response":"left","rt":556.20000004768,"correct":true,"confidence":-1},{"trial_n":20,"n_dots":3.45,"target":"left","response":"left","rt":414.40000009537,"correct":true,"confidence":-1},{"trial_n":21,"n_dots":3.45,"target":"left","response":"left","rt":124.30000019073,"correct":true,"confidence":3},{"trial_n":22,"n_dots":3.35,"target":"left","response":"left","rt":447.5,"correct":true,"confidence":3},{"trial_n":23,"n_dots":3.35,"target":"right","response":"left","rt":540.40000009537,"correct":false,"confidence":3},{"trial_n":24,"n_dots":3.45,"target":"right","response":"right","rt":293.20000004768,"correct":true,"confidence":3},{"trial_n":25,"n_dots":3.45,"target":"left","response":"left","rt":1102.7999999523,"correct":true,"confidence":2},{"trial_n":26,"n_dots":3.35,"target":"left","response":"left","rt":486.79999995232,"correct":true,"confidence":2},{"trial_n":27,"n_dots":3.35,"target":"right","response":"right","rt":500.39999985695,"correct":true,"confidence":2},{"trial_n":28,"n_dots":3.25,"target":"right","response":"left","rt":335.10000014305,"correct":false,"confidence":2},{"trial_n":29,"n_dots":3.35,"target":"left","response":"left","rt":419.90000009537,"correct":true,"confidence":3},{"trial_n":30,"n_dots":3.35,"target":"right","response":"left","rt":88.799999952316,"correct":false,"confidence":2},{"trial_n":31,"n_dots":3.45,"target":"left","response":"right","rt":567,"correct":false,"confidence":2},{"trial_n":32,"n_dots":3.55,"target":"right","response":"left","rt":373.39999985695,"correct":false,"confidence":2},{"trial_n":33,"n_dots":3.65,"target":"right","response":"right","rt":204.79999995232,"correct":true,"confidence":2},{"trial_n":34,"n_dots":3.65,"target":"right","response":"left","rt":1060.9000000954,"correct":false,"confidence":2},{"trial_n":35,"n_dots":3.75,"target":"right","response":"left","rt":384.5,"correct":false,"confidence":2},{"trial_n":36,"n_dots":3.85,"target":"right","response":"right","rt":625.40000009537,"correct":true,"confidence":3},{"trial_n":37,"n_dots":3.85,"target":"left","response":"left","rt":261.30000019073,"correct":true,"confidence":3},{"trial_n":38,"n_dots":3.75,"target":"right","response":"right","rt":522.19999980927,"correct":true,"confidence":2},{"trial_n":39,"n_dots":3.75,"target":"right","response":"right","rt":504.79999995232,"correct":true,"confidence":2},{"trial_n":40,"n_dots":3.65,"target":"left","response":"left","rt":264.69999980927,"correct":true,"confidence":2},{"trial_n":41,"n_dots":3.65,"target":"right","response":"left","rt":585.60000014305,"correct":false,"confidence":2},{"trial_n":42,"n_dots":3.75,"target":"right","response":"right","rt":306.70000004768,"correct":true,"confidence":3},{"trial_n":43,"n_dots":3.75,"target":"left","response":"left","rt":54.200000047684,"correct":true,"confidence":3},{"trial_n":44,"n_dots":3.65,"target":"right","response":"left","rt":143.60000014305,"correct":false,"confidence":3},{"trial_n":45,"n_dots":3.75,"target":"right","response":"left","rt":261.39999985695,"correct":false,"confidence":3},{"trial_n":46,"n_dots":3.85,"target":"left","response":"right","rt":495.79999995232,"correct":false,"confidence":2},{"trial_n":47,"n_dots":3.95,"target":"left","response":"left","rt":30.100000143051,"correct":true,"confidence":2},{"trial_n":48,"n_dots":3.95,"target":"right","response":"left","rt":300.39999985695,"correct":false,"confidence":2},{"trial_n":49,"n_dots":4.05,"target":"left","response":"left","rt":773,"correct":true,"confidence":2},{"trial_n":50,"n_dots":4.05,"target":"left","response":"left","rt":534.40000009537,"correct":true,"confidence":3},{"trial_n":51,"n_dots":3.95,"target":"left","response":"left","rt":282.09999990463,"correct":true,"confidence":3},{"trial_n":52,"n_dots":3.95,"target":"right","response":"left","rt":423,"correct":false,"confidence":3},{"trial_n":53,"n_dots":4.05,"target":"left","response":"left","rt":579.20000004768,"correct":true,"confidence":3},{"trial_n":54,"n_dots":4.05,"target":"right","response":"right","rt":438.59999990463,"correct":true,"confidence":2},{"trial_n":55,"n_dots":3.95,"target":"left","response":"left","rt":159,"correct":true,"confidence":4},{"trial_n":56,"n_dots":3.95,"target":"left","response":"left","rt":302.19999980927,"correct":true,"confidence":3},{"trial_n":57,"n_dots":3.85,"target":"left","response":"left","rt":425,"correct":true,"confidence":2},{"trial_n":58,"n_dots":3.85,"target":"left","response":"left","rt":11.700000047684,"correct":true,"confidence":3},{"trial_n":59,"n_dots":3.75,"target":"right","response":"left","rt":512.10000014305,"correct":false,"confidence":2},{"trial_n":60,"n_dots":3.85,"target":"left","response":"left","rt":109.29999995232,"correct":true,"confidence":3},{"trial_n":61,"n_dots":3.85,"target":"left","response":"left","rt":276.90000009537,"correct":true,"confidence":3},{"trial_n":62,"n_dots":3.75,"target":"left","response":"left","rt":126.79999995232,"correct":true,"confidence":3},{"trial_n":63,"n_dots":3.75,"target":"left","response":"left","rt":362.60000014305,"correct":true,"confidence":3},{"trial_n":64,"n_dots":3.65,"target":"right","response":"right","rt":317.39999985695,"correct":true,"confidence":3},{"trial_n":65,"n_dots":3.65,"target":"right","response":"right","rt":641.90000009537,"correct":true,"confidence":2},{"trial_n":66,"n_dots":3.55,"target":"left","response":"left","rt":50.399999856949,"correct":true,"confidence":3},{"trial_n":67,"n_dots":3.55,"target":"left","response":"left","rt":208.59999990463,"correct":true,"confidence":3},{"trial_n":68,"n_dots":3.45,"target":"right","response":"left","rt":591.79999995232,"correct":false,"confidence":2},{"trial_n":69,"n_dots":3.55,"target":"right","response":"left","rt":79.600000143051,"correct":false,"confidence":2},{"trial_n":70,"n_dots":3.65,"target":"right","response":"right","rt":1057.0999999046,"correct":true,"confidence":3},{"trial_n":71,"n_dots":3.65,"target":"right","response":"left","rt":520.89999985695,"correct":false,"confidence":2},{"trial_n":72,"n_dots":3.75,"target":"left","response":"left","rt":208.70000004768,"correct":true,"confidence":2},{"trial_n":73,"n_dots":3.75,"target":"left","response":"left","rt":44.900000095367,"correct":true,"confidence":2},{"trial_n":74,"n_dots":3.65,"target":"left","response":"left","rt":286.69999980927,"correct":true,"confidence":3},{"trial_n":75,"n_dots":3.65,"target":"right","response":"left","rt":85,"correct":false,"confidence":3},{"trial_n":76,"n_dots":3.75,"target":"right","response":"left","rt":122,"correct":false,"confidence":2},{"trial_n":77,"n_dots":3.85,"target":"left","response":"right","rt":148.5,"correct":false,"confidence":2},{"trial_n":78,"n_dots":3.95,"target":"right","response":"right","rt":698.30000019073,"correct":true,"confidence":3},{"trial_n":79,"n_dots":3.95,"target":"right","response":"right","rt":412.5,"correct":true,"confidence":4},{"trial_n":80,"n_dots":3.85,"target":"right","response":"right","rt":370.79999995232,"correct":true,"confidence":3},{"trial_n":81,"n_dots":3.85,"target":"right","response":"right","rt":31.600000143051,"correct":true,"confidence":4},{"trial_n":82,"n_dots":3.75,"target":"right","response":"right","rt":364.29999995232,"correct":true,"confidence":3},{"trial_n":83,"n_dots":3.75,"target":"right","response":"right","rt":345.40000009537,"correct":true,"confidence":3},{"trial_n":84,"n_dots":3.65,"target":"left","response":"left","rt":292.10000014305,"correct":true,"confidence":2},{"trial_n":85,"n_dots":3.65,"target":"right","response":"right","rt":121.90000009537,"correct":true,"confidence":3},{"trial_n":86,"n_dots":3.55,"target":"left","response":"left","rt":288.5,"correct":true,"confidence":4},{"trial_n":87,"n_dots":3.55,"target":"left","response":"left","rt":307.29999995232,"correct":true,"confidence":3},{"trial_n":88,"n_dots":3.45,"target":"left","response":"left","rt":825.70000004768,"correct":true,"confidence":2},{"trial_n":89,"n_dots":3.45,"target":"right","response":"right","rt":1199.5,"correct":true,"confidence":2},{"trial_n":90,"n_dots":3.35,"target":"left","response":"left","rt":362.29999995232,"correct":true,"confidence":3},{"trial_n":91,"n_dots":3.35,"target":"right","response":"right","rt":587.89999985695,"correct":true,"confidence":2},{"trial_n":92,"n_dots":3.25,"target":"left","response":"left","rt":434.70000004768,"correct":true,"confidence":2},{"trial_n":93,"n_dots":3.25,"target":"left","response":"left","rt":278.19999980927,"correct":true,"confidence":2},{"trial_n":94,"n_dots":3.15,"target":"right","response":"left","rt":249.70000004768,"correct":false,"confidence":2},{"trial_n":95,"n_dots":3.25,"target":"right","response":"right","rt":248,"correct":true,"confidence":2},{"trial_n":96,"n_dots":3.25,"target":"right","response":"right","rt":276,"correct":true,"confidence":2},{"trial_n":97,"n_dots":3.15,"target":"left","response":"left","rt":303,"correct":true,"confidence":2},{"trial_n":98,"n_dots":3.15,"target":"left","response":"left","rt":281.19999980927,"correct":true,"confidence":2},{"trial_n":99,"n_dots":3.05,"target":"left","response":"left","rt":266.70000004768,"correct":true,"confidence":2},{"trial_n":100,"n_dots":3.05,"target":"right","response":"left","rt":283.20000004768,"correct":false,"confidence":2},{"trial_n":101,"n_dots":3.15,"target":"right","response":"left","rt":465.60000014305,"correct":false,"confidence":2},{"trial_n":102,"n_dots":3.25,"target":"right","response":"left","rt":717.89999985695,"correct":false,"confidence":2},{"trial_n":103,"n_dots":3.35,"target":"left","response":"left","rt":331.39999985695,"correct":true,"confidence":2},{"trial_n":104,"n_dots":3.35,"target":"left","response":"left","rt":280.20000004768,"correct":true,"confidence":2},{"trial_n":105,"n_dots":3.25,"target":"left","response":"left","rt":25.900000095367,"correct":true,"confidence":2},{"trial_n":106,"n_dots":3.25,"target":"right","response":"right","rt":626.09999990463,"correct":true,"confidence":1},{"trial_n":107,"n_dots":3.15,"target":"right","response":"left","rt":235.40000009537,"correct":false,"confidence":2},{"trial_n":108,"n_dots":3.25,"target":"left","response":"left","rt":177.5,"correct":true,"confidence":3},{"trial_n":109,"n_dots":3.25,"target":"right","response":"left","rt":313.79999995232,"correct":false,"confidence":2},{"trial_n":110,"n_dots":3.35,"target":"left","response":"left","rt":4.8000001907349,"correct":true,"confidence":2},{"trial_n":111,"n_dots":3.35,"target":"right","response":"right","rt":248.60000014305,"correct":true,"confidence":2},{"trial_n":112,"n_dots":3.25,"target":"left","response":"left","rt":70.099999904633,"correct":true,"confidence":2},{"trial_n":113,"n_dots":3.25,"target":"left","response":"right","rt":234.60000014305,"correct":false,"confidence":2},{"trial_n":114,"n_dots":3.35,"target":"left","response":"left","rt":122.59999990463,"correct":true,"confidence":2},{"trial_n":115,"n_dots":3.35,"target":"right","response":"right","rt":336,"correct":true,"confidence":2},{"trial_n":116,"n_dots":3.25,"target":"left","response":"left","rt":374.90000009537,"correct":true,"confidence":2},{"trial_n":117,"n_dots":3.25,"target":"right","response":"right","rt":235.29999995232,"correct":true,"confidence":2},{"trial_n":118,"n_dots":3.15,"target":"right","response":"right","rt":76.800000190735,"correct":true,"confidence":2},{"trial_n":119,"n_dots":3.15,"target":"right","response":"left","rt":198.39999985695,"correct":false,"confidence":2},{"trial_n":120,"n_dots":3.25,"target":"left","response":"left","rt":195.79999995232,"correct":true,"confidence":2}]