[{"trial_n":1,"n_dots":4.25,"target":"left","response":"left","rt":3189,"correct":true,"confidence":-1},{"trial_n":2,"n_dots":4.25,"target":"right","response":"right","rt":3697,"correct":true,"confidence":-1},{"trial_n":3,"n_dots":3.85,"target":"right","response":"right","rt":1826,"correct":true,"confidence":-1},{"trial_n":4,"n_dots":3.85,"target":"left","response":"left","rt":1199,"correct":true,"confidence":-1},{"trial_n":5,"n_dots":3.45,"target":"left","response":"left","rt":3853,"correct":true,"confidence":-1},{"trial_n":6,"n_dots":3.45,"target":"right","response":"left","rt":552,"correct":false,"confidence":-1},{"trial_n":7,"n_dots":3.85,"target":"left","response":"right","rt":1120,"correct":false,"confidence":-1},{"trial_n":8,"n_dots":4.05,"target":"right","response":"right","rt":1013,"correct":true,"confidence":-1},{"trial_n":9,"n_dots":4.05,"target":"right","response":"right","rt":898.99999999999,"correct":true,"confidence":-1},{"trial_n":10,"n_dots":3.85,"target":"left","response":"right","rt":1005,"correct":false,"confidence":-1},{"trial_n":11,"n_dots":4.05,"target":"left","response":"right","rt":875,"correct":false,"confidence":-1},{"trial_n":12,"n_dots":4.25,"target":"right","response":"right","rt":851.00000000001,"correct":true,"confidence":-1},{"trial_n":13,"n_dots":4.25,"target":"left","response":"left","rt":876.00000000001,"correct":true,"confidence":-1},{"trial_n":14,"n_dots":4.15,"target":"right","response":"right","rt":798,"correct":true,"confidence":-1},{"trial_n":15,"n_dots":4.15,"target":"right","response":"right","rt":846.99999999999,"correct":true,"confidence":-1},{"trial_n":16,"n_dots":4.05,"target":"left","response":"left","rt":1002,"correct":true,"confidence":-1},{"trial_n":17,"n_dots":4.05,"target":"right","response":"right","rt":777,"correct":true,"confidence":-1},{"trial_n":18,"n_dots":3.95,"target":"left","response":"right","rt":748.00000000001,"correct":false,"confidence":-1},{"trial_n":19,"n_dots":4.05,"target":"right","response":"right","rt":848.99999999999,"correct":true,"confidence":-1},{"trial_n":20,"n_dots":4.05,"target":"left","response":"left","rt":983,"correct":true,"confidence":-1},{"trial_n":21,"n_dots":3.95,"target":"right","response":"right","rt":728.00000000001,"correct":true,"confidence":2},{"trial_n":22,"n_dots":3.95,"target":"right","response":"right","rt":1521,"correct":true,"confidence":3},{"trial_n":23,"n_dots":3.85,"target":"right","response":"left","rt":1739,"correct":false,"confidence":2},{"trial_n":24,"n_dots":3.95,"target":"left","response":"left","rt":1406,"correct":true,"confidence":3},{"trial_n":25,"n_dots":3.95,"target":"left","response":"left","rt":1141,"correct":true,"confidence":3},{"trial_n":26,"n_dots":3.85,"target":"left","response":"left","rt":1080,"correct":true,"confidence":2},{"trial_n":27,"n_dots":3.85,"target":"right","response":"right","rt":981,"correct":true,"confidence":2},{"trial_n":28,"n_dots":3.75,"target":"left","response":"left","rt":1115,"correct":true,"confidence":2},{"trial_n":29,"n_dots":3.75,"target":"left","response":"left","rt":666,"correct":true,"confidence":2},{"trial_n":30,"n_dots":3.65,"target":"right","response":"right","rt":784,"correct":true,"confidence":2},{"trial_n":31,"n_dots":3.65,"target":"left","response":"left","rt":734,"correct":true,"confidence":2},{"trial_n":32,"n_dots":3.55,"target":"left","response":"right","rt":1567,"correct":false,"confidence":2},{"trial_n":33,"n_dots":3.65,"target":"left","response":"right","rt":501,"correct":false,"confidence":2},{"trial_n":34,"n_dots":3.75,"target":"right","response":"left","rt":1068,"correct":false,"confidence":2},{"trial_n":35,"n_dots":3.85,"target":"right","response":"right","rt":702.00000000006,"correct":true,"confidence":3},{"trial_n":36,"n_dots":3.85,"target":"right","response":"right","rt":736,"correct":true,"confidence":3},{"trial_n":37,"n_dots":3.75,"target":"right","response":"left","rt":903,"correct":false,"confidence":1},{"trial_n":38,"n_dots":3.85,"target":"left","response":"right","rt":1351,"correct":false,"confidence":3},{"trial_n":39,"n_dots":3.95,"target":"left","response":"left","rt":620,"correct":true,"confidence":2},{"trial_n":40,"n_dots":3.95,"target":"right","response":"left","rt":1704.9999999999,"correct":false,"confidence":2},{"trial_n":41,"n_dots":4.05,"target":"right","response":"right","rt":1107,"correct":true,"confidence":3},{"trial_n":42,"n_dots":4.05,"target":"left","response":"right","rt":353,"correct":false,"confidence":2},{"trial_n":43,"n_dots":4.15,"target":"right","response":"left","rt":26756,"correct":false,"confidence":2},{"trial_n":44,"n_dots":4.25,"target":"left","response":"left","rt":7406,"correct":true,"confidence":2},{"trial_n":45,"n_dots":4.25,"target":"right","response":"left","rt":6390,"correct":false,"confidence":3},{"trial_n":46,"n_dots":4.35,"target":"right","response":"right","rt":923,"correct":true,"confidence":3},{"trial_n":47,"n_dots":4.35,"target":"right","response":"right","rt":790,"correct":true,"confidence":3},{"trial_n":48,"n_dots":4.25,"target":"left","response":"right","rt":774,"correct":false,"confidence":2},{"trial_n":49,"n_dots":4.35,"target":"left","response":"right","rt":524,"correct":false,"confidence":3},{"trial_n":50,"n_dots":4.45,"target":"right","response":"left","rt":593,"correct":false,"confidence":3},{"trial_n":51,"n_dots":4.55,"target":"left","response":"left","rt":476,"correct":true,"confidence":1},{"trial_n":52,"n_dots":4.55,"target":"left","response":"left","rt":1176,"correct":true,"confidence":1},{"trial_n":53,"n_dots":4.45,"target":"left","response":"left","rt":744,"correct":true,"confidence":1},{"trial_n":54,"n_dots":4.45,"target":"right","response":"right","rt":1177,"correct":true,"confidence":1},{"trial_n":55,"n_dots":4.35,"target":"left","response":"right","rt":791.99999999994,"correct":false,"confidence":1},{"trial_n":56,"n_dots":4.45,"target":"right","response":"right","rt":441.99999999994,"correct":true,"confidence":1},{"trial_n":57,"n_dots":4.45,"target":"right","response":"right","rt":345,"correct":true,"confidence":1},{"trial_n":58,"n_dots":4.35,"target":"left","response":"left","rt":8493,"correct":true,"confidence":1},{"trial_n":59,"n_dots":4.35,"target":"right","response":"right","rt":543,"correct":true,"confidence":1},{"trial_n":60,"n_dots":4.25,"target":"left","response":"right","rt":1093,"correct":false,"confidence":1},{"trial_n":61,"n_dots":4.35,"target":"right","response":"right","rt":429,"correct":true,"confidence":1},{"trial_n":62,"n_dots":4.35,"target":"right","response":"right","rt":779,"correct":true,"confidence":1},{"trial_n":63,"n_dots":4.25,"target":"right","response":"right","rt":393.99999999994,"correct":true,"confidence":1},{"trial_n":64,"n_dots":4.25,"target":"right","response":"left","rt":843.99999999994,"correct":false,"confidence":1},{"trial_n":65,"n_dots":4.35,"target":"left","response":"right","rt":1098,"correct":false,"confidence":1},{"trial_n":66,"n_dots":4.45,"target":"left","response":"right","rt":346,"correct":false,"confidence":1},{"trial_n":67,"n_dots":4.55,"target":"right","response":"right","rt":1129,"correct":true,"confidence":1},{"trial_n":68,"n_dots":4.55,"target":"right","response":"right","rt":745,"correct":true,"confidence":1},{"trial_n":69,"n_dots":4.45,"target":"left","response":"left","rt":547,"correct":true,"confidence":1},{"trial_n":70,"n_dots":4.45,"target":"left","response":"left","rt":596,"correct":true,"confidence":1},{"trial_n":71,"n_dots":4.35,"target":"right","response":"right","rt":462,"correct":true,"confidence":1},{"trial_n":72,"n_dots":4.35,"target":"left","response":"left","rt":597,"correct":true,"confidence":1},{"trial_n":73,"n_dots":4.25,"target":"left","response":"left","rt":1361.9999999999,"correct":true,"confidence":3},{"trial_n":74,"n_dots":4.25,"target":"left","response":"left","rt":1245.9999999999,"correct":true,"confidence":2},{"trial_n":75,"n_dots":4.15,"target":"left","response":"left","rt":498,"correct":true,"confidence":1},{"trial_n":76,"n_dots":4.15,"target":"right","response":"left","rt":899,"correct":false,"confidence":1},{"trial_n":77,"n_dots":4.25,"target":"right","response":"left","rt":796,"correct":false,"confidence":1},{"trial_n":78,"n_dots":4.35,"target":"right","response":"left","rt":3549,"correct":false,"confidence":1},{"trial_n":79,"n_dots":4.45,"target":"right","response":"right","rt":499,"correct":true,"confidence":1},{"trial_n":80,"n_dots":4.45,"target":"left","response":"left","rt":5980.9999999999,"correct":true,"confidence":1},{"trial_n":81,"n_dots":4.35,"target":"left","response":"left","rt":351,"correct":true,"confidence":1},{"trial_n":82,"n_dots":4.35,"target":"right","response":"right","rt":1117.0000000001,"correct":true,"confidence":1},{"trial_n":83,"n_dots":4.25,"target":"left","response":"left","rt":1033,"correct":true,"confidence":1},{"trial_n":84,"n_dots":4.25,"target":"right","response":"right","rt":731.99999999988,"correct":true,"confidence":1},{"trial_n":85,"n_dots":4.15,"target":"left","response":"left","rt":1117,"correct":true,"confidence":1},{"trial_n":86,"n_dots":4.15,"target":"left","response":"left","rt":1118,"correct":true,"confidence":1},{"trial_n":87,"n_dots":4.05,"target":"right","response":"right","rt":551,"correct":true,"confidence":1},{"trial_n":88,"n_dots":4.05,"target":"left","response":"left","rt":484,"correct":true,"confidence":1},{"trial_n":89,"n_dots":3.95,"target":"left","response":"left","rt":1283,"correct":true,"confidence":1},{"trial_n":90,"n_dots":3.95,"target":"left","response":"left","rt":968,"correct":true,"confidence":1},{"trial_n":91,"n_dots":3.85,"target":"right","response":"right","rt":618,"correct":true,"confidence":1},{"trial_n":92,"n_dots":3.85,"target":"right","response":"left","rt":401,"correct":false,"confidence":1},{"trial_n":93,"n_dots":3.95,"target":"right","response":"right","rt":968.00000000012,"correct":true,"confidence":1},{"trial_n":94,"n_dots":3.95,"target":"left","response":"left","rt":652,"correct":true,"confidence":1},{"trial_n":95,"n_dots":3.85,"target":"left","response":"left","rt":1333.0000000001,"correct":true,"confidence":1},{"trial_n":96,"n_dots":3.85,"target":"right","response":"right","rt":1285.0000000001,"correct":true,"confidence":1},{"trial_n":97,"n_dots":3.75,"target":"left","response":"left","rt":802.00000000012,"correct":true,"confidence":1},{"trial_n":98,"n_dots":3.75,"target":"right","response":"right","rt":12904,"correct":true,"confidence":1},{"trial_n":99,"n_dots":3.65,"target":"right","response":"right","rt":2286,"correct":true,"confidence":1},{"trial_n":100,"n_dots":3.65,"target":"right","response":"right","rt":1788,"correct":true,"confidence":1},{"trial_n":101,"n_dots":3.55,"target":"left","response":"left","rt":881,"correct":true,"confidence":1},{"trial_n":102,"n_dots":3.55,"target":"left","response":"right","rt":3804,"correct":false,"confidence":1},{"trial_n":103,"n_dots":3.65,"target":"right","response":"right","rt":953.00000000012,"correct":true,"confidence":1},{"trial_n":104,"n_dots":3.65,"target":"left","response":"left","rt":1521,"correct":true,"confidence":1},{"trial_n":105,"n_dots":3.55,"target":"left","response":"left","rt":889,"correct":true,"confidence":1},{"trial_n":106,"n_dots":3.55,"target":"right","response":"right","rt":555.00000000012,"correct":true,"confidence":1},{"trial_n":107,"n_dots":3.45,"target":"left","response":"left","rt":971.99999999988,"correct":true,"confidence":1},{"trial_n":108,"n_dots":3.45,"target":"right","response":"right","rt":439,"correct":true,"confidence":1},{"trial_n":109,"n_dots":3.35,"target":"right","response":"left","rt":974,"correct":false,"confidence":1},{"trial_n":110,"n_dots":3.45,"target":"left","response":"left","rt":889.00000000012,"correct":true,"confidence":1},{"trial_n":111,"n_dots":3.45,"target":"right","response":"left","rt":523,"correct":false,"confidence":1},{"trial_n":112,"n_dots":3.55,"target":"left","response":"left","rt":724,"correct":true,"confidence":1},{"trial_n":113,"n_dots":3.55,"target":"left","response":"left","rt":839,"correct":true,"confidence":1},{"trial_n":114,"n_dots":3.45,"target":"right","response":"right","rt":1405.9999999999,"correct":true,"confidence":1},{"trial_n":115,"n_dots":3.45,"target":"left","response":"right","rt":1754.0000000001,"correct":false,"confidence":1},{"trial_n":116,"n_dots":3.55,"target":"right","response":"right","rt":1275,"correct":true,"confidence":1},{"trial_n":117,"n_dots":3.55,"target":"left","response":"left","rt":524,"correct":true,"confidence":1},{"trial_n":118,"n_dots":3.45,"target":"right","response":"left","rt":724,"correct":false,"confidence":1},{"trial_n":119,"n_dots":3.55,"target":"right","response":"right","rt":959,"correct":true,"confidence":1},{"trial_n":120,"n_dots":3.55,"target":"left","response":"left","rt":692,"correct":true,"confidence":1}]