[{"trial_n":1,"span":8,"encoder":"97223520","distractor":"97923520","target":"present","response":"absent","rt":"4596.6000000238","correct":false,"confidence":-1},{"trial_n":2,"span":6,"encoder":"564649","distractor":"569649","target":"present","response":"present","rt":"2763.1999999881","correct":true,"confidence":-1},{"trial_n":3,"span":6,"encoder":"223780","distractor":"222780","target":"absent","response":"absent","rt":"2758.1999999881","correct":true,"confidence":-1},{"trial_n":4,"span":8,"encoder":"17740056","distractor":"17740556","target":"absent","response":"present","rt":"2549.9000000358","correct":false,"confidence":-1},{"trial_n":5,"span":6,"encoder":"672438","distractor":"642438","target":"present","response":"present","rt":"3337.5","correct":true,"confidence":-1},{"trial_n":6,"span":6,"encoder":"224299","distractor":"224269","target":"present","response":"present","rt":"995.89999997616","correct":true,"confidence":-1},{"trial_n":7,"span":8,"encoder":"65237499","distractor":"65227499","target":"present","response":"absent","rt":"3722.1000000238","correct":false,"confidence":-1},{"trial_n":8,"span":6,"encoder":"833017","distractor":"833077","target":"absent","response":"present","rt":"2019.2000000477","correct":false,"confidence":-1},{"trial_n":9,"span":4,"encoder":"3213","distractor":"1213","target":"absent","response":"present","rt":"2556.5999999642","correct":false,"confidence":-1},{"trial_n":10,"span":2,"encoder":"47","distractor":"87","target":"present","response":"present","rt":"1094.8000000119","correct":true,"confidence":-1},{"trial_n":11,"span":2,"encoder":"61","distractor":"63","target":"absent","response":"absent","rt":"1559.3000000119","correct":true,"confidence":-1},{"trial_n":12,"span":3,"encoder":"061","distractor":"161","target":"present","response":"absent","rt":"3747.3999999762","correct":false,"confidence":-1},{"trial_n":13,"span":2,"encoder":"75","distractor":"79","target":"absent","response":"present","rt":"862.69999998808","correct":false,"confidence":-1},{"trial_n":14,"span":2,"encoder":"64","distractor":"74","target":"present","response":"present","rt":"926.30000001192","correct":true,"confidence":-1},{"trial_n":15,"span":2,"encoder":"40","distractor":"20","target":"present","response":"present","rt":"499.60000002384","correct":true,"confidence":-1},{"trial_n":16,"span":3,"encoder":"415","distractor":"405","target":"absent","response":"absent","rt":"925.69999998808","correct":true,"confidence":-1},{"trial_n":17,"span":3,"encoder":"194","distractor":"191","target":"absent","response":"absent","rt":"1202.5","correct":true,"confidence":-1},{"trial_n":18,"span":4,"encoder":"3925","distractor":"3924","target":"absent","response":"absent","rt":"1178.6000000238","correct":true,"confidence":-1},{"trial_n":19,"span":4,"encoder":"5212","distractor":"5012","target":"present","response":"present","rt":"1202.5999999642","correct":true,"confidence":-1},{"trial_n":20,"span":5,"encoder":"96122","distractor":"95122","target":"present","response":"present","rt":"1175.8000000119","correct":true,"confidence":-1},{"trial_n":21,"span":5,"encoder":"48058","distractor":"48078","target":"absent","response":"absent","rt":"953.80000001192","correct":true,"confidence":4},{"trial_n":22,"span":6,"encoder":"447593","distractor":"448593","target":"present","response":"present","rt":"2003.8000000119","correct":true,"confidence":3},{"trial_n":23,"span":6,"encoder":"482375","distractor":"472375","target":"present","response":"present","rt":"2483.2000000477","correct":true,"confidence":4},{"trial_n":24,"span":7,"encoder":"9774991","distractor":"9771991","target":"present","response":"present","rt":"1820.6999999881","correct":true,"confidence":4},{"trial_n":25,"span":7,"encoder":"2574364","distractor":"2574361","target":"present","response":"present","rt":"2378.8000000119","correct":true,"confidence":3},{"trial_n":26,"span":8,"encoder":"46326421","distractor":"46326425","target":"absent","response":"absent","rt":"1418.5999999642","correct":true,"confidence":5},{"trial_n":27,"span":8,"encoder":"54372677","distractor":"52372677","target":"present","response":"absent","rt":"2880.6999999881","correct":false,"confidence":4},{"trial_n":28,"span":7,"encoder":"2187203","distractor":"2787203","target":"absent","response":"absent","rt":"3071.6999999881","correct":true,"confidence":4},{"trial_n":29,"span":7,"encoder":"4945718","distractor":"4945218","target":"absent","response":"absent","rt":"1910.5999999642","correct":true,"confidence":5},{"trial_n":30,"span":8,"encoder":"12908427","distractor":"12908497","target":"absent","response":"present","rt":"7780.1000000238","correct":false,"confidence":3},{"trial_n":31,"span":7,"encoder":"4177147","distractor":"5177147","target":"present","response":"present","rt":"3717","correct":true,"confidence":3},{"trial_n":32,"span":7,"encoder":"7196848","distractor":"7196841","target":"present","response":"present","rt":"3328.7000000477","correct":true,"confidence":3},{"trial_n":33,"span":8,"encoder":"39016295","distractor":"39016298","target":"present","response":"present","rt":"2328.8999999762","correct":true,"confidence":3},{"trial_n":34,"span":8,"encoder":"24849661","distractor":"24749661","target":"present","response":"present","rt":"3154","correct":true,"confidence":3},{"trial_n":35,"span":9,"encoder":"223956912","distractor":"223953912","target":"absent","response":"absent","rt":"1795.4000000358","correct":true,"confidence":3},{"trial_n":36,"span":9,"encoder":"717293322","distractor":"717293332","target":"present","response":"present","rt":"1487.3999999762","correct":true,"confidence":4},{"trial_n":37,"span":10,"encoder":"7638748632","distractor":"7638048632","target":"absent","response":"absent","rt":"2902.5999999642","correct":true,"confidence":3},{"trial_n":38,"span":10,"encoder":"8859268867","distractor":"8859268467","target":"absent","response":"absent","rt":"1574.6999999881","correct":true,"confidence":3},{"trial_n":39,"span":11,"encoder":"73545157300","distractor":"73545157360","target":"absent","response":"absent","rt":"1414.3999999762","correct":true,"confidence":4},{"trial_n":40,"span":11,"encoder":"15626232189","distractor":"15526232189","target":"absent","response":"present","rt":"1904.2000000477","correct":false,"confidence":3},{"trial_n":41,"span":10,"encoder":"1529013360","distractor":"1522013360","target":"absent","response":"absent","rt":"2755.6999999881","correct":true,"confidence":4},{"trial_n":42,"span":10,"encoder":"0910033078","distractor":"0910093078","target":"absent","response":"absent","rt":"3103","correct":true,"confidence":3},{"trial_n":43,"span":11,"encoder":"02396408576","distractor":"02396408776","target":"absent","response":"absent","rt":"1863.3000000119","correct":true,"confidence":3},{"trial_n":44,"span":11,"encoder":"66648180734","distractor":"66646180734","target":"absent","response":"present","rt":"2709.3999999762","correct":false,"confidence":3},{"trial_n":45,"span":10,"encoder":"5334110890","distractor":"5334110990","target":"absent","response":"absent","rt":"2495.6999999881","correct":true,"confidence":5},{"trial_n":46,"span":10,"encoder":"6855589962","distractor":"6855579962","target":"present","response":"present","rt":"1997.8999999762","correct":true,"confidence":3},{"trial_n":47,"span":11,"encoder":"77702530791","distractor":"77702430791","target":"present","response":"present","rt":"6584.4000000358","correct":true,"confidence":3},{"trial_n":48,"span":11,"encoder":"01969809001","distractor":"00969809001","target":"absent","response":"present","rt":"2936.6000000238","correct":false,"confidence":3},{"trial_n":49,"span":10,"encoder":"8198289333","distractor":"8108289333","target":"present","response":"present","rt":"2053.5","correct":true,"confidence":3},{"trial_n":50,"span":10,"encoder":"3910335589","distractor":"3910336589","target":"present","response":"present","rt":"1582.6999999881","correct":true,"confidence":2},{"trial_n":51,"span":11,"encoder":"55721996889","distractor":"55721996849","target":"present","response":"absent","rt":"3072.5","correct":false,"confidence":3},{"trial_n":52,"span":10,"encoder":"6452965154","distractor":"6452935154","target":"present","response":"absent","rt":"2673","correct":false,"confidence":5},{"trial_n":53,"span":9,"encoder":"991591337","distractor":"991591339","target":"absent","response":"present","rt":"3000.8000000119","correct":false,"confidence":4},{"trial_n":54,"span":8,"encoder":"91398938","distractor":"91388938","target":"absent","response":"present","rt":"2154.6000000238","correct":false,"confidence":3},{"trial_n":55,"span":7,"encoder":"6332809","distractor":"6339809","target":"absent","response":"absent","rt":"2019","correct":true,"confidence":5},{"trial_n":56,"span":7,"encoder":"4398419","distractor":"4798419","target":"absent","response":"present","rt":"2640.8000000119","correct":false,"confidence":3},{"trial_n":57,"span":6,"encoder":"248750","distractor":"248755","target":"present","response":"present","rt":"3698.4000000358","correct":true,"confidence":3},{"trial_n":58,"span":6,"encoder":"802061","distractor":"803061","target":"present","response":"present","rt":"1618.8000000119","correct":true,"confidence":4},{"trial_n":59,"span":7,"encoder":"4854425","distractor":"4054425","target":"present","response":"present","rt":"2302.9000000358","correct":true,"confidence":4},{"trial_n":60,"span":7,"encoder":"9708887","distractor":"9708883","target":"present","response":"present","rt":"2125.3000000119","correct":true,"confidence":5},{"trial_n":61,"span":8,"encoder":"35325777","distractor":"35325775","target":"present","response":"present","rt":"3018.2000000477","correct":true,"confidence":4},{"trial_n":62,"span":8,"encoder":"59808449","distractor":"59808149","target":"absent","response":"absent","rt":"1980.3000000119","correct":true,"confidence":4},{"trial_n":63,"span":9,"encoder":"915153383","distractor":"915153323","target":"absent","response":"present","rt":"2003","correct":false,"confidence":3},{"trial_n":64,"span":8,"encoder":"28978380","distractor":"20978380","target":"absent","response":"present","rt":"2303.9000000358","correct":false,"confidence":3},{"trial_n":65,"span":7,"encoder":"6192619","distractor":"6102619","target":"present","response":"absent","rt":"3860.5","correct":false,"confidence":3},{"trial_n":66,"span":6,"encoder":"755291","distractor":"755791","target":"absent","response":"absent","rt":"2101.6999999881","correct":true,"confidence":4},{"trial_n":67,"span":6,"encoder":"846292","distractor":"846290","target":"present","response":"present","rt":"1292.4000000358","correct":true,"confidence":3},{"trial_n":68,"span":7,"encoder":"6109919","distractor":"6109019","target":"present","response":"present","rt":"1809","correct":true,"confidence":3},{"trial_n":69,"span":7,"encoder":"5208877","distractor":"5608877","target":"absent","response":"absent","rt":"2742.5999999642","correct":true,"confidence":3},{"trial_n":70,"span":8,"encoder":"15768503","distractor":"15768553","target":"present","response":"absent","rt":"1898.5","correct":false,"confidence":3},{"trial_n":71,"span":8,"encoder":"66118329","distractor":"66118929","target":"present","response":"present","rt":"13827.100000024","correct":true,"confidence":-1},{"trial_n":72,"span":8,"encoder":"38177388","distractor":"38137388","target":"present","response":"absent","rt":"1205","correct":false,"confidence":-1},{"trial_n":73,"span":7,"encoder":"4043443","distractor":"4063443","target":"absent","response":"absent","rt":"912.5","correct":true,"confidence":-1},{"trial_n":74,"span":7,"encoder":"1231344","distractor":"1131344","target":"absent","response":"absent","rt":"5926.5","correct":true,"confidence":-1},{"trial_n":75,"span":8,"encoder":"79023677","distractor":"79026677","target":"present","response":"present","rt":"1511.8000000119","correct":true,"confidence":-1},{"trial_n":76,"span":8,"encoder":"56167665","distractor":"56167635","target":"present","response":"present","rt":"1173.4000000358","correct":true,"confidence":-1},{"trial_n":77,"span":9,"encoder":"834950464","distractor":"874950464","target":"present","response":"absent","rt":"3984.7999999523","correct":false,"confidence":-1},{"trial_n":78,"span":8,"encoder":"82552501","distractor":"32552501","target":"present","response":"absent","rt":"3498.9000000358","correct":false,"confidence":-1},{"trial_n":79,"span":7,"encoder":"3563011","distractor":"3563018","target":"present","response":"present","rt":"691.80000001192","correct":true,"confidence":-1},{"trial_n":80,"span":7,"encoder":"1301915","distractor":"1303915","target":"absent","response":"absent","rt":"495.39999997616","correct":true,"confidence":-1},{"trial_n":81,"span":8,"encoder":"61866728","distractor":"61862728","target":"absent","response":"absent","rt":"344.29999995232","correct":true,"confidence":-1},{"trial_n":82,"span":8,"encoder":"02364720","distractor":"02164720","target":"present","response":"absent","rt":"345","correct":false,"confidence":-1},{"trial_n":83,"span":7,"encoder":"1055919","distractor":"1555919","target":"present","response":"absent","rt":"612.30000001192","correct":false,"confidence":-1},{"trial_n":84,"span":6,"encoder":"340551","distractor":"340571","target":"absent","response":"absent","rt":"390.19999998808","correct":true,"confidence":-1},{"trial_n":85,"span":6,"encoder":"586565","distractor":"586765","target":"absent","response":"present","rt":"358.5","correct":false,"confidence":-1},{"trial_n":86,"span":5,"encoder":"48964","distractor":"58964","target":"absent","response":"absent","rt":"3624.6999999881","correct":true,"confidence":-1},{"trial_n":87,"span":5,"encoder":"08549","distractor":"88549","target":"absent","response":"absent","rt":"2564.5","correct":true,"confidence":-1},{"trial_n":88,"span":6,"encoder":"602083","distractor":"604083","target":"present","response":"present","rt":"1752.6999999881","correct":true,"confidence":-1},{"trial_n":89,"span":6,"encoder":"228331","distractor":"222331","target":"present","response":"present","rt":"1677.2999999523","correct":true,"confidence":-1},{"trial_n":90,"span":7,"encoder":"0595100","distractor":"9595100","target":"absent","response":"present","rt":"2861.6999999881","correct":false,"confidence":-1},{"trial_n":91,"span":6,"encoder":"909976","distractor":"939976","target":"absent","response":"absent","rt":"459.10000002384","correct":true,"confidence":3},{"trial_n":92,"span":6,"encoder":"445681","distractor":"445688","target":"absent","response":"absent","rt":"3031.2000000477","correct":true,"confidence":3},{"trial_n":93,"span":7,"encoder":"1105849","distractor":"1105842","target":"present","response":"present","rt":"5484.1999999881","correct":true,"confidence":3},{"trial_n":94,"span":7,"encoder":"4548141","distractor":"4598141","target":"present","response":"absent","rt":"1966.1000000238","correct":false,"confidence":1},{"trial_n":95,"span":6,"encoder":"667259","distractor":"667859","target":"absent","response":"absent","rt":"2095.0999999642","correct":true,"confidence":1},{"trial_n":96,"span":6,"encoder":"224199","distractor":"124199","target":"present","response":"present","rt":"5406.7000000477","correct":true,"confidence":3},{"trial_n":97,"span":7,"encoder":"4883564","distractor":"4883567","target":"present","response":"present","rt":"3735","correct":true,"confidence":4},{"trial_n":98,"span":7,"encoder":"8944206","distractor":"8944306","target":"present","response":"present","rt":"3113.8999999762","correct":true,"confidence":2},{"trial_n":99,"span":8,"encoder":"10204578","distractor":"10204678","target":"present","response":"present","rt":"3939.9000000358","correct":true,"confidence":4},{"trial_n":100,"span":8,"encoder":"19302269","distractor":"19302369","target":"present","response":"present","rt":"2357.3999999762","correct":true,"confidence":4},{"trial_n":101,"span":9,"encoder":"205807220","distractor":"805807220","target":"absent","response":"absent","rt":"2593.9000000358","correct":true,"confidence":5},{"trial_n":102,"span":9,"encoder":"759235512","distractor":"759285512","target":"absent","response":"absent","rt":"6130.8000000119","correct":true,"confidence":2},{"trial_n":103,"span":10,"encoder":"3520275205","distractor":"3520275203","target":"present","response":"absent","rt":"2616.7000000477","correct":false,"confidence":2},{"trial_n":104,"span":9,"encoder":"545932889","distractor":"542932889","target":"absent","response":"absent","rt":"9379.8000000119","correct":true,"confidence":4},{"trial_n":105,"span":9,"encoder":"087608549","distractor":"084608549","target":"present","response":"absent","rt":"2528.9000000358","correct":false,"confidence":1},{"trial_n":106,"span":8,"encoder":"99165965","distractor":"99165925","target":"present","response":"present","rt":"2524.1999999881","correct":true,"confidence":5},{"trial_n":107,"span":8,"encoder":"00578862","distractor":"00518862","target":"present","response":"present","rt":"4774.1999999881","correct":true,"confidence":4},{"trial_n":108,"span":9,"encoder":"079497908","distractor":"079493908","target":"absent","response":"absent","rt":"5919.7000000477","correct":true,"confidence":4},{"trial_n":109,"span":9,"encoder":"352600982","distractor":"359600982","target":"absent","response":"absent","rt":"5933.1999999881","correct":true,"confidence":3},{"trial_n":110,"span":10,"encoder":"9487780890","distractor":"9487780891","target":"present","response":"present","rt":"1926.5999999642","correct":true,"confidence":5},{"trial_n":111,"span":10,"encoder":"8165601902","distractor":"8165601909","target":"absent","response":"present","rt":"2574","correct":false,"confidence":5},{"trial_n":112,"span":9,"encoder":"783221432","distractor":"783521432","target":"absent","response":"present","rt":"2375.3000000119","correct":false,"confidence":1},{"trial_n":113,"span":8,"encoder":"59967811","distractor":"59967881","target":"present","response":"present","rt":"1714.5","correct":true,"confidence":4},{"trial_n":114,"span":8,"encoder":"41587043","distractor":"41577043","target":"absent","response":"absent","rt":"2898.5","correct":true,"confidence":2},{"trial_n":115,"span":9,"encoder":"428356770","distractor":"728356770","target":"present","response":"absent","rt":"3179.8000000119","correct":false,"confidence":1},{"trial_n":116,"span":8,"encoder":"46481566","distractor":"46488566","target":"absent","response":"present","rt":"5923.6000000238","correct":false,"confidence":3},{"trial_n":117,"span":7,"encoder":"3250270","distractor":"3250240","target":"present","response":"present","rt":"3194","correct":true,"confidence":3},{"trial_n":118,"span":7,"encoder":"1635019","distractor":"7635019","target":"absent","response":"present","rt":"2179.0999999642","correct":false,"confidence":2},{"trial_n":119,"span":6,"encoder":"970913","distractor":"970993","target":"absent","response":"absent","rt":"4321.3000000119","correct":true,"confidence":4},{"trial_n":120,"span":6,"encoder":"354344","distractor":"054344","target":"present","response":"present","rt":"4798.0999999642","correct":true,"confidence":3},{"trial_n":121,"span":7,"encoder":"9104072","distractor":"9109072","target":"absent","response":"absent","rt":"1857.5","correct":true,"confidence":5},{"trial_n":122,"span":7,"encoder":"7722844","distractor":"7702844","target":"absent","response":"absent","rt":"1555.0999999642","correct":true,"confidence":5},{"trial_n":123,"span":8,"encoder":"54694600","distractor":"54614600","target":"present","response":"present","rt":"2044.3000000119","correct":true,"confidence":4},{"trial_n":124,"span":8,"encoder":"51371784","distractor":"31371784","target":"present","response":"present","rt":"1987","correct":true,"confidence":4},{"trial_n":125,"span":9,"encoder":"133962025","distractor":"133962225","target":"absent","response":"absent","rt":"3098.1000000238","correct":true,"confidence":4},{"trial_n":126,"span":9,"encoder":"581708055","distractor":"585708055","target":"present","response":"present","rt":"1660.8000000119","correct":true,"confidence":4},{"trial_n":127,"span":10,"encoder":"4032636935","distractor":"4032666935","target":"present","response":"present","rt":"7073.3999999762","correct":true,"confidence":3},{"trial_n":128,"span":10,"encoder":"5417294861","distractor":"5417294761","target":"present","response":"present","rt":"2776.8999999762","correct":true,"confidence":4},{"trial_n":129,"span":11,"encoder":"59564084498","distractor":"49564084498","target":"present","response":"present","rt":"1950.8000000119","correct":true,"confidence":4},{"trial_n":130,"span":11,"encoder":"90653141373","distractor":"90653141376","target":"absent","response":"present","rt":"5162.1999999881","correct":false,"confidence":2},{"trial_n":131,"span":10,"encoder":"6760740511","distractor":"6765740511","target":"absent","response":"absent","rt":"3548.5","correct":true,"confidence":4},{"trial_n":132,"span":10,"encoder":"9334007778","distractor":"9334097778","target":"absent","response":"present","rt":"4640.6000000238","correct":false,"confidence":2},{"trial_n":133,"span":9,"encoder":"125126035","distractor":"825126035","target":"absent","response":"absent","rt":"1206.6000000238","correct":true,"confidence":4},{"trial_n":134,"span":9,"encoder":"013383482","distractor":"013385482","target":"absent","response":"absent","rt":"4132.3000000119","correct":true,"confidence":4},{"trial_n":135,"span":10,"encoder":"3559340834","distractor":"3559343834","target":"present","response":"present","rt":"2169.5","correct":true,"confidence":2},{"trial_n":136,"span":10,"encoder":"8764767222","distractor":"8764747222","target":"absent","response":"present","rt":"3809.9000000358","correct":false,"confidence":2},{"trial_n":137,"span":9,"encoder":"007553794","distractor":"007553795","target":"present","response":"present","rt":"1909.7000000477","correct":true,"confidence":5},{"trial_n":138,"span":9,"encoder":"289927390","distractor":"285927390","target":"absent","response":"absent","rt":"3108.6999999881","correct":true,"confidence":3},{"trial_n":139,"span":10,"encoder":"9063780045","distractor":"9063780545","target":"absent","response":"absent","rt":"2600.5999999642","correct":true,"confidence":4},{"trial_n":140,"span":10,"encoder":"9451011938","distractor":"9421011938","target":"present","response":"present","rt":"2703.6999999881","correct":true,"confidence":4}]