[{"trial_n":1,"n_dots":4.25,"target":"right","response":"left","rt":759.89999997616,"correct":false,"confidence":-1},{"trial_n":2,"n_dots":4.25,"target":"right","response":"right","rt":362,"correct":true,"confidence":-1},{"trial_n":3,"n_dots":4.25,"target":"left","response":"left","rt":418.89999997616,"correct":true,"confidence":-1},{"trial_n":4,"n_dots":3.85,"target":"left","response":"left","rt":409.90000003576,"correct":true,"confidence":-1},{"trial_n":5,"n_dots":3.85,"target":"right","response":"right","rt":715.69999998808,"correct":true,"confidence":-1},{"trial_n":6,"n_dots":3.45,"target":"left","response":"left","rt":312.59999996424,"correct":true,"confidence":-1},{"trial_n":7,"n_dots":3.45,"target":"left","response":"left","rt":131.5,"correct":true,"confidence":-1},{"trial_n":8,"n_dots":3.25,"target":"right","response":"left","rt":194.39999997616,"correct":false,"confidence":-1},{"trial_n":9,"n_dots":3.45,"target":"left","response":"left","rt":448.30000001192,"correct":true,"confidence":-1},{"trial_n":10,"n_dots":3.45,"target":"left","response":"left","rt":1265.2999999523,"correct":true,"confidence":-1},{"trial_n":11,"n_dots":3.25,"target":"right","response":"right","rt":6900.5,"correct":true,"confidence":-1},{"trial_n":12,"n_dots":3.25,"target":"left","response":"left","rt":1875.8000000119,"correct":true,"confidence":-1},{"trial_n":13,"n_dots":3.15,"target":"right","response":"right","rt":544.39999997616,"correct":true,"confidence":-1},{"trial_n":14,"n_dots":3.15,"target":"right","response":"right","rt":807,"correct":true,"confidence":-1},{"trial_n":15,"n_dots":3.05,"target":"left","response":"right","rt":497.10000002384,"correct":false,"confidence":-1},{"trial_n":16,"n_dots":3.15,"target":"right","response":"left","rt":685.30000001192,"correct":false,"confidence":-1},{"trial_n":17,"n_dots":3.25,"target":"left","response":"left","rt":1466,"correct":true,"confidence":-1},{"trial_n":18,"n_dots":3.25,"target":"left","response":"left","rt":1151.8000000119,"correct":true,"confidence":-1},{"trial_n":19,"n_dots":3.15,"target":"left","response":"right","rt":317.5,"correct":false,"confidence":-1},{"trial_n":20,"n_dots":3.25,"target":"left","response":"left","rt":964.40000003576,"correct":true,"confidence":-1},{"trial_n":21,"n_dots":3.25,"target":"right","response":"left","rt":668.69999998808,"correct":false,"confidence":5},{"trial_n":22,"n_dots":3.35,"target":"left","response":"left","rt":433.5,"correct":true,"confidence":1},{"trial_n":23,"n_dots":3.35,"target":"left","response":"left","rt":455.09999996424,"correct":true,"confidence":2},{"trial_n":24,"n_dots":3.25,"target":"left","response":"right","rt":390.39999997616,"correct":false,"confidence":2},{"trial_n":25,"n_dots":3.35,"target":"right","response":"right","rt":610.5,"correct":true,"confidence":4},{"trial_n":26,"n_dots":3.35,"target":"right","response":"right","rt":564.80000001192,"correct":true,"confidence":3},{"trial_n":27,"n_dots":3.25,"target":"right","response":"right","rt":536,"correct":true,"confidence":3},{"trial_n":28,"n_dots":3.25,"target":"right","response":"right","rt":604,"correct":true,"confidence":3},{"trial_n":29,"n_dots":3.15,"target":"left","response":"right","rt":685.19999998808,"correct":false,"confidence":3},{"trial_n":30,"n_dots":3.25,"target":"right","response":"right","rt":836.10000002384,"correct":true,"confidence":3},{"trial_n":31,"n_dots":3.25,"target":"left","response":"left","rt":611.80000001192,"correct":true,"confidence":2},{"trial_n":32,"n_dots":3.15,"target":"right","response":"right","rt":374,"correct":true,"confidence":3},{"trial_n":33,"n_dots":3.15,"target":"right","response":"right","rt":712.79999995232,"correct":true,"confidence":3},{"trial_n":34,"n_dots":3.05,"target":"right","response":"right","rt":1419.8000000119,"correct":true,"confidence":3},{"trial_n":35,"n_dots":3.05,"target":"left","response":"right","rt":996.70000004768,"correct":false,"confidence":3},{"trial_n":36,"n_dots":3.15,"target":"right","response":"right","rt":556.10000002384,"correct":true,"confidence":2},{"trial_n":37,"n_dots":3.15,"target":"right","response":"right","rt":717,"correct":true,"confidence":3},{"trial_n":38,"n_dots":3.05,"target":"left","response":"left","rt":1454.3000000119,"correct":true,"confidence":2},{"trial_n":39,"n_dots":3.05,"target":"right","response":"right","rt":472.69999998808,"correct":true,"confidence":3},{"trial_n":40,"n_dots":2.95,"target":"right","response":"right","rt":1165.8999999762,"correct":true,"confidence":3},{"trial_n":41,"n_dots":2.95,"target":"right","response":"right","rt":708.20000004768,"correct":true,"confidence":2},{"trial_n":42,"n_dots":2.85,"target":"left","response":"left","rt":483.40000003576,"correct":true,"confidence":4},{"trial_n":43,"n_dots":2.85,"target":"left","response":"right","rt":1161.7999999523,"correct":false,"confidence":2},{"trial_n":44,"n_dots":2.95,"target":"left","response":"right","rt":1009.3999999762,"correct":false,"confidence":2},{"trial_n":45,"n_dots":3.05,"target":"right","response":"left","rt":721.29999995232,"correct":false,"confidence":4},{"trial_n":46,"n_dots":3.15,"target":"right","response":"right","rt":614.39999997616,"correct":true,"confidence":3},{"trial_n":47,"n_dots":3.15,"target":"right","response":"left","rt":672.29999995232,"correct":false,"confidence":4},{"trial_n":48,"n_dots":3.25,"target":"right","response":"left","rt":1396.8999999762,"correct":false,"confidence":3},{"trial_n":49,"n_dots":3.35,"target":"left","response":"left","rt":765.5,"correct":true,"confidence":3},{"trial_n":50,"n_dots":3.35,"target":"right","response":"left","rt":524.40000003576,"correct":false,"confidence":3},{"trial_n":51,"n_dots":3.45,"target":"left","response":"left","rt":432.80000001192,"correct":true,"confidence":3},{"trial_n":52,"n_dots":3.45,"target":"left","response":"left","rt":725,"correct":true,"confidence":2},{"trial_n":53,"n_dots":3.35,"target":"right","response":"right","rt":799,"correct":true,"confidence":3},{"trial_n":54,"n_dots":3.35,"target":"left","response":"left","rt":1143.6999999881,"correct":true,"confidence":4},{"trial_n":55,"n_dots":3.25,"target":"left","response":"left","rt":382.30000001192,"correct":true,"confidence":4},{"trial_n":56,"n_dots":3.25,"target":"left","response":"left","rt":591.10000002384,"correct":true,"confidence":4},{"trial_n":57,"n_dots":3.15,"target":"right","response":"right","rt":632.59999996424,"correct":true,"confidence":3},{"trial_n":58,"n_dots":3.15,"target":"left","response":"left","rt":1404,"correct":true,"confidence":3},{"trial_n":59,"n_dots":3.05,"target":"right","response":"left","rt":363.80000001192,"correct":false,"confidence":2},{"trial_n":60,"n_dots":3.15,"target":"left","response":"left","rt":360.39999997616,"correct":true,"confidence":4},{"trial_n":61,"n_dots":3.15,"target":"right","response":"left","rt":607.59999996424,"correct":false,"confidence":4},{"trial_n":62,"n_dots":3.25,"target":"right","response":"left","rt":149.19999998808,"correct":false,"confidence":4},{"trial_n":63,"n_dots":3.35,"target":"right","response":"left","rt":428.30000001192,"correct":false,"confidence":3},{"trial_n":64,"n_dots":3.45,"target":"right","response":"right","rt":1254.5,"correct":true,"confidence":3},{"trial_n":65,"n_dots":3.45,"target":"left","response":"left","rt":475.70000004768,"correct":true,"confidence":4},{"trial_n":66,"n_dots":3.35,"target":"right","response":"left","rt":226.89999997616,"correct":false,"confidence":3},{"trial_n":67,"n_dots":3.45,"target":"left","response":"left","rt":419.5,"correct":true,"confidence":3},{"trial_n":68,"n_dots":3.45,"target":"right","response":"left","rt":521.39999997616,"correct":false,"confidence":2},{"trial_n":69,"n_dots":3.55,"target":"left","response":"left","rt":361.69999998808,"correct":true,"confidence":3},{"trial_n":70,"n_dots":3.55,"target":"left","response":"left","rt":335.09999996424,"correct":true,"confidence":4},{"trial_n":71,"n_dots":3.45,"target":"left","response":"left","rt":654.20000004768,"correct":true,"confidence":3},{"trial_n":72,"n_dots":3.45,"target":"right","response":"right","rt":801,"correct":true,"confidence":3},{"trial_n":73,"n_dots":3.35,"target":"right","response":"right","rt":525.5,"correct":true,"confidence":4},{"trial_n":74,"n_dots":3.35,"target":"right","response":"right","rt":185.09999996424,"correct":true,"confidence":4},{"trial_n":75,"n_dots":3.25,"target":"right","response":"right","rt":891,"correct":true,"confidence":2},{"trial_n":76,"n_dots":3.25,"target":"right","response":"right","rt":684.60000002384,"correct":true,"confidence":4},{"trial_n":77,"n_dots":3.15,"target":"left","response":"left","rt":729.90000003576,"correct":true,"confidence":3},{"trial_n":78,"n_dots":3.15,"target":"left","response":"left","rt":829.80000001192,"correct":true,"confidence":4},{"trial_n":79,"n_dots":3.05,"target":"right","response":"left","rt":1399.3999999762,"correct":false,"confidence":2},{"trial_n":80,"n_dots":3.15,"target":"left","response":"left","rt":678.30000001192,"correct":true,"confidence":3},{"trial_n":81,"n_dots":3.15,"target":"right","response":"left","rt":662.69999998808,"correct":false,"confidence":3},{"trial_n":82,"n_dots":3.25,"target":"left","response":"right","rt":698.80000001192,"correct":false,"confidence":4},{"trial_n":83,"n_dots":3.35,"target":"right","response":"left","rt":474.90000003576,"correct":false,"confidence":4},{"trial_n":84,"n_dots":3.45,"target":"left","response":"left","rt":451.59999996424,"correct":true,"confidence":3},{"trial_n":85,"n_dots":3.45,"target":"right","response":"right","rt":354.39999997616,"correct":true,"confidence":3},{"trial_n":86,"n_dots":3.35,"target":"right","response":"left","rt":963.80000001192,"correct":false,"confidence":3},{"trial_n":87,"n_dots":3.45,"target":"right","response":"right","rt":340.5,"correct":true,"confidence":4},{"trial_n":88,"n_dots":3.45,"target":"left","response":"right","rt":777.80000001192,"correct":false,"confidence":3},{"trial_n":89,"n_dots":3.55,"target":"right","response":"left","rt":1015.7999999523,"correct":false,"confidence":3},{"trial_n":90,"n_dots":3.65,"target":"left","response":"left","rt":901.40000003576,"correct":true,"confidence":3},{"trial_n":91,"n_dots":3.65,"target":"left","response":"left","rt":659.30000001192,"correct":true,"confidence":3},{"trial_n":92,"n_dots":3.55,"target":"left","response":"left","rt":559.60000002384,"correct":true,"confidence":4},{"trial_n":93,"n_dots":3.55,"target":"right","response":"right","rt":288.80000001192,"correct":true,"confidence":4},{"trial_n":94,"n_dots":3.45,"target":"left","response":"left","rt":382.30000001192,"correct":true,"confidence":4},{"trial_n":95,"n_dots":3.45,"target":"right","response":"right","rt":365.09999996424,"correct":true,"confidence":4},{"trial_n":96,"n_dots":3.35,"target":"right","response":"right","rt":634.59999996424,"correct":true,"confidence":4},{"trial_n":97,"n_dots":3.35,"target":"left","response":"left","rt":1558.3000000119,"correct":true,"confidence":4},{"trial_n":98,"n_dots":3.25,"target":"left","response":"left","rt":869.5,"correct":true,"confidence":4},{"trial_n":99,"n_dots":3.25,"target":"left","response":"left","rt":732.5,"correct":true,"confidence":4},{"trial_n":100,"n_dots":3.15,"target":"left","response":"right","rt":793.40000003576,"correct":false,"confidence":4},{"trial_n":101,"n_dots":3.25,"target":"left","response":"left","rt":728.60000002384,"correct":true,"confidence":3},{"trial_n":102,"n_dots":3.25,"target":"right","response":"right","rt":1753.6000000238,"correct":true,"confidence":2},{"trial_n":103,"n_dots":3.15,"target":"left","response":"left","rt":403.69999998808,"correct":true,"confidence":4},{"trial_n":104,"n_dots":3.15,"target":"right","response":"right","rt":459.59999996424,"correct":true,"confidence":4},{"trial_n":105,"n_dots":3.05,"target":"right","response":"right","rt":788.60000002384,"correct":true,"confidence":4},{"trial_n":106,"n_dots":3.05,"target":"right","response":"right","rt":884.40000003576,"correct":true,"confidence":3},{"trial_n":107,"n_dots":2.95,"target":"right","response":"left","rt":631.69999998808,"correct":false,"confidence":3},{"trial_n":108,"n_dots":3.05,"target":"left","response":"left","rt":509.69999998808,"correct":true,"confidence":3},{"trial_n":109,"n_dots":3.05,"target":"left","response":"right","rt":1009.9000000358,"correct":false,"confidence":2},{"trial_n":110,"n_dots":3.15,"target":"left","response":"left","rt":461.30000001192,"correct":true,"confidence":4},{"trial_n":111,"n_dots":3.15,"target":"left","response":"left","rt":342.69999998808,"correct":true,"confidence":3},{"trial_n":112,"n_dots":3.05,"target":"left","response":"left","rt":228.69999998808,"correct":true,"confidence":3},{"trial_n":113,"n_dots":3.05,"target":"right","response":"right","rt":540.40000003576,"correct":true,"confidence":4},{"trial_n":114,"n_dots":2.95,"target":"left","response":"left","rt":814.80000001192,"correct":true,"confidence":3},{"trial_n":115,"n_dots":2.95,"target":"left","response":"right","rt":950.90000003576,"correct":false,"confidence":2},{"trial_n":116,"n_dots":3.05,"target":"right","response":"right","rt":572.5,"correct":true,"confidence":3},{"trial_n":117,"n_dots":3.05,"target":"right","response":"right","rt":460.90000003576,"correct":true,"confidence":3},{"trial_n":118,"n_dots":2.95,"target":"right","response":"left","rt":419,"correct":false,"confidence":4},{"trial_n":119,"n_dots":3.05,"target":"left","response":"right","rt":861.89999997616,"correct":false,"confidence":4},{"trial_n":120,"n_dots":3.15,"target":"left","response":"left","rt":852.19999998808,"correct":true,"confidence":2}]