[{"trial_n":1,"min":25,"max":230,"target":"present","response":"present","rt":3870.1000000238,"correct":true,"confidence":-1},{"trial_n":2,"min":25,"max":230,"target":"present","response":"present","rt":3128.8000000715,"correct":true,"confidence":-1},{"trial_n":3,"min":41,"max":214,"target":"absent","response":"absent","rt":2050.8999999762,"correct":true,"confidence":-1},{"trial_n":4,"min":41,"max":214,"target":"absent","response":"absent","rt":890.20000004768,"correct":true,"confidence":-1},{"trial_n":5,"min":57,"max":198,"target":"present","response":"present","rt":602.20000004768,"correct":true,"confidence":-1},{"trial_n":6,"min":57,"max":198,"target":"present","response":"absent","rt":164.69999992847,"correct":false,"confidence":-1},{"trial_n":7,"min":41,"max":214,"target":"absent","response":"present","rt":20.100000023842,"correct":false,"confidence":-1},{"trial_n":8,"min":25,"max":230,"target":"absent","response":"present","rt":578.20000004768,"correct":false,"confidence":-1},{"trial_n":9,"min":9,"max":246,"target":"absent","response":"absent","rt":57.899999976158,"correct":true,"confidence":-1},{"trial_n":10,"min":9,"max":246,"target":"absent","response":"absent","rt":80.100000023842,"correct":true,"confidence":-1},{"trial_n":11,"min":17,"max":238,"target":"present","response":"present","rt":66.800000071526,"correct":true,"confidence":-1},{"trial_n":12,"min":17,"max":238,"target":"absent","response":"absent","rt":161.39999997616,"correct":true,"confidence":-1},{"trial_n":13,"min":25,"max":230,"target":"present","response":"present","rt":70.5,"correct":true,"confidence":-1},{"trial_n":14,"min":25,"max":230,"target":"absent","response":"absent","rt":136.29999995232,"correct":true,"confidence":-1},{"trial_n":15,"min":33,"max":222,"target":"present","response":"present","rt":452.39999997616,"correct":true,"confidence":-1},{"trial_n":16,"min":33,"max":222,"target":"present","response":"absent","rt":38.299999952316,"correct":false,"confidence":-1},{"trial_n":17,"min":25,"max":230,"target":"present","response":"present","rt":282,"correct":true,"confidence":-1},{"trial_n":18,"min":25,"max":230,"target":"absent","response":"present","rt":86.899999976158,"correct":false,"confidence":-1},{"trial_n":19,"min":17,"max":238,"target":"absent","response":"present","rt":111.39999997616,"correct":false,"confidence":-1},{"trial_n":20,"min":9,"max":246,"target":"absent","response":"present","rt":153.79999995232,"correct":false,"confidence":-1},{"trial_n":21,"min":5,"max":250,"target":"present","response":"present","rt":351.20000004768,"correct":true,"confidence":3},{"trial_n":22,"min":5,"max":250,"target":"present","response":"absent","rt":606,"correct":false,"confidence":3},{"trial_n":23,"min":1,"max":254,"target":"present","response":"absent","rt":58,"correct":false,"confidence":1},{"trial_n":24,"min":0,"max":255,"target":"present","response":"present","rt":293.20000004768,"correct":true,"confidence":1},{"trial_n":25,"min":0,"max":255,"target":"absent","response":"present","rt":169.5,"correct":false,"confidence":1},{"trial_n":26,"min":0,"max":255,"target":"absent","response":"absent","rt":205,"correct":true,"confidence":1},{"trial_n":27,"min":0,"max":255,"target":"absent","response":"present","rt":309.40000009537,"correct":false,"confidence":1},{"trial_n":28,"min":0,"max":255,"target":"present","response":"absent","rt":56.799999952316,"correct":false,"confidence":1},{"trial_n":29,"min":0,"max":255,"target":"present","response":"absent","rt":155.79999995232,"correct":false,"confidence":1},{"trial_n":30,"min":0,"max":255,"target":"present","response":"absent","rt":87.600000023842,"correct":false,"confidence":1},{"trial_n":31,"min":0,"max":255,"target":"absent","response":"present","rt":166.39999997616,"correct":false,"confidence":1},{"trial_n":32,"min":0,"max":255,"target":"absent","response":"absent","rt":640.60000002384,"correct":true,"confidence":1},{"trial_n":33,"min":0,"max":255,"target":"present","response":"present","rt":74.600000023842,"correct":true,"confidence":1},{"trial_n":34,"min":2,"max":253,"target":"present","response":"absent","rt":227.39999997616,"correct":false,"confidence":1},{"trial_n":35,"min":0,"max":255,"target":"absent","response":"present","rt":54.600000023842,"correct":false,"confidence":1},{"trial_n":36,"min":0,"max":255,"target":"absent","response":"absent","rt":69.299999952316,"correct":true,"confidence":1},{"trial_n":37,"min":0,"max":255,"target":"absent","response":"present","rt":343.59999990463,"correct":false,"confidence":1},{"trial_n":38,"min":0,"max":255,"target":"present","response":"absent","rt":133.79999995232,"correct":false,"confidence":1},{"trial_n":39,"min":0,"max":255,"target":"present","response":"present","rt":49.100000023842,"correct":true,"confidence":1},{"trial_n":40,"min":0,"max":255,"target":"present","response":"present","rt":529.5,"correct":true,"confidence":1},{"trial_n":41,"min":1,"max":254,"target":"present","response":"absent","rt":3018.5,"correct":false,"confidence":1},{"trial_n":42,"min":0,"max":255,"target":"absent","response":"absent","rt":1224.1999999285,"correct":true,"confidence":1},{"trial_n":43,"min":0,"max":255,"target":"absent","response":"present","rt":1063.5,"correct":false,"confidence":1},{"trial_n":44,"min":0,"max":255,"target":"present","response":"present","rt":182.29999995232,"correct":true,"confidence":1},{"trial_n":45,"min":0,"max":255,"target":"absent","response":"present","rt":90.699999928474,"correct":false,"confidence":1},{"trial_n":46,"min":0,"max":255,"target":"present","response":"absent","rt":179.89999997616,"correct":false,"confidence":1},{"trial_n":47,"min":0,"max":255,"target":"present","response":"absent","rt":49.400000095367,"correct":false,"confidence":1},{"trial_n":48,"min":0,"max":255,"target":"present","response":"absent","rt":676.60000002384,"correct":false,"confidence":1},{"trial_n":49,"min":0,"max":255,"target":"present","response":"absent","rt":341.89999997616,"correct":false,"confidence":1},{"trial_n":50,"min":0,"max":255,"target":"present","response":"absent","rt":8.7999999523163,"correct":false,"confidence":1},{"trial_n":51,"min":0,"max":255,"target":"absent","response":"present","rt":324.79999995232,"correct":false,"confidence":1},{"trial_n":52,"min":0,"max":255,"target":"present","response":"present","rt":171.10000002384,"correct":true,"confidence":1},{"trial_n":53,"min":0,"max":255,"target":"present","response":"absent","rt":222.60000002384,"correct":false,"confidence":1},{"trial_n":54,"min":0,"max":255,"target":"absent","response":"present","rt":46.5,"correct":false,"confidence":1},{"trial_n":55,"min":0,"max":255,"target":"absent","response":"present","rt":196.19999992847,"correct":false,"confidence":1},{"trial_n":56,"min":0,"max":255,"target":"absent","response":"absent","rt":238.60000002384,"correct":true,"confidence":1},{"trial_n":57,"min":0,"max":255,"target":"absent","response":"present","rt":96.699999928474,"correct":false,"confidence":1},{"trial_n":58,"min":0,"max":255,"target":"absent","response":"present","rt":63,"correct":false,"confidence":1},{"trial_n":59,"min":0,"max":255,"target":"absent","response":"absent","rt":374.59999990463,"correct":true,"confidence":1},{"trial_n":60,"min":0,"max":255,"target":"absent","response":"present","rt":218.89999997616,"correct":false,"confidence":1},{"trial_n":61,"min":0,"max":255,"target":"present","response":"present","rt":107.39999997616,"correct":true,"confidence":1},{"trial_n":62,"min":0,"max":255,"target":"present","response":"present","rt":58.799999952316,"correct":true,"confidence":1},{"trial_n":63,"min":1,"max":254,"target":"present","response":"present","rt":72.200000047684,"correct":true,"confidence":1},{"trial_n":64,"min":1,"max":254,"target":"present","response":"present","rt":23.100000023842,"correct":true,"confidence":1},{"trial_n":65,"min":2,"max":253,"target":"absent","response":"absent","rt":10.100000023842,"correct":true,"confidence":1},{"trial_n":66,"min":2,"max":253,"target":"present","response":"absent","rt":259,"correct":false,"confidence":1},{"trial_n":67,"min":1,"max":254,"target":"absent","response":"present","rt":155.80000007153,"correct":false,"confidence":1},{"trial_n":68,"min":0,"max":255,"target":"absent","response":"present","rt":-2.2999999523163,"correct":false,"confidence":1},{"trial_n":69,"min":0,"max":255,"target":"absent","response":"absent","rt":153.79999995232,"correct":true,"confidence":1},{"trial_n":70,"min":0,"max":255,"target":"present","response":"present","rt":126.20000004768,"correct":true,"confidence":1},{"trial_n":71,"min":41,"max":214,"target":"present","response":"present","rt":4178.3999999762,"correct":true,"confidence":-1},{"trial_n":72,"min":41,"max":214,"target":"present","response":"present","rt":99.100000023842,"correct":true,"confidence":-1},{"trial_n":73,"min":57,"max":198,"target":"absent","response":"present","rt":163.80000007153,"correct":false,"confidence":-1},{"trial_n":74,"min":41,"max":214,"target":"absent","response":"absent","rt":52.799999952316,"correct":true,"confidence":-1},{"trial_n":75,"min":41,"max":214,"target":"present","response":"present","rt":162.70000004768,"correct":true,"confidence":-1},{"trial_n":76,"min":57,"max":198,"target":"present","response":"present","rt":149.70000004768,"correct":true,"confidence":-1},{"trial_n":77,"min":57,"max":198,"target":"present","response":"present","rt":30.200000047684,"correct":true,"confidence":-1},{"trial_n":78,"min":73,"max":182,"target":"absent","response":"absent","rt":99.199999928474,"correct":true,"confidence":-1},{"trial_n":79,"min":73,"max":182,"target":"present","response":"present","rt":141.89999997616,"correct":true,"confidence":-1},{"trial_n":80,"min":89,"max":166,"target":"absent","response":"absent","rt":2.5,"correct":true,"confidence":-1},{"trial_n":81,"min":89,"max":166,"target":"absent","response":"present","rt":14.800000071526,"correct":false,"confidence":-1},{"trial_n":82,"min":81,"max":174,"target":"absent","response":"present","rt":171.70000004768,"correct":false,"confidence":-1},{"trial_n":83,"min":73,"max":182,"target":"present","response":"present","rt":-0.10000002384186,"correct":true,"confidence":-1},{"trial_n":84,"min":73,"max":182,"target":"present","response":"absent","rt":0.29999995231628,"correct":false,"confidence":-1},{"trial_n":85,"min":65,"max":190,"target":"present","response":"absent","rt":78.800000071526,"correct":false,"confidence":-1},{"trial_n":86,"min":57,"max":198,"target":"present","response":"absent","rt":51,"correct":false,"confidence":-1},{"trial_n":87,"min":49,"max":206,"target":"absent","response":"absent","rt":51,"correct":true,"confidence":-1},{"trial_n":88,"min":49,"max":206,"target":"absent","response":"absent","rt":101.10000002384,"correct":true,"confidence":-1},{"trial_n":89,"min":57,"max":198,"target":"absent","response":"present","rt":41.200000047684,"correct":false,"confidence":-1},{"trial_n":90,"min":49,"max":206,"target":"present","response":"present","rt":27.700000047684,"correct":true,"confidence":-1},{"trial_n":91,"min":49,"max":206,"target":"present","response":"present","rt":30.199999928474,"correct":true,"confidence":1},{"trial_n":92,"min":53,"max":202,"target":"absent","response":"absent","rt":-0.70000004768372,"correct":true,"confidence":1},{"trial_n":93,"min":53,"max":202,"target":"absent","response":"present","rt":88.200000047684,"correct":false,"confidence":1},{"trial_n":94,"min":49,"max":206,"target":"present","response":"absent","rt":45.199999928474,"correct":false,"confidence":1},{"trial_n":95,"min":45,"max":210,"target":"absent","response":"present","rt":29.699999928474,"correct":false,"confidence":1},{"trial_n":96,"min":41,"max":214,"target":"absent","response":"present","rt":39.299999952316,"correct":false,"confidence":1},{"trial_n":97,"min":37,"max":218,"target":"absent","response":"absent","rt":55.299999952316,"correct":true,"confidence":1},{"trial_n":98,"min":37,"max":218,"target":"absent","response":"absent","rt":99.100000023842,"correct":true,"confidence":1},{"trial_n":99,"min":41,"max":214,"target":"present","response":"absent","rt":27.899999976158,"correct":false,"confidence":1},{"trial_n":100,"min":37,"max":218,"target":"present","response":"absent","rt":150.30000007153,"correct":false,"confidence":1},{"trial_n":101,"min":35,"max":220,"target":"present","response":"absent","rt":182.5,"correct":false,"confidence":1},{"trial_n":102,"min":33,"max":222,"target":"absent","response":"absent","rt":152.29999995232,"correct":true,"confidence":1},{"trial_n":103,"min":33,"max":222,"target":"present","response":"absent","rt":97,"correct":false,"confidence":1},{"trial_n":104,"min":31,"max":224,"target":"absent","response":"present","rt":205.79999995232,"correct":false,"confidence":2},{"trial_n":105,"min":29,"max":226,"target":"absent","response":"absent","rt":168.89999997616,"correct":true,"confidence":1},{"trial_n":106,"min":29,"max":226,"target":"absent","response":"present","rt":230.20000004768,"correct":false,"confidence":2},{"trial_n":107,"min":27,"max":228,"target":"absent","response":"present","rt":33.799999952316,"correct":false,"confidence":2},{"trial_n":108,"min":25,"max":230,"target":"present","response":"present","rt":111.60000002384,"correct":true,"confidence":2},{"trial_n":109,"min":25,"max":230,"target":"present","response":"present","rt":68.299999952316,"correct":true,"confidence":2},{"trial_n":110,"min":27,"max":228,"target":"absent","response":"present","rt":16.800000071526,"correct":false,"confidence":1},{"trial_n":111,"min":26,"max":229,"target":"present","response":"absent","rt":110.79999995232,"correct":false,"confidence":2},{"trial_n":112,"min":25,"max":230,"target":"present","response":"present","rt":51,"correct":true,"confidence":2},{"trial_n":113,"min":25,"max":230,"target":"present","response":"present","rt":122.80000007153,"correct":true,"confidence":2},{"trial_n":114,"min":26,"max":229,"target":"present","response":"present","rt":-1.8999999761581,"correct":true,"confidence":1},{"trial_n":115,"min":26,"max":229,"target":"present","response":"present","rt":48.100000023842,"correct":true,"confidence":1},{"trial_n":116,"min":27,"max":228,"target":"present","response":"absent","rt":135,"correct":false,"confidence":1},{"trial_n":117,"min":26,"max":229,"target":"absent","response":"present","rt":44.200000047684,"correct":false,"confidence":1},{"trial_n":118,"min":25,"max":230,"target":"present","response":"absent","rt":22.800000071526,"correct":false,"confidence":1},{"trial_n":119,"min":24,"max":231,"target":"absent","response":"present","rt":23.699999928474,"correct":false,"confidence":1},{"trial_n":120,"min":23,"max":232,"target":"absent","response":"absent","rt":63.300000071526,"correct":true,"confidence":1},{"trial_n":121,"min":23,"max":232,"target":"absent","response":"absent","rt":193.70000004768,"correct":true,"confidence":1},{"trial_n":122,"min":24,"max":231,"target":"absent","response":"absent","rt":164,"correct":true,"confidence":1},{"trial_n":123,"min":24,"max":231,"target":"present","response":"absent","rt":180.60000002384,"correct":false,"confidence":1},{"trial_n":124,"min":23,"max":232,"target":"absent","response":"absent","rt":4.8999999761581,"correct":true,"confidence":1},{"trial_n":125,"min":23,"max":232,"target":"present","response":"absent","rt":101.80000007153,"correct":false,"confidence":1},{"trial_n":126,"min":22,"max":233,"target":"present","response":"absent","rt":124,"correct":false,"confidence":1},{"trial_n":127,"min":21,"max":234,"target":"absent","response":"absent","rt":87.5,"correct":true,"confidence":1},{"trial_n":128,"min":21,"max":234,"target":"present","response":"absent","rt":197.19999992847,"correct":false,"confidence":1},{"trial_n":129,"min":20,"max":235,"target":"present","response":"present","rt":160.5,"correct":true,"confidence":2},{"trial_n":130,"min":20,"max":235,"target":"present","response":"absent","rt":178.5,"correct":false,"confidence":1},{"trial_n":131,"min":19,"max":236,"target":"absent","response":"absent","rt":71.400000095367,"correct":true,"confidence":1},{"trial_n":132,"min":19,"max":236,"target":"absent","response":"absent","rt":58.199999928474,"correct":true,"confidence":1},{"trial_n":133,"min":20,"max":235,"target":"present","response":"present","rt":207.29999995232,"correct":true,"confidence":2},{"trial_n":134,"min":20,"max":235,"target":"present","response":"present","rt":63.899999976158,"correct":true,"confidence":1},{"trial_n":135,"min":21,"max":234,"target":"absent","response":"present","rt":660.09999990463,"correct":false,"confidence":1},{"trial_n":136,"min":20,"max":235,"target":"absent","response":"present","rt":80.300000071526,"correct":false,"confidence":1},{"trial_n":137,"min":19,"max":236,"target":"absent","response":"absent","rt":265.10000002384,"correct":true,"confidence":1},{"trial_n":138,"min":19,"max":236,"target":"present","response":"absent","rt":16.700000047684,"correct":false,"confidence":1},{"trial_n":139,"min":18,"max":237,"target":"present","response":"present","rt":90.699999928474,"correct":true,"confidence":2},{"trial_n":140,"min":18,"max":237,"target":"absent","response":"present","rt":41.799999952316,"correct":false,"confidence":2}]