[{"trial_n":1,"min":25,"max":230,"target":"present","response":"absent","rt":6827,"correct":false,"confidence":-1},{"trial_n":2,"min":25,"max":230,"target":"present","response":"present","rt":4367,"correct":true,"confidence":-1},{"trial_n":3,"min":25,"max":230,"target":"absent","response":"absent","rt":3817,"correct":true,"confidence":-1},{"trial_n":4,"min":41,"max":214,"target":"absent","response":"absent","rt":1883,"correct":true,"confidence":-1},{"trial_n":5,"min":41,"max":214,"target":"present","response":"absent","rt":1080,"correct":false,"confidence":-1},{"trial_n":6,"min":25,"max":230,"target":"present","response":"present","rt":2241,"correct":true,"confidence":-1},{"trial_n":7,"min":25,"max":230,"target":"absent","response":"absent","rt":1459,"correct":true,"confidence":-1},{"trial_n":8,"min":41,"max":214,"target":"absent","response":"present","rt":2424,"correct":false,"confidence":-1},{"trial_n":9,"min":25,"max":230,"target":"present","response":"absent","rt":834,"correct":false,"confidence":-1},{"trial_n":10,"min":9,"max":246,"target":"absent","response":"absent","rt":766,"correct":true,"confidence":-1},{"trial_n":11,"min":9,"max":246,"target":"present","response":"absent","rt":1514,"correct":false,"confidence":-1},{"trial_n":12,"min":1,"max":254,"target":"absent","response":"present","rt":1313,"correct":false,"confidence":-1},{"trial_n":13,"min":0,"max":255,"target":"absent","response":"absent","rt":323.00000000001,"correct":true,"confidence":-1},{"trial_n":14,"min":0,"max":255,"target":"present","response":"present","rt":2007,"correct":true,"confidence":-1},{"trial_n":15,"min":8,"max":247,"target":"present","response":"present","rt":736,"correct":true,"confidence":-1},{"trial_n":16,"min":8,"max":247,"target":"present","response":"present","rt":655,"correct":true,"confidence":-1},{"trial_n":17,"min":16,"max":239,"target":"present","response":"present","rt":569,"correct":true,"confidence":-1},{"trial_n":18,"min":16,"max":239,"target":"absent","response":"present","rt":907,"correct":false,"confidence":-1},{"trial_n":19,"min":8,"max":247,"target":"absent","response":"absent","rt":657,"correct":true,"confidence":-1},{"trial_n":20,"min":8,"max":247,"target":"present","response":"absent","rt":616,"correct":false,"confidence":-1},{"trial_n":21,"min":4,"max":251,"target":"present","response":"present","rt":2389,"correct":true,"confidence":2},{"trial_n":22,"min":4,"max":251,"target":"present","response":"present","rt":7534,"correct":true,"confidence":1},{"trial_n":23,"min":8,"max":247,"target":"absent","response":"absent","rt":1526,"correct":true,"confidence":1},{"trial_n":24,"min":8,"max":247,"target":"present","response":"absent","rt":1202,"correct":false,"confidence":1},{"trial_n":25,"min":4,"max":251,"target":"absent","response":"present","rt":1208,"correct":false,"confidence":2},{"trial_n":26,"min":0,"max":255,"target":"present","response":"present","rt":1036,"correct":true,"confidence":2},{"trial_n":27,"min":0,"max":255,"target":"absent","response":"present","rt":1659,"correct":false,"confidence":2},{"trial_n":28,"min":0,"max":255,"target":"present","response":"present","rt":1053,"correct":true,"confidence":2},{"trial_n":29,"min":0,"max":255,"target":"present","response":"absent","rt":2353,"correct":false,"confidence":1},{"trial_n":30,"min":0,"max":255,"target":"present","response":"present","rt":1754,"correct":true,"confidence":1},{"trial_n":31,"min":0,"max":255,"target":"absent","response":"present","rt":2390,"correct":false,"confidence":1},{"trial_n":32,"min":0,"max":255,"target":"absent","response":"absent","rt":1094,"correct":true,"confidence":1},{"trial_n":33,"min":0,"max":255,"target":"present","response":"absent","rt":705,"correct":false,"confidence":1},{"trial_n":34,"min":0,"max":255,"target":"absent","response":"present","rt":1128,"correct":false,"confidence":1},{"trial_n":35,"min":0,"max":255,"target":"absent","response":"present","rt":994,"correct":false,"confidence":1},{"trial_n":36,"min":0,"max":255,"target":"present","response":"absent","rt":972.00000000001,"correct":false,"confidence":1},{"trial_n":37,"min":0,"max":255,"target":"absent","response":"absent","rt":694.99999999997,"correct":true,"confidence":1},{"trial_n":38,"min":0,"max":255,"target":"present","response":"absent","rt":772,"correct":false,"confidence":1},{"trial_n":39,"min":0,"max":255,"target":"absent","response":"present","rt":945,"correct":false,"confidence":1},{"trial_n":40,"min":0,"max":255,"target":"absent","response":"present","rt":1411,"correct":false,"confidence":1},{"trial_n":41,"min":0,"max":255,"target":"absent","response":"present","rt":2480,"correct":false,"confidence":1},{"trial_n":42,"min":0,"max":255,"target":"absent","response":"present","rt":713,"correct":false,"confidence":1},{"trial_n":43,"min":0,"max":255,"target":"present","response":"present","rt":789,"correct":true,"confidence":1},{"trial_n":44,"min":0,"max":255,"target":"present","response":"present","rt":1523,"correct":true,"confidence":1},{"trial_n":45,"min":1,"max":254,"target":"present","response":"present","rt":724,"correct":true,"confidence":1},{"trial_n":46,"min":1,"max":254,"target":"absent","response":"present","rt":813,"correct":false,"confidence":1},{"trial_n":47,"min":0,"max":255,"target":"present","response":"absent","rt":891.00000000003,"correct":false,"confidence":1},{"trial_n":48,"min":0,"max":255,"target":"absent","response":"absent","rt":696,"correct":true,"confidence":1},{"trial_n":49,"min":0,"max":255,"target":"absent","response":"absent","rt":780.00000000003,"correct":true,"confidence":1},{"trial_n":50,"min":1,"max":254,"target":"present","response":"absent","rt":1392,"correct":false,"confidence":1},{"trial_n":51,"min":0,"max":255,"target":"absent","response":"present","rt":839,"correct":false,"confidence":1},{"trial_n":52,"min":0,"max":255,"target":"absent","response":"present","rt":663.99999999997,"correct":false,"confidence":1},{"trial_n":53,"min":0,"max":255,"target":"present","response":"absent","rt":1308,"correct":false,"confidence":1},{"trial_n":54,"min":0,"max":255,"target":"present","response":"absent","rt":642,"correct":false,"confidence":1},{"trial_n":55,"min":0,"max":255,"target":"present","response":"absent","rt":726,"correct":false,"confidence":1},{"trial_n":56,"min":0,"max":255,"target":"present","response":"present","rt":810,"correct":true,"confidence":1},{"trial_n":57,"min":0,"max":255,"target":"present","response":"present","rt":675,"correct":true,"confidence":1},{"trial_n":58,"min":1,"max":254,"target":"present","response":"absent","rt":828,"correct":false,"confidence":1},{"trial_n":59,"min":0,"max":255,"target":"present","response":"present","rt":610,"correct":true,"confidence":1},{"trial_n":60,"min":0,"max":255,"target":"absent","response":"present","rt":1481,"correct":false,"confidence":1},{"trial_n":61,"min":0,"max":255,"target":"absent","response":"absent","rt":1471,"correct":true,"confidence":1},{"trial_n":62,"min":0,"max":255,"target":"absent","response":"absent","rt":615,"correct":true,"confidence":1},{"trial_n":63,"min":1,"max":254,"target":"absent","response":"absent","rt":598.00000000003,"correct":true,"confidence":1},{"trial_n":64,"min":1,"max":254,"target":"absent","response":"absent","rt":665,"correct":true,"confidence":1},{"trial_n":65,"min":2,"max":253,"target":"present","response":"present","rt":1144,"correct":true,"confidence":1},{"trial_n":66,"min":2,"max":253,"target":"present","response":"present","rt":843,"correct":true,"confidence":1},{"trial_n":67,"min":3,"max":252,"target":"absent","response":"present","rt":682,"correct":false,"confidence":1},{"trial_n":68,"min":2,"max":253,"target":"absent","response":"present","rt":814,"correct":false,"confidence":1},{"trial_n":69,"min":1,"max":254,"target":"present","response":"present","rt":1043,"correct":true,"confidence":1},{"trial_n":70,"min":1,"max":254,"target":"absent","response":"present","rt":1416,"correct":false,"confidence":1},{"trial_n":71,"min":41,"max":214,"target":"present","response":"absent","rt":2993,"correct":false,"confidence":-1},{"trial_n":72,"min":41,"max":214,"target":"present","response":"present","rt":1008,"correct":true,"confidence":-1},{"trial_n":73,"min":41,"max":214,"target":"absent","response":"present","rt":859,"correct":false,"confidence":-1},{"trial_n":74,"min":25,"max":230,"target":"absent","response":"absent","rt":843.00000000003,"correct":true,"confidence":-1},{"trial_n":75,"min":25,"max":230,"target":"present","response":"absent","rt":656.99999999997,"correct":false,"confidence":-1},{"trial_n":76,"min":9,"max":246,"target":"present","response":"absent","rt":541,"correct":false,"confidence":-1},{"trial_n":77,"min":0,"max":255,"target":"present","response":"present","rt":807,"correct":true,"confidence":-1},{"trial_n":78,"min":0,"max":255,"target":"present","response":"absent","rt":642,"correct":false,"confidence":-1},{"trial_n":79,"min":0,"max":255,"target":"absent","response":"present","rt":1075,"correct":false,"confidence":-1},{"trial_n":80,"min":0,"max":255,"target":"present","response":"present","rt":891,"correct":true,"confidence":-1},{"trial_n":81,"min":0,"max":255,"target":"present","response":"absent","rt":744,"correct":false,"confidence":-1},{"trial_n":82,"min":0,"max":255,"target":"present","response":"present","rt":826,"correct":true,"confidence":-1},{"trial_n":83,"min":0,"max":255,"target":"present","response":"absent","rt":942.99999999997,"correct":false,"confidence":-1},{"trial_n":84,"min":0,"max":255,"target":"present","response":"present","rt":643,"correct":true,"confidence":-1},{"trial_n":85,"min":0,"max":255,"target":"absent","response":"present","rt":908,"correct":false,"confidence":-1},{"trial_n":86,"min":0,"max":255,"target":"absent","response":"present","rt":691,"correct":false,"confidence":-1},{"trial_n":87,"min":0,"max":255,"target":"absent","response":"absent","rt":1060,"correct":true,"confidence":-1},{"trial_n":88,"min":0,"max":255,"target":"absent","response":"absent","rt":791.00000000003,"correct":true,"confidence":-1},{"trial_n":89,"min":8,"max":247,"target":"present","response":"absent","rt":609.00000000003,"correct":false,"confidence":-1},{"trial_n":90,"min":0,"max":255,"target":"absent","response":"present","rt":676,"correct":false,"confidence":-1},{"trial_n":91,"min":0,"max":255,"target":"present","response":"present","rt":943,"correct":true,"confidence":1},{"trial_n":92,"min":0,"max":255,"target":"present","response":"absent","rt":860,"correct":false,"confidence":1},{"trial_n":93,"min":0,"max":255,"target":"absent","response":"present","rt":1161,"correct":false,"confidence":1},{"trial_n":94,"min":0,"max":255,"target":"absent","response":"present","rt":8194,"correct":false,"confidence":1},{"trial_n":95,"min":0,"max":255,"target":"present","response":"present","rt":911,"correct":true,"confidence":1},{"trial_n":96,"min":0,"max":255,"target":"absent","response":"absent","rt":980,"correct":true,"confidence":1},{"trial_n":97,"min":4,"max":251,"target":"absent","response":"present","rt":895,"correct":false,"confidence":1},{"trial_n":98,"min":0,"max":255,"target":"present","response":"absent","rt":696,"correct":false,"confidence":1},{"trial_n":99,"min":0,"max":255,"target":"absent","response":"present","rt":695,"correct":false,"confidence":1},{"trial_n":100,"min":0,"max":255,"target":"present","response":"absent","rt":795,"correct":false,"confidence":1},{"trial_n":101,"min":0,"max":255,"target":"absent","response":"present","rt":1024,"correct":false,"confidence":1},{"trial_n":102,"min":0,"max":255,"target":"absent","response":"present","rt":830,"correct":false,"confidence":1},{"trial_n":103,"min":0,"max":255,"target":"present","response":"absent","rt":1280,"correct":false,"confidence":1},{"trial_n":104,"min":0,"max":255,"target":"present","response":"absent","rt":830,"correct":false,"confidence":1},{"trial_n":105,"min":0,"max":255,"target":"present","response":"present","rt":812.99999999994,"correct":true,"confidence":1},{"trial_n":106,"min":0,"max":255,"target":"present","response":"present","rt":980,"correct":true,"confidence":1},{"trial_n":107,"min":2,"max":253,"target":"absent","response":"absent","rt":713,"correct":true,"confidence":1},{"trial_n":108,"min":2,"max":253,"target":"present","response":"absent","rt":713,"correct":false,"confidence":1},{"trial_n":109,"min":0,"max":255,"target":"absent","response":"present","rt":1047,"correct":false,"confidence":1},{"trial_n":110,"min":0,"max":255,"target":"present","response":"present","rt":747.99999999994,"correct":true,"confidence":1},{"trial_n":111,"min":0,"max":255,"target":"present","response":"absent","rt":1069.9999999999,"correct":false,"confidence":1},{"trial_n":112,"min":0,"max":255,"target":"present","response":"absent","rt":631,"correct":false,"confidence":1},{"trial_n":113,"min":0,"max":255,"target":"present","response":"present","rt":764,"correct":true,"confidence":1},{"trial_n":114,"min":0,"max":255,"target":"present","response":"present","rt":648,"correct":true,"confidence":1},{"trial_n":115,"min":1,"max":254,"target":"absent","response":"absent","rt":647,"correct":true,"confidence":1},{"trial_n":116,"min":1,"max":254,"target":"absent","response":"present","rt":715,"correct":false,"confidence":1},{"trial_n":117,"min":0,"max":255,"target":"absent","response":"absent","rt":732,"correct":true,"confidence":1},{"trial_n":118,"min":0,"max":255,"target":"present","response":"present","rt":1048,"correct":true,"confidence":1},{"trial_n":119,"min":1,"max":254,"target":"absent","response":"present","rt":1197,"correct":false,"confidence":1},{"trial_n":120,"min":0,"max":255,"target":"present","response":"absent","rt":715,"correct":false,"confidence":1},{"trial_n":121,"min":0,"max":255,"target":"absent","response":"present","rt":839,"correct":false,"confidence":1},{"trial_n":122,"min":0,"max":255,"target":"absent","response":"present","rt":847.99999999994,"correct":false,"confidence":1},{"trial_n":123,"min":0,"max":255,"target":"present","response":"absent","rt":750,"correct":false,"confidence":1},{"trial_n":124,"min":0,"max":255,"target":"absent","response":"present","rt":783,"correct":false,"confidence":1},{"trial_n":125,"min":0,"max":255,"target":"absent","response":"present","rt":766,"correct":false,"confidence":1},{"trial_n":126,"min":0,"max":255,"target":"absent","response":"absent","rt":1464,"correct":true,"confidence":1},{"trial_n":127,"min":0,"max":255,"target":"present","response":"absent","rt":1116,"correct":false,"confidence":1},{"trial_n":128,"min":0,"max":255,"target":"absent","response":"absent","rt":1116,"correct":true,"confidence":1},{"trial_n":129,"min":0,"max":255,"target":"absent","response":"present","rt":816,"correct":false,"confidence":1},{"trial_n":130,"min":0,"max":255,"target":"absent","response":"present","rt":1250,"correct":false,"confidence":1},{"trial_n":131,"min":0,"max":255,"target":"present","response":"absent","rt":1455.9999999999,"correct":false,"confidence":1},{"trial_n":132,"min":0,"max":255,"target":"present","response":"absent","rt":767,"correct":false,"confidence":1},{"trial_n":133,"min":0,"max":255,"target":"absent","response":"absent","rt":701,"correct":true,"confidence":1},{"trial_n":134,"min":0,"max":255,"target":"absent","response":"present","rt":701,"correct":false,"confidence":1},{"trial_n":135,"min":0,"max":255,"target":"absent","response":"absent","rt":767,"correct":true,"confidence":1},{"trial_n":136,"min":0,"max":255,"target":"present","response":"present","rt":767,"correct":true,"confidence":1},{"trial_n":137,"min":1,"max":254,"target":"absent","response":"present","rt":1034,"correct":false,"confidence":1},{"trial_n":138,"min":0,"max":255,"target":"absent","response":"absent","rt":833,"correct":true,"confidence":1},{"trial_n":139,"min":0,"max":255,"target":"present","response":"present","rt":950.99999999994,"correct":true,"confidence":1},{"trial_n":140,"min":1,"max":254,"target":"present","response":"present","rt":786,"correct":true,"confidence":1}]