[{"trial_n":1,"span":8,"encoder":"01065152","distractor":"01065154","target":"present","response":"absent","rt":"1437.8999999762","correct":false,"confidence":-1},{"trial_n":2,"span":6,"encoder":"072719","distractor":"012719","target":"present","response":"present","rt":"697.89999997616","correct":true,"confidence":-1},{"trial_n":3,"span":6,"encoder":"259046","distractor":"249046","target":"absent","response":"absent","rt":"25.700000047684","correct":true,"confidence":-1},{"trial_n":4,"span":8,"encoder":"79547127","distractor":"79547137","target":"absent","response":"present","rt":"3.7999999523163","correct":false,"confidence":-1},{"trial_n":5,"span":6,"encoder":"538357","distractor":"538353","target":"present","response":"absent","rt":"1130.4000000954","correct":false,"confidence":-1},{"trial_n":6,"span":4,"encoder":"2349","distractor":"2749","target":"absent","response":"absent","rt":"132.19999992847","correct":true,"confidence":-1},{"trial_n":7,"span":4,"encoder":"0263","distractor":"0265","target":"absent","response":"present","rt":"297.59999990463","correct":false,"confidence":-1},{"trial_n":8,"span":2,"encoder":"90","distractor":"00","target":"absent","response":"absent","rt":"729.20000004768","correct":true,"confidence":-1},{"trial_n":9,"span":2,"encoder":"48","distractor":"28","target":"present","response":"present","rt":"419.39999997616","correct":true,"confidence":-1},{"trial_n":10,"span":4,"encoder":"8099","distractor":"8039","target":"absent","response":"absent","rt":"311.20000004768","correct":true,"confidence":-1},{"trial_n":11,"span":4,"encoder":"4305","distractor":"0305","target":"present","response":"present","rt":"145.30000007153","correct":true,"confidence":-1},{"trial_n":12,"span":5,"encoder":"14903","distractor":"16903","target":"present","response":"absent","rt":"144.29999995232","correct":false,"confidence":-1},{"trial_n":13,"span":4,"encoder":"2330","distractor":"2333","target":"absent","response":"absent","rt":"524.89999997616","correct":true,"confidence":-1},{"trial_n":14,"span":4,"encoder":"6450","distractor":"6650","target":"present","response":"present","rt":"647.10000002384","correct":true,"confidence":-1},{"trial_n":15,"span":5,"encoder":"10727","distractor":"16727","target":"present","response":"absent","rt":"630.60000002384","correct":false,"confidence":-1},{"trial_n":16,"span":4,"encoder":"0912","distractor":"0212","target":"present","response":"present","rt":"351.19999992847","correct":true,"confidence":-1},{"trial_n":17,"span":4,"encoder":"6102","distractor":"5102","target":"absent","response":"present","rt":"14907","correct":false,"confidence":-1},{"trial_n":18,"span":3,"encoder":"915","distractor":"945","target":"absent","response":"absent","rt":"1449.5","correct":true,"confidence":-1},{"trial_n":19,"span":3,"encoder":"070","distractor":"570","target":"absent","response":"present","rt":"571.5","correct":false,"confidence":-1},{"trial_n":20,"span":2,"encoder":"30","distractor":"33","target":"present","response":"absent","rt":"511.19999992847","correct":false,"confidence":-1},{"trial_n":21,"span":2,"encoder":"00","distractor":"90","target":"present","response":"present","rt":"412.29999995232","correct":true,"confidence":1},{"trial_n":22,"span":2,"encoder":"76","distractor":"56","target":"present","response":"absent","rt":"133.5","correct":false,"confidence":1},{"trial_n":23,"span":2,"encoder":"02","distractor":"52","target":"present","response":"absent","rt":"173.69999992847","correct":false,"confidence":1},{"trial_n":24,"span":2,"encoder":"11","distractor":"71","target":"present","response":"present","rt":"2.0999999046326","correct":true,"confidence":1},{"trial_n":25,"span":2,"encoder":"37","distractor":"17","target":"absent","response":"absent","rt":"112.39999997616","correct":true,"confidence":1},{"trial_n":26,"span":3,"encoder":"989","distractor":"982","target":"absent","response":"absent","rt":"101.79999995232","correct":true,"confidence":1},{"trial_n":27,"span":3,"encoder":"740","distractor":"700","target":"present","response":"absent","rt":"66.600000023842","correct":false,"confidence":1},{"trial_n":28,"span":2,"encoder":"84","distractor":"64","target":"absent","response":"absent","rt":"93.199999928474","correct":true,"confidence":1},{"trial_n":29,"span":2,"encoder":"85","distractor":"83","target":"absent","response":"absent","rt":"177.80000007153","correct":true,"confidence":1},{"trial_n":30,"span":3,"encoder":"523","distractor":"573","target":"absent","response":"absent","rt":"138","correct":true,"confidence":1},{"trial_n":31,"span":3,"encoder":"987","distractor":"967","target":"present","response":"present","rt":"82.200000047684","correct":true,"confidence":1},{"trial_n":32,"span":4,"encoder":"9659","distractor":"9655","target":"present","response":"present","rt":"163.09999990463","correct":true,"confidence":1},{"trial_n":33,"span":4,"encoder":"0314","distractor":"0914","target":"present","response":"present","rt":"84.799999952316","correct":true,"confidence":1},{"trial_n":34,"span":5,"encoder":"93996","distractor":"95996","target":"absent","response":"absent","rt":"181.60000002384","correct":true,"confidence":1},{"trial_n":35,"span":5,"encoder":"29063","distractor":"29013","target":"absent","response":"absent","rt":"36.300000071526","correct":true,"confidence":1},{"trial_n":36,"span":6,"encoder":"099738","distractor":"098738","target":"present","response":"absent","rt":"191.60000002384","correct":false,"confidence":1},{"trial_n":37,"span":5,"encoder":"95853","distractor":"98853","target":"present","response":"absent","rt":"124.70000004768","correct":false,"confidence":1},{"trial_n":38,"span":4,"encoder":"4959","distractor":"4909","target":"absent","response":"absent","rt":"47.5","correct":true,"confidence":1},{"trial_n":39,"span":4,"encoder":"5454","distractor":"2454","target":"present","response":"absent","rt":"134.19999992847","correct":false,"confidence":1},{"trial_n":40,"span":3,"encoder":"499","distractor":"299","target":"present","response":"absent","rt":"46.5","correct":false,"confidence":1},{"trial_n":41,"span":2,"encoder":"12","distractor":"32","target":"absent","response":"absent","rt":"146.5","correct":true,"confidence":1},{"trial_n":42,"span":2,"encoder":"26","distractor":"46","target":"absent","response":"absent","rt":"117.59999990463","correct":true,"confidence":1},{"trial_n":43,"span":3,"encoder":"684","distractor":"984","target":"absent","response":"absent","rt":"94.100000023842","correct":true,"confidence":1},{"trial_n":44,"span":3,"encoder":"697","distractor":"690","target":"absent","response":"absent","rt":"144.79999995232","correct":true,"confidence":1},{"trial_n":45,"span":4,"encoder":"4777","distractor":"4774","target":"absent","response":"present","rt":"-3.8999999761581","correct":false,"confidence":1},{"trial_n":46,"span":3,"encoder":"420","distractor":"428","target":"present","response":"absent","rt":"153.09999990463","correct":false,"confidence":1},{"trial_n":47,"span":2,"encoder":"53","distractor":"23","target":"present","response":"absent","rt":"144.30000007153","correct":false,"confidence":1},{"trial_n":48,"span":2,"encoder":"35","distractor":"55","target":"absent","response":"present","rt":"169.29999995232","correct":false,"confidence":1},{"trial_n":49,"span":2,"encoder":"03","distractor":"93","target":"present","response":"absent","rt":"217.29999995232","correct":false,"confidence":1},{"trial_n":50,"span":2,"encoder":"42","distractor":"47","target":"present","response":"absent","rt":"22.399999976158","correct":false,"confidence":1},{"trial_n":51,"span":2,"encoder":"86","distractor":"84","target":"absent","response":"absent","rt":"197.5","correct":true,"confidence":1},{"trial_n":52,"span":2,"encoder":"55","distractor":"52","target":"absent","response":"absent","rt":"221.10000002384","correct":true,"confidence":1},{"trial_n":53,"span":3,"encoder":"625","distractor":"623","target":"present","response":"present","rt":"148.70000004768","correct":true,"confidence":1},{"trial_n":54,"span":3,"encoder":"752","distractor":"712","target":"present","response":"absent","rt":"2422.3000000715","correct":false,"confidence":1},{"trial_n":55,"span":2,"encoder":"77","distractor":"37","target":"absent","response":"absent","rt":"2.6000000238419","correct":true,"confidence":1},{"trial_n":56,"span":2,"encoder":"00","distractor":"30","target":"present","response":"absent","rt":"76.100000023842","correct":false,"confidence":1},{"trial_n":57,"span":2,"encoder":"12","distractor":"11","target":"present","response":"absent","rt":"12.899999976158","correct":false,"confidence":1},{"trial_n":58,"span":2,"encoder":"16","distractor":"86","target":"present","response":"absent","rt":"112","correct":false,"confidence":1},{"trial_n":59,"span":2,"encoder":"58","distractor":"50","target":"absent","response":"absent","rt":"121.10000002384","correct":true,"confidence":1},{"trial_n":60,"span":2,"encoder":"85","distractor":"45","target":"absent","response":"absent","rt":"80.400000095367","correct":true,"confidence":1},{"trial_n":61,"span":3,"encoder":"855","distractor":"555","target":"absent","response":"present","rt":"61.899999976158","correct":false,"confidence":1},{"trial_n":62,"span":2,"encoder":"68","distractor":"60","target":"absent","response":"present","rt":"184.80000007153","correct":false,"confidence":1},{"trial_n":63,"span":2,"encoder":"11","distractor":"41","target":"absent","response":"absent","rt":"128.20000004768","correct":true,"confidence":1},{"trial_n":64,"span":2,"encoder":"95","distractor":"65","target":"present","response":"absent","rt":"30.399999976158","correct":false,"confidence":1},{"trial_n":65,"span":2,"encoder":"65","distractor":"68","target":"present","response":"present","rt":"60","correct":true,"confidence":1},{"trial_n":66,"span":2,"encoder":"76","distractor":"78","target":"present","response":"absent","rt":"122.5","correct":false,"confidence":1},{"trial_n":67,"span":2,"encoder":"90","distractor":"30","target":"present","response":"absent","rt":"154.10000002384","correct":false,"confidence":1},{"trial_n":68,"span":2,"encoder":"67","distractor":"37","target":"absent","response":"present","rt":"8.9000000953674","correct":false,"confidence":1},{"trial_n":69,"span":2,"encoder":"83","distractor":"81","target":"present","response":"absent","rt":"78.700000047684","correct":false,"confidence":1},{"trial_n":70,"span":2,"encoder":"60","distractor":"64","target":"absent","response":"present","rt":"3.1000000238419","correct":false,"confidence":1},{"trial_n":71,"span":8,"encoder":"57067615","distractor":"57067613","target":"present","response":"absent","rt":"1805.7999999523","correct":false,"confidence":-1},{"trial_n":72,"span":7,"encoder":"7945318","distractor":"5945318","target":"present","response":"absent","rt":"366","correct":false,"confidence":-1},{"trial_n":73,"span":6,"encoder":"064102","distractor":"064002","target":"absent","response":"present","rt":"1926.2999999523","correct":false,"confidence":-1},{"trial_n":74,"span":5,"encoder":"37661","distractor":"37561","target":"absent","response":"present","rt":"650","correct":false,"confidence":-1},{"trial_n":75,"span":4,"encoder":"5834","distractor":"9834","target":"present","response":"present","rt":"255.30000007153","correct":true,"confidence":-1},{"trial_n":76,"span":4,"encoder":"2212","distractor":"8212","target":"present","response":"present","rt":"887.80000007153","correct":true,"confidence":-1},{"trial_n":77,"span":5,"encoder":"17223","distractor":"17243","target":"absent","response":"absent","rt":"892.10000002384","correct":true,"confidence":-1},{"trial_n":78,"span":5,"encoder":"94864","distractor":"94868","target":"present","response":"present","rt":"740.10000002384","correct":true,"confidence":-1},{"trial_n":79,"span":6,"encoder":"899963","distractor":"899363","target":"present","response":"absent","rt":"805.70000004768","correct":false,"confidence":-1},{"trial_n":80,"span":5,"encoder":"62002","distractor":"62005","target":"present","response":"absent","rt":"960","correct":false,"confidence":-1},{"trial_n":81,"span":4,"encoder":"4456","distractor":"4476","target":"present","response":"present","rt":"351.60000002384","correct":true,"confidence":-1},{"trial_n":82,"span":4,"encoder":"4394","distractor":"4399","target":"absent","response":"present","rt":"562.5","correct":false,"confidence":-1},{"trial_n":83,"span":3,"encoder":"123","distractor":"153","target":"present","response":"absent","rt":"504","correct":false,"confidence":-1},{"trial_n":84,"span":2,"encoder":"46","distractor":"42","target":"present","response":"present","rt":"611.5","correct":true,"confidence":-1},{"trial_n":85,"span":2,"encoder":"68","distractor":"08","target":"absent","response":"absent","rt":"1008.7999999523","correct":true,"confidence":-1},{"trial_n":86,"span":3,"encoder":"595","distractor":"555","target":"absent","response":"present","rt":"1118.8999999762","correct":false,"confidence":-1},{"trial_n":87,"span":2,"encoder":"16","distractor":"66","target":"absent","response":"absent","rt":"885","correct":true,"confidence":-1},{"trial_n":88,"span":2,"encoder":"58","distractor":"50","target":"absent","response":"present","rt":"525.79999995232","correct":false,"confidence":-1},{"trial_n":89,"span":2,"encoder":"33","distractor":"23","target":"absent","response":"absent","rt":"864.20000004768","correct":true,"confidence":-1},{"trial_n":90,"span":2,"encoder":"69","distractor":"39","target":"present","response":"absent","rt":"548.60000002384","correct":false,"confidence":-1},{"trial_n":91,"span":2,"encoder":"44","distractor":"46","target":"absent","response":"absent","rt":"128.79999995232","correct":true,"confidence":1},{"trial_n":92,"span":2,"encoder":"09","distractor":"89","target":"absent","response":"absent","rt":"9.7000000476837","correct":true,"confidence":1},{"trial_n":93,"span":3,"encoder":"549","distractor":"546","target":"present","response":"absent","rt":"110.60000002384","correct":false,"confidence":1},{"trial_n":94,"span":2,"encoder":"40","distractor":"41","target":"absent","response":"absent","rt":"136.60000002384","correct":true,"confidence":1},{"trial_n":95,"span":2,"encoder":"65","distractor":"05","target":"absent","response":"absent","rt":"170.60000002384","correct":true,"confidence":1},{"trial_n":96,"span":3,"encoder":"227","distractor":"627","target":"absent","response":"absent","rt":"140.59999990463","correct":true,"confidence":1},{"trial_n":97,"span":3,"encoder":"303","distractor":"903","target":"present","response":"absent","rt":"9.6000000238419","correct":false,"confidence":1},{"trial_n":98,"span":2,"encoder":"93","distractor":"97","target":"present","response":"absent","rt":"73.100000023842","correct":false,"confidence":1},{"trial_n":99,"span":2,"encoder":"23","distractor":"20","target":"absent","response":"absent","rt":"86.200000047684","correct":true,"confidence":1},{"trial_n":100,"span":2,"encoder":"42","distractor":"46","target":"absent","response":"absent","rt":"107.39999997616","correct":true,"confidence":1},{"trial_n":101,"span":3,"encoder":"658","distractor":"657","target":"present","response":"absent","rt":"21.399999976158","correct":false,"confidence":1},{"trial_n":102,"span":2,"encoder":"24","distractor":"21","target":"present","response":"absent","rt":"95.799999952316","correct":false,"confidence":1},{"trial_n":103,"span":2,"encoder":"34","distractor":"24","target":"absent","response":"absent","rt":"150.79999995232","correct":true,"confidence":1},{"trial_n":104,"span":2,"encoder":"09","distractor":"06","target":"absent","response":"absent","rt":"148.5","correct":true,"confidence":1},{"trial_n":105,"span":3,"encoder":"861","distractor":"841","target":"absent","response":"absent","rt":"49.200000047684","correct":true,"confidence":1},{"trial_n":106,"span":3,"encoder":"454","distractor":"457","target":"present","response":"absent","rt":"157.89999997616","correct":false,"confidence":1},{"trial_n":107,"span":2,"encoder":"65","distractor":"05","target":"present","response":"absent","rt":"129.39999997616","correct":false,"confidence":1},{"trial_n":108,"span":2,"encoder":"93","distractor":"90","target":"present","response":"absent","rt":"413.39999997616","correct":false,"confidence":1},{"trial_n":109,"span":2,"encoder":"41","distractor":"11","target":"absent","response":"absent","rt":"85.399999976158","correct":true,"confidence":1},{"trial_n":110,"span":2,"encoder":"32","distractor":"72","target":"present","response":"absent","rt":"90.799999952316","correct":false,"confidence":1},{"trial_n":111,"span":2,"encoder":"03","distractor":"83","target":"present","response":"absent","rt":"15.299999952316","correct":false,"confidence":1},{"trial_n":112,"span":2,"encoder":"67","distractor":"69","target":"present","response":"absent","rt":"58.200000047684","correct":false,"confidence":1},{"trial_n":113,"span":2,"encoder":"54","distractor":"14","target":"absent","response":"absent","rt":"118.69999992847","correct":true,"confidence":1},{"trial_n":114,"span":2,"encoder":"34","distractor":"32","target":"absent","response":"absent","rt":"117.89999997616","correct":true,"confidence":1},{"trial_n":115,"span":3,"encoder":"004","distractor":"014","target":"absent","response":"absent","rt":"126.19999992847","correct":true,"confidence":1},{"trial_n":116,"span":3,"encoder":"698","distractor":"628","target":"present","response":"absent","rt":"11.899999976158","correct":false,"confidence":1},{"trial_n":117,"span":2,"encoder":"08","distractor":"38","target":"absent","response":"absent","rt":"75.200000047684","correct":true,"confidence":1},{"trial_n":118,"span":2,"encoder":"13","distractor":"18","target":"absent","response":"absent","rt":"88.100000023842","correct":true,"confidence":1},{"trial_n":119,"span":3,"encoder":"157","distractor":"159","target":"present","response":"absent","rt":"170.69999992847","correct":false,"confidence":1},{"trial_n":120,"span":2,"encoder":"93","distractor":"96","target":"absent","response":"absent","rt":"118.70000004768","correct":true,"confidence":1},{"trial_n":121,"span":2,"encoder":"34","distractor":"94","target":"absent","response":"absent","rt":"7.5999999046326","correct":true,"confidence":1},{"trial_n":122,"span":3,"encoder":"382","distractor":"387","target":"present","response":"absent","rt":"99.799999952316","correct":false,"confidence":1},{"trial_n":123,"span":2,"encoder":"35","distractor":"36","target":"absent","response":"absent","rt":"163.70000004768","correct":true,"confidence":1},{"trial_n":124,"span":2,"encoder":"10","distractor":"00","target":"present","response":"absent","rt":"178.10000002384","correct":false,"confidence":1},{"trial_n":125,"span":2,"encoder":"06","distractor":"86","target":"present","response":"absent","rt":"170.70000004768","correct":false,"confidence":1},{"trial_n":126,"span":2,"encoder":"78","distractor":"28","target":"absent","response":"absent","rt":"-1.2999999523163","correct":true,"confidence":1},{"trial_n":127,"span":2,"encoder":"75","distractor":"70","target":"absent","response":"absent","rt":"140.79999995232","correct":true,"confidence":1},{"trial_n":128,"span":3,"encoder":"628","distractor":"678","target":"present","response":"absent","rt":"32","correct":false,"confidence":1},{"trial_n":129,"span":2,"encoder":"53","distractor":"93","target":"present","response":"absent","rt":"214.5","correct":false,"confidence":1},{"trial_n":130,"span":2,"encoder":"56","distractor":"57","target":"present","response":"absent","rt":"146.39999997616","correct":false,"confidence":1},{"trial_n":131,"span":2,"encoder":"72","distractor":"22","target":"absent","response":"absent","rt":"1158.8999999762","correct":true,"confidence":1},{"trial_n":132,"span":2,"encoder":"15","distractor":"13","target":"absent","response":"absent","rt":"202.10000002384","correct":true,"confidence":1},{"trial_n":133,"span":3,"encoder":"305","distractor":"300","target":"present","response":"absent","rt":"84.600000023842","correct":false,"confidence":1},{"trial_n":134,"span":2,"encoder":"67","distractor":"37","target":"present","response":"absent","rt":"153.5","correct":false,"confidence":1},{"trial_n":135,"span":2,"encoder":"87","distractor":"84","target":"present","response":"absent","rt":"135.69999992847","correct":false,"confidence":1},{"trial_n":136,"span":2,"encoder":"58","distractor":"18","target":"present","response":"absent","rt":"185.10000002384","correct":false,"confidence":1},{"trial_n":137,"span":2,"encoder":"68","distractor":"62","target":"present","response":"absent","rt":"148.80000007153","correct":false,"confidence":1},{"trial_n":138,"span":2,"encoder":"19","distractor":"49","target":"absent","response":"absent","rt":"-1","correct":true,"confidence":1},{"trial_n":139,"span":2,"encoder":"70","distractor":"75","target":"absent","response":"present","rt":"3376.3999999762","correct":false,"confidence":1},{"trial_n":140,"span":2,"encoder":"71","distractor":"77","target":"present","response":"absent","rt":"51.399999976158","correct":false,"confidence":1}]