[{"trial_n":1,"min":25,"max":230,"target":"present","response":"absent","rt":5296.2999999523,"correct":false,"confidence":-1},{"trial_n":2,"min":25,"max":230,"target":"present","response":"present","rt":1535.2999999523,"correct":true,"confidence":-1},{"trial_n":3,"min":25,"max":230,"target":"absent","response":"absent","rt":3528.1999999881,"correct":true,"confidence":-1},{"trial_n":4,"min":41,"max":214,"target":"absent","response":"absent","rt":2305,"correct":true,"confidence":-1},{"trial_n":5,"min":41,"max":214,"target":"present","response":"present","rt":427.60000002384,"correct":true,"confidence":-1},{"trial_n":6,"min":57,"max":198,"target":"present","response":"present","rt":300.19999998808,"correct":true,"confidence":-1},{"trial_n":7,"min":57,"max":198,"target":"present","response":"present","rt":199.09999996424,"correct":true,"confidence":-1},{"trial_n":8,"min":73,"max":182,"target":"absent","response":"absent","rt":371.80000001192,"correct":true,"confidence":-1},{"trial_n":9,"min":73,"max":182,"target":"present","response":"present","rt":344.80000001192,"correct":true,"confidence":-1},{"trial_n":10,"min":89,"max":166,"target":"absent","response":"present","rt":360,"correct":false,"confidence":-1},{"trial_n":11,"min":81,"max":174,"target":"absent","response":"absent","rt":434.90000003576,"correct":true,"confidence":-1},{"trial_n":12,"min":81,"max":174,"target":"present","response":"present","rt":466.79999995232,"correct":true,"confidence":-1},{"trial_n":13,"min":89,"max":166,"target":"absent","response":"absent","rt":405.09999996424,"correct":true,"confidence":-1},{"trial_n":14,"min":89,"max":166,"target":"present","response":"present","rt":638.30000001192,"correct":true,"confidence":-1},{"trial_n":15,"min":97,"max":158,"target":"present","response":"absent","rt":520,"correct":false,"confidence":-1},{"trial_n":16,"min":89,"max":166,"target":"absent","response":"present","rt":630.09999996424,"correct":false,"confidence":-1},{"trial_n":17,"min":81,"max":174,"target":"absent","response":"absent","rt":425.69999998808,"correct":true,"confidence":-1},{"trial_n":18,"min":81,"max":174,"target":"present","response":"absent","rt":192,"correct":false,"confidence":-1},{"trial_n":19,"min":73,"max":182,"target":"present","response":"present","rt":370.09999996424,"correct":true,"confidence":-1},{"trial_n":20,"min":73,"max":182,"target":"absent","response":"absent","rt":471.69999998808,"correct":true,"confidence":-1},{"trial_n":21,"min":77,"max":178,"target":"absent","response":"absent","rt":928.09999996424,"correct":true,"confidence":4},{"trial_n":22,"min":77,"max":178,"target":"absent","response":"absent","rt":3083.0999999642,"correct":true,"confidence":4},{"trial_n":23,"min":81,"max":174,"target":"present","response":"absent","rt":3118,"correct":false,"confidence":2},{"trial_n":24,"min":77,"max":178,"target":"absent","response":"absent","rt":403.09999996424,"correct":true,"confidence":5},{"trial_n":25,"min":77,"max":178,"target":"present","response":"absent","rt":1519.2999999523,"correct":false,"confidence":1},{"trial_n":26,"min":73,"max":182,"target":"present","response":"absent","rt":638.39999997616,"correct":false,"confidence":1},{"trial_n":27,"min":69,"max":186,"target":"present","response":"present","rt":390,"correct":true,"confidence":2},{"trial_n":28,"min":69,"max":186,"target":"absent","response":"absent","rt":2884.3000000119,"correct":true,"confidence":4},{"trial_n":29,"min":73,"max":182,"target":"absent","response":"absent","rt":2615.0999999642,"correct":true,"confidence":3},{"trial_n":30,"min":73,"max":182,"target":"absent","response":"absent","rt":504.80000001192,"correct":true,"confidence":5},{"trial_n":31,"min":75,"max":180,"target":"present","response":"absent","rt":610.89999997616,"correct":false,"confidence":3},{"trial_n":32,"min":73,"max":182,"target":"absent","response":"absent","rt":873,"correct":true,"confidence":5},{"trial_n":33,"min":73,"max":182,"target":"present","response":"absent","rt":541.69999998808,"correct":false,"confidence":5},{"trial_n":34,"min":71,"max":184,"target":"present","response":"present","rt":1546.0999999642,"correct":true,"confidence":3},{"trial_n":35,"min":71,"max":184,"target":"absent","response":"absent","rt":457.60000002384,"correct":true,"confidence":5},{"trial_n":36,"min":73,"max":182,"target":"present","response":"absent","rt":543.80000001192,"correct":false,"confidence":1},{"trial_n":37,"min":71,"max":184,"target":"absent","response":"absent","rt":674.60000002384,"correct":true,"confidence":5},{"trial_n":38,"min":71,"max":184,"target":"present","response":"present","rt":518.80000001192,"correct":true,"confidence":5},{"trial_n":39,"min":73,"max":182,"target":"absent","response":"absent","rt":1297,"correct":true,"confidence":3},{"trial_n":40,"min":73,"max":182,"target":"absent","response":"absent","rt":802,"correct":true,"confidence":5},{"trial_n":41,"min":74,"max":181,"target":"present","response":"present","rt":2439.6999999881,"correct":true,"confidence":3},{"trial_n":42,"min":74,"max":181,"target":"absent","response":"absent","rt":508.19999998808,"correct":true,"confidence":5},{"trial_n":43,"min":75,"max":180,"target":"absent","response":"absent","rt":498.10000002384,"correct":true,"confidence":3},{"trial_n":44,"min":75,"max":180,"target":"present","response":"present","rt":818.10000002384,"correct":true,"confidence":3},{"trial_n":45,"min":76,"max":179,"target":"absent","response":"absent","rt":1469.2000000477,"correct":true,"confidence":5},{"trial_n":46,"min":76,"max":179,"target":"present","response":"present","rt":1236.6999999881,"correct":true,"confidence":3},{"trial_n":47,"min":77,"max":178,"target":"present","response":"present","rt":1250.8999999762,"correct":true,"confidence":4},{"trial_n":48,"min":77,"max":178,"target":"absent","response":"absent","rt":636.39999997616,"correct":true,"confidence":3},{"trial_n":49,"min":78,"max":177,"target":"present","response":"present","rt":692.80000001192,"correct":true,"confidence":3},{"trial_n":50,"min":78,"max":177,"target":"absent","response":"absent","rt":1007.3999999762,"correct":true,"confidence":5},{"trial_n":51,"min":79,"max":176,"target":"absent","response":"absent","rt":680.39999997616,"correct":true,"confidence":1},{"trial_n":52,"min":79,"max":176,"target":"absent","response":"absent","rt":754,"correct":true,"confidence":1},{"trial_n":53,"min":80,"max":175,"target":"present","response":"absent","rt":669.30000001192,"correct":false,"confidence":1},{"trial_n":54,"min":79,"max":176,"target":"absent","response":"absent","rt":1526.5,"correct":true,"confidence":5},{"trial_n":55,"min":79,"max":176,"target":"present","response":"present","rt":1121.5,"correct":true,"confidence":3},{"trial_n":56,"min":80,"max":175,"target":"present","response":"present","rt":733,"correct":true,"confidence":5},{"trial_n":57,"min":80,"max":175,"target":"present","response":"absent","rt":340.29999995232,"correct":false,"confidence":3},{"trial_n":58,"min":79,"max":176,"target":"present","response":"absent","rt":710.10000002384,"correct":false,"confidence":1},{"trial_n":59,"min":78,"max":177,"target":"present","response":"present","rt":354.80000001192,"correct":true,"confidence":3},{"trial_n":60,"min":78,"max":177,"target":"absent","response":"absent","rt":399.5,"correct":true,"confidence":3},{"trial_n":61,"min":79,"max":176,"target":"absent","response":"absent","rt":937.30000001192,"correct":true,"confidence":5},{"trial_n":62,"min":79,"max":176,"target":"present","response":"present","rt":739.30000001192,"correct":true,"confidence":3},{"trial_n":63,"min":80,"max":175,"target":"present","response":"present","rt":493.80000001192,"correct":true,"confidence":3},{"trial_n":64,"min":80,"max":175,"target":"present","response":"present","rt":1060.5999999642,"correct":true,"confidence":3},{"trial_n":65,"min":81,"max":174,"target":"absent","response":"absent","rt":253.40000003576,"correct":true,"confidence":1},{"trial_n":66,"min":81,"max":174,"target":"absent","response":"absent","rt":781.69999998808,"correct":true,"confidence":5},{"trial_n":67,"min":82,"max":173,"target":"absent","response":"absent","rt":979.80000001192,"correct":true,"confidence":1},{"trial_n":68,"min":82,"max":173,"target":"absent","response":"absent","rt":498.80000001192,"correct":true,"confidence":3},{"trial_n":69,"min":83,"max":172,"target":"present","response":"present","rt":1111.5,"correct":true,"confidence":3},{"trial_n":70,"min":83,"max":172,"target":"present","response":"present","rt":1046,"correct":true,"confidence":3},{"trial_n":71,"min":41,"max":214,"target":"present","response":"absent","rt":5769.1000000238,"correct":false,"confidence":-1},{"trial_n":72,"min":41,"max":214,"target":"present","response":"present","rt":4419.6000000238,"correct":true,"confidence":-1},{"trial_n":73,"min":41,"max":214,"target":"absent","response":"present","rt":2132.1999999881,"correct":false,"confidence":-1},{"trial_n":74,"min":25,"max":230,"target":"absent","response":"absent","rt":779,"correct":true,"confidence":-1},{"trial_n":75,"min":25,"max":230,"target":"present","response":"present","rt":629.5,"correct":true,"confidence":-1},{"trial_n":76,"min":41,"max":214,"target":"absent","response":"absent","rt":257.80000001192,"correct":true,"confidence":-1},{"trial_n":77,"min":41,"max":214,"target":"absent","response":"present","rt":646.79999995232,"correct":false,"confidence":-1},{"trial_n":78,"min":25,"max":230,"target":"absent","response":"absent","rt":348.60000002384,"correct":true,"confidence":-1},{"trial_n":79,"min":25,"max":230,"target":"present","response":"present","rt":359.40000003576,"correct":true,"confidence":-1},{"trial_n":80,"min":41,"max":214,"target":"present","response":"present","rt":1480.5,"correct":true,"confidence":-1},{"trial_n":81,"min":41,"max":214,"target":"absent","response":"absent","rt":471.69999998808,"correct":true,"confidence":-1},{"trial_n":82,"min":49,"max":206,"target":"absent","response":"absent","rt":317.09999996424,"correct":true,"confidence":-1},{"trial_n":83,"min":49,"max":206,"target":"present","response":"present","rt":631.60000002384,"correct":true,"confidence":-1},{"trial_n":84,"min":57,"max":198,"target":"present","response":"present","rt":575.10000002384,"correct":true,"confidence":-1},{"trial_n":85,"min":57,"max":198,"target":"absent","response":"absent","rt":259.39999997616,"correct":true,"confidence":-1},{"trial_n":86,"min":65,"max":190,"target":"present","response":"present","rt":552.39999997616,"correct":true,"confidence":-1},{"trial_n":87,"min":65,"max":190,"target":"present","response":"present","rt":829.10000002384,"correct":true,"confidence":-1},{"trial_n":88,"min":73,"max":182,"target":"present","response":"present","rt":777.80000001192,"correct":true,"confidence":-1},{"trial_n":89,"min":73,"max":182,"target":"absent","response":"absent","rt":331,"correct":true,"confidence":-1},{"trial_n":90,"min":81,"max":174,"target":"absent","response":"absent","rt":438.30000001192,"correct":true,"confidence":-1},{"trial_n":91,"min":81,"max":174,"target":"present","response":"present","rt":2355.3000000119,"correct":true,"confidence":3},{"trial_n":92,"min":85,"max":170,"target":"present","response":"absent","rt":3529.0999999642,"correct":false,"confidence":1},{"trial_n":93,"min":81,"max":174,"target":"absent","response":"absent","rt":978.5,"correct":true,"confidence":4},{"trial_n":94,"min":81,"max":174,"target":"absent","response":"present","rt":499.5,"correct":false,"confidence":3},{"trial_n":95,"min":77,"max":178,"target":"present","response":"present","rt":270.60000002384,"correct":true,"confidence":4},{"trial_n":96,"min":77,"max":178,"target":"absent","response":"present","rt":1290.7000000477,"correct":false,"confidence":1},{"trial_n":97,"min":73,"max":182,"target":"absent","response":"absent","rt":800.80000001192,"correct":true,"confidence":4},{"trial_n":98,"min":73,"max":182,"target":"present","response":"present","rt":387.20000004768,"correct":true,"confidence":4},{"trial_n":99,"min":77,"max":178,"target":"present","response":"present","rt":204.80000001192,"correct":true,"confidence":4},{"trial_n":100,"min":77,"max":178,"target":"absent","response":"absent","rt":485.19999998808,"correct":true,"confidence":4},{"trial_n":101,"min":79,"max":176,"target":"present","response":"present","rt":277.10000002384,"correct":true,"confidence":4},{"trial_n":102,"min":79,"max":176,"target":"absent","response":"absent","rt":2178,"correct":true,"confidence":1},{"trial_n":103,"min":81,"max":174,"target":"present","response":"present","rt":229.5,"correct":true,"confidence":4},{"trial_n":104,"min":81,"max":174,"target":"absent","response":"present","rt":2271.4000000358,"correct":false,"confidence":1},{"trial_n":105,"min":79,"max":176,"target":"present","response":"present","rt":456,"correct":true,"confidence":4},{"trial_n":106,"min":79,"max":176,"target":"absent","response":"absent","rt":319.69999998808,"correct":true,"confidence":4},{"trial_n":107,"min":81,"max":174,"target":"absent","response":"absent","rt":1133.6000000238,"correct":true,"confidence":4},{"trial_n":108,"min":81,"max":174,"target":"absent","response":"absent","rt":401.60000002384,"correct":true,"confidence":1},{"trial_n":109,"min":83,"max":172,"target":"absent","response":"present","rt":612.80000001192,"correct":false,"confidence":4},{"trial_n":110,"min":81,"max":174,"target":"absent","response":"absent","rt":659.80000001192,"correct":true,"confidence":1},{"trial_n":111,"min":81,"max":174,"target":"absent","response":"present","rt":482,"correct":false,"confidence":4},{"trial_n":112,"min":80,"max":175,"target":"present","response":"present","rt":208.39999997616,"correct":true,"confidence":2},{"trial_n":113,"min":80,"max":175,"target":"absent","response":"absent","rt":565.10000002384,"correct":true,"confidence":4},{"trial_n":114,"min":81,"max":174,"target":"present","response":"present","rt":603,"correct":true,"confidence":4},{"trial_n":115,"min":81,"max":174,"target":"present","response":"present","rt":562.29999995232,"correct":true,"confidence":1},{"trial_n":116,"min":82,"max":173,"target":"absent","response":"present","rt":1205.7000000477,"correct":false,"confidence":1},{"trial_n":117,"min":81,"max":174,"target":"present","response":"present","rt":460.69999998808,"correct":true,"confidence":3},{"trial_n":118,"min":81,"max":174,"target":"present","response":"present","rt":926.90000003576,"correct":true,"confidence":1},{"trial_n":119,"min":82,"max":173,"target":"present","response":"present","rt":617.5,"correct":true,"confidence":3},{"trial_n":120,"min":82,"max":173,"target":"present","response":"present","rt":212.10000002384,"correct":true,"confidence":1},{"trial_n":121,"min":83,"max":172,"target":"present","response":"present","rt":533,"correct":true,"confidence":1},{"trial_n":122,"min":83,"max":172,"target":"present","response":"present","rt":964.10000002384,"correct":true,"confidence":4},{"trial_n":123,"min":84,"max":171,"target":"absent","response":"absent","rt":121.80000001192,"correct":true,"confidence":1},{"trial_n":124,"min":84,"max":171,"target":"absent","response":"absent","rt":344.39999997616,"correct":true,"confidence":1},{"trial_n":125,"min":85,"max":170,"target":"present","response":"present","rt":479.09999996424,"correct":true,"confidence":4},{"trial_n":126,"min":85,"max":170,"target":"present","response":"present","rt":531.30000001192,"correct":true,"confidence":4},{"trial_n":127,"min":86,"max":169,"target":"absent","response":"absent","rt":442.19999998808,"correct":true,"confidence":4},{"trial_n":128,"min":86,"max":169,"target":"absent","response":"absent","rt":666.19999998808,"correct":true,"confidence":1},{"trial_n":129,"min":87,"max":168,"target":"absent","response":"present","rt":589.80000001192,"correct":false,"confidence":1},{"trial_n":130,"min":86,"max":169,"target":"present","response":"present","rt":430.39999997616,"correct":true,"confidence":4},{"trial_n":131,"min":86,"max":169,"target":"absent","response":"absent","rt":639,"correct":true,"confidence":5},{"trial_n":132,"min":87,"max":168,"target":"present","response":"present","rt":467.10000002384,"correct":true,"confidence":1},{"trial_n":133,"min":87,"max":168,"target":"absent","response":"absent","rt":946.89999997616,"correct":true,"confidence":4},{"trial_n":134,"min":88,"max":167,"target":"present","response":"present","rt":543.19999998808,"correct":true,"confidence":4},{"trial_n":135,"min":88,"max":167,"target":"present","response":"present","rt":545.69999998808,"correct":true,"confidence":1},{"trial_n":136,"min":89,"max":166,"target":"absent","response":"absent","rt":741.69999998808,"correct":true,"confidence":1},{"trial_n":137,"min":89,"max":166,"target":"absent","response":"absent","rt":1157.8000000119,"correct":true,"confidence":1},{"trial_n":138,"min":90,"max":165,"target":"present","response":"present","rt":861.5,"correct":true,"confidence":4},{"trial_n":139,"min":90,"max":165,"target":"present","response":"present","rt":619.10000002384,"correct":true,"confidence":1},{"trial_n":140,"min":91,"max":164,"target":"present","response":"absent","rt":928.29999995232,"correct":false,"confidence":1}]