[{"trial_n":1,"min":25,"max":230,"target":"present","response":"absent","rt":1991,"correct":false,"confidence":-1},{"trial_n":2,"min":25,"max":230,"target":"present","response":"present","rt":1505,"correct":true,"confidence":-1},{"trial_n":3,"min":25,"max":230,"target":"absent","response":"absent","rt":436,"correct":true,"confidence":-1},{"trial_n":4,"min":41,"max":214,"target":"absent","response":"absent","rt":190,"correct":true,"confidence":-1},{"trial_n":5,"min":41,"max":214,"target":"present","response":"absent","rt":125,"correct":false,"confidence":-1},{"trial_n":6,"min":25,"max":230,"target":"present","response":"present","rt":186,"correct":true,"confidence":-1},{"trial_n":7,"min":25,"max":230,"target":"absent","response":"absent","rt":543,"correct":true,"confidence":-1},{"trial_n":8,"min":41,"max":214,"target":"present","response":"present","rt":161,"correct":true,"confidence":-1},{"trial_n":9,"min":41,"max":214,"target":"absent","response":"absent","rt":234,"correct":true,"confidence":-1},{"trial_n":10,"min":57,"max":198,"target":"present","response":"absent","rt":162,"correct":false,"confidence":-1},{"trial_n":11,"min":49,"max":206,"target":"absent","response":"absent","rt":261,"correct":true,"confidence":-1},{"trial_n":12,"min":49,"max":206,"target":"present","response":"absent","rt":118,"correct":false,"confidence":-1},{"trial_n":13,"min":41,"max":214,"target":"absent","response":"absent","rt":209,"correct":true,"confidence":-1},{"trial_n":14,"min":41,"max":214,"target":"absent","response":"absent","rt":247,"correct":true,"confidence":-1},{"trial_n":15,"min":49,"max":206,"target":"absent","response":"absent","rt":57.000000000004,"correct":true,"confidence":-1},{"trial_n":16,"min":49,"max":206,"target":"present","response":"present","rt":379,"correct":true,"confidence":-1},{"trial_n":17,"min":57,"max":198,"target":"present","response":"present","rt":181,"correct":true,"confidence":-1},{"trial_n":18,"min":57,"max":198,"target":"absent","response":"present","rt":167,"correct":false,"confidence":-1},{"trial_n":19,"min":49,"max":206,"target":"absent","response":"present","rt":245,"correct":false,"confidence":-1},{"trial_n":20,"min":41,"max":214,"target":"present","response":"absent","rt":234,"correct":false,"confidence":-1},{"trial_n":21,"min":37,"max":218,"target":"absent","response":"absent","rt":539,"correct":true,"confidence":1},{"trial_n":22,"min":37,"max":218,"target":"absent","response":"present","rt":1475,"correct":false,"confidence":1},{"trial_n":23,"min":33,"max":222,"target":"present","response":"present","rt":1402,"correct":true,"confidence":5},{"trial_n":24,"min":33,"max":222,"target":"absent","response":"absent","rt":1076,"correct":true,"confidence":5},{"trial_n":25,"min":37,"max":218,"target":"present","response":"present","rt":1601,"correct":true,"confidence":4},{"trial_n":26,"min":37,"max":218,"target":"absent","response":"absent","rt":615,"correct":true,"confidence":5},{"trial_n":27,"min":41,"max":214,"target":"present","response":"present","rt":709,"correct":true,"confidence":5},{"trial_n":28,"min":41,"max":214,"target":"absent","response":"absent","rt":563,"correct":true,"confidence":5},{"trial_n":29,"min":45,"max":210,"target":"present","response":"present","rt":305,"correct":true,"confidence":1},{"trial_n":30,"min":45,"max":210,"target":"present","response":"present","rt":1497,"correct":true,"confidence":5},{"trial_n":31,"min":47,"max":208,"target":"absent","response":"absent","rt":700.00000000001,"correct":true,"confidence":5},{"trial_n":32,"min":47,"max":208,"target":"absent","response":"absent","rt":363.00000000001,"correct":true,"confidence":5},{"trial_n":33,"min":49,"max":206,"target":"absent","response":"absent","rt":212.00000000001,"correct":true,"confidence":5},{"trial_n":34,"min":49,"max":206,"target":"absent","response":"absent","rt":191,"correct":true,"confidence":5},{"trial_n":35,"min":51,"max":204,"target":"present","response":"present","rt":1484,"correct":true,"confidence":5},{"trial_n":36,"min":51,"max":204,"target":"present","response":"absent","rt":202,"correct":false,"confidence":5},{"trial_n":37,"min":49,"max":206,"target":"present","response":"present","rt":843,"correct":true,"confidence":5},{"trial_n":38,"min":49,"max":206,"target":"absent","response":"absent","rt":260,"correct":true,"confidence":5},{"trial_n":39,"min":51,"max":204,"target":"present","response":"present","rt":467,"correct":true,"confidence":5},{"trial_n":40,"min":51,"max":204,"target":"absent","response":"absent","rt":381,"correct":true,"confidence":5},{"trial_n":41,"min":52,"max":203,"target":"present","response":"present","rt":559,"correct":true,"confidence":5},{"trial_n":42,"min":52,"max":203,"target":"absent","response":"absent","rt":280.00000000001,"correct":true,"confidence":5},{"trial_n":43,"min":53,"max":202,"target":"absent","response":"absent","rt":712.99999999999,"correct":true,"confidence":1},{"trial_n":44,"min":53,"max":202,"target":"absent","response":"absent","rt":1428,"correct":true,"confidence":5},{"trial_n":45,"min":54,"max":201,"target":"present","response":"present","rt":424.00000000001,"correct":true,"confidence":5},{"trial_n":46,"min":54,"max":201,"target":"present","response":"absent","rt":266,"correct":false,"confidence":1},{"trial_n":47,"min":53,"max":202,"target":"absent","response":"present","rt":436,"correct":false,"confidence":1},{"trial_n":48,"min":52,"max":203,"target":"absent","response":"absent","rt":839,"correct":true,"confidence":5},{"trial_n":49,"min":52,"max":203,"target":"present","response":"present","rt":420,"correct":true,"confidence":5},{"trial_n":50,"min":53,"max":202,"target":"present","response":"absent","rt":174.00000000001,"correct":false,"confidence":5},{"trial_n":51,"min":52,"max":203,"target":"present","response":"present","rt":1131,"correct":true,"confidence":5},{"trial_n":52,"min":52,"max":203,"target":"present","response":"present","rt":432,"correct":true,"confidence":5},{"trial_n":53,"min":53,"max":202,"target":"present","response":"present","rt":215.00000000001,"correct":true,"confidence":5},{"trial_n":54,"min":53,"max":202,"target":"absent","response":"absent","rt":93,"correct":true,"confidence":5},{"trial_n":55,"min":54,"max":201,"target":"present","response":"present","rt":1262,"correct":true,"confidence":5},{"trial_n":56,"min":54,"max":201,"target":"absent","response":"absent","rt":312,"correct":true,"confidence":5},{"trial_n":57,"min":55,"max":200,"target":"absent","response":"absent","rt":333,"correct":true,"confidence":5},{"trial_n":58,"min":55,"max":200,"target":"present","response":"present","rt":848,"correct":true,"confidence":5},{"trial_n":59,"min":56,"max":199,"target":"present","response":"present","rt":472,"correct":true,"confidence":5},{"trial_n":60,"min":56,"max":199,"target":"absent","response":"absent","rt":126,"correct":true,"confidence":5},{"trial_n":61,"min":57,"max":198,"target":"present","response":"present","rt":645.00000000001,"correct":true,"confidence":5},{"trial_n":62,"min":57,"max":198,"target":"present","response":"present","rt":343.00000000001,"correct":true,"confidence":5},{"trial_n":63,"min":58,"max":197,"target":"absent","response":"absent","rt":188.99999999999,"correct":true,"confidence":5},{"trial_n":64,"min":58,"max":197,"target":"present","response":"absent","rt":397,"correct":false,"confidence":1},{"trial_n":65,"min":57,"max":198,"target":"present","response":"present","rt":342.99999999999,"correct":true,"confidence":5},{"trial_n":66,"min":57,"max":198,"target":"present","response":"present","rt":452,"correct":true,"confidence":5},{"trial_n":67,"min":58,"max":197,"target":"absent","response":"absent","rt":279,"correct":true,"confidence":5},{"trial_n":68,"min":58,"max":197,"target":"absent","response":"absent","rt":708,"correct":true,"confidence":5},{"trial_n":69,"min":59,"max":196,"target":"absent","response":"absent","rt":251.99999999999,"correct":true,"confidence":5},{"trial_n":70,"min":59,"max":196,"target":"present","response":"present","rt":374.00000000001,"correct":true,"confidence":5},{"trial_n":71,"min":41,"max":214,"target":"present","response":"present","rt":4114,"correct":true,"confidence":-1},{"trial_n":72,"min":41,"max":214,"target":"present","response":"absent","rt":2820,"correct":false,"confidence":-1},{"trial_n":73,"min":25,"max":230,"target":"absent","response":"absent","rt":325,"correct":true,"confidence":-1},{"trial_n":74,"min":25,"max":230,"target":"absent","response":"present","rt":112,"correct":false,"confidence":-1},{"trial_n":75,"min":9,"max":246,"target":"present","response":"absent","rt":203,"correct":false,"confidence":-1},{"trial_n":76,"min":0,"max":255,"target":"absent","response":"absent","rt":197.99999999997,"correct":true,"confidence":-1},{"trial_n":77,"min":0,"max":255,"target":"absent","response":"absent","rt":123,"correct":true,"confidence":-1},{"trial_n":78,"min":16,"max":239,"target":"absent","response":"absent","rt":171,"correct":true,"confidence":-1},{"trial_n":79,"min":16,"max":239,"target":"absent","response":"absent","rt":122,"correct":true,"confidence":-1},{"trial_n":80,"min":32,"max":223,"target":"absent","response":"absent","rt":292,"correct":true,"confidence":-1},{"trial_n":81,"min":32,"max":223,"target":"present","response":"absent","rt":194.00000000003,"correct":false,"confidence":-1},{"trial_n":82,"min":24,"max":231,"target":"absent","response":"present","rt":141,"correct":false,"confidence":-1},{"trial_n":83,"min":16,"max":239,"target":"present","response":"absent","rt":169,"correct":false,"confidence":-1},{"trial_n":84,"min":8,"max":247,"target":"present","response":"present","rt":3159,"correct":true,"confidence":-1},{"trial_n":85,"min":8,"max":247,"target":"absent","response":"absent","rt":2211,"correct":true,"confidence":-1},{"trial_n":86,"min":16,"max":239,"target":"present","response":"absent","rt":110.99999999997,"correct":false,"confidence":-1},{"trial_n":87,"min":8,"max":247,"target":"present","response":"absent","rt":153.99999999997,"correct":false,"confidence":-1},{"trial_n":88,"min":0,"max":255,"target":"absent","response":"absent","rt":123,"correct":true,"confidence":-1},{"trial_n":89,"min":0,"max":255,"target":"absent","response":"absent","rt":121,"correct":true,"confidence":-1},{"trial_n":90,"min":8,"max":247,"target":"present","response":"absent","rt":120,"correct":false,"confidence":-1},{"trial_n":91,"min":4,"max":251,"target":"present","response":"present","rt":62,"correct":true,"confidence":2},{"trial_n":92,"min":4,"max":251,"target":"present","response":"absent","rt":160,"correct":false,"confidence":1},{"trial_n":93,"min":0,"max":255,"target":"present","response":"absent","rt":181,"correct":false,"confidence":1},{"trial_n":94,"min":0,"max":255,"target":"absent","response":"absent","rt":117,"correct":true,"confidence":1},{"trial_n":95,"min":0,"max":255,"target":"present","response":"present","rt":63,"correct":true,"confidence":1},{"trial_n":96,"min":4,"max":251,"target":"present","response":"absent","rt":177.00000000003,"correct":false,"confidence":1},{"trial_n":97,"min":0,"max":255,"target":"absent","response":"absent","rt":78,"correct":true,"confidence":1},{"trial_n":98,"min":0,"max":255,"target":"present","response":"absent","rt":91,"correct":false,"confidence":1},{"trial_n":99,"min":0,"max":255,"target":"present","response":"present","rt":85,"correct":true,"confidence":1},{"trial_n":100,"min":0,"max":255,"target":"absent","response":"absent","rt":101,"correct":true,"confidence":2},{"trial_n":101,"min":2,"max":253,"target":"present","response":"present","rt":148.99999999997,"correct":true,"confidence":2},{"trial_n":102,"min":2,"max":253,"target":"present","response":"present","rt":1772,"correct":true,"confidence":2},{"trial_n":103,"min":4,"max":251,"target":"present","response":"absent","rt":67.999999999971,"correct":false,"confidence":1},{"trial_n":104,"min":2,"max":253,"target":"absent","response":"present","rt":123,"correct":false,"confidence":2},{"trial_n":105,"min":0,"max":255,"target":"present","response":"absent","rt":101.00000000003,"correct":false,"confidence":1},{"trial_n":106,"min":0,"max":255,"target":"present","response":"present","rt":82,"correct":true,"confidence":2},{"trial_n":107,"min":0,"max":255,"target":"present","response":"present","rt":102,"correct":true,"confidence":2},{"trial_n":108,"min":2,"max":253,"target":"absent","response":"present","rt":87,"correct":false,"confidence":1},{"trial_n":109,"min":0,"max":255,"target":"absent","response":"present","rt":161,"correct":false,"confidence":2},{"trial_n":110,"min":0,"max":255,"target":"absent","response":"absent","rt":180,"correct":true,"confidence":1},{"trial_n":111,"min":0,"max":255,"target":"absent","response":"present","rt":69,"correct":false,"confidence":2},{"trial_n":112,"min":0,"max":255,"target":"present","response":"absent","rt":61.999999999971,"correct":false,"confidence":1},{"trial_n":113,"min":0,"max":255,"target":"absent","response":"absent","rt":102,"correct":true,"confidence":1},{"trial_n":114,"min":0,"max":255,"target":"present","response":"absent","rt":134.00000000003,"correct":false,"confidence":1},{"trial_n":115,"min":0,"max":255,"target":"absent","response":"present","rt":62.999999999971,"correct":false,"confidence":1},{"trial_n":116,"min":0,"max":255,"target":"absent","response":"present","rt":128,"correct":false,"confidence":1},{"trial_n":117,"min":0,"max":255,"target":"present","response":"absent","rt":154,"correct":false,"confidence":1},{"trial_n":118,"min":0,"max":255,"target":"present","response":"present","rt":190,"correct":true,"confidence":2},{"trial_n":119,"min":0,"max":255,"target":"absent","response":"present","rt":71.000000000029,"correct":false,"confidence":1},{"trial_n":120,"min":0,"max":255,"target":"absent","response":"present","rt":185.99999999997,"correct":false,"confidence":2},{"trial_n":121,"min":0,"max":255,"target":"absent","response":"present","rt":171,"correct":false,"confidence":2},{"trial_n":122,"min":0,"max":255,"target":"present","response":"present","rt":152,"correct":true,"confidence":2},{"trial_n":123,"min":0,"max":255,"target":"present","response":"absent","rt":140,"correct":false,"confidence":1},{"trial_n":124,"min":0,"max":255,"target":"absent","response":"present","rt":199,"correct":false,"confidence":1},{"trial_n":125,"min":0,"max":255,"target":"present","response":"present","rt":208,"correct":true,"confidence":2},{"trial_n":126,"min":0,"max":255,"target":"present","response":"present","rt":63,"correct":true,"confidence":1},{"trial_n":127,"min":1,"max":254,"target":"absent","response":"absent","rt":197,"correct":true,"confidence":1},{"trial_n":128,"min":1,"max":254,"target":"absent","response":"present","rt":210.99999999997,"correct":false,"confidence":2},{"trial_n":129,"min":0,"max":255,"target":"absent","response":"present","rt":155.99999999997,"correct":false,"confidence":2},{"trial_n":130,"min":0,"max":255,"target":"present","response":"present","rt":162,"correct":true,"confidence":2},{"trial_n":131,"min":0,"max":255,"target":"present","response":"present","rt":212,"correct":true,"confidence":2},{"trial_n":132,"min":1,"max":254,"target":"absent","response":"present","rt":138,"correct":false,"confidence":2},{"trial_n":133,"min":0,"max":255,"target":"present","response":"absent","rt":182,"correct":false,"confidence":1},{"trial_n":134,"min":0,"max":255,"target":"absent","response":"present","rt":158,"correct":false,"confidence":2},{"trial_n":135,"min":0,"max":255,"target":"absent","response":"absent","rt":219,"correct":true,"confidence":1},{"trial_n":136,"min":0,"max":255,"target":"present","response":"present","rt":190,"correct":true,"confidence":1},{"trial_n":137,"min":1,"max":254,"target":"absent","response":"present","rt":192.00000000003,"correct":false,"confidence":2},{"trial_n":138,"min":0,"max":255,"target":"absent","response":"present","rt":162,"correct":false,"confidence":2},{"trial_n":139,"min":0,"max":255,"target":"present","response":"present","rt":158,"correct":true,"confidence":2},{"trial_n":140,"min":0,"max":255,"target":"present","response":"present","rt":166.00000000003,"correct":true,"confidence":2}]