[{"trial_n":1,"n_dots":4.25,"target":"right","response":"left","rt":2647,"correct":false,"confidence":-1},{"trial_n":2,"n_dots":4.25,"target":"right","response":"left","rt":629,"correct":false,"confidence":-1},{"trial_n":3,"n_dots":4.65,"target":"left","response":"right","rt":485,"correct":false,"confidence":-1},{"trial_n":4,"n_dots":5.05,"target":"left","response":"left","rt":153,"correct":true,"confidence":-1},{"trial_n":5,"n_dots":5.05,"target":"left","response":"left","rt":67,"correct":true,"confidence":-1},{"trial_n":6,"n_dots":4.65,"target":"left","response":"left","rt":83,"correct":true,"confidence":-1},{"trial_n":7,"n_dots":4.65,"target":"right","response":"right","rt":180,"correct":true,"confidence":-1},{"trial_n":8,"n_dots":4.45,"target":"right","response":"right","rt":1699,"correct":true,"confidence":-1},{"trial_n":9,"n_dots":4.45,"target":"left","response":"left","rt":1822,"correct":true,"confidence":-1},{"trial_n":10,"n_dots":4.25,"target":"left","response":"right","rt":121,"correct":false,"confidence":-1},{"trial_n":11,"n_dots":4.45,"target":"right","response":"right","rt":674,"correct":true,"confidence":-1},{"trial_n":12,"n_dots":4.45,"target":"right","response":"right","rt":177,"correct":true,"confidence":-1},{"trial_n":13,"n_dots":4.35,"target":"left","response":"left","rt":87.000000000007,"correct":true,"confidence":-1},{"trial_n":14,"n_dots":4.35,"target":"left","response":"left","rt":241,"correct":true,"confidence":-1},{"trial_n":15,"n_dots":4.25,"target":"right","response":"right","rt":166,"correct":true,"confidence":-1},{"trial_n":16,"n_dots":4.25,"target":"right","response":"right","rt":379,"correct":true,"confidence":-1},{"trial_n":17,"n_dots":4.15,"target":"left","response":"left","rt":179,"correct":true,"confidence":-1},{"trial_n":18,"n_dots":4.15,"target":"left","response":"left","rt":70,"correct":true,"confidence":-1},{"trial_n":19,"n_dots":4.05,"target":"right","response":"right","rt":634.99999999999,"correct":true,"confidence":-1},{"trial_n":20,"n_dots":4.05,"target":"right","response":"left","rt":138,"correct":false,"confidence":-1},{"trial_n":21,"n_dots":4.15,"target":"right","response":"right","rt":172,"correct":true,"confidence":2},{"trial_n":22,"n_dots":4.15,"target":"right","response":"right","rt":311,"correct":true,"confidence":3},{"trial_n":23,"n_dots":4.05,"target":"left","response":"left","rt":449,"correct":true,"confidence":4},{"trial_n":24,"n_dots":4.05,"target":"right","response":"right","rt":792,"correct":true,"confidence":2},{"trial_n":25,"n_dots":3.95,"target":"left","response":"left","rt":501,"correct":true,"confidence":3},{"trial_n":26,"n_dots":3.95,"target":"right","response":"right","rt":667,"correct":true,"confidence":4},{"trial_n":27,"n_dots":3.85,"target":"right","response":"left","rt":510.00000000001,"correct":false,"confidence":3},{"trial_n":28,"n_dots":3.95,"target":"left","response":"right","rt":1266,"correct":false,"confidence":3},{"trial_n":29,"n_dots":4.05,"target":"left","response":"left","rt":193,"correct":true,"confidence":4},{"trial_n":30,"n_dots":4.05,"target":"right","response":"right","rt":155,"correct":true,"confidence":3},{"trial_n":31,"n_dots":3.95,"target":"right","response":"right","rt":112.00000000001,"correct":true,"confidence":1},{"trial_n":32,"n_dots":3.95,"target":"left","response":"left","rt":118,"correct":true,"confidence":1},{"trial_n":33,"n_dots":3.85,"target":"left","response":"left","rt":655.00000000001,"correct":true,"confidence":3},{"trial_n":34,"n_dots":3.85,"target":"left","response":"left","rt":58,"correct":true,"confidence":3},{"trial_n":35,"n_dots":3.75,"target":"right","response":"right","rt":536.00000000001,"correct":true,"confidence":3},{"trial_n":36,"n_dots":3.75,"target":"left","response":"left","rt":187,"correct":true,"confidence":3},{"trial_n":37,"n_dots":3.65,"target":"left","response":"left","rt":262.99999999999,"correct":true,"confidence":4},{"trial_n":38,"n_dots":3.65,"target":"right","response":"right","rt":156,"correct":true,"confidence":3},{"trial_n":39,"n_dots":3.55,"target":"left","response":"right","rt":549,"correct":false,"confidence":2},{"trial_n":40,"n_dots":3.65,"target":"right","response":"left","rt":1100,"correct":false,"confidence":2},{"trial_n":41,"n_dots":3.75,"target":"right","response":"right","rt":141,"correct":true,"confidence":4},{"trial_n":42,"n_dots":3.75,"target":"right","response":"left","rt":842,"correct":false,"confidence":1},{"trial_n":43,"n_dots":3.85,"target":"right","response":"right","rt":230,"correct":true,"confidence":5},{"trial_n":44,"n_dots":3.85,"target":"left","response":"left","rt":313,"correct":true,"confidence":4},{"trial_n":45,"n_dots":3.75,"target":"right","response":"right","rt":98.999999999971,"correct":true,"confidence":4},{"trial_n":46,"n_dots":3.75,"target":"left","response":"left","rt":1129,"correct":true,"confidence":2},{"trial_n":47,"n_dots":3.65,"target":"left","response":"left","rt":1466,"correct":true,"confidence":5},{"trial_n":48,"n_dots":3.65,"target":"left","response":"left","rt":555,"correct":true,"confidence":3},{"trial_n":49,"n_dots":3.55,"target":"left","response":"left","rt":587,"correct":true,"confidence":1},{"trial_n":50,"n_dots":3.55,"target":"left","response":"left","rt":858,"correct":true,"confidence":1},{"trial_n":51,"n_dots":3.45,"target":"left","response":"left","rt":597,"correct":true,"confidence":3},{"trial_n":52,"n_dots":3.45,"target":"right","response":"right","rt":731,"correct":true,"confidence":2},{"trial_n":53,"n_dots":3.35,"target":"right","response":"left","rt":1096,"correct":false,"confidence":4},{"trial_n":54,"n_dots":3.45,"target":"left","response":"left","rt":174,"correct":true,"confidence":2},{"trial_n":55,"n_dots":3.45,"target":"left","response":"right","rt":82,"correct":false,"confidence":3},{"trial_n":56,"n_dots":3.55,"target":"right","response":"right","rt":250,"correct":true,"confidence":3},{"trial_n":57,"n_dots":3.55,"target":"left","response":"left","rt":479,"correct":true,"confidence":2},{"trial_n":58,"n_dots":3.45,"target":"left","response":"right","rt":828,"correct":false,"confidence":3},{"trial_n":59,"n_dots":3.55,"target":"right","response":"right","rt":625,"correct":true,"confidence":3},{"trial_n":60,"n_dots":3.55,"target":"left","response":"left","rt":1443,"correct":true,"confidence":1},{"trial_n":61,"n_dots":3.45,"target":"left","response":"left","rt":798,"correct":true,"confidence":2},{"trial_n":62,"n_dots":3.45,"target":"left","response":"right","rt":89,"correct":false,"confidence":1},{"trial_n":63,"n_dots":3.55,"target":"left","response":"left","rt":913.00000000003,"correct":true,"confidence":3},{"trial_n":64,"n_dots":3.55,"target":"right","response":"right","rt":125,"correct":true,"confidence":3},{"trial_n":65,"n_dots":3.45,"target":"right","response":"left","rt":908,"correct":false,"confidence":2},{"trial_n":66,"n_dots":3.55,"target":"left","response":"left","rt":85.000000000029,"correct":true,"confidence":1},{"trial_n":67,"n_dots":3.55,"target":"left","response":"left","rt":84,"correct":true,"confidence":2},{"trial_n":68,"n_dots":3.45,"target":"left","response":"left","rt":265,"correct":true,"confidence":1},{"trial_n":69,"n_dots":3.45,"target":"left","response":"left","rt":675.99999999997,"correct":true,"confidence":2},{"trial_n":70,"n_dots":3.35,"target":"left","response":"left","rt":613,"correct":true,"confidence":1},{"trial_n":71,"n_dots":3.35,"target":"right","response":"right","rt":91,"correct":true,"confidence":1},{"trial_n":72,"n_dots":3.25,"target":"right","response":"right","rt":379,"correct":true,"confidence":1},{"trial_n":73,"n_dots":3.25,"target":"left","response":"right","rt":240,"correct":false,"confidence":2},{"trial_n":74,"n_dots":3.35,"target":"left","response":"left","rt":230.99999999997,"correct":true,"confidence":2},{"trial_n":75,"n_dots":3.35,"target":"right","response":"right","rt":166,"correct":true,"confidence":1},{"trial_n":76,"n_dots":3.25,"target":"left","response":"left","rt":170,"correct":true,"confidence":1},{"trial_n":77,"n_dots":3.25,"target":"left","response":"right","rt":655,"correct":false,"confidence":1},{"trial_n":78,"n_dots":3.35,"target":"left","response":"left","rt":241,"correct":true,"confidence":1},{"trial_n":79,"n_dots":3.35,"target":"right","response":"left","rt":205,"correct":false,"confidence":1},{"trial_n":80,"n_dots":3.45,"target":"right","response":"right","rt":146,"correct":true,"confidence":1},{"trial_n":81,"n_dots":3.45,"target":"left","response":"left","rt":780,"correct":true,"confidence":1},{"trial_n":82,"n_dots":3.35,"target":"right","response":"left","rt":137.99999999997,"correct":false,"confidence":1},{"trial_n":83,"n_dots":3.45,"target":"right","response":"left","rt":55.999999999971,"correct":false,"confidence":1},{"trial_n":84,"n_dots":3.55,"target":"left","response":"right","rt":197,"correct":false,"confidence":1},{"trial_n":85,"n_dots":3.65,"target":"left","response":"left","rt":75,"correct":true,"confidence":1},{"trial_n":86,"n_dots":3.65,"target":"left","response":"right","rt":158,"correct":false,"confidence":1},{"trial_n":87,"n_dots":3.75,"target":"left","response":"left","rt":63,"correct":true,"confidence":1},{"trial_n":88,"n_dots":3.75,"target":"right","response":"right","rt":70,"correct":true,"confidence":1},{"trial_n":89,"n_dots":3.65,"target":"right","response":"right","rt":214,"correct":true,"confidence":2},{"trial_n":90,"n_dots":3.65,"target":"right","response":"right","rt":159,"correct":true,"confidence":1},{"trial_n":91,"n_dots":3.55,"target":"left","response":"left","rt":61,"correct":true,"confidence":1},{"trial_n":92,"n_dots":3.55,"target":"right","response":"left","rt":54,"correct":false,"confidence":1},{"trial_n":93,"n_dots":3.65,"target":"right","response":"right","rt":108,"correct":true,"confidence":1},{"trial_n":94,"n_dots":3.65,"target":"right","response":"right","rt":158,"correct":true,"confidence":1},{"trial_n":95,"n_dots":3.55,"target":"right","response":"right","rt":184,"correct":true,"confidence":1},{"trial_n":96,"n_dots":3.55,"target":"right","response":"right","rt":138,"correct":true,"confidence":2},{"trial_n":97,"n_dots":3.45,"target":"left","response":"right","rt":285,"correct":false,"confidence":1},{"trial_n":98,"n_dots":3.55,"target":"left","response":"left","rt":202,"correct":true,"confidence":2},{"trial_n":99,"n_dots":3.55,"target":"right","response":"right","rt":270,"correct":true,"confidence":2},{"trial_n":100,"n_dots":3.45,"target":"right","response":"right","rt":384,"correct":true,"confidence":1},{"trial_n":101,"n_dots":3.45,"target":"left","response":"left","rt":102,"correct":true,"confidence":1},{"trial_n":102,"n_dots":3.35,"target":"right","response":"left","rt":149,"correct":false,"confidence":2},{"trial_n":103,"n_dots":3.45,"target":"left","response":"right","rt":106,"correct":false,"confidence":1},{"trial_n":104,"n_dots":3.55,"target":"right","response":"left","rt":241,"correct":false,"confidence":3},{"trial_n":105,"n_dots":3.65,"target":"left","response":"right","rt":87,"correct":false,"confidence":3},{"trial_n":106,"n_dots":3.75,"target":"right","response":"left","rt":161,"correct":false,"confidence":1},{"trial_n":107,"n_dots":3.85,"target":"right","response":"left","rt":215,"correct":false,"confidence":2},{"trial_n":108,"n_dots":3.95,"target":"left","response":"right","rt":162,"correct":false,"confidence":2},{"trial_n":109,"n_dots":4.05,"target":"right","response":"right","rt":134,"correct":true,"confidence":1},{"trial_n":110,"n_dots":4.05,"target":"right","response":"left","rt":117,"correct":false,"confidence":1},{"trial_n":111,"n_dots":4.15,"target":"right","response":"left","rt":154.99999999994,"correct":false,"confidence":1},{"trial_n":112,"n_dots":4.25,"target":"right","response":"left","rt":492,"correct":false,"confidence":1},{"trial_n":113,"n_dots":4.35,"target":"left","response":"right","rt":103,"correct":false,"confidence":1},{"trial_n":114,"n_dots":4.45,"target":"right","response":"left","rt":126,"correct":false,"confidence":2},{"trial_n":115,"n_dots":4.55,"target":"right","response":"left","rt":117,"correct":false,"confidence":1},{"trial_n":116,"n_dots":4.65,"target":"right","response":"left","rt":104,"correct":false,"confidence":1},{"trial_n":117,"n_dots":4.75,"target":"right","response":"left","rt":143,"correct":false,"confidence":2},{"trial_n":118,"n_dots":4.85,"target":"right","response":"left","rt":214,"correct":false,"confidence":1},{"trial_n":119,"n_dots":4.95,"target":"left","response":"right","rt":114.99999999994,"correct":false,"confidence":1},{"trial_n":120,"n_dots":5.05,"target":"left","response":"left","rt":187,"correct":true,"confidence":1}]