[{"trial_n":1,"min":25,"max":230,"target":"present","response":"present","rt":3894,"correct":true,"confidence":-1},{"trial_n":2,"min":25,"max":230,"target":"present","response":"present","rt":1066,"correct":true,"confidence":-1},{"trial_n":3,"min":41,"max":214,"target":"absent","response":"present","rt":616,"correct":false,"confidence":-1},{"trial_n":4,"min":25,"max":230,"target":"absent","response":"absent","rt":1003,"correct":true,"confidence":-1},{"trial_n":5,"min":25,"max":230,"target":"present","response":"present","rt":856,"correct":true,"confidence":-1},{"trial_n":6,"min":41,"max":214,"target":"present","response":"present","rt":780,"correct":true,"confidence":-1},{"trial_n":7,"min":41,"max":214,"target":"present","response":"absent","rt":427,"correct":false,"confidence":-1},{"trial_n":8,"min":25,"max":230,"target":"present","response":"absent","rt":564,"correct":false,"confidence":-1},{"trial_n":9,"min":9,"max":246,"target":"absent","response":"present","rt":543,"correct":false,"confidence":-1},{"trial_n":10,"min":0,"max":255,"target":"absent","response":"absent","rt":799,"correct":true,"confidence":-1},{"trial_n":11,"min":0,"max":255,"target":"present","response":"present","rt":894,"correct":true,"confidence":-1},{"trial_n":12,"min":8,"max":247,"target":"present","response":"present","rt":988,"correct":true,"confidence":-1},{"trial_n":13,"min":8,"max":247,"target":"present","response":"present","rt":758,"correct":true,"confidence":-1},{"trial_n":14,"min":16,"max":239,"target":"present","response":"present","rt":503,"correct":true,"confidence":-1},{"trial_n":15,"min":16,"max":239,"target":"absent","response":"absent","rt":628,"correct":true,"confidence":-1},{"trial_n":16,"min":24,"max":231,"target":"absent","response":"absent","rt":791,"correct":true,"confidence":-1},{"trial_n":17,"min":24,"max":231,"target":"absent","response":"absent","rt":321.00000000001,"correct":true,"confidence":-1},{"trial_n":18,"min":32,"max":223,"target":"present","response":"present","rt":589,"correct":true,"confidence":-1},{"trial_n":19,"min":32,"max":223,"target":"absent","response":"absent","rt":460,"correct":true,"confidence":-1},{"trial_n":20,"min":40,"max":215,"target":"present","response":"present","rt":524,"correct":true,"confidence":-1},{"trial_n":21,"min":40,"max":215,"target":"present","response":"present","rt":578,"correct":true,"confidence":4},{"trial_n":22,"min":44,"max":211,"target":"absent","response":"absent","rt":910.99999999999,"correct":true,"confidence":4},{"trial_n":23,"min":44,"max":211,"target":"present","response":"present","rt":737,"correct":true,"confidence":4},{"trial_n":24,"min":48,"max":207,"target":"present","response":"present","rt":635,"correct":true,"confidence":4},{"trial_n":25,"min":48,"max":207,"target":"absent","response":"absent","rt":791,"correct":true,"confidence":4},{"trial_n":26,"min":52,"max":203,"target":"absent","response":"absent","rt":997,"correct":true,"confidence":4},{"trial_n":27,"min":52,"max":203,"target":"present","response":"present","rt":737.99999999999,"correct":true,"confidence":4},{"trial_n":28,"min":56,"max":199,"target":"present","response":"present","rt":772.00000000001,"correct":true,"confidence":4},{"trial_n":29,"min":56,"max":199,"target":"absent","response":"absent","rt":1867,"correct":true,"confidence":3},{"trial_n":30,"min":60,"max":195,"target":"absent","response":"absent","rt":1118,"correct":true,"confidence":3},{"trial_n":31,"min":60,"max":195,"target":"absent","response":"absent","rt":1428,"correct":true,"confidence":2},{"trial_n":32,"min":62,"max":193,"target":"absent","response":"absent","rt":977,"correct":true,"confidence":4},{"trial_n":33,"min":62,"max":193,"target":"absent","response":"absent","rt":936,"correct":true,"confidence":3},{"trial_n":34,"min":64,"max":191,"target":"present","response":"present","rt":835,"correct":true,"confidence":3},{"trial_n":35,"min":64,"max":191,"target":"present","response":"absent","rt":765.99999999994,"correct":false,"confidence":3},{"trial_n":36,"min":62,"max":193,"target":"absent","response":"absent","rt":776.99999999994,"correct":true,"confidence":3},{"trial_n":37,"min":62,"max":193,"target":"absent","response":"absent","rt":645,"correct":true,"confidence":4},{"trial_n":38,"min":64,"max":191,"target":"absent","response":"absent","rt":657,"correct":true,"confidence":3},{"trial_n":39,"min":64,"max":191,"target":"absent","response":"absent","rt":792,"correct":true,"confidence":3},{"trial_n":40,"min":66,"max":189,"target":"absent","response":"present","rt":928,"correct":false,"confidence":3},{"trial_n":41,"min":65,"max":190,"target":"present","response":"present","rt":803,"correct":true,"confidence":4},{"trial_n":42,"min":65,"max":190,"target":"absent","response":"absent","rt":2758.0000000001,"correct":true,"confidence":2},{"trial_n":43,"min":66,"max":189,"target":"present","response":"present","rt":829.99999999994,"correct":true,"confidence":4},{"trial_n":44,"min":66,"max":189,"target":"present","response":"present","rt":711,"correct":true,"confidence":4},{"trial_n":45,"min":67,"max":188,"target":"absent","response":"present","rt":1149,"correct":false,"confidence":3},{"trial_n":46,"min":66,"max":189,"target":"present","response":"present","rt":624,"correct":true,"confidence":3},{"trial_n":47,"min":66,"max":189,"target":"absent","response":"present","rt":744,"correct":false,"confidence":3},{"trial_n":48,"min":65,"max":190,"target":"absent","response":"absent","rt":2832,"correct":true,"confidence":3},{"trial_n":49,"min":65,"max":190,"target":"present","response":"present","rt":691.99999999988,"correct":true,"confidence":4},{"trial_n":50,"min":66,"max":189,"target":"present","response":"present","rt":846,"correct":true,"confidence":4},{"trial_n":51,"min":66,"max":189,"target":"present","response":"present","rt":922,"correct":true,"confidence":4},{"trial_n":52,"min":67,"max":188,"target":"absent","response":"present","rt":1800,"correct":false,"confidence":3},{"trial_n":53,"min":66,"max":189,"target":"present","response":"present","rt":652,"correct":true,"confidence":4},{"trial_n":54,"min":66,"max":189,"target":"present","response":"present","rt":568,"correct":true,"confidence":4},{"trial_n":55,"min":67,"max":188,"target":"present","response":"present","rt":411,"correct":true,"confidence":4},{"trial_n":56,"min":67,"max":188,"target":"present","response":"present","rt":639,"correct":true,"confidence":4},{"trial_n":57,"min":68,"max":187,"target":"absent","response":"absent","rt":598,"correct":true,"confidence":4},{"trial_n":58,"min":68,"max":187,"target":"absent","response":"absent","rt":521.00000000012,"correct":true,"confidence":4},{"trial_n":59,"min":69,"max":186,"target":"absent","response":"absent","rt":570,"correct":true,"confidence":4},{"trial_n":60,"min":69,"max":186,"target":"present","response":"present","rt":792,"correct":true,"confidence":4},{"trial_n":61,"min":70,"max":185,"target":"present","response":"present","rt":1464,"correct":true,"confidence":4},{"trial_n":62,"min":70,"max":185,"target":"present","response":"present","rt":557.00000000012,"correct":true,"confidence":4},{"trial_n":63,"min":71,"max":184,"target":"present","response":"present","rt":583,"correct":true,"confidence":3},{"trial_n":64,"min":71,"max":184,"target":"absent","response":"absent","rt":656,"correct":true,"confidence":4},{"trial_n":65,"min":72,"max":183,"target":"absent","response":"absent","rt":439,"correct":true,"confidence":4},{"trial_n":66,"min":72,"max":183,"target":"absent","response":"absent","rt":934,"correct":true,"confidence":4},{"trial_n":67,"min":73,"max":182,"target":"absent","response":"absent","rt":745,"correct":true,"confidence":4},{"trial_n":68,"min":73,"max":182,"target":"present","response":"present","rt":578,"correct":true,"confidence":4},{"trial_n":69,"min":74,"max":181,"target":"present","response":"present","rt":494.00000000012,"correct":true,"confidence":4},{"trial_n":70,"min":74,"max":181,"target":"absent","response":"absent","rt":594.00000000012,"correct":true,"confidence":4},{"trial_n":71,"min":41,"max":214,"target":"present","response":"present","rt":2007,"correct":true,"confidence":-1},{"trial_n":72,"min":41,"max":214,"target":"present","response":"present","rt":914,"correct":true,"confidence":-1},{"trial_n":73,"min":57,"max":198,"target":"absent","response":"absent","rt":380,"correct":true,"confidence":-1},{"trial_n":74,"min":57,"max":198,"target":"absent","response":"absent","rt":543.00000000012,"correct":true,"confidence":-1},{"trial_n":75,"min":73,"max":182,"target":"present","response":"present","rt":455,"correct":true,"confidence":-1},{"trial_n":76,"min":73,"max":182,"target":"present","response":"present","rt":391,"correct":true,"confidence":-1},{"trial_n":77,"min":89,"max":166,"target":"absent","response":"absent","rt":734,"correct":true,"confidence":-1},{"trial_n":78,"min":89,"max":166,"target":"absent","response":"absent","rt":509,"correct":true,"confidence":-1},{"trial_n":79,"min":105,"max":150,"target":"present","response":"present","rt":667,"correct":true,"confidence":-1},{"trial_n":80,"min":105,"max":150,"target":"absent","response":"absent","rt":625,"correct":true,"confidence":-1},{"trial_n":81,"min":113,"max":142,"target":"present","response":"present","rt":610.00000000012,"correct":true,"confidence":-1},{"trial_n":82,"min":113,"max":142,"target":"absent","response":"absent","rt":611,"correct":true,"confidence":-1},{"trial_n":83,"min":121,"max":134,"target":"present","response":"absent","rt":732,"correct":false,"confidence":-1},{"trial_n":84,"min":121,"max":134,"target":"absent","response":"present","rt":521,"correct":false,"confidence":-1},{"trial_n":85,"min":121,"max":134,"target":"present","response":"absent","rt":1092,"correct":false,"confidence":-1},{"trial_n":86,"min":121,"max":134,"target":"absent","response":"absent","rt":361,"correct":true,"confidence":-1},{"trial_n":87,"min":121,"max":134,"target":"absent","response":"present","rt":564,"correct":false,"confidence":-1},{"trial_n":88,"min":121,"max":134,"target":"present","response":"absent","rt":1349,"correct":false,"confidence":-1},{"trial_n":89,"min":121,"max":134,"target":"absent","response":"present","rt":817,"correct":false,"confidence":-1},{"trial_n":90,"min":121,"max":134,"target":"present","response":"absent","rt":791,"correct":false,"confidence":-1},{"trial_n":91,"min":117,"max":138,"target":"absent","response":"present","rt":1214.9999999999,"correct":false,"confidence":3},{"trial_n":92,"min":113,"max":142,"target":"present","response":"absent","rt":1043.0000000001,"correct":false,"confidence":2},{"trial_n":93,"min":109,"max":146,"target":"absent","response":"present","rt":504,"correct":false,"confidence":3},{"trial_n":94,"min":105,"max":150,"target":"present","response":"present","rt":584,"correct":true,"confidence":3},{"trial_n":95,"min":105,"max":150,"target":"absent","response":"absent","rt":1043,"correct":true,"confidence":1},{"trial_n":96,"min":109,"max":146,"target":"absent","response":"absent","rt":1039,"correct":true,"confidence":1},{"trial_n":97,"min":109,"max":146,"target":"present","response":"absent","rt":1139,"correct":false,"confidence":1},{"trial_n":98,"min":105,"max":150,"target":"absent","response":"absent","rt":1727,"correct":true,"confidence":3},{"trial_n":99,"min":105,"max":150,"target":"present","response":"absent","rt":596,"correct":false,"confidence":3},{"trial_n":100,"min":101,"max":154,"target":"present","response":"present","rt":933,"correct":true,"confidence":2},{"trial_n":101,"min":101,"max":154,"target":"absent","response":"present","rt":1150,"correct":false,"confidence":2},{"trial_n":102,"min":99,"max":156,"target":"absent","response":"present","rt":868,"correct":false,"confidence":1},{"trial_n":103,"min":97,"max":158,"target":"absent","response":"present","rt":879,"correct":false,"confidence":1},{"trial_n":104,"min":95,"max":160,"target":"present","response":"absent","rt":613.00000000012,"correct":false,"confidence":1},{"trial_n":105,"min":93,"max":162,"target":"present","response":"present","rt":954.00000000012,"correct":true,"confidence":1},{"trial_n":106,"min":93,"max":162,"target":"present","response":"absent","rt":918,"correct":false,"confidence":1},{"trial_n":107,"min":91,"max":164,"target":"absent","response":"present","rt":795.99999999988,"correct":false,"confidence":3},{"trial_n":108,"min":89,"max":166,"target":"present","response":"absent","rt":954,"correct":false,"confidence":1},{"trial_n":109,"min":87,"max":168,"target":"present","response":"present","rt":678,"correct":true,"confidence":3},{"trial_n":110,"min":87,"max":168,"target":"present","response":"absent","rt":1074,"correct":false,"confidence":1},{"trial_n":111,"min":86,"max":169,"target":"present","response":"present","rt":540,"correct":true,"confidence":3},{"trial_n":112,"min":86,"max":169,"target":"present","response":"present","rt":543,"correct":true,"confidence":3},{"trial_n":113,"min":87,"max":168,"target":"absent","response":"absent","rt":999,"correct":true,"confidence":1},{"trial_n":114,"min":87,"max":168,"target":"absent","response":"absent","rt":1473,"correct":true,"confidence":3},{"trial_n":115,"min":88,"max":167,"target":"absent","response":"absent","rt":574,"correct":true,"confidence":1},{"trial_n":116,"min":88,"max":167,"target":"present","response":"present","rt":765,"correct":true,"confidence":1},{"trial_n":117,"min":89,"max":166,"target":"absent","response":"absent","rt":317,"correct":true,"confidence":1},{"trial_n":118,"min":89,"max":166,"target":"present","response":"present","rt":750.99999999988,"correct":true,"confidence":3},{"trial_n":119,"min":90,"max":165,"target":"present","response":"absent","rt":591,"correct":false,"confidence":1},{"trial_n":120,"min":89,"max":166,"target":"absent","response":"present","rt":2221.0000000001,"correct":false,"confidence":1},{"trial_n":121,"min":88,"max":167,"target":"present","response":"present","rt":515.00000000012,"correct":true,"confidence":3},{"trial_n":122,"min":88,"max":167,"target":"present","response":"present","rt":482.99999999988,"correct":true,"confidence":4},{"trial_n":123,"min":89,"max":166,"target":"absent","response":"absent","rt":969.99999999977,"correct":true,"confidence":4},{"trial_n":124,"min":89,"max":166,"target":"absent","response":"absent","rt":639.00000000012,"correct":true,"confidence":1},{"trial_n":125,"min":90,"max":165,"target":"absent","response":"present","rt":740,"correct":false,"confidence":1},{"trial_n":126,"min":89,"max":166,"target":"present","response":"present","rt":857,"correct":true,"confidence":1},{"trial_n":127,"min":89,"max":166,"target":"present","response":"absent","rt":374,"correct":false,"confidence":1},{"trial_n":128,"min":88,"max":167,"target":"present","response":"present","rt":1044.9999999998,"correct":true,"confidence":1},{"trial_n":129,"min":88,"max":167,"target":"absent","response":"absent","rt":1268,"correct":true,"confidence":3},{"trial_n":130,"min":89,"max":166,"target":"absent","response":"present","rt":879,"correct":false,"confidence":3},{"trial_n":131,"min":88,"max":167,"target":"present","response":"present","rt":682,"correct":true,"confidence":4},{"trial_n":132,"min":88,"max":167,"target":"present","response":"present","rt":1488,"correct":true,"confidence":2},{"trial_n":133,"min":89,"max":166,"target":"present","response":"present","rt":591.99999999977,"correct":true,"confidence":4},{"trial_n":134,"min":89,"max":166,"target":"absent","response":"absent","rt":1276,"correct":true,"confidence":1},{"trial_n":135,"min":90,"max":165,"target":"absent","response":"present","rt":744,"correct":false,"confidence":1},{"trial_n":136,"min":89,"max":166,"target":"absent","response":"present","rt":810,"correct":false,"confidence":1},{"trial_n":137,"min":88,"max":167,"target":"present","response":"present","rt":748,"correct":true,"confidence":3},{"trial_n":138,"min":88,"max":167,"target":"present","response":"present","rt":570,"correct":true,"confidence":4},{"trial_n":139,"min":89,"max":166,"target":"absent","response":"present","rt":1456,"correct":false,"confidence":1},{"trial_n":140,"min":88,"max":167,"target":"absent","response":"absent","rt":775,"correct":true,"confidence":1}]