[{"trial_n":1,"span":8,"encoder":"92897116","distractor":"92892116","target":"present","response":"present","rt":"3014","correct":true,"confidence":-1},{"trial_n":2,"span":8,"encoder":"29089835","distractor":"29049835","target":"present","response":"absent","rt":"3088","correct":false,"confidence":-1},{"trial_n":3,"span":6,"encoder":"221431","distractor":"221401","target":"absent","response":"present","rt":"891","correct":false,"confidence":-1},{"trial_n":4,"span":4,"encoder":"7237","distractor":"3237","target":"absent","response":"absent","rt":"1124","correct":true,"confidence":-1},{"trial_n":5,"span":4,"encoder":"3421","distractor":"3321","target":"present","response":"absent","rt":"1091","correct":false,"confidence":-1},{"trial_n":6,"span":2,"encoder":"93","distractor":"99","target":"present","response":"absent","rt":"1577","correct":false,"confidence":-1},{"trial_n":7,"span":2,"encoder":"01","distractor":"08","target":"absent","response":"absent","rt":"1062","correct":true,"confidence":-1},{"trial_n":8,"span":2,"encoder":"88","distractor":"38","target":"absent","response":"absent","rt":"757.99999999999","correct":true,"confidence":-1},{"trial_n":9,"span":4,"encoder":"7256","distractor":"3256","target":"absent","response":"absent","rt":"842","correct":true,"confidence":-1},{"trial_n":10,"span":4,"encoder":"3255","distractor":"3655","target":"present","response":"absent","rt":"758.99999999999","correct":false,"confidence":-1},{"trial_n":11,"span":2,"encoder":"63","distractor":"65","target":"absent","response":"absent","rt":"888","correct":true,"confidence":-1},{"trial_n":12,"span":2,"encoder":"47","distractor":"07","target":"absent","response":"present","rt":"501.99999999999","correct":false,"confidence":-1},{"trial_n":13,"span":2,"encoder":"10","distractor":"60","target":"absent","response":"present","rt":"69","correct":false,"confidence":-1},{"trial_n":14,"span":2,"encoder":"04","distractor":"00","target":"present","response":"absent","rt":"291","correct":false,"confidence":-1},{"trial_n":15,"span":2,"encoder":"07","distractor":"05","target":"absent","response":"absent","rt":"181","correct":true,"confidence":-1},{"trial_n":16,"span":2,"encoder":"17","distractor":"16","target":"present","response":"absent","rt":"248","correct":false,"confidence":-1},{"trial_n":17,"span":2,"encoder":"03","distractor":"43","target":"absent","response":"absent","rt":"110","correct":true,"confidence":-1},{"trial_n":18,"span":2,"encoder":"07","distractor":"01","target":"absent","response":"present","rt":"184.99999999999","correct":false,"confidence":-1},{"trial_n":19,"span":2,"encoder":"73","distractor":"43","target":"present","response":"absent","rt":"97.999999999993","correct":false,"confidence":-1},{"trial_n":20,"span":2,"encoder":"11","distractor":"16","target":"present","response":"absent","rt":"98.999999999993","correct":false,"confidence":-1},{"trial_n":21,"span":2,"encoder":"18","distractor":"88","target":"absent","response":"absent","rt":"1370","correct":true,"confidence":5},{"trial_n":22,"span":2,"encoder":"46","distractor":"06","target":"present","response":"absent","rt":"7475","correct":false,"confidence":1},{"trial_n":23,"span":2,"encoder":"45","distractor":"43","target":"absent","response":"absent","rt":"902","correct":true,"confidence":5},{"trial_n":24,"span":2,"encoder":"82","distractor":"81","target":"absent","response":"absent","rt":"821","correct":true,"confidence":5},{"trial_n":25,"span":3,"encoder":"408","distractor":"400","target":"absent","response":"absent","rt":"792","correct":true,"confidence":1},{"trial_n":26,"span":3,"encoder":"034","distractor":"030","target":"present","response":"present","rt":"1267","correct":true,"confidence":5},{"trial_n":27,"span":4,"encoder":"5078","distractor":"5008","target":"present","response":"present","rt":"914","correct":true,"confidence":5},{"trial_n":28,"span":4,"encoder":"0875","distractor":"0874","target":"absent","response":"absent","rt":"1021","correct":true,"confidence":5},{"trial_n":29,"span":5,"encoder":"33140","distractor":"33180","target":"present","response":"absent","rt":"1049","correct":false,"confidence":1},{"trial_n":30,"span":4,"encoder":"9549","distractor":"5549","target":"absent","response":"absent","rt":"1502","correct":true,"confidence":5},{"trial_n":31,"span":4,"encoder":"4896","distractor":"4899","target":"absent","response":"absent","rt":"1055","correct":true,"confidence":5},{"trial_n":32,"span":5,"encoder":"68325","distractor":"68425","target":"present","response":"present","rt":"1762","correct":true,"confidence":5},{"trial_n":33,"span":5,"encoder":"22880","distractor":"92880","target":"absent","response":"absent","rt":"1130","correct":true,"confidence":1},{"trial_n":34,"span":6,"encoder":"979221","distractor":"978221","target":"present","response":"present","rt":"1186","correct":true,"confidence":5},{"trial_n":35,"span":6,"encoder":"999434","distractor":"999432","target":"present","response":"absent","rt":"1093","correct":false,"confidence":3},{"trial_n":36,"span":5,"encoder":"24564","distractor":"26564","target":"absent","response":"present","rt":"281","correct":false,"confidence":2},{"trial_n":37,"span":4,"encoder":"2169","distractor":"2869","target":"present","response":"absent","rt":"704","correct":false,"confidence":2},{"trial_n":38,"span":3,"encoder":"182","distractor":"180","target":"present","response":"absent","rt":"1400","correct":false,"confidence":4},{"trial_n":39,"span":2,"encoder":"07","distractor":"01","target":"absent","response":"absent","rt":"1624","correct":true,"confidence":5},{"trial_n":40,"span":2,"encoder":"73","distractor":"70","target":"present","response":"present","rt":"1230","correct":true,"confidence":3},{"trial_n":41,"span":3,"encoder":"581","distractor":"583","target":"present","response":"present","rt":"963","correct":true,"confidence":5},{"trial_n":42,"span":3,"encoder":"317","distractor":"315","target":"present","response":"present","rt":"822.99999999997","correct":true,"confidence":5},{"trial_n":43,"span":4,"encoder":"0635","distractor":"8635","target":"absent","response":"absent","rt":"932","correct":true,"confidence":5},{"trial_n":44,"span":4,"encoder":"4522","distractor":"8522","target":"absent","response":"present","rt":"1461","correct":false,"confidence":3},{"trial_n":45,"span":3,"encoder":"041","distractor":"049","target":"absent","response":"absent","rt":"973.00000000003","correct":true,"confidence":5},{"trial_n":46,"span":3,"encoder":"347","distractor":"317","target":"absent","response":"absent","rt":"994","correct":true,"confidence":4},{"trial_n":47,"span":4,"encoder":"4432","distractor":"4492","target":"present","response":"present","rt":"1535","correct":true,"confidence":5},{"trial_n":48,"span":4,"encoder":"9755","distractor":"9655","target":"absent","response":"present","rt":"607","correct":false,"confidence":5},{"trial_n":49,"span":3,"encoder":"081","distractor":"881","target":"absent","response":"present","rt":"354","correct":false,"confidence":4},{"trial_n":50,"span":2,"encoder":"57","distractor":"27","target":"absent","response":"present","rt":"434","correct":false,"confidence":2},{"trial_n":51,"span":2,"encoder":"31","distractor":"38","target":"present","response":"absent","rt":"85.000000000029","correct":false,"confidence":1},{"trial_n":52,"span":2,"encoder":"67","distractor":"65","target":"present","response":"present","rt":"270","correct":true,"confidence":2},{"trial_n":53,"span":2,"encoder":"57","distractor":"77","target":"present","response":"absent","rt":"377","correct":false,"confidence":1},{"trial_n":54,"span":2,"encoder":"39","distractor":"49","target":"present","response":"absent","rt":"343","correct":false,"confidence":5},{"trial_n":55,"span":2,"encoder":"02","distractor":"06","target":"present","response":"absent","rt":"408.99999999997","correct":false,"confidence":2},{"trial_n":56,"span":2,"encoder":"95","distractor":"93","target":"absent","response":"absent","rt":"373","correct":true,"confidence":1},{"trial_n":57,"span":2,"encoder":"80","distractor":"84","target":"present","response":"present","rt":"370","correct":true,"confidence":1},{"trial_n":58,"span":3,"encoder":"289","distractor":"989","target":"present","response":"present","rt":"240","correct":true,"confidence":1},{"trial_n":59,"span":3,"encoder":"423","distractor":"473","target":"absent","response":"absent","rt":"182","correct":true,"confidence":3},{"trial_n":60,"span":4,"encoder":"9372","distractor":"9312","target":"present","response":"absent","rt":"290","correct":false,"confidence":2},{"trial_n":61,"span":3,"encoder":"540","distractor":"570","target":"absent","response":"present","rt":"167","correct":false,"confidence":2},{"trial_n":62,"span":2,"encoder":"91","distractor":"96","target":"present","response":"present","rt":"319","correct":true,"confidence":3},{"trial_n":63,"span":2,"encoder":"89","distractor":"19","target":"absent","response":"absent","rt":"57.000000000029","correct":true,"confidence":1},{"trial_n":64,"span":3,"encoder":"046","distractor":"036","target":"present","response":"present","rt":"116","correct":true,"confidence":4},{"trial_n":65,"span":3,"encoder":"614","distractor":"684","target":"present","response":"present","rt":"138","correct":true,"confidence":4},{"trial_n":66,"span":4,"encoder":"8813","distractor":"8811","target":"present","response":"present","rt":"232","correct":true,"confidence":3},{"trial_n":67,"span":4,"encoder":"1500","distractor":"1570","target":"present","response":"present","rt":"334","correct":true,"confidence":3},{"trial_n":68,"span":5,"encoder":"43753","distractor":"53753","target":"absent","response":"present","rt":"317.00000000003","correct":false,"confidence":1},{"trial_n":69,"span":4,"encoder":"3100","distractor":"0100","target":"absent","response":"present","rt":"84","correct":false,"confidence":3},{"trial_n":70,"span":3,"encoder":"084","distractor":"044","target":"present","response":"present","rt":"274","correct":true,"confidence":3},{"trial_n":71,"span":8,"encoder":"37874453","distractor":"37878453","target":"present","response":"absent","rt":"3781","correct":false,"confidence":-1},{"trial_n":72,"span":7,"encoder":"2454458","distractor":"2454459","target":"present","response":"present","rt":"149","correct":true,"confidence":-1},{"trial_n":73,"span":7,"encoder":"1602737","distractor":"0602737","target":"absent","response":"absent","rt":"116","correct":true,"confidence":-1},{"trial_n":74,"span":8,"encoder":"11612863","distractor":"11612963","target":"absent","response":"present","rt":"183","correct":false,"confidence":-1},{"trial_n":75,"span":7,"encoder":"0925863","distractor":"0955863","target":"present","response":"present","rt":"101","correct":true,"confidence":-1},{"trial_n":76,"span":7,"encoder":"5103661","distractor":"2103661","target":"absent","response":"absent","rt":"135.00000000003","correct":true,"confidence":-1},{"trial_n":77,"span":8,"encoder":"17676724","distractor":"17076724","target":"present","response":"present","rt":"188","correct":true,"confidence":-1},{"trial_n":78,"span":8,"encoder":"41308731","distractor":"41308131","target":"absent","response":"absent","rt":"135","correct":true,"confidence":-1},{"trial_n":79,"span":9,"encoder":"780624260","distractor":"780627260","target":"absent","response":"absent","rt":"265.99999999994","correct":true,"confidence":-1},{"trial_n":80,"span":9,"encoder":"580140860","distractor":"580143860","target":"present","response":"present","rt":"104","correct":true,"confidence":-1},{"trial_n":81,"span":10,"encoder":"9681826503","distractor":"9681816503","target":"absent","response":"absent","rt":"184.00000000006","correct":true,"confidence":-1},{"trial_n":82,"span":10,"encoder":"9308635189","distractor":"9328635189","target":"present","response":"absent","rt":"130","correct":false,"confidence":-1},{"trial_n":83,"span":9,"encoder":"781174290","distractor":"771174290","target":"absent","response":"absent","rt":"79","correct":true,"confidence":-1},{"trial_n":84,"span":9,"encoder":"256787071","distractor":"252787071","target":"present","response":"absent","rt":"110","correct":false,"confidence":-1},{"trial_n":85,"span":8,"encoder":"49122631","distractor":"49124631","target":"absent","response":"absent","rt":"314","correct":true,"confidence":-1},{"trial_n":86,"span":8,"encoder":"40659579","distractor":"40659578","target":"present","response":"absent","rt":"249","correct":false,"confidence":-1},{"trial_n":87,"span":7,"encoder":"9263066","distractor":"9763066","target":"absent","response":"present","rt":"275","correct":false,"confidence":-1},{"trial_n":88,"span":6,"encoder":"305784","distractor":"305788","target":"absent","response":"absent","rt":"285","correct":true,"confidence":-1},{"trial_n":89,"span":6,"encoder":"836398","distractor":"836698","target":"absent","response":"absent","rt":"306","correct":true,"confidence":-1},{"trial_n":90,"span":7,"encoder":"5232126","distractor":"5732126","target":"present","response":"absent","rt":"315","correct":false,"confidence":-1},{"trial_n":91,"span":6,"encoder":"144149","distractor":"143149","target":"present","response":"present","rt":"2261","correct":true,"confidence":3},{"trial_n":92,"span":6,"encoder":"330108","distractor":"030108","target":"present","response":"absent","rt":"2420","correct":false,"confidence":3},{"trial_n":93,"span":5,"encoder":"48933","distractor":"38933","target":"present","response":"present","rt":"493.99999999994","correct":true,"confidence":2},{"trial_n":94,"span":5,"encoder":"23243","distractor":"23273","target":"absent","response":"absent","rt":"1842","correct":true,"confidence":4},{"trial_n":95,"span":6,"encoder":"443347","distractor":"443047","target":"present","response":"present","rt":"2892","correct":true,"confidence":3},{"trial_n":96,"span":6,"encoder":"789312","distractor":"789212","target":"absent","response":"absent","rt":"256","correct":true,"confidence":3},{"trial_n":97,"span":7,"encoder":"6608735","distractor":"7608735","target":"absent","response":"present","rt":"255","correct":false,"confidence":1},{"trial_n":98,"span":6,"encoder":"959637","distractor":"959634","target":"absent","response":"present","rt":"254.99999999994","correct":false,"confidence":2},{"trial_n":99,"span":5,"encoder":"61580","distractor":"61080","target":"absent","response":"absent","rt":"358","correct":true,"confidence":3},{"trial_n":100,"span":5,"encoder":"51290","distractor":"51294","target":"absent","response":"present","rt":"71","correct":false,"confidence":4},{"trial_n":101,"span":4,"encoder":"8315","distractor":"8215","target":"present","response":"absent","rt":"165","correct":false,"confidence":1},{"trial_n":102,"span":3,"encoder":"683","distractor":"083","target":"present","response":"present","rt":"252","correct":true,"confidence":2},{"trial_n":103,"span":3,"encoder":"534","distractor":"594","target":"present","response":"absent","rt":"216.00000000006","correct":false,"confidence":1},{"trial_n":104,"span":2,"encoder":"62","distractor":"82","target":"present","response":"absent","rt":"225","correct":false,"confidence":2},{"trial_n":105,"span":2,"encoder":"11","distractor":"71","target":"absent","response":"absent","rt":"210.00000000006","correct":true,"confidence":2},{"trial_n":106,"span":2,"encoder":"22","distractor":"29","target":"absent","response":"present","rt":"83.000000000058","correct":false,"confidence":3},{"trial_n":107,"span":2,"encoder":"61","distractor":"67","target":"present","response":"absent","rt":"112.00000000006","correct":false,"confidence":1},{"trial_n":108,"span":2,"encoder":"44","distractor":"40","target":"present","response":"absent","rt":"300.99999999994","correct":false,"confidence":3},{"trial_n":109,"span":2,"encoder":"75","distractor":"45","target":"present","response":"absent","rt":"281","correct":false,"confidence":2},{"trial_n":110,"span":2,"encoder":"00","distractor":"20","target":"absent","response":"absent","rt":"58","correct":true,"confidence":4},{"trial_n":111,"span":2,"encoder":"20","distractor":"21","target":"absent","response":"absent","rt":"304.00000000006","correct":true,"confidence":2},{"trial_n":112,"span":3,"encoder":"930","distractor":"030","target":"present","response":"absent","rt":"210","correct":false,"confidence":2},{"trial_n":113,"span":2,"encoder":"18","distractor":"98","target":"present","response":"absent","rt":"52","correct":false,"confidence":1},{"trial_n":114,"span":2,"encoder":"35","distractor":"37","target":"absent","response":"present","rt":"146.00000000006","correct":false,"confidence":1},{"trial_n":115,"span":2,"encoder":"72","distractor":"76","target":"absent","response":"present","rt":"166","correct":false,"confidence":3},{"trial_n":116,"span":2,"encoder":"36","distractor":"34","target":"present","response":"absent","rt":"253","correct":false,"confidence":3},{"trial_n":117,"span":2,"encoder":"51","distractor":"53","target":"absent","response":"absent","rt":"205.99999999994","correct":true,"confidence":3},{"trial_n":118,"span":2,"encoder":"64","distractor":"62","target":"present","response":"absent","rt":"268","correct":false,"confidence":2},{"trial_n":119,"span":2,"encoder":"17","distractor":"19","target":"absent","response":"absent","rt":"485","correct":true,"confidence":3},{"trial_n":120,"span":2,"encoder":"19","distractor":"29","target":"absent","response":"present","rt":"204.99999999994","correct":false,"confidence":2},{"trial_n":121,"span":2,"encoder":"47","distractor":"43","target":"absent","response":"absent","rt":"143","correct":true,"confidence":2},{"trial_n":122,"span":2,"encoder":"07","distractor":"67","target":"present","response":"absent","rt":"92","correct":false,"confidence":2},{"trial_n":123,"span":2,"encoder":"20","distractor":"60","target":"present","response":"absent","rt":"310","correct":false,"confidence":3},{"trial_n":124,"span":2,"encoder":"68","distractor":"78","target":"absent","response":"absent","rt":"152","correct":true,"confidence":3},{"trial_n":125,"span":2,"encoder":"25","distractor":"65","target":"present","response":"absent","rt":"82","correct":false,"confidence":3},{"trial_n":126,"span":2,"encoder":"97","distractor":"27","target":"present","response":"absent","rt":"340","correct":false,"confidence":2},{"trial_n":127,"span":2,"encoder":"79","distractor":"70","target":"present","response":"absent","rt":"213","correct":false,"confidence":4},{"trial_n":128,"span":2,"encoder":"14","distractor":"84","target":"present","response":"absent","rt":"85","correct":false,"confidence":3},{"trial_n":129,"span":2,"encoder":"38","distractor":"68","target":"present","response":"absent","rt":"152.99999999994","correct":false,"confidence":4},{"trial_n":130,"span":2,"encoder":"16","distractor":"06","target":"present","response":"absent","rt":"974","correct":false,"confidence":2},{"trial_n":131,"span":2,"encoder":"57","distractor":"07","target":"present","response":"absent","rt":"254","correct":false,"confidence":3},{"trial_n":132,"span":2,"encoder":"90","distractor":"50","target":"absent","response":"absent","rt":"185","correct":true,"confidence":2},{"trial_n":133,"span":2,"encoder":"78","distractor":"71","target":"absent","response":"absent","rt":"79","correct":true,"confidence":2},{"trial_n":134,"span":3,"encoder":"971","distractor":"961","target":"absent","response":"absent","rt":"379.00000000006","correct":true,"confidence":3},{"trial_n":135,"span":3,"encoder":"524","distractor":"520","target":"absent","response":"absent","rt":"162","correct":true,"confidence":2},{"trial_n":136,"span":4,"encoder":"1227","distractor":"1327","target":"present","response":"absent","rt":"260.00000000006","correct":false,"confidence":2},{"trial_n":137,"span":3,"encoder":"518","distractor":"513","target":"present","response":"present","rt":"55.999999999942","correct":true,"confidence":3},{"trial_n":138,"span":3,"encoder":"672","distractor":"372","target":"present","response":"present","rt":"302","correct":true,"confidence":3},{"trial_n":139,"span":4,"encoder":"8344","distractor":"8374","target":"absent","response":"absent","rt":"586.99999999994","correct":true,"confidence":2},{"trial_n":140,"span":4,"encoder":"8616","distractor":"8696","target":"absent","response":"present","rt":"94","correct":false,"confidence":2}]