[{"trial_n":1,"n_dots":4.25,"target":"right","response":"left","rt":3063.8999999762,"correct":false,"confidence":-1},{"trial_n":2,"n_dots":4.25,"target":"right","response":"right","rt":1462.3999999762,"correct":true,"confidence":-1},{"trial_n":3,"n_dots":4.25,"target":"left","response":"left","rt":106.60000002384,"correct":true,"confidence":-1},{"trial_n":4,"n_dots":3.85,"target":"right","response":"right","rt":598.09999996424,"correct":true,"confidence":-1},{"trial_n":5,"n_dots":3.85,"target":"right","response":"right","rt":395.09999996424,"correct":true,"confidence":-1},{"trial_n":6,"n_dots":3.45,"target":"left","response":"left","rt":358.90000003576,"correct":true,"confidence":-1},{"trial_n":7,"n_dots":3.45,"target":"right","response":"right","rt":639.40000003576,"correct":true,"confidence":-1},{"trial_n":8,"n_dots":3.25,"target":"left","response":"left","rt":379.80000001192,"correct":true,"confidence":-1},{"trial_n":9,"n_dots":3.25,"target":"right","response":"left","rt":439.39999997616,"correct":false,"confidence":-1},{"trial_n":10,"n_dots":3.45,"target":"right","response":"right","rt":516.19999998808,"correct":true,"confidence":-1},{"trial_n":11,"n_dots":3.45,"target":"left","response":"left","rt":862.19999998808,"correct":true,"confidence":-1},{"trial_n":12,"n_dots":3.25,"target":"left","response":"left","rt":479.89999997616,"correct":true,"confidence":-1},{"trial_n":13,"n_dots":3.25,"target":"left","response":"left","rt":617.70000004768,"correct":true,"confidence":-1},{"trial_n":14,"n_dots":3.15,"target":"left","response":"left","rt":321.09999996424,"correct":true,"confidence":-1},{"trial_n":15,"n_dots":3.15,"target":"right","response":"right","rt":413.39999997616,"correct":true,"confidence":-1},{"trial_n":16,"n_dots":3.05,"target":"left","response":"left","rt":389.79999995232,"correct":true,"confidence":-1},{"trial_n":17,"n_dots":3.05,"target":"left","response":"left","rt":282.19999998808,"correct":true,"confidence":-1},{"trial_n":18,"n_dots":2.95,"target":"right","response":"right","rt":348.30000001192,"correct":true,"confidence":-1},{"trial_n":19,"n_dots":2.95,"target":"left","response":"left","rt":301.30000001192,"correct":true,"confidence":-1},{"trial_n":20,"n_dots":2.85,"target":"right","response":"left","rt":630.40000003576,"correct":false,"confidence":-1},{"trial_n":21,"n_dots":2.95,"target":"left","response":"left","rt":587.5,"correct":true,"confidence":4},{"trial_n":22,"n_dots":2.95,"target":"left","response":"left","rt":455.19999998808,"correct":true,"confidence":4},{"trial_n":23,"n_dots":2.85,"target":"left","response":"left","rt":1307.5999999642,"correct":true,"confidence":4},{"trial_n":24,"n_dots":2.85,"target":"left","response":"right","rt":726,"correct":false,"confidence":3},{"trial_n":25,"n_dots":2.95,"target":"right","response":"right","rt":392.39999997616,"correct":true,"confidence":5},{"trial_n":26,"n_dots":2.95,"target":"right","response":"right","rt":570.70000004768,"correct":true,"confidence":4},{"trial_n":27,"n_dots":2.85,"target":"right","response":"right","rt":629.69999998808,"correct":true,"confidence":5},{"trial_n":28,"n_dots":2.85,"target":"right","response":"left","rt":1988.1999999881,"correct":false,"confidence":3},{"trial_n":29,"n_dots":2.95,"target":"right","response":"right","rt":1092.5,"correct":true,"confidence":5},{"trial_n":30,"n_dots":2.95,"target":"right","response":"right","rt":672.80000001192,"correct":true,"confidence":4},{"trial_n":31,"n_dots":2.85,"target":"right","response":"left","rt":492,"correct":false,"confidence":3},{"trial_n":32,"n_dots":2.95,"target":"left","response":"left","rt":348.30000001192,"correct":true,"confidence":2},{"trial_n":33,"n_dots":2.95,"target":"left","response":"right","rt":390.5,"correct":false,"confidence":2},{"trial_n":34,"n_dots":3.05,"target":"left","response":"left","rt":842.10000002384,"correct":true,"confidence":2},{"trial_n":35,"n_dots":3.05,"target":"left","response":"right","rt":1003.6000000238,"correct":false,"confidence":2},{"trial_n":36,"n_dots":3.15,"target":"right","response":"right","rt":1137.1000000238,"correct":true,"confidence":3},{"trial_n":37,"n_dots":3.15,"target":"left","response":"left","rt":1291.3000000119,"correct":true,"confidence":3},{"trial_n":38,"n_dots":3.05,"target":"left","response":"right","rt":517.80000001192,"correct":false,"confidence":3},{"trial_n":39,"n_dots":3.15,"target":"right","response":"right","rt":452.5,"correct":true,"confidence":3},{"trial_n":40,"n_dots":3.15,"target":"right","response":"left","rt":364,"correct":false,"confidence":2},{"trial_n":41,"n_dots":3.25,"target":"left","response":"left","rt":327.5,"correct":true,"confidence":4},{"trial_n":42,"n_dots":3.25,"target":"left","response":"left","rt":216.80000001192,"correct":true,"confidence":4},{"trial_n":43,"n_dots":3.15,"target":"right","response":"left","rt":393.19999998808,"correct":false,"confidence":3},{"trial_n":44,"n_dots":3.25,"target":"right","response":"right","rt":402,"correct":true,"confidence":4},{"trial_n":45,"n_dots":3.25,"target":"left","response":"left","rt":318.19999998808,"correct":true,"confidence":4},{"trial_n":46,"n_dots":3.15,"target":"right","response":"right","rt":275.19999998808,"correct":true,"confidence":4},{"trial_n":47,"n_dots":3.15,"target":"left","response":"left","rt":724.39999997616,"correct":true,"confidence":3},{"trial_n":48,"n_dots":3.05,"target":"right","response":"right","rt":370.69999998808,"correct":true,"confidence":5},{"trial_n":49,"n_dots":3.05,"target":"right","response":"right","rt":201.5,"correct":true,"confidence":5},{"trial_n":50,"n_dots":2.95,"target":"right","response":"right","rt":422.10000002384,"correct":true,"confidence":5},{"trial_n":51,"n_dots":2.95,"target":"right","response":"right","rt":393.09999996424,"correct":true,"confidence":4},{"trial_n":52,"n_dots":2.85,"target":"left","response":"left","rt":310.5,"correct":true,"confidence":5},{"trial_n":53,"n_dots":2.85,"target":"right","response":"right","rt":6.9000000357628,"correct":true,"confidence":4},{"trial_n":54,"n_dots":2.75,"target":"left","response":"left","rt":235.20000004768,"correct":true,"confidence":5},{"trial_n":55,"n_dots":2.75,"target":"right","response":"right","rt":187.30000001192,"correct":true,"confidence":5},{"trial_n":56,"n_dots":2.65,"target":"left","response":"right","rt":1641.3000000119,"correct":false,"confidence":2},{"trial_n":57,"n_dots":2.75,"target":"left","response":"left","rt":357.5,"correct":true,"confidence":4},{"trial_n":58,"n_dots":2.75,"target":"left","response":"right","rt":986.89999997616,"correct":false,"confidence":3},{"trial_n":59,"n_dots":2.85,"target":"left","response":"right","rt":1460.8000000119,"correct":false,"confidence":3},{"trial_n":60,"n_dots":2.95,"target":"left","response":"right","rt":749.59999996424,"correct":false,"confidence":3},{"trial_n":61,"n_dots":3.05,"target":"right","response":"right","rt":232,"correct":true,"confidence":5},{"trial_n":62,"n_dots":3.05,"target":"right","response":"right","rt":336.60000002384,"correct":true,"confidence":4},{"trial_n":63,"n_dots":2.95,"target":"right","response":"right","rt":1076.1000000238,"correct":true,"confidence":5},{"trial_n":64,"n_dots":2.95,"target":"left","response":"left","rt":385.19999998808,"correct":true,"confidence":5},{"trial_n":65,"n_dots":2.85,"target":"right","response":"left","rt":1555.6999999881,"correct":false,"confidence":2},{"trial_n":66,"n_dots":2.95,"target":"left","response":"left","rt":1537.5,"correct":true,"confidence":2},{"trial_n":67,"n_dots":2.95,"target":"left","response":"left","rt":173.30000001192,"correct":true,"confidence":4},{"trial_n":68,"n_dots":2.85,"target":"left","response":"right","rt":694.80000001192,"correct":false,"confidence":3},{"trial_n":69,"n_dots":2.95,"target":"left","response":"left","rt":2049.5,"correct":true,"confidence":2},{"trial_n":70,"n_dots":2.95,"target":"right","response":"right","rt":219.59999996424,"correct":true,"confidence":5},{"trial_n":71,"n_dots":2.85,"target":"left","response":"right","rt":360.40000003576,"correct":false,"confidence":5},{"trial_n":72,"n_dots":2.95,"target":"left","response":"right","rt":1360.6000000238,"correct":false,"confidence":3},{"trial_n":73,"n_dots":3.05,"target":"right","response":"right","rt":497.40000003576,"correct":true,"confidence":3},{"trial_n":74,"n_dots":3.05,"target":"right","response":"right","rt":618.59999996424,"correct":true,"confidence":2},{"trial_n":75,"n_dots":2.95,"target":"right","response":"right","rt":728.60000002384,"correct":true,"confidence":2},{"trial_n":76,"n_dots":2.95,"target":"left","response":"left","rt":540,"correct":true,"confidence":5},{"trial_n":77,"n_dots":2.85,"target":"left","response":"right","rt":1866.1999999881,"correct":false,"confidence":2},{"trial_n":78,"n_dots":2.95,"target":"left","response":"left","rt":1412.5,"correct":true,"confidence":4},{"trial_n":79,"n_dots":2.95,"target":"right","response":"right","rt":18.199999988079,"correct":true,"confidence":4},{"trial_n":80,"n_dots":2.85,"target":"right","response":"right","rt":615.79999995232,"correct":true,"confidence":4},{"trial_n":81,"n_dots":2.85,"target":"left","response":"left","rt":240,"correct":true,"confidence":4},{"trial_n":82,"n_dots":2.75,"target":"right","response":"right","rt":335.89999997616,"correct":true,"confidence":3},{"trial_n":83,"n_dots":2.75,"target":"right","response":"left","rt":886.19999998808,"correct":false,"confidence":3},{"trial_n":84,"n_dots":2.85,"target":"right","response":"right","rt":372,"correct":true,"confidence":2},{"trial_n":85,"n_dots":2.85,"target":"right","response":"left","rt":1154.3999999762,"correct":false,"confidence":2},{"trial_n":86,"n_dots":2.95,"target":"right","response":"right","rt":395.69999998808,"correct":true,"confidence":2},{"trial_n":87,"n_dots":2.95,"target":"right","response":"right","rt":2556.6999999881,"correct":true,"confidence":4},{"trial_n":88,"n_dots":2.85,"target":"left","response":"left","rt":1758.9000000358,"correct":true,"confidence":3},{"trial_n":89,"n_dots":2.85,"target":"left","response":"right","rt":640.29999995232,"correct":false,"confidence":1},{"trial_n":90,"n_dots":2.95,"target":"left","response":"left","rt":734.19999998808,"correct":true,"confidence":1},{"trial_n":91,"n_dots":2.95,"target":"left","response":"left","rt":948.30000001192,"correct":true,"confidence":3},{"trial_n":92,"n_dots":2.85,"target":"left","response":"left","rt":228.69999998808,"correct":true,"confidence":5},{"trial_n":93,"n_dots":2.85,"target":"right","response":"right","rt":45.199999988079,"correct":true,"confidence":5},{"trial_n":94,"n_dots":2.75,"target":"left","response":"left","rt":870.80000001192,"correct":true,"confidence":3},{"trial_n":95,"n_dots":2.75,"target":"right","response":"right","rt":509.5,"correct":true,"confidence":3},{"trial_n":96,"n_dots":2.65,"target":"left","response":"left","rt":761.60000002384,"correct":true,"confidence":1},{"trial_n":97,"n_dots":2.65,"target":"left","response":"right","rt":648.90000003576,"correct":false,"confidence":1},{"trial_n":98,"n_dots":2.75,"target":"right","response":"right","rt":493.80000001192,"correct":true,"confidence":2},{"trial_n":99,"n_dots":2.75,"target":"left","response":"left","rt":189.80000001192,"correct":true,"confidence":3},{"trial_n":100,"n_dots":2.65,"target":"right","response":"right","rt":101.09999996424,"correct":true,"confidence":4},{"trial_n":101,"n_dots":2.65,"target":"right","response":"left","rt":335,"correct":false,"confidence":1},{"trial_n":102,"n_dots":2.75,"target":"right","response":"left","rt":626.5,"correct":false,"confidence":2},{"trial_n":103,"n_dots":2.85,"target":"left","response":"left","rt":40.300000011921,"correct":true,"confidence":5},{"trial_n":104,"n_dots":2.85,"target":"left","response":"right","rt":736.79999995232,"correct":false,"confidence":3},{"trial_n":105,"n_dots":2.95,"target":"right","response":"right","rt":798,"correct":true,"confidence":5},{"trial_n":106,"n_dots":2.95,"target":"left","response":"left","rt":18.199999988079,"correct":true,"confidence":4},{"trial_n":107,"n_dots":2.85,"target":"right","response":"left","rt":447.60000002384,"correct":false,"confidence":1},{"trial_n":108,"n_dots":2.95,"target":"left","response":"left","rt":2954.1999999881,"correct":true,"confidence":2},{"trial_n":109,"n_dots":2.95,"target":"right","response":"right","rt":380.5,"correct":true,"confidence":3},{"trial_n":110,"n_dots":2.85,"target":"left","response":"left","rt":566.79999995232,"correct":true,"confidence":5},{"trial_n":111,"n_dots":2.85,"target":"left","response":"left","rt":718.40000003576,"correct":true,"confidence":2},{"trial_n":112,"n_dots":2.75,"target":"left","response":"right","rt":366.39999997616,"correct":false,"confidence":1},{"trial_n":113,"n_dots":2.85,"target":"right","response":"right","rt":283.39999997616,"correct":true,"confidence":1},{"trial_n":114,"n_dots":2.85,"target":"right","response":"right","rt":726.69999998808,"correct":true,"confidence":4},{"trial_n":115,"n_dots":2.75,"target":"left","response":"left","rt":3.1999999880791,"correct":true,"confidence":5},{"trial_n":116,"n_dots":2.75,"target":"right","response":"right","rt":472.79999995232,"correct":true,"confidence":5},{"trial_n":117,"n_dots":2.65,"target":"right","response":"right","rt":514.40000003576,"correct":true,"confidence":5},{"trial_n":118,"n_dots":2.65,"target":"right","response":"right","rt":314.69999998808,"correct":true,"confidence":4},{"trial_n":119,"n_dots":2.55,"target":"right","response":"right","rt":789.80000001192,"correct":true,"confidence":4},{"trial_n":120,"n_dots":2.55,"target":"left","response":"left","rt":857.69999998808,"correct":true,"confidence":2}]