[{"trial_n":1,"min":25,"max":230,"target":"present","response":"present","rt":6063.2000000477,"correct":true,"confidence":-1},{"trial_n":2,"min":25,"max":230,"target":"present","response":"present","rt":882.10000002384,"correct":true,"confidence":-1},{"trial_n":3,"min":41,"max":214,"target":"absent","response":"present","rt":652.80000001192,"correct":false,"confidence":-1},{"trial_n":4,"min":25,"max":230,"target":"absent","response":"present","rt":597.5,"correct":false,"confidence":-1},{"trial_n":5,"min":9,"max":246,"target":"present","response":"absent","rt":610.80000001192,"correct":false,"confidence":-1},{"trial_n":6,"min":0,"max":255,"target":"absent","response":"present","rt":619.30000001192,"correct":false,"confidence":-1},{"trial_n":7,"min":0,"max":255,"target":"present","response":"present","rt":341.59999996424,"correct":true,"confidence":-1},{"trial_n":8,"min":0,"max":255,"target":"absent","response":"absent","rt":605.29999995232,"correct":true,"confidence":-1},{"trial_n":9,"min":16,"max":239,"target":"absent","response":"absent","rt":361.5,"correct":true,"confidence":-1},{"trial_n":10,"min":16,"max":239,"target":"present","response":"present","rt":137.69999998808,"correct":true,"confidence":-1},{"trial_n":11,"min":24,"max":231,"target":"absent","response":"absent","rt":408.90000003576,"correct":true,"confidence":-1},{"trial_n":12,"min":24,"max":231,"target":"absent","response":"absent","rt":249.30000001192,"correct":true,"confidence":-1},{"trial_n":13,"min":32,"max":223,"target":"present","response":"present","rt":222.19999998808,"correct":true,"confidence":-1},{"trial_n":14,"min":32,"max":223,"target":"absent","response":"absent","rt":190.80000001192,"correct":true,"confidence":-1},{"trial_n":15,"min":40,"max":215,"target":"present","response":"present","rt":374.09999996424,"correct":true,"confidence":-1},{"trial_n":16,"min":40,"max":215,"target":"present","response":"present","rt":225.30000001192,"correct":true,"confidence":-1},{"trial_n":17,"min":48,"max":207,"target":"absent","response":"absent","rt":466,"correct":true,"confidence":-1},{"trial_n":18,"min":48,"max":207,"target":"present","response":"present","rt":175.80000001192,"correct":true,"confidence":-1},{"trial_n":19,"min":56,"max":199,"target":"absent","response":"absent","rt":257.79999995232,"correct":true,"confidence":-1},{"trial_n":20,"min":56,"max":199,"target":"present","response":"present","rt":153,"correct":true,"confidence":-1},{"trial_n":21,"min":60,"max":195,"target":"absent","response":"present","rt":250.10000002384,"correct":false,"confidence":1},{"trial_n":22,"min":56,"max":199,"target":"present","response":"present","rt":910.80000001192,"correct":true,"confidence":5},{"trial_n":23,"min":56,"max":199,"target":"absent","response":"absent","rt":780.60000002384,"correct":true,"confidence":1},{"trial_n":24,"min":60,"max":195,"target":"present","response":"absent","rt":2721.1999999881,"correct":false,"confidence":3},{"trial_n":25,"min":56,"max":199,"target":"absent","response":"absent","rt":180.39999997616,"correct":true,"confidence":3},{"trial_n":26,"min":56,"max":199,"target":"present","response":"present","rt":1284.8999999762,"correct":true,"confidence":3},{"trial_n":27,"min":60,"max":195,"target":"present","response":"present","rt":783.5,"correct":true,"confidence":3},{"trial_n":28,"min":60,"max":195,"target":"absent","response":"absent","rt":694.89999997616,"correct":true,"confidence":3},{"trial_n":29,"min":64,"max":191,"target":"absent","response":"absent","rt":572.29999995232,"correct":true,"confidence":3},{"trial_n":30,"min":64,"max":191,"target":"present","response":"present","rt":690.80000001192,"correct":true,"confidence":3},{"trial_n":31,"min":66,"max":189,"target":"absent","response":"absent","rt":712.10000002384,"correct":true,"confidence":3},{"trial_n":32,"min":66,"max":189,"target":"present","response":"present","rt":580.69999998808,"correct":true,"confidence":1},{"trial_n":33,"min":68,"max":187,"target":"absent","response":"absent","rt":1641.1999999881,"correct":true,"confidence":3},{"trial_n":34,"min":68,"max":187,"target":"absent","response":"absent","rt":540.80000001192,"correct":true,"confidence":3},{"trial_n":35,"min":70,"max":185,"target":"absent","response":"absent","rt":690.5,"correct":true,"confidence":3},{"trial_n":36,"min":70,"max":185,"target":"present","response":"present","rt":1125.2999999523,"correct":true,"confidence":3},{"trial_n":37,"min":72,"max":183,"target":"absent","response":"present","rt":590.5,"correct":false,"confidence":3},{"trial_n":38,"min":70,"max":185,"target":"present","response":"present","rt":527.5,"correct":true,"confidence":3},{"trial_n":39,"min":70,"max":185,"target":"present","response":"present","rt":473.30000001192,"correct":true,"confidence":3},{"trial_n":40,"min":72,"max":183,"target":"present","response":"present","rt":475.19999998808,"correct":true,"confidence":3},{"trial_n":41,"min":72,"max":183,"target":"absent","response":"absent","rt":617.39999997616,"correct":true,"confidence":3},{"trial_n":42,"min":73,"max":182,"target":"absent","response":"absent","rt":700.39999997616,"correct":true,"confidence":3},{"trial_n":43,"min":73,"max":182,"target":"present","response":"present","rt":511.19999998808,"correct":true,"confidence":3},{"trial_n":44,"min":74,"max":181,"target":"present","response":"present","rt":469.39999997616,"correct":true,"confidence":3},{"trial_n":45,"min":74,"max":181,"target":"present","response":"present","rt":501.39999997616,"correct":true,"confidence":3},{"trial_n":46,"min":75,"max":180,"target":"present","response":"present","rt":519.10000002384,"correct":true,"confidence":3},{"trial_n":47,"min":75,"max":180,"target":"present","response":"present","rt":459.5,"correct":true,"confidence":3},{"trial_n":48,"min":76,"max":179,"target":"absent","response":"absent","rt":850.30000001192,"correct":true,"confidence":3},{"trial_n":49,"min":76,"max":179,"target":"absent","response":"absent","rt":581,"correct":true,"confidence":3},{"trial_n":50,"min":77,"max":178,"target":"absent","response":"absent","rt":561.30000001192,"correct":true,"confidence":3},{"trial_n":51,"min":77,"max":178,"target":"absent","response":"absent","rt":606.30000001192,"correct":true,"confidence":3},{"trial_n":52,"min":78,"max":177,"target":"present","response":"present","rt":1018,"correct":true,"confidence":3},{"trial_n":53,"min":78,"max":177,"target":"present","response":"present","rt":427.20000004768,"correct":true,"confidence":3},{"trial_n":54,"min":79,"max":176,"target":"present","response":"present","rt":456.69999998808,"correct":true,"confidence":3},{"trial_n":55,"min":79,"max":176,"target":"absent","response":"absent","rt":657.19999998808,"correct":true,"confidence":3},{"trial_n":56,"min":80,"max":175,"target":"absent","response":"present","rt":486.39999997616,"correct":false,"confidence":3},{"trial_n":57,"min":79,"max":176,"target":"present","response":"present","rt":443.70000004768,"correct":true,"confidence":3},{"trial_n":58,"min":79,"max":176,"target":"absent","response":"present","rt":471.90000003576,"correct":false,"confidence":3},{"trial_n":59,"min":78,"max":177,"target":"present","response":"absent","rt":509.39999997616,"correct":false,"confidence":1},{"trial_n":60,"min":77,"max":178,"target":"present","response":"present","rt":666.69999998808,"correct":true,"confidence":3},{"trial_n":61,"min":77,"max":178,"target":"present","response":"present","rt":760.30000001192,"correct":true,"confidence":3},{"trial_n":62,"min":78,"max":177,"target":"present","response":"present","rt":540.39999997616,"correct":true,"confidence":3},{"trial_n":63,"min":78,"max":177,"target":"absent","response":"absent","rt":593.90000003576,"correct":true,"confidence":3},{"trial_n":64,"min":79,"max":176,"target":"absent","response":"absent","rt":444.69999998808,"correct":true,"confidence":3},{"trial_n":65,"min":79,"max":176,"target":"present","response":"present","rt":497.79999995232,"correct":true,"confidence":3},{"trial_n":66,"min":80,"max":175,"target":"present","response":"present","rt":484.5,"correct":true,"confidence":1},{"trial_n":67,"min":80,"max":175,"target":"absent","response":"present","rt":686.59999996424,"correct":false,"confidence":3},{"trial_n":68,"min":79,"max":176,"target":"absent","response":"absent","rt":523.69999998808,"correct":true,"confidence":1},{"trial_n":69,"min":79,"max":176,"target":"present","response":"absent","rt":529.89999997616,"correct":false,"confidence":1},{"trial_n":70,"min":78,"max":177,"target":"absent","response":"absent","rt":483.70000004768,"correct":true,"confidence":1},{"trial_n":71,"min":41,"max":214,"target":"present","response":"present","rt":8324.3999999762,"correct":true,"confidence":-1},{"trial_n":72,"min":41,"max":214,"target":"present","response":"absent","rt":1411.8000000119,"correct":false,"confidence":-1},{"trial_n":73,"min":25,"max":230,"target":"absent","response":"absent","rt":809.80000001192,"correct":true,"confidence":-1},{"trial_n":74,"min":25,"max":230,"target":"absent","response":"absent","rt":361.80000001192,"correct":true,"confidence":-1},{"trial_n":75,"min":41,"max":214,"target":"present","response":"absent","rt":115.69999998808,"correct":false,"confidence":-1},{"trial_n":76,"min":25,"max":230,"target":"absent","response":"absent","rt":580.09999996424,"correct":true,"confidence":-1},{"trial_n":77,"min":25,"max":230,"target":"present","response":"present","rt":236.60000002384,"correct":true,"confidence":-1},{"trial_n":78,"min":41,"max":214,"target":"absent","response":"absent","rt":250.5,"correct":true,"confidence":-1},{"trial_n":79,"min":41,"max":214,"target":"absent","response":"absent","rt":653.40000003576,"correct":true,"confidence":-1},{"trial_n":80,"min":57,"max":198,"target":"present","response":"absent","rt":305.30000001192,"correct":false,"confidence":-1},{"trial_n":81,"min":49,"max":206,"target":"present","response":"present","rt":256.10000002384,"correct":true,"confidence":-1},{"trial_n":82,"min":49,"max":206,"target":"absent","response":"absent","rt":605.10000002384,"correct":true,"confidence":-1},{"trial_n":83,"min":57,"max":198,"target":"present","response":"present","rt":487.90000003576,"correct":true,"confidence":-1},{"trial_n":84,"min":57,"max":198,"target":"present","response":"present","rt":597.80000001192,"correct":true,"confidence":-1},{"trial_n":85,"min":65,"max":190,"target":"present","response":"present","rt":535,"correct":true,"confidence":-1},{"trial_n":86,"min":65,"max":190,"target":"present","response":"present","rt":477.39999997616,"correct":true,"confidence":-1},{"trial_n":87,"min":73,"max":182,"target":"absent","response":"absent","rt":321.29999995232,"correct":true,"confidence":-1},{"trial_n":88,"min":73,"max":182,"target":"present","response":"present","rt":555.89999997616,"correct":true,"confidence":-1},{"trial_n":89,"min":81,"max":174,"target":"present","response":"present","rt":503.09999996424,"correct":true,"confidence":-1},{"trial_n":90,"min":81,"max":174,"target":"absent","response":"absent","rt":475.39999997616,"correct":true,"confidence":-1},{"trial_n":91,"min":85,"max":170,"target":"absent","response":"absent","rt":912.40000003576,"correct":true,"confidence":3},{"trial_n":92,"min":85,"max":170,"target":"absent","response":"absent","rt":1095.8000000119,"correct":true,"confidence":3},{"trial_n":93,"min":89,"max":166,"target":"present","response":"present","rt":747.5,"correct":true,"confidence":3},{"trial_n":94,"min":89,"max":166,"target":"present","response":"present","rt":484.29999995232,"correct":true,"confidence":3},{"trial_n":95,"min":93,"max":162,"target":"absent","response":"absent","rt":503.80000001192,"correct":true,"confidence":3},{"trial_n":96,"min":93,"max":162,"target":"present","response":"present","rt":565.69999998808,"correct":true,"confidence":3},{"trial_n":97,"min":97,"max":158,"target":"absent","response":"present","rt":1083.5,"correct":false,"confidence":3},{"trial_n":98,"min":93,"max":162,"target":"absent","response":"present","rt":538.59999996424,"correct":false,"confidence":1},{"trial_n":99,"min":89,"max":166,"target":"absent","response":"present","rt":977.39999997616,"correct":false,"confidence":1},{"trial_n":100,"min":85,"max":170,"target":"absent","response":"present","rt":906.69999998808,"correct":false,"confidence":1},{"trial_n":101,"min":83,"max":172,"target":"present","response":"present","rt":549.09999996424,"correct":true,"confidence":1},{"trial_n":102,"min":83,"max":172,"target":"absent","response":"absent","rt":635.10000002384,"correct":true,"confidence":3},{"trial_n":103,"min":85,"max":170,"target":"absent","response":"absent","rt":572.80000001192,"correct":true,"confidence":3},{"trial_n":104,"min":85,"max":170,"target":"absent","response":"absent","rt":663.60000002384,"correct":true,"confidence":3},{"trial_n":105,"min":87,"max":168,"target":"present","response":"present","rt":392.30000001192,"correct":true,"confidence":3},{"trial_n":106,"min":87,"max":168,"target":"present","response":"absent","rt":1905,"correct":false,"confidence":1},{"trial_n":107,"min":85,"max":170,"target":"absent","response":"present","rt":389.40000003576,"correct":false,"confidence":3},{"trial_n":108,"min":83,"max":172,"target":"absent","response":"absent","rt":622.69999998808,"correct":true,"confidence":3},{"trial_n":109,"min":83,"max":172,"target":"present","response":"present","rt":849,"correct":true,"confidence":3},{"trial_n":110,"min":85,"max":170,"target":"present","response":"present","rt":475,"correct":true,"confidence":3},{"trial_n":111,"min":85,"max":170,"target":"present","response":"present","rt":1323,"correct":true,"confidence":3},{"trial_n":112,"min":86,"max":169,"target":"present","response":"present","rt":673.60000002384,"correct":true,"confidence":3},{"trial_n":113,"min":86,"max":169,"target":"absent","response":"absent","rt":553.39999997616,"correct":true,"confidence":3},{"trial_n":114,"min":87,"max":168,"target":"present","response":"present","rt":549.5,"correct":true,"confidence":3},{"trial_n":115,"min":87,"max":168,"target":"present","response":"absent","rt":1232.3000000119,"correct":false,"confidence":3},{"trial_n":116,"min":86,"max":169,"target":"present","response":"present","rt":333.60000002384,"correct":true,"confidence":3},{"trial_n":117,"min":86,"max":169,"target":"present","response":"present","rt":526.79999995232,"correct":true,"confidence":3},{"trial_n":118,"min":87,"max":168,"target":"absent","response":"present","rt":590.70000004768,"correct":false,"confidence":3},{"trial_n":119,"min":86,"max":169,"target":"absent","response":"absent","rt":2121,"correct":true,"confidence":3},{"trial_n":120,"min":86,"max":169,"target":"absent","response":"absent","rt":1879.4000000358,"correct":true,"confidence":3},{"trial_n":121,"min":87,"max":168,"target":"present","response":"present","rt":703.5,"correct":true,"confidence":3},{"trial_n":122,"min":87,"max":168,"target":"absent","response":"absent","rt":945.20000004768,"correct":true,"confidence":3},{"trial_n":123,"min":88,"max":167,"target":"present","response":"absent","rt":3222.6999999881,"correct":false,"confidence":3},{"trial_n":124,"min":87,"max":168,"target":"absent","response":"absent","rt":392.39999997616,"correct":true,"confidence":3},{"trial_n":125,"min":87,"max":168,"target":"present","response":"absent","rt":311.89999997616,"correct":false,"confidence":3},{"trial_n":126,"min":86,"max":169,"target":"present","response":"absent","rt":202.20000004768,"correct":false,"confidence":3},{"trial_n":127,"min":85,"max":170,"target":"absent","response":"absent","rt":1433.2000000477,"correct":true,"confidence":3},{"trial_n":128,"min":85,"max":170,"target":"present","response":"present","rt":1705,"correct":true,"confidence":3},{"trial_n":129,"min":86,"max":169,"target":"present","response":"present","rt":712.80000001192,"correct":true,"confidence":1},{"trial_n":130,"min":86,"max":169,"target":"absent","response":"present","rt":611.89999997616,"correct":false,"confidence":1},{"trial_n":131,"min":85,"max":170,"target":"absent","response":"absent","rt":746.69999998808,"correct":true,"confidence":3},{"trial_n":132,"min":85,"max":170,"target":"present","response":"absent","rt":727.39999997616,"correct":false,"confidence":3},{"trial_n":133,"min":84,"max":171,"target":"absent","response":"absent","rt":544.60000002384,"correct":true,"confidence":3},{"trial_n":134,"min":84,"max":171,"target":"absent","response":"absent","rt":723.30000001192,"correct":true,"confidence":3},{"trial_n":135,"min":85,"max":170,"target":"absent","response":"absent","rt":1185,"correct":true,"confidence":3},{"trial_n":136,"min":85,"max":170,"target":"present","response":"absent","rt":632.5,"correct":false,"confidence":3},{"trial_n":137,"min":84,"max":171,"target":"absent","response":"absent","rt":961.80000001192,"correct":true,"confidence":3},{"trial_n":138,"min":84,"max":171,"target":"present","response":"absent","rt":1640.1999999881,"correct":false,"confidence":3},{"trial_n":139,"min":83,"max":172,"target":"absent","response":"absent","rt":1031.3000000119,"correct":true,"confidence":3},{"trial_n":140,"min":83,"max":172,"target":"present","response":"absent","rt":2400.6000000238,"correct":false,"confidence":3}]