[{"trial_n":1,"n_dots":4.25,"target":"left","response":"left","rt":2866,"correct":true,"confidence":-1},{"trial_n":2,"n_dots":4.25,"target":"left","response":"left","rt":672,"correct":true,"confidence":-1},{"trial_n":3,"n_dots":3.85,"target":"left","response":"left","rt":648,"correct":true,"confidence":-1},{"trial_n":4,"n_dots":3.85,"target":"right","response":"right","rt":632,"correct":true,"confidence":-1},{"trial_n":5,"n_dots":3.45,"target":"left","response":"left","rt":464,"correct":true,"confidence":-1},{"trial_n":6,"n_dots":3.45,"target":"left","response":"left","rt":577,"correct":true,"confidence":-1},{"trial_n":7,"n_dots":3.05,"target":"right","response":"right","rt":431,"correct":true,"confidence":-1},{"trial_n":8,"n_dots":3.05,"target":"right","response":"right","rt":449,"correct":true,"confidence":-1},{"trial_n":9,"n_dots":2.85,"target":"left","response":"left","rt":674,"correct":true,"confidence":-1},{"trial_n":10,"n_dots":2.85,"target":"right","response":"right","rt":488,"correct":true,"confidence":-1},{"trial_n":11,"n_dots":2.65,"target":"left","response":"left","rt":440,"correct":true,"confidence":-1},{"trial_n":12,"n_dots":2.65,"target":"right","response":"right","rt":465,"correct":true,"confidence":-1},{"trial_n":13,"n_dots":2.55,"target":"left","response":"left","rt":362,"correct":true,"confidence":-1},{"trial_n":14,"n_dots":2.55,"target":"left","response":"right","rt":577,"correct":false,"confidence":-1},{"trial_n":15,"n_dots":2.65,"target":"left","response":"left","rt":552,"correct":true,"confidence":-1},{"trial_n":16,"n_dots":2.65,"target":"left","response":"left","rt":489,"correct":true,"confidence":-1},{"trial_n":17,"n_dots":2.55,"target":"left","response":"left","rt":352.99999999999,"correct":true,"confidence":-1},{"trial_n":18,"n_dots":2.55,"target":"right","response":"right","rt":851,"correct":true,"confidence":-1},{"trial_n":19,"n_dots":2.45,"target":"right","response":"left","rt":514.00000000001,"correct":false,"confidence":-1},{"trial_n":20,"n_dots":2.55,"target":"left","response":"left","rt":521.00000000001,"correct":true,"confidence":-1},{"trial_n":21,"n_dots":2.55,"target":"right","response":"left","rt":1225,"correct":false,"confidence":3},{"trial_n":22,"n_dots":2.65,"target":"left","response":"left","rt":2064,"correct":true,"confidence":4},{"trial_n":23,"n_dots":2.65,"target":"right","response":"left","rt":1510,"correct":false,"confidence":4},{"trial_n":24,"n_dots":2.75,"target":"right","response":"left","rt":1452,"correct":false,"confidence":3},{"trial_n":25,"n_dots":2.85,"target":"right","response":"right","rt":2955,"correct":true,"confidence":2},{"trial_n":26,"n_dots":2.85,"target":"left","response":"left","rt":1061,"correct":true,"confidence":4},{"trial_n":27,"n_dots":2.75,"target":"right","response":"left","rt":1343,"correct":false,"confidence":3},{"trial_n":28,"n_dots":2.85,"target":"left","response":"left","rt":1153,"correct":true,"confidence":4},{"trial_n":29,"n_dots":2.85,"target":"right","response":"left","rt":2880,"correct":false,"confidence":3},{"trial_n":30,"n_dots":2.95,"target":"left","response":"left","rt":1284,"correct":true,"confidence":3},{"trial_n":31,"n_dots":2.95,"target":"right","response":"left","rt":1211,"correct":false,"confidence":3},{"trial_n":32,"n_dots":3.05,"target":"left","response":"left","rt":1120,"correct":true,"confidence":5},{"trial_n":33,"n_dots":3.05,"target":"left","response":"left","rt":1118,"correct":true,"confidence":4},{"trial_n":34,"n_dots":2.95,"target":"right","response":"left","rt":1239,"correct":false,"confidence":3},{"trial_n":35,"n_dots":3.05,"target":"right","response":"right","rt":1292,"correct":true,"confidence":5},{"trial_n":36,"n_dots":3.05,"target":"left","response":"left","rt":1100,"correct":true,"confidence":3},{"trial_n":37,"n_dots":2.95,"target":"left","response":"right","rt":1717,"correct":false,"confidence":4},{"trial_n":38,"n_dots":3.05,"target":"right","response":"right","rt":972,"correct":true,"confidence":4},{"trial_n":39,"n_dots":3.05,"target":"right","response":"left","rt":1282,"correct":false,"confidence":4},{"trial_n":40,"n_dots":3.15,"target":"right","response":"left","rt":1602,"correct":false,"confidence":2},{"trial_n":41,"n_dots":3.25,"target":"right","response":"right","rt":1052,"correct":true,"confidence":4},{"trial_n":42,"n_dots":3.25,"target":"right","response":"right","rt":801,"correct":true,"confidence":4},{"trial_n":43,"n_dots":3.15,"target":"right","response":"left","rt":1139,"correct":false,"confidence":3},{"trial_n":44,"n_dots":3.25,"target":"right","response":"left","rt":1352,"correct":false,"confidence":3},{"trial_n":45,"n_dots":3.35,"target":"left","response":"left","rt":1061,"correct":true,"confidence":4},{"trial_n":46,"n_dots":3.35,"target":"right","response":"right","rt":872,"correct":true,"confidence":4},{"trial_n":47,"n_dots":3.25,"target":"right","response":"left","rt":1157,"correct":false,"confidence":3},{"trial_n":48,"n_dots":3.35,"target":"left","response":"left","rt":982,"correct":true,"confidence":4},{"trial_n":49,"n_dots":3.35,"target":"left","response":"left","rt":1106,"correct":true,"confidence":4},{"trial_n":50,"n_dots":3.25,"target":"right","response":"left","rt":1096,"correct":false,"confidence":3},{"trial_n":51,"n_dots":3.35,"target":"right","response":"left","rt":1033,"correct":false,"confidence":3},{"trial_n":52,"n_dots":3.45,"target":"left","response":"left","rt":1005,"correct":true,"confidence":5},{"trial_n":53,"n_dots":3.45,"target":"left","response":"left","rt":818,"correct":true,"confidence":5},{"trial_n":54,"n_dots":3.35,"target":"right","response":"left","rt":1048,"correct":false,"confidence":4},{"trial_n":55,"n_dots":3.45,"target":"left","response":"left","rt":863.99999999997,"correct":true,"confidence":5},{"trial_n":56,"n_dots":3.45,"target":"left","response":"left","rt":1144,"correct":true,"confidence":5},{"trial_n":57,"n_dots":3.35,"target":"left","response":"left","rt":937.99999999997,"correct":true,"confidence":5},{"trial_n":58,"n_dots":3.35,"target":"right","response":"left","rt":1190,"correct":false,"confidence":4},{"trial_n":59,"n_dots":3.45,"target":"right","response":"left","rt":1003,"correct":false,"confidence":3},{"trial_n":60,"n_dots":3.55,"target":"left","response":"left","rt":903,"correct":true,"confidence":5},{"trial_n":61,"n_dots":3.55,"target":"right","response":"left","rt":1903,"correct":false,"confidence":2},{"trial_n":62,"n_dots":3.65,"target":"right","response":"left","rt":972,"correct":false,"confidence":3},{"trial_n":63,"n_dots":3.75,"target":"left","response":"left","rt":902,"correct":true,"confidence":5},{"trial_n":64,"n_dots":3.75,"target":"right","response":"left","rt":1122,"correct":false,"confidence":3},{"trial_n":65,"n_dots":3.85,"target":"right","response":"left","rt":850,"correct":false,"confidence":4},{"trial_n":66,"n_dots":3.95,"target":"left","response":"left","rt":745,"correct":true,"confidence":5},{"trial_n":67,"n_dots":3.95,"target":"right","response":"right","rt":1356,"correct":true,"confidence":4},{"trial_n":68,"n_dots":3.85,"target":"left","response":"left","rt":1030,"correct":true,"confidence":5},{"trial_n":69,"n_dots":3.85,"target":"left","response":"left","rt":1048.9999999999,"correct":true,"confidence":4},{"trial_n":70,"n_dots":3.75,"target":"right","response":"right","rt":1073,"correct":true,"confidence":4},{"trial_n":71,"n_dots":3.75,"target":"right","response":"right","rt":687,"correct":true,"confidence":5},{"trial_n":72,"n_dots":3.65,"target":"right","response":"right","rt":887,"correct":true,"confidence":3},{"trial_n":73,"n_dots":3.65,"target":"right","response":"left","rt":1293,"correct":false,"confidence":3},{"trial_n":74,"n_dots":3.75,"target":"left","response":"left","rt":869,"correct":true,"confidence":5},{"trial_n":75,"n_dots":3.75,"target":"right","response":"right","rt":887,"correct":true,"confidence":5},{"trial_n":76,"n_dots":3.65,"target":"left","response":"left","rt":832,"correct":true,"confidence":5},{"trial_n":77,"n_dots":3.65,"target":"right","response":"right","rt":909,"correct":true,"confidence":3},{"trial_n":78,"n_dots":3.55,"target":"left","response":"left","rt":834,"correct":true,"confidence":5},{"trial_n":79,"n_dots":3.55,"target":"left","response":"left","rt":805,"correct":true,"confidence":5},{"trial_n":80,"n_dots":3.45,"target":"left","response":"right","rt":1606,"correct":false,"confidence":2},{"trial_n":81,"n_dots":3.55,"target":"right","response":"right","rt":843,"correct":true,"confidence":4},{"trial_n":82,"n_dots":3.55,"target":"left","response":"left","rt":758,"correct":true,"confidence":5},{"trial_n":83,"n_dots":3.45,"target":"left","response":"left","rt":992,"correct":true,"confidence":4},{"trial_n":84,"n_dots":3.45,"target":"left","response":"left","rt":979,"correct":true,"confidence":4},{"trial_n":85,"n_dots":3.35,"target":"right","response":"right","rt":1016,"correct":true,"confidence":4},{"trial_n":86,"n_dots":3.35,"target":"right","response":"right","rt":877.00000000006,"correct":true,"confidence":3},{"trial_n":87,"n_dots":3.25,"target":"left","response":"left","rt":915,"correct":true,"confidence":4},{"trial_n":88,"n_dots":3.25,"target":"right","response":"right","rt":878,"correct":true,"confidence":4},{"trial_n":89,"n_dots":3.15,"target":"right","response":"left","rt":1070,"correct":false,"confidence":3},{"trial_n":90,"n_dots":3.25,"target":"right","response":"right","rt":956.99999999994,"correct":true,"confidence":3},{"trial_n":91,"n_dots":3.25,"target":"right","response":"right","rt":892,"correct":true,"confidence":3},{"trial_n":92,"n_dots":3.15,"target":"right","response":"right","rt":859,"correct":true,"confidence":2},{"trial_n":93,"n_dots":3.15,"target":"left","response":"left","rt":1135,"correct":true,"confidence":4},{"trial_n":94,"n_dots":3.05,"target":"right","response":"left","rt":2246,"correct":false,"confidence":1},{"trial_n":95,"n_dots":3.15,"target":"left","response":"left","rt":1012,"correct":true,"confidence":4},{"trial_n":96,"n_dots":3.15,"target":"right","response":"right","rt":852,"correct":true,"confidence":3},{"trial_n":97,"n_dots":3.05,"target":"right","response":"left","rt":1038,"correct":false,"confidence":3},{"trial_n":98,"n_dots":3.15,"target":"right","response":"left","rt":1040,"correct":false,"confidence":1},{"trial_n":99,"n_dots":3.25,"target":"right","response":"left","rt":1614.0000000001,"correct":false,"confidence":1},{"trial_n":100,"n_dots":3.35,"target":"left","response":"left","rt":979,"correct":true,"confidence":4},{"trial_n":101,"n_dots":3.35,"target":"left","response":"left","rt":983.99999999994,"correct":true,"confidence":4},{"trial_n":102,"n_dots":3.25,"target":"right","response":"right","rt":2336,"correct":true,"confidence":1},{"trial_n":103,"n_dots":3.25,"target":"right","response":"right","rt":963,"correct":true,"confidence":3},{"trial_n":104,"n_dots":3.15,"target":"left","response":"left","rt":1984.0000000001,"correct":true,"confidence":4},{"trial_n":105,"n_dots":3.15,"target":"left","response":"left","rt":1141,"correct":true,"confidence":4},{"trial_n":106,"n_dots":3.05,"target":"left","response":"left","rt":1163.0000000001,"correct":true,"confidence":4},{"trial_n":107,"n_dots":3.05,"target":"left","response":"left","rt":902,"correct":true,"confidence":5},{"trial_n":108,"n_dots":2.95,"target":"left","response":"left","rt":909,"correct":true,"confidence":4},{"trial_n":109,"n_dots":2.95,"target":"left","response":"left","rt":782.99999999994,"correct":true,"confidence":4},{"trial_n":110,"n_dots":2.85,"target":"left","response":"left","rt":996,"correct":true,"confidence":5},{"trial_n":111,"n_dots":2.85,"target":"left","response":"left","rt":935.99999999994,"correct":true,"confidence":3},{"trial_n":112,"n_dots":2.75,"target":"right","response":"left","rt":895,"correct":false,"confidence":4},{"trial_n":113,"n_dots":2.85,"target":"left","response":"left","rt":879,"correct":true,"confidence":4},{"trial_n":114,"n_dots":2.85,"target":"right","response":"right","rt":1380,"correct":true,"confidence":2},{"trial_n":115,"n_dots":2.75,"target":"left","response":"left","rt":848.00000000006,"correct":true,"confidence":4},{"trial_n":116,"n_dots":2.75,"target":"left","response":"left","rt":868,"correct":true,"confidence":4},{"trial_n":117,"n_dots":2.65,"target":"left","response":"left","rt":865.99999999994,"correct":true,"confidence":4},{"trial_n":118,"n_dots":2.65,"target":"left","response":"left","rt":826,"correct":true,"confidence":5},{"trial_n":119,"n_dots":2.55,"target":"right","response":"left","rt":950,"correct":false,"confidence":3},{"trial_n":120,"n_dots":2.65,"target":"right","response":"left","rt":1160,"correct":false,"confidence":3}]