[{"trial_n":1,"n_dots":4.25,"target":"right","response":"right","rt":5575,"correct":true,"confidence":-1},{"trial_n":2,"n_dots":4.25,"target":"left","response":"left","rt":1036,"correct":true,"confidence":-1},{"trial_n":3,"n_dots":3.85,"target":"left","response":"left","rt":320,"correct":true,"confidence":-1},{"trial_n":4,"n_dots":3.85,"target":"right","response":"right","rt":511,"correct":true,"confidence":-1},{"trial_n":5,"n_dots":3.45,"target":"right","response":"left","rt":579,"correct":false,"confidence":-1},{"trial_n":6,"n_dots":3.85,"target":"left","response":"left","rt":476,"correct":true,"confidence":-1},{"trial_n":7,"n_dots":3.85,"target":"left","response":"left","rt":382,"correct":true,"confidence":-1},{"trial_n":8,"n_dots":3.65,"target":"left","response":"left","rt":361,"correct":true,"confidence":-1},{"trial_n":9,"n_dots":3.65,"target":"right","response":"right","rt":154,"correct":true,"confidence":-1},{"trial_n":10,"n_dots":3.45,"target":"right","response":"right","rt":544,"correct":true,"confidence":-1},{"trial_n":11,"n_dots":3.45,"target":"left","response":"left","rt":119,"correct":true,"confidence":-1},{"trial_n":12,"n_dots":3.25,"target":"right","response":"right","rt":415,"correct":true,"confidence":-1},{"trial_n":13,"n_dots":3.25,"target":"right","response":"left","rt":111,"correct":false,"confidence":-1},{"trial_n":14,"n_dots":3.35,"target":"right","response":"right","rt":1032,"correct":true,"confidence":-1},{"trial_n":15,"n_dots":3.35,"target":"left","response":"left","rt":410,"correct":true,"confidence":-1},{"trial_n":16,"n_dots":3.25,"target":"right","response":"right","rt":596,"correct":true,"confidence":-1},{"trial_n":17,"n_dots":3.25,"target":"right","response":"right","rt":491,"correct":true,"confidence":-1},{"trial_n":18,"n_dots":3.15,"target":"left","response":"left","rt":609.99999999999,"correct":true,"confidence":-1},{"trial_n":19,"n_dots":3.15,"target":"left","response":"right","rt":85,"correct":false,"confidence":-1},{"trial_n":20,"n_dots":3.25,"target":"left","response":"left","rt":200.00000000001,"correct":true,"confidence":-1},{"trial_n":21,"n_dots":3.25,"target":"right","response":"left","rt":1051,"correct":false,"confidence":4},{"trial_n":22,"n_dots":3.35,"target":"left","response":"left","rt":733,"correct":true,"confidence":4},{"trial_n":23,"n_dots":3.35,"target":"right","response":"right","rt":2702,"correct":true,"confidence":3},{"trial_n":24,"n_dots":3.25,"target":"right","response":"right","rt":1590,"correct":true,"confidence":4},{"trial_n":25,"n_dots":3.25,"target":"left","response":"left","rt":683.99999999999,"correct":true,"confidence":4},{"trial_n":26,"n_dots":3.15,"target":"left","response":"left","rt":1156,"correct":true,"confidence":3},{"trial_n":27,"n_dots":3.15,"target":"left","response":"left","rt":324,"correct":true,"confidence":3},{"trial_n":28,"n_dots":3.05,"target":"left","response":"right","rt":2386,"correct":false,"confidence":3},{"trial_n":29,"n_dots":3.15,"target":"right","response":"left","rt":682,"correct":false,"confidence":3},{"trial_n":30,"n_dots":3.25,"target":"left","response":"left","rt":742,"correct":true,"confidence":4},{"trial_n":31,"n_dots":3.25,"target":"left","response":"left","rt":957,"correct":true,"confidence":3},{"trial_n":32,"n_dots":3.15,"target":"left","response":"left","rt":883,"correct":true,"confidence":3},{"trial_n":33,"n_dots":3.15,"target":"right","response":"right","rt":806.00000000003,"correct":true,"confidence":2},{"trial_n":34,"n_dots":3.05,"target":"left","response":"left","rt":1284,"correct":true,"confidence":3},{"trial_n":35,"n_dots":3.05,"target":"left","response":"left","rt":695.00000000003,"correct":true,"confidence":4},{"trial_n":36,"n_dots":2.95,"target":"right","response":"left","rt":603,"correct":false,"confidence":3},{"trial_n":37,"n_dots":3.05,"target":"right","response":"right","rt":553.00000000003,"correct":true,"confidence":3},{"trial_n":38,"n_dots":3.05,"target":"left","response":"left","rt":911,"correct":true,"confidence":2},{"trial_n":39,"n_dots":2.95,"target":"right","response":"right","rt":1527,"correct":true,"confidence":3},{"trial_n":40,"n_dots":2.95,"target":"right","response":"right","rt":573,"correct":true,"confidence":3},{"trial_n":41,"n_dots":2.85,"target":"right","response":"left","rt":672,"correct":false,"confidence":2},{"trial_n":42,"n_dots":2.95,"target":"left","response":"right","rt":729.00000000003,"correct":false,"confidence":3},{"trial_n":43,"n_dots":3.05,"target":"right","response":"left","rt":498.00000000003,"correct":false,"confidence":3},{"trial_n":44,"n_dots":3.15,"target":"left","response":"right","rt":585,"correct":false,"confidence":4},{"trial_n":45,"n_dots":3.25,"target":"left","response":"left","rt":536.99999999997,"correct":true,"confidence":4},{"trial_n":46,"n_dots":3.25,"target":"right","response":"left","rt":824.00000000003,"correct":false,"confidence":3},{"trial_n":47,"n_dots":3.35,"target":"left","response":"right","rt":598.00000000003,"correct":false,"confidence":3},{"trial_n":48,"n_dots":3.45,"target":"left","response":"right","rt":3150,"correct":false,"confidence":2},{"trial_n":49,"n_dots":3.55,"target":"left","response":"left","rt":444.99999999997,"correct":true,"confidence":4},{"trial_n":50,"n_dots":3.55,"target":"right","response":"left","rt":665,"correct":false,"confidence":4},{"trial_n":51,"n_dots":3.65,"target":"left","response":"left","rt":705.00000000003,"correct":true,"confidence":4},{"trial_n":52,"n_dots":3.65,"target":"right","response":"right","rt":522.99999999997,"correct":true,"confidence":3},{"trial_n":53,"n_dots":3.55,"target":"right","response":"right","rt":802,"correct":true,"confidence":3},{"trial_n":54,"n_dots":3.55,"target":"left","response":"left","rt":551.99999999997,"correct":true,"confidence":4},{"trial_n":55,"n_dots":3.45,"target":"left","response":"left","rt":609.00000000003,"correct":true,"confidence":4},{"trial_n":56,"n_dots":3.45,"target":"left","response":"left","rt":612,"correct":true,"confidence":4},{"trial_n":57,"n_dots":3.35,"target":"left","response":"left","rt":383.00000000006,"correct":true,"confidence":4},{"trial_n":58,"n_dots":3.35,"target":"right","response":"left","rt":593,"correct":false,"confidence":3},{"trial_n":59,"n_dots":3.45,"target":"right","response":"right","rt":294,"correct":true,"confidence":4},{"trial_n":60,"n_dots":3.45,"target":"right","response":"right","rt":600,"correct":true,"confidence":4},{"trial_n":61,"n_dots":3.35,"target":"right","response":"left","rt":517,"correct":false,"confidence":3},{"trial_n":62,"n_dots":3.45,"target":"right","response":"right","rt":432.00000000006,"correct":true,"confidence":4},{"trial_n":63,"n_dots":3.45,"target":"left","response":"left","rt":291,"correct":true,"confidence":4},{"trial_n":64,"n_dots":3.35,"target":"left","response":"left","rt":513,"correct":true,"confidence":4},{"trial_n":65,"n_dots":3.35,"target":"left","response":"left","rt":561,"correct":true,"confidence":4},{"trial_n":66,"n_dots":3.25,"target":"left","response":"left","rt":453,"correct":true,"confidence":4},{"trial_n":67,"n_dots":3.25,"target":"right","response":"right","rt":628,"correct":true,"confidence":4},{"trial_n":68,"n_dots":3.15,"target":"left","response":"left","rt":391,"correct":true,"confidence":4},{"trial_n":69,"n_dots":3.15,"target":"left","response":"right","rt":395.99999999994,"correct":false,"confidence":4},{"trial_n":70,"n_dots":3.25,"target":"right","response":"right","rt":63,"correct":true,"confidence":4},{"trial_n":71,"n_dots":3.25,"target":"right","response":"right","rt":245,"correct":true,"confidence":4},{"trial_n":72,"n_dots":3.15,"target":"left","response":"left","rt":171,"correct":true,"confidence":4},{"trial_n":73,"n_dots":3.15,"target":"right","response":"right","rt":353.00000000006,"correct":true,"confidence":3},{"trial_n":74,"n_dots":3.05,"target":"right","response":"right","rt":939,"correct":true,"confidence":3},{"trial_n":75,"n_dots":3.05,"target":"right","response":"left","rt":76,"correct":false,"confidence":3},{"trial_n":76,"n_dots":3.15,"target":"right","response":"right","rt":517,"correct":true,"confidence":3},{"trial_n":77,"n_dots":3.15,"target":"left","response":"left","rt":384,"correct":true,"confidence":3},{"trial_n":78,"n_dots":3.05,"target":"right","response":"right","rt":183.00000000006,"correct":true,"confidence":3},{"trial_n":79,"n_dots":3.05,"target":"left","response":"right","rt":653,"correct":false,"confidence":3},{"trial_n":80,"n_dots":3.15,"target":"right","response":"right","rt":8443.0000000001,"correct":true,"confidence":2},{"trial_n":81,"n_dots":3.15,"target":"left","response":"left","rt":289,"correct":true,"confidence":3},{"trial_n":82,"n_dots":3.05,"target":"right","response":"right","rt":75,"correct":true,"confidence":4},{"trial_n":83,"n_dots":3.05,"target":"right","response":"left","rt":213,"correct":false,"confidence":3},{"trial_n":84,"n_dots":3.15,"target":"right","response":"right","rt":879,"correct":true,"confidence":4},{"trial_n":85,"n_dots":3.15,"target":"left","response":"right","rt":9273,"correct":false,"confidence":3},{"trial_n":86,"n_dots":3.25,"target":"left","response":"left","rt":226,"correct":true,"confidence":4},{"trial_n":87,"n_dots":3.25,"target":"right","response":"right","rt":124.00000000006,"correct":true,"confidence":4},{"trial_n":88,"n_dots":3.15,"target":"right","response":"left","rt":377,"correct":false,"confidence":3},{"trial_n":89,"n_dots":3.25,"target":"right","response":"right","rt":99,"correct":true,"confidence":4},{"trial_n":90,"n_dots":3.25,"target":"left","response":"left","rt":239,"correct":true,"confidence":4},{"trial_n":91,"n_dots":3.15,"target":"right","response":"left","rt":623,"correct":false,"confidence":4},{"trial_n":92,"n_dots":3.25,"target":"left","response":"left","rt":733,"correct":true,"confidence":4},{"trial_n":93,"n_dots":3.25,"target":"left","response":"left","rt":555,"correct":true,"confidence":4},{"trial_n":94,"n_dots":3.15,"target":"right","response":"right","rt":1028,"correct":true,"confidence":3},{"trial_n":95,"n_dots":3.15,"target":"left","response":"left","rt":192,"correct":true,"confidence":3},{"trial_n":96,"n_dots":3.05,"target":"left","response":"left","rt":1053,"correct":true,"confidence":2},{"trial_n":97,"n_dots":3.05,"target":"left","response":"right","rt":1086.9999999999,"correct":false,"confidence":2},{"trial_n":98,"n_dots":3.15,"target":"right","response":"left","rt":579,"correct":false,"confidence":3},{"trial_n":99,"n_dots":3.25,"target":"right","response":"right","rt":642,"correct":true,"confidence":3},{"trial_n":100,"n_dots":3.25,"target":"left","response":"left","rt":259,"correct":true,"confidence":4},{"trial_n":101,"n_dots":3.15,"target":"right","response":"left","rt":591,"correct":false,"confidence":3},{"trial_n":102,"n_dots":3.25,"target":"right","response":"right","rt":218,"correct":true,"confidence":3},{"trial_n":103,"n_dots":3.25,"target":"right","response":"left","rt":513.99999999988,"correct":false,"confidence":3},{"trial_n":104,"n_dots":3.35,"target":"right","response":"right","rt":519,"correct":true,"confidence":4},{"trial_n":105,"n_dots":3.35,"target":"right","response":"right","rt":587,"correct":true,"confidence":4},{"trial_n":106,"n_dots":3.25,"target":"left","response":"left","rt":548,"correct":true,"confidence":4},{"trial_n":107,"n_dots":3.25,"target":"right","response":"left","rt":448.00000000012,"correct":false,"confidence":4},{"trial_n":108,"n_dots":3.35,"target":"left","response":"left","rt":380,"correct":true,"confidence":4},{"trial_n":109,"n_dots":3.35,"target":"right","response":"right","rt":572,"correct":true,"confidence":4},{"trial_n":110,"n_dots":3.25,"target":"left","response":"left","rt":560.99999999988,"correct":true,"confidence":3},{"trial_n":111,"n_dots":3.25,"target":"left","response":"left","rt":313.00000000012,"correct":true,"confidence":4},{"trial_n":112,"n_dots":3.15,"target":"left","response":"left","rt":497,"correct":true,"confidence":3},{"trial_n":113,"n_dots":3.15,"target":"right","response":"right","rt":404,"correct":true,"confidence":4},{"trial_n":114,"n_dots":3.05,"target":"left","response":"left","rt":636,"correct":true,"confidence":4},{"trial_n":115,"n_dots":3.05,"target":"right","response":"right","rt":604,"correct":true,"confidence":4},{"trial_n":116,"n_dots":2.95,"target":"left","response":"left","rt":406,"correct":true,"confidence":3},{"trial_n":117,"n_dots":2.95,"target":"right","response":"right","rt":470,"correct":true,"confidence":4},{"trial_n":118,"n_dots":2.85,"target":"left","response":"left","rt":300.99999999988,"correct":true,"confidence":3},{"trial_n":119,"n_dots":2.85,"target":"left","response":"left","rt":1016,"correct":true,"confidence":3},{"trial_n":120,"n_dots":2.75,"target":"right","response":"right","rt":231,"correct":true,"confidence":3}]