[{"trial_n":1,"span":8,"encoder":"61021330","distractor":"61021320","target":"present","response":"present","rt":"1870.1000000238","correct":true,"confidence":-1},{"trial_n":2,"span":8,"encoder":"42539200","distractor":"42519200","target":"present","response":"absent","rt":"1764.6999999881","correct":false,"confidence":-1},{"trial_n":3,"span":6,"encoder":"914288","distractor":"914238","target":"absent","response":"present","rt":"1699.8999999762","correct":false,"confidence":-1},{"trial_n":4,"span":4,"encoder":"4856","distractor":"4854","target":"absent","response":"absent","rt":"1207","correct":true,"confidence":-1},{"trial_n":5,"span":4,"encoder":"1437","distractor":"0437","target":"present","response":"present","rt":"1554.5","correct":true,"confidence":-1},{"trial_n":6,"span":6,"encoder":"677870","distractor":"677860","target":"absent","response":"absent","rt":"1517.3000000119","correct":true,"confidence":-1},{"trial_n":7,"span":6,"encoder":"559313","distractor":"559813","target":"absent","response":"present","rt":"1801.0999999642","correct":false,"confidence":-1},{"trial_n":8,"span":4,"encoder":"9449","distractor":"9446","target":"absent","response":"absent","rt":"1343.5","correct":true,"confidence":-1},{"trial_n":9,"span":4,"encoder":"7744","distractor":"3744","target":"present","response":"present","rt":"1227.0999999642","correct":true,"confidence":-1},{"trial_n":10,"span":6,"encoder":"066643","distractor":"066649","target":"present","response":"present","rt":"928.60000002384","correct":true,"confidence":-1},{"trial_n":11,"span":6,"encoder":"951114","distractor":"981114","target":"absent","response":"present","rt":"936.80000001192","correct":false,"confidence":-1},{"trial_n":12,"span":5,"encoder":"45802","distractor":"43802","target":"absent","response":"present","rt":"1043.2000000477","correct":false,"confidence":-1},{"trial_n":13,"span":4,"encoder":"5114","distractor":"5614","target":"present","response":"present","rt":"824.30000001192","correct":true,"confidence":-1},{"trial_n":14,"span":4,"encoder":"6501","distractor":"6551","target":"present","response":"present","rt":"780.30000001192","correct":true,"confidence":-1},{"trial_n":15,"span":5,"encoder":"82998","distractor":"82918","target":"absent","response":"absent","rt":"2263.2999999523","correct":true,"confidence":-1},{"trial_n":16,"span":5,"encoder":"48757","distractor":"88757","target":"present","response":"present","rt":"986.5","correct":true,"confidence":-1},{"trial_n":17,"span":6,"encoder":"320694","distractor":"320604","target":"present","response":"present","rt":"1568.4000000358","correct":true,"confidence":-1},{"trial_n":18,"span":6,"encoder":"210509","distractor":"280509","target":"absent","response":"present","rt":"927.30000001192","correct":false,"confidence":-1},{"trial_n":19,"span":5,"encoder":"03753","distractor":"01753","target":"present","response":"present","rt":"948.39999997616","correct":true,"confidence":-1},{"trial_n":20,"span":5,"encoder":"77349","distractor":"97349","target":"present","response":"present","rt":"732.89999997616","correct":true,"confidence":-1},{"trial_n":21,"span":6,"encoder":"404456","distractor":"404451","target":"absent","response":"absent","rt":"1137.6000000238","correct":true,"confidence":4},{"trial_n":22,"span":6,"encoder":"352863","distractor":"052863","target":"absent","response":"present","rt":"1302.6999999881","correct":false,"confidence":3},{"trial_n":23,"span":5,"encoder":"26985","distractor":"36985","target":"absent","response":"present","rt":"2688.6999999881","correct":false,"confidence":2},{"trial_n":24,"span":4,"encoder":"6454","distractor":"8454","target":"absent","response":"absent","rt":"1306.1000000238","correct":true,"confidence":4},{"trial_n":25,"span":4,"encoder":"6010","distractor":"6017","target":"present","response":"present","rt":"1287.8000000119","correct":true,"confidence":4},{"trial_n":26,"span":5,"encoder":"65341","distractor":"55341","target":"absent","response":"absent","rt":"2009.1999999881","correct":true,"confidence":4},{"trial_n":27,"span":5,"encoder":"74869","distractor":"74865","target":"present","response":"present","rt":"2421.5","correct":true,"confidence":3},{"trial_n":28,"span":6,"encoder":"481920","distractor":"481910","target":"present","response":"present","rt":"1319.1000000238","correct":true,"confidence":3},{"trial_n":29,"span":6,"encoder":"792624","distractor":"794624","target":"present","response":"present","rt":"2792","correct":true,"confidence":2},{"trial_n":30,"span":7,"encoder":"4462477","distractor":"4462437","target":"present","response":"present","rt":"1224.6999999881","correct":true,"confidence":3},{"trial_n":31,"span":7,"encoder":"0755110","distractor":"0752110","target":"absent","response":"present","rt":"1552.0999999642","correct":false,"confidence":3},{"trial_n":32,"span":6,"encoder":"739718","distractor":"839718","target":"absent","response":"absent","rt":"1766.7999999523","correct":true,"confidence":3},{"trial_n":33,"span":6,"encoder":"282668","distractor":"082668","target":"absent","response":"present","rt":"1299.6999999881","correct":false,"confidence":4},{"trial_n":34,"span":5,"encoder":"76757","distractor":"36757","target":"present","response":"present","rt":"969.69999998808","correct":true,"confidence":4},{"trial_n":35,"span":5,"encoder":"77599","distractor":"74599","target":"present","response":"present","rt":"878.69999998808","correct":true,"confidence":4},{"trial_n":36,"span":6,"encoder":"094335","distractor":"094635","target":"present","response":"present","rt":"926","correct":true,"confidence":4},{"trial_n":37,"span":6,"encoder":"758976","distractor":"751976","target":"present","response":"present","rt":"1692.1000000238","correct":true,"confidence":4},{"trial_n":38,"span":7,"encoder":"2205005","distractor":"2905005","target":"present","response":"present","rt":"971.5","correct":true,"confidence":4},{"trial_n":39,"span":7,"encoder":"0784821","distractor":"0734821","target":"absent","response":"absent","rt":"1324.8999999762","correct":true,"confidence":3},{"trial_n":40,"span":8,"encoder":"35024090","distractor":"35024093","target":"present","response":"absent","rt":"1398.8000000119","correct":false,"confidence":3},{"trial_n":41,"span":7,"encoder":"4690443","distractor":"4690447","target":"present","response":"present","rt":"2990.7999999523","correct":true,"confidence":3},{"trial_n":42,"span":7,"encoder":"5773966","distractor":"5773936","target":"absent","response":"present","rt":"1240.6999999881","correct":false,"confidence":3},{"trial_n":43,"span":6,"encoder":"526132","distractor":"526138","target":"absent","response":"absent","rt":"1423.4000000358","correct":true,"confidence":3},{"trial_n":44,"span":6,"encoder":"244899","distractor":"744899","target":"present","response":"present","rt":"1117.8999999762","correct":true,"confidence":3},{"trial_n":45,"span":7,"encoder":"5801866","distractor":"6801866","target":"absent","response":"absent","rt":"3378.6000000238","correct":true,"confidence":3},{"trial_n":46,"span":7,"encoder":"5624364","distractor":"5624324","target":"present","response":"present","rt":"4832.3000000119","correct":true,"confidence":3},{"trial_n":47,"span":8,"encoder":"39784073","distractor":"39784873","target":"absent","response":"absent","rt":"2361.9000000358","correct":true,"confidence":3},{"trial_n":48,"span":8,"encoder":"18060201","distractor":"19060201","target":"present","response":"present","rt":"2593.8000000119","correct":true,"confidence":4},{"trial_n":49,"span":9,"encoder":"167668031","distractor":"167568031","target":"present","response":"absent","rt":"5526.2999999523","correct":false,"confidence":4},{"trial_n":50,"span":8,"encoder":"88754078","distractor":"88754079","target":"absent","response":"absent","rt":"1833.9000000358","correct":true,"confidence":4},{"trial_n":51,"span":8,"encoder":"89401459","distractor":"09401459","target":"absent","response":"present","rt":"2647.6999999881","correct":false,"confidence":4},{"trial_n":52,"span":7,"encoder":"5120644","distractor":"0120644","target":"present","response":"present","rt":"1061.6999999881","correct":true,"confidence":4},{"trial_n":53,"span":7,"encoder":"0852449","distractor":"2852449","target":"present","response":"present","rt":"1005.3999999762","correct":true,"confidence":4},{"trial_n":54,"span":8,"encoder":"71095457","distractor":"76095457","target":"present","response":"present","rt":"1123.7000000477","correct":true,"confidence":3},{"trial_n":55,"span":8,"encoder":"70063694","distractor":"70066694","target":"absent","response":"present","rt":"1010.1999999881","correct":false,"confidence":3},{"trial_n":56,"span":7,"encoder":"6744033","distractor":"6740033","target":"absent","response":"present","rt":"1764.8000000119","correct":false,"confidence":3},{"trial_n":57,"span":6,"encoder":"040431","distractor":"040438","target":"present","response":"present","rt":"795.70000004768","correct":true,"confidence":4},{"trial_n":58,"span":6,"encoder":"375588","distractor":"345588","target":"absent","response":"present","rt":"767.89999997616","correct":false,"confidence":3},{"trial_n":59,"span":5,"encoder":"96249","distractor":"96349","target":"absent","response":"present","rt":"831.30000001192","correct":false,"confidence":3},{"trial_n":60,"span":4,"encoder":"5940","distractor":"5941","target":"absent","response":"absent","rt":"1077.2999999523","correct":true,"confidence":3},{"trial_n":61,"span":4,"encoder":"5189","distractor":"5109","target":"present","response":"present","rt":"1033.3000000119","correct":true,"confidence":3},{"trial_n":62,"span":5,"encoder":"52667","distractor":"53667","target":"present","response":"present","rt":"757.59999996424","correct":true,"confidence":3},{"trial_n":63,"span":5,"encoder":"13356","distractor":"17356","target":"absent","response":"absent","rt":"1057","correct":true,"confidence":4},{"trial_n":64,"span":6,"encoder":"072733","distractor":"072233","target":"absent","response":"absent","rt":"899.29999995232","correct":true,"confidence":4},{"trial_n":65,"span":6,"encoder":"104918","distractor":"106918","target":"absent","response":"present","rt":"1171.5999999642","correct":false,"confidence":1},{"trial_n":66,"span":5,"encoder":"53110","distractor":"53610","target":"present","response":"present","rt":"1361.5","correct":true,"confidence":3},{"trial_n":67,"span":5,"encoder":"80044","distractor":"81044","target":"present","response":"present","rt":"887.59999996424","correct":true,"confidence":3},{"trial_n":68,"span":6,"encoder":"781711","distractor":"781811","target":"absent","response":"present","rt":"825.10000002384","correct":false,"confidence":3},{"trial_n":69,"span":5,"encoder":"71826","distractor":"61826","target":"present","response":"present","rt":"903.60000002384","correct":true,"confidence":3},{"trial_n":70,"span":5,"encoder":"84472","distractor":"84972","target":"absent","response":"absent","rt":"1132.9000000358","correct":true,"confidence":5},{"trial_n":71,"span":8,"encoder":"59285890","distractor":"59285895","target":"present","response":"present","rt":"1617.1999999881","correct":true,"confidence":-1},{"trial_n":72,"span":8,"encoder":"04316660","distractor":"05316660","target":"present","response":"present","rt":"2352.8000000119","correct":true,"confidence":-1},{"trial_n":73,"span":9,"encoder":"910546956","distractor":"910546056","target":"absent","response":"present","rt":"4478.6999999881","correct":false,"confidence":-1},{"trial_n":74,"span":8,"encoder":"65906117","distractor":"65907117","target":"absent","response":"absent","rt":"1264.3999999762","correct":true,"confidence":-1},{"trial_n":75,"span":8,"encoder":"52563706","distractor":"52563766","target":"present","response":"present","rt":"1412","correct":true,"confidence":-1},{"trial_n":76,"span":9,"encoder":"827311366","distractor":"827313366","target":"absent","response":"present","rt":"2152.0999999642","correct":false,"confidence":-1},{"trial_n":77,"span":8,"encoder":"69851507","distractor":"69851577","target":"present","response":"present","rt":"1180.5","correct":true,"confidence":-1},{"trial_n":78,"span":8,"encoder":"00489514","distractor":"60489514","target":"absent","response":"present","rt":"2057.6999999881","correct":false,"confidence":-1},{"trial_n":79,"span":7,"encoder":"2661642","distractor":"2665642","target":"absent","response":"absent","rt":"1364.0999999642","correct":true,"confidence":-1},{"trial_n":80,"span":7,"encoder":"2621624","distractor":"2621684","target":"present","response":"present","rt":"3065.5","correct":true,"confidence":-1},{"trial_n":81,"span":8,"encoder":"69554438","distractor":"69594438","target":"present","response":"present","rt":"1704.6999999881","correct":true,"confidence":-1},{"trial_n":82,"span":8,"encoder":"94209890","distractor":"94409890","target":"present","response":"present","rt":"1954.0999999642","correct":true,"confidence":-1},{"trial_n":83,"span":9,"encoder":"664568406","distractor":"664468406","target":"present","response":"present","rt":"1301.5","correct":true,"confidence":-1},{"trial_n":84,"span":9,"encoder":"397652032","distractor":"397642032","target":"present","response":"present","rt":"3637.1000000238","correct":true,"confidence":-1},{"trial_n":85,"span":10,"encoder":"6133288762","distractor":"6133286762","target":"present","response":"present","rt":"3923.1000000238","correct":true,"confidence":-1},{"trial_n":86,"span":10,"encoder":"8527272681","distractor":"8547272681","target":"present","response":"present","rt":"1635.5","correct":true,"confidence":-1},{"trial_n":87,"span":11,"encoder":"00777281641","distractor":"50777281641","target":"absent","response":"present","rt":"2367.8999999762","correct":false,"confidence":-1},{"trial_n":88,"span":10,"encoder":"8392502112","distractor":"0392502112","target":"absent","response":"absent","rt":"1215.5","correct":true,"confidence":-1},{"trial_n":89,"span":10,"encoder":"0973106998","distractor":"6973106998","target":"absent","response":"present","rt":"522.19999998808","correct":false,"confidence":-1},{"trial_n":90,"span":9,"encoder":"346262776","distractor":"546262776","target":"present","response":"absent","rt":"3793.7000000477","correct":false,"confidence":-1},{"trial_n":91,"span":8,"encoder":"88564839","distractor":"48564839","target":"absent","response":"present","rt":"1669.5","correct":false,"confidence":1},{"trial_n":92,"span":7,"encoder":"8904126","distractor":"8924126","target":"present","response":"absent","rt":"1381","correct":false,"confidence":1},{"trial_n":93,"span":6,"encoder":"920251","distractor":"924251","target":"present","response":"present","rt":"1816.1999999881","correct":true,"confidence":1},{"trial_n":94,"span":6,"encoder":"762628","distractor":"662628","target":"present","response":"present","rt":"1830","correct":true,"confidence":3},{"trial_n":95,"span":7,"encoder":"2128763","distractor":"2108763","target":"present","response":"present","rt":"1623.6000000238","correct":true,"confidence":3},{"trial_n":96,"span":7,"encoder":"8758545","distractor":"8758535","target":"absent","response":"absent","rt":"1662.5999999642","correct":true,"confidence":1},{"trial_n":97,"span":8,"encoder":"28218572","distractor":"68218572","target":"absent","response":"absent","rt":"2577.1000000238","correct":true,"confidence":3},{"trial_n":98,"span":8,"encoder":"48180307","distractor":"48140307","target":"absent","response":"absent","rt":"1324.1000000238","correct":true,"confidence":3},{"trial_n":99,"span":9,"encoder":"341990960","distractor":"321990960","target":"absent","response":"present","rt":"1122.3000000119","correct":false,"confidence":3},{"trial_n":100,"span":8,"encoder":"51124693","distractor":"01124693","target":"absent","response":"present","rt":"1128.6000000238","correct":false,"confidence":3},{"trial_n":101,"span":7,"encoder":"0088233","distractor":"9088233","target":"absent","response":"absent","rt":"3206.1999999881","correct":true,"confidence":5},{"trial_n":102,"span":7,"encoder":"7566813","distractor":"7566843","target":"absent","response":"absent","rt":"2814","correct":true,"confidence":3},{"trial_n":103,"span":8,"encoder":"02533704","distractor":"02333704","target":"present","response":"present","rt":"6958.4000000358","correct":true,"confidence":2},{"trial_n":104,"span":8,"encoder":"73241724","distractor":"73241754","target":"present","response":"present","rt":"8091.8000000119","correct":true,"confidence":3},{"trial_n":105,"span":9,"encoder":"668361795","distractor":"666361795","target":"absent","response":"present","rt":"3305.7000000477","correct":false,"confidence":4},{"trial_n":106,"span":8,"encoder":"03727275","distractor":"03727255","target":"absent","response":"absent","rt":"2788.6000000238","correct":true,"confidence":2},{"trial_n":107,"span":8,"encoder":"53686960","distractor":"53686970","target":"present","response":"present","rt":"20333.200000048","correct":true,"confidence":1},{"trial_n":108,"span":9,"encoder":"454040804","distractor":"434040804","target":"absent","response":"absent","rt":"13198.800000012","correct":true,"confidence":1},{"trial_n":109,"span":9,"encoder":"068494096","distractor":"068499096","target":"present","response":"present","rt":"3598.1000000238","correct":true,"confidence":3},{"trial_n":110,"span":10,"encoder":"8140383482","distractor":"8140083482","target":"absent","response":"absent","rt":"2980.6999999881","correct":true,"confidence":5},{"trial_n":111,"span":10,"encoder":"6642537593","distractor":"6662537593","target":"absent","response":"absent","rt":"2066.5999999642","correct":true,"confidence":5},{"trial_n":112,"span":11,"encoder":"42055452997","distractor":"42055452797","target":"absent","response":"present","rt":"14739","correct":false,"confidence":1},{"trial_n":113,"span":10,"encoder":"5925243723","distractor":"5925243720","target":"absent","response":"absent","rt":"2181.3999999762","correct":true,"confidence":5},{"trial_n":114,"span":10,"encoder":"1424006458","distractor":"1424004458","target":"absent","response":"present","rt":"5147.6000000238","correct":false,"confidence":3},{"trial_n":115,"span":9,"encoder":"337172113","distractor":"337177113","target":"present","response":"absent","rt":"3445.2999999523","correct":false,"confidence":2},{"trial_n":116,"span":8,"encoder":"29855093","distractor":"29855013","target":"absent","response":"absent","rt":"11686.300000012","correct":true,"confidence":2},{"trial_n":117,"span":8,"encoder":"38958559","distractor":"38948559","target":"present","response":"present","rt":"6971.3999999762","correct":true,"confidence":5},{"trial_n":118,"span":9,"encoder":"223570444","distractor":"223579444","target":"absent","response":"absent","rt":"3083.1999999881","correct":true,"confidence":4},{"trial_n":119,"span":9,"encoder":"848483422","distractor":"848483428","target":"present","response":"present","rt":"4044.2000000477","correct":true,"confidence":5},{"trial_n":120,"span":10,"encoder":"0051862519","distractor":"0052862519","target":"present","response":"absent","rt":"3041.3999999762","correct":false,"confidence":4},{"trial_n":121,"span":9,"encoder":"696252633","distractor":"696252630","target":"absent","response":"present","rt":"6335.2999999523","correct":false,"confidence":1},{"trial_n":122,"span":8,"encoder":"27943127","distractor":"27743127","target":"present","response":"present","rt":"4044.3999999762","correct":true,"confidence":4},{"trial_n":123,"span":8,"encoder":"72024155","distractor":"75024155","target":"absent","response":"absent","rt":"2968","correct":true,"confidence":5},{"trial_n":124,"span":9,"encoder":"053493753","distractor":"053493750","target":"present","response":"absent","rt":"2638.1999999881","correct":false,"confidence":4},{"trial_n":125,"span":8,"encoder":"61591614","distractor":"61891614","target":"present","response":"present","rt":"1134.1000000238","correct":true,"confidence":1},{"trial_n":126,"span":8,"encoder":"79089012","distractor":"79080012","target":"absent","response":"absent","rt":"4312","correct":true,"confidence":2},{"trial_n":127,"span":9,"encoder":"081994970","distractor":"081994570","target":"present","response":"present","rt":"3027.8999999762","correct":true,"confidence":5},{"trial_n":128,"span":9,"encoder":"488634894","distractor":"488234894","target":"absent","response":"absent","rt":"10093.300000012","correct":true,"confidence":2},{"trial_n":129,"span":10,"encoder":"1451997690","distractor":"1451977690","target":"present","response":"present","rt":"3901.9000000358","correct":true,"confidence":5},{"trial_n":130,"span":10,"encoder":"0079404376","distractor":"0079484376","target":"absent","response":"present","rt":"6071","correct":false,"confidence":2},{"trial_n":131,"span":9,"encoder":"557609327","distractor":"557639327","target":"present","response":"present","rt":"3561.0999999642","correct":true,"confidence":2},{"trial_n":132,"span":9,"encoder":"010566563","distractor":"080566563","target":"present","response":"present","rt":"3415.1000000238","correct":true,"confidence":5},{"trial_n":133,"span":10,"encoder":"3491135618","distractor":"9491135618","target":"absent","response":"absent","rt":"9270.0999999642","correct":true,"confidence":5},{"trial_n":134,"span":10,"encoder":"6893385677","distractor":"6893385675","target":"present","response":"present","rt":"4498.4000000358","correct":true,"confidence":4},{"trial_n":135,"span":11,"encoder":"57435035187","distractor":"57435835187","target":"absent","response":"absent","rt":"5568.2999999523","correct":true,"confidence":2},{"trial_n":136,"span":11,"encoder":"08299709403","distractor":"08290709403","target":"present","response":"present","rt":"3425.3000000119","correct":true,"confidence":5},{"trial_n":137,"span":12,"encoder":"050279212654","distractor":"050276212654","target":"present","response":"present","rt":"2870","correct":true,"confidence":1},{"trial_n":138,"span":12,"encoder":"137579606528","distractor":"137579606328","target":"present","response":"absent","rt":"12023.199999988","correct":false,"confidence":4},{"trial_n":139,"span":11,"encoder":"90525876988","distractor":"90565876988","target":"absent","response":"absent","rt":"5894.4000000358","correct":true,"confidence":3},{"trial_n":140,"span":11,"encoder":"79548326014","distractor":"79548323014","target":"present","response":"present","rt":"5521","correct":true,"confidence":2}]