[{"trial_n":1,"min":25,"max":230,"target":"present","response":"absent","rt":6950,"correct":false,"confidence":-1},{"trial_n":2,"min":25,"max":230,"target":"present","response":"present","rt":2367,"correct":true,"confidence":-1},{"trial_n":3,"min":25,"max":230,"target":"absent","response":"absent","rt":920,"correct":true,"confidence":-1},{"trial_n":4,"min":41,"max":214,"target":"absent","response":"absent","rt":777,"correct":true,"confidence":-1},{"trial_n":5,"min":41,"max":214,"target":"present","response":"present","rt":715,"correct":true,"confidence":-1},{"trial_n":6,"min":57,"max":198,"target":"present","response":"present","rt":866,"correct":true,"confidence":-1},{"trial_n":7,"min":57,"max":198,"target":"present","response":"present","rt":724,"correct":true,"confidence":-1},{"trial_n":8,"min":73,"max":182,"target":"present","response":"present","rt":721,"correct":true,"confidence":-1},{"trial_n":9,"min":73,"max":182,"target":"absent","response":"absent","rt":729,"correct":true,"confidence":-1},{"trial_n":10,"min":89,"max":166,"target":"absent","response":"absent","rt":586.00000000012,"correct":true,"confidence":-1},{"trial_n":11,"min":89,"max":166,"target":"absent","response":"absent","rt":353,"correct":true,"confidence":-1},{"trial_n":12,"min":97,"max":158,"target":"absent","response":"absent","rt":250,"correct":true,"confidence":-1},{"trial_n":13,"min":97,"max":158,"target":"present","response":"absent","rt":771,"correct":false,"confidence":-1},{"trial_n":14,"min":89,"max":166,"target":"absent","response":"absent","rt":673,"correct":true,"confidence":-1},{"trial_n":15,"min":89,"max":166,"target":"present","response":"absent","rt":531,"correct":false,"confidence":-1},{"trial_n":16,"min":81,"max":174,"target":"absent","response":"absent","rt":466,"correct":true,"confidence":-1},{"trial_n":17,"min":81,"max":174,"target":"present","response":"present","rt":885,"correct":true,"confidence":-1},{"trial_n":18,"min":89,"max":166,"target":"absent","response":"absent","rt":546,"correct":true,"confidence":-1},{"trial_n":19,"min":89,"max":166,"target":"present","response":"absent","rt":443,"correct":false,"confidence":-1},{"trial_n":20,"min":81,"max":174,"target":"present","response":"present","rt":746,"correct":true,"confidence":-1},{"trial_n":21,"min":81,"max":174,"target":"present","response":"present","rt":776,"correct":true,"confidence":5},{"trial_n":22,"min":85,"max":170,"target":"absent","response":"present","rt":3124,"correct":false,"confidence":2},{"trial_n":23,"min":81,"max":174,"target":"absent","response":"absent","rt":2033,"correct":true,"confidence":2},{"trial_n":24,"min":81,"max":174,"target":"present","response":"present","rt":828,"correct":true,"confidence":4},{"trial_n":25,"min":85,"max":170,"target":"absent","response":"absent","rt":979,"correct":true,"confidence":3},{"trial_n":26,"min":85,"max":170,"target":"absent","response":"absent","rt":745,"correct":true,"confidence":2},{"trial_n":27,"min":89,"max":166,"target":"present","response":"absent","rt":792,"correct":false,"confidence":1},{"trial_n":28,"min":85,"max":170,"target":"present","response":"present","rt":1189.9999999999,"correct":true,"confidence":2},{"trial_n":29,"min":85,"max":170,"target":"present","response":"present","rt":845,"correct":true,"confidence":3},{"trial_n":30,"min":89,"max":166,"target":"absent","response":"absent","rt":1044,"correct":true,"confidence":3},{"trial_n":31,"min":89,"max":166,"target":"present","response":"absent","rt":1635,"correct":false,"confidence":2},{"trial_n":32,"min":87,"max":168,"target":"absent","response":"absent","rt":1345,"correct":true,"confidence":3},{"trial_n":33,"min":87,"max":168,"target":"present","response":"absent","rt":819.00000000012,"correct":false,"confidence":2},{"trial_n":34,"min":85,"max":170,"target":"absent","response":"present","rt":1211.0000000001,"correct":false,"confidence":4},{"trial_n":35,"min":83,"max":172,"target":"present","response":"present","rt":901,"correct":true,"confidence":5},{"trial_n":36,"min":83,"max":172,"target":"present","response":"present","rt":1335,"correct":true,"confidence":5},{"trial_n":37,"min":85,"max":170,"target":"absent","response":"present","rt":890,"correct":false,"confidence":4},{"trial_n":38,"min":83,"max":172,"target":"present","response":"absent","rt":1180.0000000001,"correct":false,"confidence":2},{"trial_n":39,"min":81,"max":174,"target":"absent","response":"absent","rt":776,"correct":true,"confidence":1},{"trial_n":40,"min":81,"max":174,"target":"present","response":"present","rt":1034,"correct":true,"confidence":3},{"trial_n":41,"min":82,"max":173,"target":"present","response":"present","rt":765,"correct":true,"confidence":4},{"trial_n":42,"min":82,"max":173,"target":"absent","response":"present","rt":768,"correct":false,"confidence":4},{"trial_n":43,"min":81,"max":174,"target":"absent","response":"present","rt":750.99999999988,"correct":false,"confidence":3},{"trial_n":44,"min":80,"max":175,"target":"absent","response":"absent","rt":1704.0000000001,"correct":true,"confidence":2},{"trial_n":45,"min":80,"max":175,"target":"absent","response":"absent","rt":747,"correct":true,"confidence":4},{"trial_n":46,"min":81,"max":174,"target":"present","response":"present","rt":711,"correct":true,"confidence":4},{"trial_n":47,"min":81,"max":174,"target":"absent","response":"absent","rt":1533,"correct":true,"confidence":3},{"trial_n":48,"min":82,"max":173,"target":"absent","response":"present","rt":870,"correct":false,"confidence":4},{"trial_n":49,"min":81,"max":174,"target":"present","response":"present","rt":2005,"correct":true,"confidence":3},{"trial_n":50,"min":81,"max":174,"target":"present","response":"present","rt":761,"correct":true,"confidence":5},{"trial_n":51,"min":82,"max":173,"target":"present","response":"present","rt":872,"correct":true,"confidence":3},{"trial_n":52,"min":82,"max":173,"target":"absent","response":"absent","rt":1234.0000000001,"correct":true,"confidence":3},{"trial_n":53,"min":83,"max":172,"target":"absent","response":"absent","rt":730,"correct":true,"confidence":4},{"trial_n":54,"min":83,"max":172,"target":"present","response":"absent","rt":946,"correct":false,"confidence":3},{"trial_n":55,"min":82,"max":173,"target":"absent","response":"absent","rt":719,"correct":true,"confidence":4},{"trial_n":56,"min":82,"max":173,"target":"absent","response":"absent","rt":911,"correct":true,"confidence":3},{"trial_n":57,"min":83,"max":172,"target":"absent","response":"absent","rt":950,"correct":true,"confidence":3},{"trial_n":58,"min":83,"max":172,"target":"present","response":"absent","rt":810,"correct":false,"confidence":2},{"trial_n":59,"min":82,"max":173,"target":"absent","response":"absent","rt":746,"correct":true,"confidence":3},{"trial_n":60,"min":82,"max":173,"target":"present","response":"present","rt":905.00000000012,"correct":true,"confidence":5},{"trial_n":61,"min":83,"max":172,"target":"absent","response":"absent","rt":1030.9999999999,"correct":true,"confidence":3},{"trial_n":62,"min":83,"max":172,"target":"present","response":"absent","rt":743,"correct":false,"confidence":3},{"trial_n":63,"min":82,"max":173,"target":"absent","response":"absent","rt":763,"correct":true,"confidence":3},{"trial_n":64,"min":82,"max":173,"target":"present","response":"present","rt":1423,"correct":true,"confidence":3},{"trial_n":65,"min":83,"max":172,"target":"present","response":"present","rt":709,"correct":true,"confidence":5},{"trial_n":66,"min":83,"max":172,"target":"present","response":"present","rt":2244,"correct":true,"confidence":5},{"trial_n":67,"min":84,"max":171,"target":"absent","response":"present","rt":899,"correct":false,"confidence":4},{"trial_n":68,"min":83,"max":172,"target":"present","response":"present","rt":864,"correct":true,"confidence":5},{"trial_n":69,"min":83,"max":172,"target":"absent","response":"absent","rt":810,"correct":true,"confidence":3},{"trial_n":70,"min":84,"max":171,"target":"present","response":"present","rt":790,"correct":true,"confidence":4},{"trial_n":71,"min":41,"max":214,"target":"present","response":"present","rt":1739.0000000001,"correct":true,"confidence":-1},{"trial_n":72,"min":41,"max":214,"target":"present","response":"present","rt":950,"correct":true,"confidence":-1},{"trial_n":73,"min":57,"max":198,"target":"absent","response":"absent","rt":430,"correct":true,"confidence":-1},{"trial_n":74,"min":57,"max":198,"target":"absent","response":"absent","rt":389,"correct":true,"confidence":-1},{"trial_n":75,"min":73,"max":182,"target":"present","response":"present","rt":341,"correct":true,"confidence":-1},{"trial_n":76,"min":73,"max":182,"target":"present","response":"present","rt":310.99999999988,"correct":true,"confidence":-1},{"trial_n":77,"min":89,"max":166,"target":"absent","response":"present","rt":1053.9999999999,"correct":false,"confidence":-1},{"trial_n":78,"min":73,"max":182,"target":"present","response":"present","rt":341,"correct":true,"confidence":-1},{"trial_n":79,"min":73,"max":182,"target":"present","response":"present","rt":302.00000000012,"correct":true,"confidence":-1},{"trial_n":80,"min":89,"max":166,"target":"absent","response":"absent","rt":524,"correct":true,"confidence":-1},{"trial_n":81,"min":89,"max":166,"target":"present","response":"present","rt":261,"correct":true,"confidence":-1},{"trial_n":82,"min":97,"max":158,"target":"absent","response":"absent","rt":782,"correct":true,"confidence":-1},{"trial_n":83,"min":97,"max":158,"target":"present","response":"absent","rt":496.00000000012,"correct":false,"confidence":-1},{"trial_n":84,"min":89,"max":166,"target":"present","response":"present","rt":360.00000000012,"correct":true,"confidence":-1},{"trial_n":85,"min":89,"max":166,"target":"present","response":"present","rt":791.99999999988,"correct":true,"confidence":-1},{"trial_n":86,"min":97,"max":158,"target":"present","response":"absent","rt":792.99999999988,"correct":false,"confidence":-1},{"trial_n":87,"min":89,"max":166,"target":"present","response":"present","rt":374,"correct":true,"confidence":-1},{"trial_n":88,"min":89,"max":166,"target":"present","response":"present","rt":551.99999999988,"correct":true,"confidence":-1},{"trial_n":89,"min":97,"max":158,"target":"present","response":"present","rt":341.00000000012,"correct":true,"confidence":-1},{"trial_n":90,"min":97,"max":158,"target":"present","response":"present","rt":558.99999999988,"correct":true,"confidence":-1},{"trial_n":91,"min":101,"max":154,"target":"absent","response":"present","rt":802.99999999988,"correct":false,"confidence":2},{"trial_n":92,"min":97,"max":158,"target":"absent","response":"present","rt":706.99999999988,"correct":false,"confidence":5},{"trial_n":93,"min":93,"max":162,"target":"present","response":"present","rt":993,"correct":true,"confidence":1},{"trial_n":94,"min":93,"max":162,"target":"absent","response":"present","rt":753,"correct":false,"confidence":1},{"trial_n":95,"min":89,"max":166,"target":"absent","response":"absent","rt":801.99999999977,"correct":true,"confidence":3},{"trial_n":96,"min":89,"max":166,"target":"present","response":"present","rt":665.99999999977,"correct":true,"confidence":4},{"trial_n":97,"min":93,"max":162,"target":"present","response":"present","rt":720,"correct":true,"confidence":5},{"trial_n":98,"min":93,"max":162,"target":"absent","response":"present","rt":926,"correct":false,"confidence":2},{"trial_n":99,"min":89,"max":166,"target":"absent","response":"present","rt":681,"correct":false,"confidence":2},{"trial_n":100,"min":85,"max":170,"target":"present","response":"present","rt":587.99999999977,"correct":true,"confidence":4},{"trial_n":101,"min":85,"max":170,"target":"absent","response":"present","rt":926,"correct":false,"confidence":1},{"trial_n":102,"min":83,"max":172,"target":"absent","response":"present","rt":737,"correct":false,"confidence":1},{"trial_n":103,"min":81,"max":174,"target":"present","response":"present","rt":720,"correct":true,"confidence":3},{"trial_n":104,"min":81,"max":174,"target":"absent","response":"absent","rt":1009,"correct":true,"confidence":5},{"trial_n":105,"min":83,"max":172,"target":"absent","response":"present","rt":971,"correct":false,"confidence":1},{"trial_n":106,"min":81,"max":174,"target":"present","response":"present","rt":785,"correct":true,"confidence":4},{"trial_n":107,"min":81,"max":174,"target":"absent","response":"present","rt":1414,"correct":false,"confidence":1},{"trial_n":108,"min":79,"max":176,"target":"absent","response":"absent","rt":801,"correct":true,"confidence":5},{"trial_n":109,"min":79,"max":176,"target":"absent","response":"absent","rt":1229,"correct":true,"confidence":4},{"trial_n":110,"min":81,"max":174,"target":"present","response":"present","rt":586,"correct":true,"confidence":5},{"trial_n":111,"min":81,"max":174,"target":"present","response":"present","rt":726,"correct":true,"confidence":5},{"trial_n":112,"min":82,"max":173,"target":"absent","response":"absent","rt":1158,"correct":true,"confidence":4},{"trial_n":113,"min":82,"max":173,"target":"absent","response":"absent","rt":893,"correct":true,"confidence":1},{"trial_n":114,"min":83,"max":172,"target":"absent","response":"absent","rt":948,"correct":true,"confidence":4},{"trial_n":115,"min":83,"max":172,"target":"present","response":"present","rt":611,"correct":true,"confidence":5},{"trial_n":116,"min":84,"max":171,"target":"absent","response":"present","rt":973,"correct":false,"confidence":3},{"trial_n":117,"min":83,"max":172,"target":"present","response":"present","rt":678,"correct":true,"confidence":4},{"trial_n":118,"min":83,"max":172,"target":"absent","response":"absent","rt":912,"correct":true,"confidence":4},{"trial_n":119,"min":84,"max":171,"target":"present","response":"present","rt":679,"correct":true,"confidence":5},{"trial_n":120,"min":84,"max":171,"target":"present","response":"present","rt":638,"correct":true,"confidence":5},{"trial_n":121,"min":85,"max":170,"target":"absent","response":"absent","rt":890,"correct":true,"confidence":3},{"trial_n":122,"min":85,"max":170,"target":"present","response":"present","rt":614,"correct":true,"confidence":4},{"trial_n":123,"min":86,"max":169,"target":"absent","response":"absent","rt":882.00000000023,"correct":true,"confidence":4},{"trial_n":124,"min":86,"max":169,"target":"present","response":"present","rt":616,"correct":true,"confidence":5},{"trial_n":125,"min":87,"max":168,"target":"absent","response":"present","rt":855,"correct":false,"confidence":2},{"trial_n":126,"min":86,"max":169,"target":"present","response":"absent","rt":782,"correct":false,"confidence":4},{"trial_n":127,"min":85,"max":170,"target":"absent","response":"present","rt":1118,"correct":false,"confidence":2},{"trial_n":128,"min":84,"max":171,"target":"present","response":"present","rt":653,"correct":true,"confidence":4},{"trial_n":129,"min":84,"max":171,"target":"absent","response":"present","rt":766,"correct":false,"confidence":3},{"trial_n":130,"min":83,"max":172,"target":"present","response":"present","rt":685.00000000023,"correct":true,"confidence":5},{"trial_n":131,"min":83,"max":172,"target":"absent","response":"absent","rt":860,"correct":true,"confidence":5},{"trial_n":132,"min":84,"max":171,"target":"present","response":"present","rt":668,"correct":true,"confidence":5},{"trial_n":133,"min":84,"max":171,"target":"present","response":"absent","rt":2097,"correct":false,"confidence":4},{"trial_n":134,"min":83,"max":172,"target":"absent","response":"absent","rt":872,"correct":true,"confidence":3},{"trial_n":135,"min":83,"max":172,"target":"absent","response":"present","rt":1289,"correct":false,"confidence":2},{"trial_n":136,"min":82,"max":173,"target":"present","response":"present","rt":716,"correct":true,"confidence":5},{"trial_n":137,"min":82,"max":173,"target":"absent","response":"absent","rt":801,"correct":true,"confidence":5},{"trial_n":138,"min":83,"max":172,"target":"absent","response":"absent","rt":885.99999999977,"correct":true,"confidence":3},{"trial_n":139,"min":83,"max":172,"target":"absent","response":"present","rt":933,"correct":false,"confidence":1},{"trial_n":140,"min":82,"max":173,"target":"present","response":"present","rt":727,"correct":true,"confidence":3}]