[{"trial_n":1,"span":8,"encoder":"37955089","distractor":"37955085","target":"present","response":"present","rt":"6295","correct":true,"confidence":-1},{"trial_n":2,"span":8,"encoder":"84967650","distractor":"81967650","target":"present","response":"present","rt":"3891","correct":true,"confidence":-1},{"trial_n":3,"span":10,"encoder":"7690400000","distractor":"5690400000","target":"absent","response":"absent","rt":"7684","correct":true,"confidence":-1},{"trial_n":4,"span":10,"encoder":"9223396697","distractor":"9293396697","target":"absent","response":"present","rt":"3931","correct":false,"confidence":-1},{"trial_n":5,"span":8,"encoder":"08088578","distractor":"08688578","target":"present","response":"present","rt":"2390","correct":true,"confidence":-1},{"trial_n":6,"span":8,"encoder":"05881126","distractor":"35881126","target":"present","response":"absent","rt":"2652","correct":false,"confidence":-1},{"trial_n":7,"span":6,"encoder":"813185","distractor":"813585","target":"present","response":"present","rt":"1634","correct":true,"confidence":-1},{"trial_n":8,"span":6,"encoder":"740726","distractor":"740126","target":"absent","response":"present","rt":"2386","correct":false,"confidence":-1},{"trial_n":9,"span":4,"encoder":"8834","distractor":"8844","target":"absent","response":"absent","rt":"2013","correct":true,"confidence":-1},{"trial_n":10,"span":4,"encoder":"9148","distractor":"6148","target":"absent","response":"absent","rt":"1812","correct":true,"confidence":-1},{"trial_n":11,"span":6,"encoder":"567861","distractor":"167861","target":"present","response":"present","rt":"2621","correct":true,"confidence":-1},{"trial_n":12,"span":6,"encoder":"256162","distractor":"256562","target":"present","response":"absent","rt":"2571","correct":false,"confidence":-1},{"trial_n":13,"span":5,"encoder":"44969","distractor":"44569","target":"present","response":"present","rt":"1327","correct":true,"confidence":-1},{"trial_n":14,"span":5,"encoder":"09906","distractor":"02906","target":"absent","response":"present","rt":"1052","correct":false,"confidence":-1},{"trial_n":15,"span":4,"encoder":"6511","distractor":"6514","target":"absent","response":"absent","rt":"2160","correct":true,"confidence":-1},{"trial_n":16,"span":4,"encoder":"0523","distractor":"0529","target":"present","response":"present","rt":"934","correct":true,"confidence":-1},{"trial_n":17,"span":5,"encoder":"67883","distractor":"77883","target":"present","response":"present","rt":"1444","correct":true,"confidence":-1},{"trial_n":18,"span":5,"encoder":"18640","distractor":"98640","target":"present","response":"present","rt":"2259","correct":true,"confidence":-1},{"trial_n":19,"span":6,"encoder":"591244","distractor":"591234","target":"absent","response":"present","rt":"2919","correct":false,"confidence":-1},{"trial_n":20,"span":5,"encoder":"27946","distractor":"87946","target":"absent","response":"present","rt":"2387","correct":false,"confidence":-1},{"trial_n":21,"span":4,"encoder":"9957","distractor":"4957","target":"absent","response":"present","rt":"2508","correct":false,"confidence":4},{"trial_n":22,"span":3,"encoder":"267","distractor":"263","target":"absent","response":"absent","rt":"1610","correct":true,"confidence":5},{"trial_n":23,"span":3,"encoder":"694","distractor":"674","target":"absent","response":"absent","rt":"1564","correct":true,"confidence":5},{"trial_n":24,"span":4,"encoder":"5927","distractor":"5967","target":"present","response":"present","rt":"2154","correct":true,"confidence":4},{"trial_n":25,"span":4,"encoder":"9743","distractor":"9745","target":"absent","response":"absent","rt":"1630","correct":true,"confidence":5},{"trial_n":26,"span":5,"encoder":"25539","distractor":"25536","target":"absent","response":"absent","rt":"2928","correct":true,"confidence":5},{"trial_n":27,"span":5,"encoder":"50765","distractor":"58765","target":"absent","response":"absent","rt":"1772","correct":true,"confidence":5},{"trial_n":28,"span":6,"encoder":"856382","distractor":"356382","target":"present","response":"present","rt":"3804","correct":true,"confidence":3},{"trial_n":29,"span":6,"encoder":"074306","distractor":"274306","target":"absent","response":"present","rt":"1583","correct":false,"confidence":4},{"trial_n":30,"span":5,"encoder":"42104","distractor":"42100","target":"present","response":"present","rt":"1275","correct":true,"confidence":5},{"trial_n":31,"span":5,"encoder":"16526","distractor":"10526","target":"absent","response":"absent","rt":"3010","correct":true,"confidence":3},{"trial_n":32,"span":6,"encoder":"431608","distractor":"431408","target":"present","response":"present","rt":"2580","correct":true,"confidence":4},{"trial_n":33,"span":6,"encoder":"446850","distractor":"442850","target":"present","response":"present","rt":"3163","correct":true,"confidence":4},{"trial_n":34,"span":7,"encoder":"1395606","distractor":"1355606","target":"absent","response":"present","rt":"2639","correct":false,"confidence":4},{"trial_n":35,"span":6,"encoder":"164769","distractor":"164768","target":"absent","response":"absent","rt":"1566","correct":true,"confidence":5},{"trial_n":36,"span":6,"encoder":"195230","distractor":"195030","target":"absent","response":"present","rt":"3160.0000000001","correct":false,"confidence":4},{"trial_n":37,"span":5,"encoder":"62347","distractor":"12347","target":"present","response":"present","rt":"2599.0000000001","correct":true,"confidence":4},{"trial_n":38,"span":5,"encoder":"29419","distractor":"27419","target":"present","response":"absent","rt":"4435","correct":false,"confidence":4},{"trial_n":39,"span":4,"encoder":"0215","distractor":"7215","target":"absent","response":"absent","rt":"2327","correct":true,"confidence":5},{"trial_n":40,"span":4,"encoder":"6289","distractor":"6789","target":"absent","response":"absent","rt":"1449","correct":true,"confidence":5},{"trial_n":41,"span":5,"encoder":"09209","distractor":"04209","target":"absent","response":"absent","rt":"4356","correct":true,"confidence":5},{"trial_n":42,"span":5,"encoder":"49756","distractor":"49755","target":"absent","response":"absent","rt":"2140.0000000001","correct":true,"confidence":5},{"trial_n":43,"span":6,"encoder":"912035","distractor":"912034","target":"present","response":"present","rt":"2080","correct":true,"confidence":5},{"trial_n":44,"span":6,"encoder":"300208","distractor":"800208","target":"absent","response":"absent","rt":"1991.0000000001","correct":true,"confidence":4},{"trial_n":45,"span":7,"encoder":"5470898","distractor":"5470598","target":"present","response":"absent","rt":"3113.9999999999","correct":false,"confidence":3},{"trial_n":46,"span":6,"encoder":"157110","distractor":"157117","target":"present","response":"present","rt":"2603","correct":true,"confidence":4},{"trial_n":47,"span":6,"encoder":"359757","distractor":"319757","target":"present","response":"present","rt":"1576.0000000001","correct":true,"confidence":3},{"trial_n":48,"span":7,"encoder":"2262025","distractor":"2272025","target":"present","response":"present","rt":"3878","correct":true,"confidence":4},{"trial_n":49,"span":7,"encoder":"4783561","distractor":"4753561","target":"present","response":"absent","rt":"2433","correct":false,"confidence":5},{"trial_n":50,"span":6,"encoder":"690563","distractor":"690523","target":"absent","response":"absent","rt":"1965","correct":true,"confidence":4},{"trial_n":51,"span":6,"encoder":"093673","distractor":"893673","target":"absent","response":"present","rt":"1469","correct":false,"confidence":4},{"trial_n":52,"span":5,"encoder":"05834","distractor":"05804","target":"present","response":"absent","rt":"2102","correct":false,"confidence":2},{"trial_n":53,"span":4,"encoder":"5360","distractor":"6360","target":"absent","response":"absent","rt":"6721","correct":true,"confidence":4},{"trial_n":54,"span":4,"encoder":"7782","distractor":"7482","target":"absent","response":"absent","rt":"3235","correct":true,"confidence":4},{"trial_n":55,"span":5,"encoder":"51749","distractor":"51745","target":"present","response":"present","rt":"2115","correct":true,"confidence":5},{"trial_n":56,"span":5,"encoder":"49188","distractor":"49187","target":"absent","response":"absent","rt":"4345","correct":true,"confidence":4},{"trial_n":57,"span":6,"encoder":"691101","distractor":"691601","target":"absent","response":"absent","rt":"3517","correct":true,"confidence":5},{"trial_n":58,"span":6,"encoder":"101075","distractor":"101079","target":"absent","response":"absent","rt":"2347.9999999999","correct":true,"confidence":5},{"trial_n":59,"span":7,"encoder":"9735569","distractor":"9035569","target":"present","response":"absent","rt":"7671","correct":false,"confidence":4},{"trial_n":60,"span":6,"encoder":"437932","distractor":"437982","target":"present","response":"present","rt":"4471","correct":true,"confidence":4},{"trial_n":61,"span":6,"encoder":"236374","distractor":"236364","target":"absent","response":"absent","rt":"2786","correct":true,"confidence":5},{"trial_n":62,"span":7,"encoder":"4838233","distractor":"8838233","target":"present","response":"present","rt":"4523","correct":true,"confidence":5},{"trial_n":63,"span":7,"encoder":"8820671","distractor":"1820671","target":"present","response":"present","rt":"5361","correct":true,"confidence":4},{"trial_n":64,"span":8,"encoder":"09297781","distractor":"09297281","target":"present","response":"present","rt":"3075","correct":true,"confidence":4},{"trial_n":65,"span":8,"encoder":"31460369","distractor":"31460069","target":"present","response":"present","rt":"1951","correct":true,"confidence":3},{"trial_n":66,"span":9,"encoder":"604594052","distractor":"606594052","target":"present","response":"absent","rt":"3160","correct":false,"confidence":3},{"trial_n":67,"span":8,"encoder":"95732367","distractor":"95732360","target":"present","response":"present","rt":"1638","correct":true,"confidence":3},{"trial_n":68,"span":8,"encoder":"46460920","distractor":"46460520","target":"present","response":"present","rt":"4093","correct":true,"confidence":3},{"trial_n":69,"span":9,"encoder":"564937951","distractor":"564937911","target":"absent","response":"present","rt":"2323","correct":false,"confidence":4},{"trial_n":70,"span":8,"encoder":"95082773","distractor":"65082773","target":"present","response":"present","rt":"2453","correct":true,"confidence":4},{"trial_n":71,"span":8,"encoder":"40769875","distractor":"40569875","target":"present","response":"absent","rt":"11838","correct":false,"confidence":-1},{"trial_n":72,"span":7,"encoder":"2056393","distractor":"4056393","target":"present","response":"present","rt":"1849","correct":true,"confidence":-1},{"trial_n":73,"span":7,"encoder":"5279778","distractor":"5279078","target":"absent","response":"absent","rt":"2894","correct":true,"confidence":-1},{"trial_n":74,"span":8,"encoder":"31577456","distractor":"31577356","target":"absent","response":"absent","rt":"3476.0000000001","correct":true,"confidence":-1},{"trial_n":75,"span":8,"encoder":"16876881","distractor":"46876881","target":"present","response":"present","rt":"5932","correct":true,"confidence":-1},{"trial_n":76,"span":9,"encoder":"730366551","distractor":"733366551","target":"absent","response":"absent","rt":"5158","correct":true,"confidence":-1},{"trial_n":77,"span":9,"encoder":"980186967","distractor":"980183967","target":"present","response":"absent","rt":"3235","correct":false,"confidence":-1},{"trial_n":78,"span":8,"encoder":"93712121","distractor":"93712123","target":"absent","response":"absent","rt":"2415","correct":true,"confidence":-1},{"trial_n":79,"span":8,"encoder":"82050388","distractor":"82050385","target":"present","response":"present","rt":"2151","correct":true,"confidence":-1},{"trial_n":80,"span":9,"encoder":"194522180","distractor":"194522110","target":"absent","response":"absent","rt":"9799","correct":true,"confidence":-1},{"trial_n":81,"span":9,"encoder":"613020649","distractor":"613080649","target":"present","response":"absent","rt":"1792","correct":false,"confidence":-1},{"trial_n":82,"span":8,"encoder":"99209176","distractor":"99209196","target":"absent","response":"absent","rt":"2583.9999999998","correct":true,"confidence":-1},{"trial_n":83,"span":8,"encoder":"42937332","distractor":"43937332","target":"absent","response":"absent","rt":"2427","correct":true,"confidence":-1},{"trial_n":84,"span":9,"encoder":"543012153","distractor":"543012853","target":"present","response":"present","rt":"5574","correct":true,"confidence":-1},{"trial_n":85,"span":9,"encoder":"778725798","distractor":"775725798","target":"present","response":"present","rt":"1910","correct":true,"confidence":-1},{"trial_n":86,"span":10,"encoder":"6761600420","distractor":"6761300420","target":"present","response":"present","rt":"1374","correct":true,"confidence":-1},{"trial_n":87,"span":10,"encoder":"9920316987","distractor":"9920316887","target":"present","response":"present","rt":"9168","correct":true,"confidence":-1},{"trial_n":88,"span":11,"encoder":"64779992311","distractor":"65779992311","target":"absent","response":"present","rt":"2604","correct":false,"confidence":-1},{"trial_n":89,"span":10,"encoder":"5750922177","distractor":"5750222177","target":"absent","response":"present","rt":"61345","correct":false,"confidence":-1},{"trial_n":90,"span":9,"encoder":"904663685","distractor":"904663680","target":"present","response":"absent","rt":"5225","correct":false,"confidence":-1},{"trial_n":91,"span":8,"encoder":"04254462","distractor":"04254562","target":"absent","response":"absent","rt":"1581.9999999998","correct":true,"confidence":4},{"trial_n":92,"span":8,"encoder":"94658680","distractor":"94658620","target":"present","response":"present","rt":"2566","correct":true,"confidence":5},{"trial_n":93,"span":9,"encoder":"295614736","distractor":"292614736","target":"present","response":"absent","rt":"6002","correct":false,"confidence":4},{"trial_n":94,"span":8,"encoder":"30571174","distractor":"30571974","target":"absent","response":"present","rt":"3387","correct":false,"confidence":3},{"trial_n":95,"span":7,"encoder":"1339357","distractor":"1339057","target":"absent","response":"absent","rt":"2218","correct":true,"confidence":4},{"trial_n":96,"span":7,"encoder":"1203049","distractor":"4203049","target":"absent","response":"absent","rt":"3632","correct":true,"confidence":3},{"trial_n":97,"span":8,"encoder":"31341096","distractor":"31341026","target":"present","response":"present","rt":"2315","correct":true,"confidence":4},{"trial_n":98,"span":8,"encoder":"02130818","distractor":"02130618","target":"present","response":"absent","rt":"5500","correct":false,"confidence":4},{"trial_n":99,"span":7,"encoder":"9067324","distractor":"9067724","target":"present","response":"present","rt":"3648","correct":true,"confidence":3},{"trial_n":100,"span":7,"encoder":"7147568","distractor":"6147568","target":"present","response":"absent","rt":"6380.9999999998","correct":false,"confidence":4},{"trial_n":101,"span":6,"encoder":"007836","distractor":"007826","target":"present","response":"present","rt":"2680.9999999998","correct":true,"confidence":5},{"trial_n":102,"span":6,"encoder":"758669","distractor":"758665","target":"present","response":"absent","rt":"2599.0000000002","correct":false,"confidence":3},{"trial_n":103,"span":5,"encoder":"45374","distractor":"75374","target":"absent","response":"absent","rt":"1554","correct":true,"confidence":4},{"trial_n":104,"span":5,"encoder":"52713","distractor":"52413","target":"absent","response":"absent","rt":"2062.0000000002","correct":true,"confidence":4},{"trial_n":105,"span":6,"encoder":"924623","distractor":"924603","target":"absent","response":"present","rt":"960","correct":false,"confidence":3},{"trial_n":106,"span":5,"encoder":"84148","distractor":"84149","target":"present","response":"present","rt":"1797","correct":true,"confidence":3},{"trial_n":107,"span":5,"encoder":"38540","distractor":"38541","target":"absent","response":"absent","rt":"1401","correct":true,"confidence":5},{"trial_n":108,"span":6,"encoder":"030793","distractor":"030193","target":"present","response":"absent","rt":"4609","correct":false,"confidence":4},{"trial_n":109,"span":5,"encoder":"91591","distractor":"91531","target":"absent","response":"absent","rt":"2180.9999999998","correct":true,"confidence":5},{"trial_n":110,"span":5,"encoder":"57424","distractor":"77424","target":"present","response":"absent","rt":"1988.0000000002","correct":false,"confidence":3},{"trial_n":111,"span":4,"encoder":"7679","distractor":"7629","target":"absent","response":"absent","rt":"2243","correct":true,"confidence":4},{"trial_n":112,"span":4,"encoder":"1959","distractor":"1956","target":"present","response":"present","rt":"2937","correct":true,"confidence":5},{"trial_n":113,"span":5,"encoder":"03489","distractor":"03499","target":"absent","response":"absent","rt":"1942","correct":true,"confidence":5},{"trial_n":114,"span":5,"encoder":"27192","distractor":"26192","target":"present","response":"absent","rt":"2094","correct":false,"confidence":3},{"trial_n":115,"span":4,"encoder":"9969","distractor":"7969","target":"absent","response":"absent","rt":"3123.0000000002","correct":true,"confidence":5},{"trial_n":116,"span":4,"encoder":"4715","distractor":"4710","target":"absent","response":"absent","rt":"3007","correct":true,"confidence":5},{"trial_n":117,"span":5,"encoder":"02174","distractor":"02474","target":"absent","response":"absent","rt":"2877","correct":true,"confidence":5},{"trial_n":118,"span":5,"encoder":"39673","distractor":"30673","target":"absent","response":"absent","rt":"2318","correct":true,"confidence":5},{"trial_n":119,"span":6,"encoder":"801771","distractor":"801371","target":"absent","response":"absent","rt":"2386.0000000002","correct":true,"confidence":4},{"trial_n":120,"span":6,"encoder":"269808","distractor":"569808","target":"present","response":"present","rt":"3205.0000000002","correct":true,"confidence":4},{"trial_n":121,"span":7,"encoder":"7836609","distractor":"7830609","target":"absent","response":"absent","rt":"3371","correct":true,"confidence":3},{"trial_n":122,"span":7,"encoder":"3903110","distractor":"3903410","target":"present","response":"present","rt":"4279","correct":true,"confidence":4},{"trial_n":123,"span":8,"encoder":"28212945","distractor":"28612945","target":"absent","response":"absent","rt":"10419","correct":true,"confidence":4},{"trial_n":124,"span":8,"encoder":"59671405","distractor":"58671405","target":"present","response":"absent","rt":"3167","correct":false,"confidence":3},{"trial_n":125,"span":7,"encoder":"0324307","distractor":"0324357","target":"present","response":"absent","rt":"3487","correct":false,"confidence":2},{"trial_n":126,"span":6,"encoder":"411666","distractor":"411661","target":"present","response":"absent","rt":"33379","correct":false,"confidence":1},{"trial_n":127,"span":5,"encoder":"85678","distractor":"55678","target":"present","response":"absent","rt":"2340","correct":false,"confidence":3},{"trial_n":128,"span":4,"encoder":"2594","distractor":"2574","target":"absent","response":"absent","rt":"4022","correct":true,"confidence":4},{"trial_n":129,"span":4,"encoder":"3765","distractor":"3735","target":"present","response":"present","rt":"2265.9999999998","correct":true,"confidence":5},{"trial_n":130,"span":5,"encoder":"27311","distractor":"27315","target":"absent","response":"absent","rt":"1842.0000000002","correct":true,"confidence":5},{"trial_n":131,"span":5,"encoder":"68317","distractor":"68367","target":"present","response":"present","rt":"2564","correct":true,"confidence":5},{"trial_n":132,"span":6,"encoder":"782579","distractor":"382579","target":"absent","response":"absent","rt":"1903","correct":true,"confidence":4},{"trial_n":133,"span":6,"encoder":"763085","distractor":"763485","target":"absent","response":"absent","rt":"1925","correct":true,"confidence":4},{"trial_n":134,"span":7,"encoder":"3951277","distractor":"3957277","target":"present","response":"present","rt":"3643","correct":true,"confidence":4},{"trial_n":135,"span":7,"encoder":"6797394","distractor":"7797394","target":"absent","response":"absent","rt":"39601","correct":true,"confidence":1},{"trial_n":136,"span":8,"encoder":"03358708","distractor":"93358708","target":"absent","response":"absent","rt":"3503","correct":true,"confidence":4},{"trial_n":137,"span":8,"encoder":"22778157","distractor":"22878157","target":"present","response":"absent","rt":"3341","correct":false,"confidence":3},{"trial_n":138,"span":7,"encoder":"9012741","distractor":"9018741","target":"present","response":"absent","rt":"4602","correct":false,"confidence":3},{"trial_n":139,"span":6,"encoder":"740373","distractor":"740377","target":"absent","response":"absent","rt":"1631","correct":true,"confidence":3},{"trial_n":140,"span":6,"encoder":"786707","distractor":"786705","target":"present","response":"absent","rt":"1038","correct":false,"confidence":4}]