[{"trial_n":1,"min":25,"max":230,"target":"present","response":"present","rt":6366,"correct":true,"confidence":-1},{"trial_n":2,"min":25,"max":230,"target":"present","response":"present","rt":1980,"correct":true,"confidence":-1},{"trial_n":3,"min":41,"max":214,"target":"absent","response":"present","rt":1808,"correct":false,"confidence":-1},{"trial_n":4,"min":25,"max":230,"target":"absent","response":"absent","rt":624,"correct":true,"confidence":-1},{"trial_n":5,"min":25,"max":230,"target":"present","response":"present","rt":517,"correct":true,"confidence":-1},{"trial_n":6,"min":41,"max":214,"target":"present","response":"present","rt":624,"correct":true,"confidence":-1},{"trial_n":7,"min":41,"max":214,"target":"present","response":"present","rt":427,"correct":true,"confidence":-1},{"trial_n":8,"min":57,"max":198,"target":"absent","response":"absent","rt":444,"correct":true,"confidence":-1},{"trial_n":9,"min":57,"max":198,"target":"absent","response":"absent","rt":441,"correct":true,"confidence":-1},{"trial_n":10,"min":73,"max":182,"target":"absent","response":"absent","rt":396.99999999999,"correct":true,"confidence":-1},{"trial_n":11,"min":73,"max":182,"target":"present","response":"present","rt":552,"correct":true,"confidence":-1},{"trial_n":12,"min":81,"max":174,"target":"absent","response":"absent","rt":536,"correct":true,"confidence":-1},{"trial_n":13,"min":81,"max":174,"target":"absent","response":"absent","rt":398.99999999999,"correct":true,"confidence":-1},{"trial_n":14,"min":89,"max":166,"target":"present","response":"present","rt":397.99999999999,"correct":true,"confidence":-1},{"trial_n":15,"min":89,"max":166,"target":"present","response":"absent","rt":609.00000000001,"correct":false,"confidence":-1},{"trial_n":16,"min":81,"max":174,"target":"absent","response":"present","rt":647,"correct":false,"confidence":-1},{"trial_n":17,"min":73,"max":182,"target":"absent","response":"absent","rt":562,"correct":true,"confidence":-1},{"trial_n":18,"min":73,"max":182,"target":"present","response":"present","rt":891.99999999999,"correct":true,"confidence":-1},{"trial_n":19,"min":81,"max":174,"target":"absent","response":"absent","rt":454,"correct":true,"confidence":-1},{"trial_n":20,"min":81,"max":174,"target":"absent","response":"absent","rt":638,"correct":true,"confidence":-1},{"trial_n":21,"min":85,"max":170,"target":"present","response":"absent","rt":973,"correct":false,"confidence":4},{"trial_n":22,"min":81,"max":174,"target":"absent","response":"absent","rt":1293,"correct":true,"confidence":3},{"trial_n":23,"min":81,"max":174,"target":"absent","response":"absent","rt":1267,"correct":true,"confidence":3},{"trial_n":24,"min":85,"max":170,"target":"absent","response":"absent","rt":1783,"correct":true,"confidence":3},{"trial_n":25,"min":85,"max":170,"target":"present","response":"present","rt":1086,"correct":true,"confidence":4},{"trial_n":26,"min":89,"max":166,"target":"present","response":"absent","rt":985,"correct":false,"confidence":4},{"trial_n":27,"min":85,"max":170,"target":"present","response":"present","rt":1263,"correct":true,"confidence":4},{"trial_n":28,"min":85,"max":170,"target":"absent","response":"absent","rt":962,"correct":true,"confidence":4},{"trial_n":29,"min":89,"max":166,"target":"present","response":"absent","rt":1051,"correct":false,"confidence":4},{"trial_n":30,"min":85,"max":170,"target":"absent","response":"absent","rt":1312,"correct":true,"confidence":3},{"trial_n":31,"min":85,"max":170,"target":"present","response":"present","rt":1702,"correct":true,"confidence":3},{"trial_n":32,"min":87,"max":168,"target":"present","response":"absent","rt":1084,"correct":false,"confidence":4},{"trial_n":33,"min":85,"max":170,"target":"present","response":"present","rt":5316,"correct":true,"confidence":3},{"trial_n":34,"min":85,"max":170,"target":"present","response":"present","rt":1689,"correct":true,"confidence":4},{"trial_n":35,"min":87,"max":168,"target":"absent","response":"absent","rt":1086,"correct":true,"confidence":3},{"trial_n":36,"min":87,"max":168,"target":"absent","response":"present","rt":1570,"correct":false,"confidence":4},{"trial_n":37,"min":85,"max":170,"target":"present","response":"absent","rt":969,"correct":false,"confidence":4},{"trial_n":38,"min":83,"max":172,"target":"absent","response":"present","rt":1551,"correct":false,"confidence":3},{"trial_n":39,"min":81,"max":174,"target":"present","response":"absent","rt":2006,"correct":false,"confidence":4},{"trial_n":40,"min":79,"max":176,"target":"absent","response":"absent","rt":1628,"correct":true,"confidence":1},{"trial_n":41,"min":79,"max":176,"target":"absent","response":"present","rt":1324,"correct":false,"confidence":4},{"trial_n":42,"min":78,"max":177,"target":"present","response":"present","rt":1062,"correct":true,"confidence":4},{"trial_n":43,"min":78,"max":177,"target":"present","response":"present","rt":1236,"correct":true,"confidence":4},{"trial_n":44,"min":79,"max":176,"target":"absent","response":"absent","rt":2647,"correct":true,"confidence":4},{"trial_n":45,"min":79,"max":176,"target":"absent","response":"present","rt":1182,"correct":false,"confidence":4},{"trial_n":46,"min":78,"max":177,"target":"absent","response":"present","rt":1311,"correct":false,"confidence":4},{"trial_n":47,"min":77,"max":178,"target":"present","response":"present","rt":1078,"correct":true,"confidence":4},{"trial_n":48,"min":77,"max":178,"target":"present","response":"absent","rt":10655,"correct":false,"confidence":3},{"trial_n":49,"min":76,"max":179,"target":"present","response":"present","rt":968,"correct":true,"confidence":4},{"trial_n":50,"min":76,"max":179,"target":"present","response":"present","rt":1068,"correct":true,"confidence":4},{"trial_n":51,"min":77,"max":178,"target":"present","response":"present","rt":979,"correct":true,"confidence":4},{"trial_n":52,"min":77,"max":178,"target":"present","response":"present","rt":1519,"correct":true,"confidence":4},{"trial_n":53,"min":78,"max":177,"target":"absent","response":"absent","rt":1090,"correct":true,"confidence":3},{"trial_n":54,"min":78,"max":177,"target":"absent","response":"absent","rt":1398,"correct":true,"confidence":3},{"trial_n":55,"min":79,"max":176,"target":"absent","response":"absent","rt":1078,"correct":true,"confidence":3},{"trial_n":56,"min":79,"max":176,"target":"absent","response":"absent","rt":964,"correct":true,"confidence":3},{"trial_n":57,"min":80,"max":175,"target":"absent","response":"present","rt":974,"correct":false,"confidence":4},{"trial_n":58,"min":79,"max":176,"target":"absent","response":"present","rt":1033,"correct":false,"confidence":4},{"trial_n":59,"min":78,"max":177,"target":"present","response":"present","rt":1134,"correct":true,"confidence":4},{"trial_n":60,"min":78,"max":177,"target":"absent","response":"absent","rt":1680,"correct":true,"confidence":3},{"trial_n":61,"min":79,"max":176,"target":"present","response":"present","rt":942.99999999994,"correct":true,"confidence":4},{"trial_n":62,"min":79,"max":176,"target":"absent","response":"present","rt":902,"correct":false,"confidence":3},{"trial_n":63,"min":78,"max":177,"target":"present","response":"present","rt":1190,"correct":true,"confidence":4},{"trial_n":64,"min":78,"max":177,"target":"absent","response":"present","rt":959,"correct":false,"confidence":4},{"trial_n":65,"min":77,"max":178,"target":"present","response":"present","rt":1550,"correct":true,"confidence":4},{"trial_n":66,"min":77,"max":178,"target":"present","response":"present","rt":1207,"correct":true,"confidence":4},{"trial_n":67,"min":78,"max":177,"target":"present","response":"present","rt":838,"correct":true,"confidence":4},{"trial_n":68,"min":78,"max":177,"target":"absent","response":"absent","rt":770,"correct":true,"confidence":4},{"trial_n":69,"min":79,"max":176,"target":"present","response":"absent","rt":1190,"correct":false,"confidence":3},{"trial_n":70,"min":78,"max":177,"target":"present","response":"present","rt":1010,"correct":true,"confidence":4},{"trial_n":71,"min":41,"max":214,"target":"present","response":"present","rt":3037.9999999999,"correct":true,"confidence":-1},{"trial_n":72,"min":41,"max":214,"target":"present","response":"present","rt":785,"correct":true,"confidence":-1},{"trial_n":73,"min":57,"max":198,"target":"absent","response":"absent","rt":1331.0000000001,"correct":true,"confidence":-1},{"trial_n":74,"min":57,"max":198,"target":"absent","response":"absent","rt":1870.9999999999,"correct":true,"confidence":-1},{"trial_n":75,"min":73,"max":182,"target":"present","response":"present","rt":982,"correct":true,"confidence":-1},{"trial_n":76,"min":73,"max":182,"target":"present","response":"present","rt":824,"correct":true,"confidence":-1},{"trial_n":77,"min":89,"max":166,"target":"absent","response":"absent","rt":1504.0000000001,"correct":true,"confidence":-1},{"trial_n":78,"min":89,"max":166,"target":"present","response":"present","rt":851,"correct":true,"confidence":-1},{"trial_n":79,"min":105,"max":150,"target":"present","response":"present","rt":1075,"correct":true,"confidence":-1},{"trial_n":80,"min":105,"max":150,"target":"present","response":"absent","rt":1362.0000000001,"correct":false,"confidence":-1},{"trial_n":81,"min":97,"max":158,"target":"present","response":"present","rt":971,"correct":true,"confidence":-1},{"trial_n":82,"min":97,"max":158,"target":"present","response":"absent","rt":1140.9999999999,"correct":false,"confidence":-1},{"trial_n":83,"min":89,"max":166,"target":"present","response":"present","rt":1417,"correct":true,"confidence":-1},{"trial_n":84,"min":89,"max":166,"target":"absent","response":"absent","rt":2305,"correct":true,"confidence":-1},{"trial_n":85,"min":97,"max":158,"target":"present","response":"present","rt":1707.0000000001,"correct":true,"confidence":-1},{"trial_n":86,"min":97,"max":158,"target":"absent","response":"present","rt":1442,"correct":false,"confidence":-1},{"trial_n":87,"min":89,"max":166,"target":"present","response":"present","rt":1095,"correct":true,"confidence":-1},{"trial_n":88,"min":89,"max":166,"target":"absent","response":"absent","rt":986.00000000006,"correct":true,"confidence":-1},{"trial_n":89,"min":97,"max":158,"target":"present","response":"absent","rt":965.99999999994,"correct":false,"confidence":-1},{"trial_n":90,"min":89,"max":166,"target":"absent","response":"present","rt":1496,"correct":false,"confidence":-1},{"trial_n":91,"min":85,"max":170,"target":"present","response":"present","rt":836,"correct":true,"confidence":5},{"trial_n":92,"min":85,"max":170,"target":"absent","response":"absent","rt":1199,"correct":true,"confidence":5},{"trial_n":93,"min":89,"max":166,"target":"absent","response":"present","rt":2273,"correct":false,"confidence":3},{"trial_n":94,"min":85,"max":170,"target":"present","response":"present","rt":1058,"correct":true,"confidence":4},{"trial_n":95,"min":85,"max":170,"target":"absent","response":"present","rt":1537,"correct":false,"confidence":4},{"trial_n":96,"min":81,"max":174,"target":"absent","response":"absent","rt":1199,"correct":true,"confidence":4},{"trial_n":97,"min":81,"max":174,"target":"present","response":"present","rt":2098,"correct":true,"confidence":4},{"trial_n":98,"min":85,"max":170,"target":"present","response":"present","rt":1065,"correct":true,"confidence":4},{"trial_n":99,"min":85,"max":170,"target":"absent","response":"absent","rt":935,"correct":true,"confidence":4},{"trial_n":100,"min":89,"max":166,"target":"absent","response":"absent","rt":28397,"correct":true,"confidence":2},{"trial_n":101,"min":89,"max":166,"target":"absent","response":"present","rt":1557,"correct":false,"confidence":3},{"trial_n":102,"min":87,"max":168,"target":"absent","response":"present","rt":1014,"correct":false,"confidence":3},{"trial_n":103,"min":85,"max":170,"target":"present","response":"present","rt":1066,"correct":true,"confidence":4},{"trial_n":104,"min":85,"max":170,"target":"present","response":"present","rt":828,"correct":true,"confidence":4},{"trial_n":105,"min":87,"max":168,"target":"absent","response":"absent","rt":1050,"correct":true,"confidence":4},{"trial_n":106,"min":87,"max":168,"target":"present","response":"absent","rt":5186,"correct":false,"confidence":4},{"trial_n":107,"min":85,"max":170,"target":"absent","response":"absent","rt":1212,"correct":true,"confidence":4},{"trial_n":108,"min":85,"max":170,"target":"absent","response":"absent","rt":1367,"correct":true,"confidence":4},{"trial_n":109,"min":87,"max":168,"target":"absent","response":"absent","rt":1172,"correct":true,"confidence":3},{"trial_n":110,"min":87,"max":168,"target":"present","response":"present","rt":945.99999999994,"correct":true,"confidence":5},{"trial_n":111,"min":88,"max":167,"target":"absent","response":"present","rt":1212,"correct":false,"confidence":3},{"trial_n":112,"min":87,"max":168,"target":"absent","response":"absent","rt":1137,"correct":true,"confidence":4},{"trial_n":113,"min":87,"max":168,"target":"present","response":"absent","rt":1240,"correct":false,"confidence":4},{"trial_n":114,"min":86,"max":169,"target":"present","response":"present","rt":1980,"correct":true,"confidence":4},{"trial_n":115,"min":86,"max":169,"target":"present","response":"absent","rt":1234.0000000001,"correct":false,"confidence":3},{"trial_n":116,"min":85,"max":170,"target":"absent","response":"absent","rt":1481,"correct":true,"confidence":4},{"trial_n":117,"min":85,"max":170,"target":"present","response":"present","rt":1285,"correct":true,"confidence":2},{"trial_n":118,"min":86,"max":169,"target":"present","response":"present","rt":1710,"correct":true,"confidence":4},{"trial_n":119,"min":86,"max":169,"target":"present","response":"present","rt":994,"correct":true,"confidence":4},{"trial_n":120,"min":87,"max":168,"target":"absent","response":"absent","rt":1030,"correct":true,"confidence":2},{"trial_n":121,"min":87,"max":168,"target":"present","response":"absent","rt":932,"correct":false,"confidence":3},{"trial_n":122,"min":86,"max":169,"target":"present","response":"absent","rt":1230,"correct":false,"confidence":2},{"trial_n":123,"min":85,"max":170,"target":"present","response":"present","rt":774,"correct":true,"confidence":5},{"trial_n":124,"min":85,"max":170,"target":"absent","response":"absent","rt":1252,"correct":true,"confidence":2},{"trial_n":125,"min":86,"max":169,"target":"present","response":"present","rt":1031.0000000001,"correct":true,"confidence":4},{"trial_n":126,"min":86,"max":169,"target":"present","response":"absent","rt":1146,"correct":false,"confidence":2},{"trial_n":127,"min":85,"max":170,"target":"present","response":"present","rt":1152,"correct":true,"confidence":4},{"trial_n":128,"min":85,"max":170,"target":"absent","response":"absent","rt":1194.9999999999,"correct":true,"confidence":3},{"trial_n":129,"min":86,"max":169,"target":"absent","response":"present","rt":1208.9999999999,"correct":false,"confidence":3},{"trial_n":130,"min":85,"max":170,"target":"present","response":"present","rt":926,"correct":true,"confidence":4},{"trial_n":131,"min":85,"max":170,"target":"absent","response":"present","rt":1008,"correct":false,"confidence":3},{"trial_n":132,"min":84,"max":171,"target":"absent","response":"present","rt":912.00000000012,"correct":false,"confidence":4},{"trial_n":133,"min":83,"max":172,"target":"absent","response":"absent","rt":1013,"correct":true,"confidence":3},{"trial_n":134,"min":83,"max":172,"target":"absent","response":"absent","rt":1272,"correct":true,"confidence":4},{"trial_n":135,"min":84,"max":171,"target":"absent","response":"absent","rt":909.00000000012,"correct":true,"confidence":3},{"trial_n":136,"min":84,"max":171,"target":"absent","response":"absent","rt":1346,"correct":true,"confidence":4},{"trial_n":137,"min":85,"max":170,"target":"absent","response":"absent","rt":779.99999999988,"correct":true,"confidence":3},{"trial_n":138,"min":85,"max":170,"target":"present","response":"present","rt":967,"correct":true,"confidence":4},{"trial_n":139,"min":86,"max":169,"target":"absent","response":"absent","rt":1546,"correct":true,"confidence":2},{"trial_n":140,"min":86,"max":169,"target":"present","response":"present","rt":1106.0000000001,"correct":true,"confidence":3}]