[{"trial_n":1,"n_dots":4.25,"target":"left","response":"left","rt":2802,"correct":true,"confidence":-1},{"trial_n":2,"n_dots":4.25,"target":"right","response":"right","rt":863.69999998808,"correct":true,"confidence":-1},{"trial_n":3,"n_dots":3.85,"target":"right","response":"right","rt":764.69999998808,"correct":true,"confidence":-1},{"trial_n":4,"n_dots":3.85,"target":"left","response":"right","rt":4340.1999999881,"correct":false,"confidence":-1},{"trial_n":5,"n_dots":4.25,"target":"right","response":"right","rt":573.59999996424,"correct":true,"confidence":-1},{"trial_n":6,"n_dots":4.25,"target":"right","response":"right","rt":494.20000004768,"correct":true,"confidence":-1},{"trial_n":7,"n_dots":3.85,"target":"left","response":"left","rt":47.199999988079,"correct":true,"confidence":-1},{"trial_n":8,"n_dots":3.85,"target":"left","response":"left","rt":326.30000001192,"correct":true,"confidence":-1},{"trial_n":9,"n_dots":3.65,"target":"left","response":"left","rt":303.80000001192,"correct":true,"confidence":-1},{"trial_n":10,"n_dots":3.65,"target":"left","response":"left","rt":356.30000001192,"correct":true,"confidence":-1},{"trial_n":11,"n_dots":3.45,"target":"left","response":"right","rt":471.80000001192,"correct":false,"confidence":-1},{"trial_n":12,"n_dots":3.65,"target":"right","response":"left","rt":366.59999996424,"correct":false,"confidence":-1},{"trial_n":13,"n_dots":3.75,"target":"left","response":"left","rt":35.5,"correct":true,"confidence":-1},{"trial_n":14,"n_dots":3.75,"target":"right","response":"left","rt":63.800000011921,"correct":false,"confidence":-1},{"trial_n":15,"n_dots":3.85,"target":"right","response":"right","rt":110.09999996424,"correct":true,"confidence":-1},{"trial_n":16,"n_dots":3.85,"target":"left","response":"left","rt":1720.9000000358,"correct":true,"confidence":-1},{"trial_n":17,"n_dots":3.75,"target":"right","response":"right","rt":3479.1000000238,"correct":true,"confidence":-1},{"trial_n":18,"n_dots":3.75,"target":"left","response":"left","rt":570.79999995232,"correct":true,"confidence":-1},{"trial_n":19,"n_dots":3.65,"target":"right","response":"left","rt":31.300000011921,"correct":false,"confidence":-1},{"trial_n":20,"n_dots":3.75,"target":"left","response":"left","rt":206.10000002384,"correct":true,"confidence":-1},{"trial_n":21,"n_dots":3.75,"target":"left","response":"left","rt":679.19999998808,"correct":true,"confidence":2},{"trial_n":22,"n_dots":3.65,"target":"right","response":"left","rt":750.70000004768,"correct":false,"confidence":2},{"trial_n":23,"n_dots":3.75,"target":"left","response":"left","rt":1242.5999999642,"correct":true,"confidence":3},{"trial_n":24,"n_dots":3.75,"target":"right","response":"right","rt":593.5,"correct":true,"confidence":3},{"trial_n":25,"n_dots":3.65,"target":"right","response":"left","rt":262.09999996424,"correct":false,"confidence":3},{"trial_n":26,"n_dots":3.75,"target":"right","response":"right","rt":974.5,"correct":true,"confidence":3},{"trial_n":27,"n_dots":3.75,"target":"left","response":"left","rt":630.89999997616,"correct":true,"confidence":3},{"trial_n":28,"n_dots":3.65,"target":"right","response":"right","rt":488.69999998808,"correct":true,"confidence":3},{"trial_n":29,"n_dots":3.65,"target":"left","response":"left","rt":111.5,"correct":true,"confidence":3},{"trial_n":30,"n_dots":3.55,"target":"right","response":"right","rt":219.20000004768,"correct":true,"confidence":3},{"trial_n":31,"n_dots":3.55,"target":"right","response":"left","rt":74.5,"correct":false,"confidence":3},{"trial_n":32,"n_dots":3.65,"target":"right","response":"right","rt":331.80000001192,"correct":true,"confidence":3},{"trial_n":33,"n_dots":3.65,"target":"right","response":"right","rt":586.69999998808,"correct":true,"confidence":3},{"trial_n":34,"n_dots":3.55,"target":"right","response":"left","rt":619.30000001192,"correct":false,"confidence":2},{"trial_n":35,"n_dots":3.65,"target":"right","response":"right","rt":461.60000002384,"correct":true,"confidence":3},{"trial_n":36,"n_dots":3.65,"target":"left","response":"left","rt":562.19999998808,"correct":true,"confidence":3},{"trial_n":37,"n_dots":3.55,"target":"right","response":"right","rt":245.5,"correct":true,"confidence":3},{"trial_n":38,"n_dots":3.55,"target":"left","response":"left","rt":146.40000003576,"correct":true,"confidence":3},{"trial_n":39,"n_dots":3.45,"target":"left","response":"left","rt":157.40000003576,"correct":true,"confidence":3},{"trial_n":40,"n_dots":3.45,"target":"left","response":"left","rt":197.60000002384,"correct":true,"confidence":3},{"trial_n":41,"n_dots":3.35,"target":"left","response":"left","rt":439.5,"correct":true,"confidence":3},{"trial_n":42,"n_dots":3.35,"target":"right","response":"left","rt":447.30000001192,"correct":false,"confidence":3},{"trial_n":43,"n_dots":3.45,"target":"left","response":"right","rt":170.69999998808,"correct":false,"confidence":3},{"trial_n":44,"n_dots":3.55,"target":"left","response":"left","rt":435.19999998808,"correct":true,"confidence":3},{"trial_n":45,"n_dots":3.55,"target":"left","response":"left","rt":744.5,"correct":true,"confidence":3},{"trial_n":46,"n_dots":3.45,"target":"right","response":"right","rt":258.80000001192,"correct":true,"confidence":3},{"trial_n":47,"n_dots":3.45,"target":"left","response":"left","rt":270,"correct":true,"confidence":3},{"trial_n":48,"n_dots":3.35,"target":"right","response":"right","rt":66.600000023842,"correct":true,"confidence":3},{"trial_n":49,"n_dots":3.35,"target":"left","response":"left","rt":222.5,"correct":true,"confidence":3},{"trial_n":50,"n_dots":3.25,"target":"left","response":"left","rt":881.19999998808,"correct":true,"confidence":3},{"trial_n":51,"n_dots":3.25,"target":"right","response":"right","rt":325,"correct":true,"confidence":3},{"trial_n":52,"n_dots":3.15,"target":"right","response":"left","rt":466.90000003576,"correct":false,"confidence":3},{"trial_n":53,"n_dots":3.25,"target":"left","response":"left","rt":1016.8000000119,"correct":true,"confidence":3},{"trial_n":54,"n_dots":3.25,"target":"left","response":"left","rt":545,"correct":true,"confidence":3},{"trial_n":55,"n_dots":3.15,"target":"right","response":"right","rt":270.69999998808,"correct":true,"confidence":3},{"trial_n":56,"n_dots":3.15,"target":"right","response":"left","rt":451.60000002384,"correct":false,"confidence":3},{"trial_n":57,"n_dots":3.25,"target":"left","response":"left","rt":472.80000001192,"correct":true,"confidence":3},{"trial_n":58,"n_dots":3.25,"target":"right","response":"left","rt":54.199999988079,"correct":false,"confidence":3},{"trial_n":59,"n_dots":3.35,"target":"left","response":"left","rt":389.59999996424,"correct":true,"confidence":3},{"trial_n":60,"n_dots":3.35,"target":"right","response":"right","rt":172.5,"correct":true,"confidence":3},{"trial_n":61,"n_dots":3.25,"target":"right","response":"left","rt":200.19999998808,"correct":false,"confidence":3},{"trial_n":62,"n_dots":3.35,"target":"left","response":"left","rt":95.199999988079,"correct":true,"confidence":3},{"trial_n":63,"n_dots":3.35,"target":"right","response":"right","rt":145.69999998808,"correct":true,"confidence":3},{"trial_n":64,"n_dots":3.25,"target":"right","response":"left","rt":114,"correct":false,"confidence":1},{"trial_n":65,"n_dots":3.35,"target":"left","response":"left","rt":57.800000011921,"correct":true,"confidence":3},{"trial_n":66,"n_dots":3.35,"target":"right","response":"left","rt":149.10000002384,"correct":false,"confidence":3},{"trial_n":67,"n_dots":3.45,"target":"left","response":"right","rt":212.89999997616,"correct":false,"confidence":3},{"trial_n":68,"n_dots":3.55,"target":"left","response":"left","rt":756.80000001192,"correct":true,"confidence":2},{"trial_n":69,"n_dots":3.55,"target":"right","response":"right","rt":144.80000001192,"correct":true,"confidence":3},{"trial_n":70,"n_dots":3.45,"target":"right","response":"left","rt":408,"correct":false,"confidence":3},{"trial_n":71,"n_dots":3.55,"target":"left","response":"left","rt":58.400000035763,"correct":true,"confidence":3},{"trial_n":72,"n_dots":3.55,"target":"left","response":"left","rt":343.69999998808,"correct":true,"confidence":3},{"trial_n":73,"n_dots":3.45,"target":"left","response":"left","rt":37.100000023842,"correct":true,"confidence":3},{"trial_n":74,"n_dots":3.45,"target":"left","response":"left","rt":441.10000002384,"correct":true,"confidence":3},{"trial_n":75,"n_dots":3.35,"target":"right","response":"left","rt":13.699999988079,"correct":false,"confidence":3},{"trial_n":76,"n_dots":3.45,"target":"left","response":"left","rt":58.100000023842,"correct":true,"confidence":3},{"trial_n":77,"n_dots":3.45,"target":"right","response":"right","rt":591.29999995232,"correct":true,"confidence":3},{"trial_n":78,"n_dots":3.35,"target":"left","response":"left","rt":283.5,"correct":true,"confidence":3},{"trial_n":79,"n_dots":3.35,"target":"right","response":"left","rt":338,"correct":false,"confidence":3},{"trial_n":80,"n_dots":3.45,"target":"right","response":"left","rt":432.30000001192,"correct":false,"confidence":3},{"trial_n":81,"n_dots":3.55,"target":"left","response":"left","rt":784,"correct":true,"confidence":3},{"trial_n":82,"n_dots":3.55,"target":"left","response":"left","rt":925,"correct":true,"confidence":2},{"trial_n":83,"n_dots":3.45,"target":"right","response":"left","rt":1929.0999999642,"correct":false,"confidence":2},{"trial_n":84,"n_dots":3.55,"target":"left","response":"left","rt":1349.8000000119,"correct":true,"confidence":3},{"trial_n":85,"n_dots":3.55,"target":"right","response":"left","rt":515.19999998808,"correct":false,"confidence":3},{"trial_n":86,"n_dots":3.65,"target":"right","response":"left","rt":259.10000002384,"correct":false,"confidence":3},{"trial_n":87,"n_dots":3.75,"target":"right","response":"left","rt":498,"correct":false,"confidence":3},{"trial_n":88,"n_dots":3.85,"target":"left","response":"right","rt":75,"correct":false,"confidence":3},{"trial_n":89,"n_dots":3.95,"target":"right","response":"left","rt":514.19999998808,"correct":false,"confidence":2},{"trial_n":90,"n_dots":4.05,"target":"right","response":"left","rt":1087.9000000358,"correct":false,"confidence":2},{"trial_n":91,"n_dots":4.15,"target":"right","response":"right","rt":295.60000002384,"correct":true,"confidence":3},{"trial_n":92,"n_dots":4.15,"target":"left","response":"left","rt":138.89999997616,"correct":true,"confidence":4},{"trial_n":93,"n_dots":4.05,"target":"right","response":"right","rt":-0.80000001192093,"correct":true,"confidence":3},{"trial_n":94,"n_dots":4.05,"target":"left","response":"left","rt":630.69999998808,"correct":true,"confidence":1},{"trial_n":95,"n_dots":3.95,"target":"left","response":"left","rt":1347.8000000119,"correct":true,"confidence":3},{"trial_n":96,"n_dots":3.95,"target":"right","response":"left","rt":1259.7000000477,"correct":false,"confidence":2},{"trial_n":97,"n_dots":4.05,"target":"right","response":"left","rt":185.80000001192,"correct":false,"confidence":2},{"trial_n":98,"n_dots":4.15,"target":"right","response":"left","rt":536.39999997616,"correct":false,"confidence":2},{"trial_n":99,"n_dots":4.25,"target":"right","response":"left","rt":888,"correct":false,"confidence":3},{"trial_n":100,"n_dots":4.35,"target":"right","response":"left","rt":235.09999996424,"correct":false,"confidence":3},{"trial_n":101,"n_dots":4.45,"target":"left","response":"left","rt":565.60000002384,"correct":true,"confidence":4},{"trial_n":102,"n_dots":4.45,"target":"left","response":"left","rt":622.5,"correct":true,"confidence":4},{"trial_n":103,"n_dots":4.35,"target":"left","response":"left","rt":818.80000001192,"correct":true,"confidence":4},{"trial_n":104,"n_dots":4.35,"target":"right","response":"right","rt":65.5,"correct":true,"confidence":4},{"trial_n":105,"n_dots":4.25,"target":"left","response":"left","rt":628,"correct":true,"confidence":5},{"trial_n":106,"n_dots":4.25,"target":"right","response":"right","rt":287.5,"correct":true,"confidence":3},{"trial_n":107,"n_dots":4.15,"target":"right","response":"right","rt":320.19999998808,"correct":true,"confidence":3},{"trial_n":108,"n_dots":4.15,"target":"right","response":"right","rt":384.10000002384,"correct":true,"confidence":1},{"trial_n":109,"n_dots":4.05,"target":"right","response":"right","rt":38.899999976158,"correct":true,"confidence":3},{"trial_n":110,"n_dots":4.05,"target":"left","response":"left","rt":115.29999995232,"correct":true,"confidence":3},{"trial_n":111,"n_dots":3.95,"target":"left","response":"left","rt":541.30000001192,"correct":true,"confidence":3},{"trial_n":112,"n_dots":3.95,"target":"right","response":"right","rt":479.19999998808,"correct":true,"confidence":3},{"trial_n":113,"n_dots":3.85,"target":"left","response":"left","rt":456.60000002384,"correct":true,"confidence":3},{"trial_n":114,"n_dots":3.85,"target":"left","response":"left","rt":336.30000001192,"correct":true,"confidence":3},{"trial_n":115,"n_dots":3.75,"target":"left","response":"left","rt":59.899999976158,"correct":true,"confidence":3},{"trial_n":116,"n_dots":3.75,"target":"left","response":"left","rt":87.900000035763,"correct":true,"confidence":3},{"trial_n":117,"n_dots":3.65,"target":"left","response":"left","rt":1980.3000000119,"correct":true,"confidence":3},{"trial_n":118,"n_dots":3.65,"target":"right","response":"right","rt":322.69999998808,"correct":true,"confidence":3},{"trial_n":119,"n_dots":3.55,"target":"left","response":"left","rt":110.69999998808,"correct":true,"confidence":3},{"trial_n":120,"n_dots":3.55,"target":"left","response":"left","rt":17.600000023842,"correct":true,"confidence":3}]