[{"trial_n":1,"min":25,"max":230,"target":"present","response":"absent","rt":6003.9000000358,"correct":false,"confidence":-1},{"trial_n":2,"min":25,"max":230,"target":"present","response":"present","rt":1320.0999999642,"correct":true,"confidence":-1},{"trial_n":3,"min":25,"max":230,"target":"absent","response":"absent","rt":687.19999998808,"correct":true,"confidence":-1},{"trial_n":4,"min":41,"max":214,"target":"absent","response":"absent","rt":660.89999997616,"correct":true,"confidence":-1},{"trial_n":5,"min":41,"max":214,"target":"present","response":"present","rt":571.5,"correct":true,"confidence":-1},{"trial_n":6,"min":57,"max":198,"target":"absent","response":"absent","rt":574.10000002384,"correct":true,"confidence":-1},{"trial_n":7,"min":57,"max":198,"target":"absent","response":"absent","rt":278.40000003576,"correct":true,"confidence":-1},{"trial_n":8,"min":73,"max":182,"target":"present","response":"present","rt":481.89999997616,"correct":true,"confidence":-1},{"trial_n":9,"min":73,"max":182,"target":"absent","response":"absent","rt":539.5,"correct":true,"confidence":-1},{"trial_n":10,"min":89,"max":166,"target":"present","response":"absent","rt":234.90000003576,"correct":false,"confidence":-1},{"trial_n":11,"min":81,"max":174,"target":"absent","response":"absent","rt":677.69999998808,"correct":true,"confidence":-1},{"trial_n":12,"min":81,"max":174,"target":"present","response":"absent","rt":671.70000004768,"correct":false,"confidence":-1},{"trial_n":13,"min":73,"max":182,"target":"absent","response":"absent","rt":1277.1000000238,"correct":true,"confidence":-1},{"trial_n":14,"min":73,"max":182,"target":"present","response":"present","rt":138.89999997616,"correct":true,"confidence":-1},{"trial_n":15,"min":81,"max":174,"target":"present","response":"absent","rt":596.70000004768,"correct":false,"confidence":-1},{"trial_n":16,"min":73,"max":182,"target":"absent","response":"present","rt":583.5,"correct":false,"confidence":-1},{"trial_n":17,"min":65,"max":190,"target":"absent","response":"present","rt":656.69999998808,"correct":false,"confidence":-1},{"trial_n":18,"min":57,"max":198,"target":"present","response":"present","rt":561.69999998808,"correct":true,"confidence":-1},{"trial_n":19,"min":57,"max":198,"target":"absent","response":"present","rt":551.39999997616,"correct":false,"confidence":-1},{"trial_n":20,"min":49,"max":206,"target":"present","response":"present","rt":415.5,"correct":true,"confidence":-1},{"trial_n":21,"min":49,"max":206,"target":"present","response":"present","rt":335.19999998808,"correct":true,"confidence":5},{"trial_n":22,"min":53,"max":202,"target":"absent","response":"absent","rt":1322.6000000238,"correct":true,"confidence":1},{"trial_n":23,"min":53,"max":202,"target":"absent","response":"absent","rt":744.69999998808,"correct":true,"confidence":3},{"trial_n":24,"min":57,"max":198,"target":"absent","response":"present","rt":809.70000004768,"correct":false,"confidence":3},{"trial_n":25,"min":53,"max":202,"target":"present","response":"present","rt":555,"correct":true,"confidence":5},{"trial_n":26,"min":53,"max":202,"target":"present","response":"present","rt":559.19999998808,"correct":true,"confidence":5},{"trial_n":27,"min":57,"max":198,"target":"absent","response":"absent","rt":579.09999996424,"correct":true,"confidence":4},{"trial_n":28,"min":57,"max":198,"target":"present","response":"present","rt":515.69999998808,"correct":true,"confidence":5},{"trial_n":29,"min":61,"max":194,"target":"present","response":"present","rt":535.60000002384,"correct":true,"confidence":5},{"trial_n":30,"min":61,"max":194,"target":"present","response":"present","rt":465.5,"correct":true,"confidence":5},{"trial_n":31,"min":63,"max":192,"target":"absent","response":"absent","rt":857,"correct":true,"confidence":2},{"trial_n":32,"min":63,"max":192,"target":"absent","response":"absent","rt":895.19999998808,"correct":true,"confidence":2},{"trial_n":33,"min":65,"max":190,"target":"absent","response":"absent","rt":716.69999998808,"correct":true,"confidence":2},{"trial_n":34,"min":65,"max":190,"target":"present","response":"present","rt":613.90000003576,"correct":true,"confidence":4},{"trial_n":35,"min":67,"max":188,"target":"present","response":"present","rt":598.5,"correct":true,"confidence":4},{"trial_n":36,"min":67,"max":188,"target":"absent","response":"present","rt":2612.3000000119,"correct":false,"confidence":2},{"trial_n":37,"min":65,"max":190,"target":"absent","response":"absent","rt":597.10000002384,"correct":true,"confidence":4},{"trial_n":38,"min":65,"max":190,"target":"present","response":"present","rt":444.80000001192,"correct":true,"confidence":5},{"trial_n":39,"min":67,"max":188,"target":"present","response":"present","rt":425.90000003576,"correct":true,"confidence":5},{"trial_n":40,"min":67,"max":188,"target":"absent","response":"absent","rt":357.5,"correct":true,"confidence":4},{"trial_n":41,"min":68,"max":187,"target":"absent","response":"absent","rt":1268,"correct":true,"confidence":3},{"trial_n":42,"min":68,"max":187,"target":"present","response":"present","rt":569.5,"correct":true,"confidence":4},{"trial_n":43,"min":69,"max":186,"target":"absent","response":"present","rt":894.79999995232,"correct":false,"confidence":4},{"trial_n":44,"min":68,"max":187,"target":"present","response":"present","rt":578.69999998808,"correct":true,"confidence":5},{"trial_n":45,"min":68,"max":187,"target":"absent","response":"present","rt":1286.6999999881,"correct":false,"confidence":4},{"trial_n":46,"min":67,"max":188,"target":"absent","response":"present","rt":2328.8999999762,"correct":false,"confidence":3},{"trial_n":47,"min":66,"max":189,"target":"absent","response":"absent","rt":775.19999998808,"correct":true,"confidence":2},{"trial_n":48,"min":66,"max":189,"target":"absent","response":"absent","rt":1408.1999999881,"correct":true,"confidence":2},{"trial_n":49,"min":67,"max":188,"target":"present","response":"present","rt":455.80000001192,"correct":true,"confidence":5},{"trial_n":50,"min":67,"max":188,"target":"present","response":"present","rt":407.30000001192,"correct":true,"confidence":5},{"trial_n":51,"min":68,"max":187,"target":"present","response":"present","rt":531.5,"correct":true,"confidence":5},{"trial_n":52,"min":68,"max":187,"target":"present","response":"present","rt":568.5,"correct":true,"confidence":5},{"trial_n":53,"min":69,"max":186,"target":"absent","response":"absent","rt":599.5,"correct":true,"confidence":4},{"trial_n":54,"min":69,"max":186,"target":"absent","response":"absent","rt":662.90000003576,"correct":true,"confidence":4},{"trial_n":55,"min":70,"max":185,"target":"present","response":"present","rt":607.70000004768,"correct":true,"confidence":4},{"trial_n":56,"min":70,"max":185,"target":"absent","response":"absent","rt":506.89999997616,"correct":true,"confidence":4},{"trial_n":57,"min":71,"max":184,"target":"present","response":"present","rt":584.39999997616,"correct":true,"confidence":5},{"trial_n":58,"min":71,"max":184,"target":"present","response":"present","rt":453.80000001192,"correct":true,"confidence":5},{"trial_n":59,"min":72,"max":183,"target":"absent","response":"absent","rt":628,"correct":true,"confidence":3},{"trial_n":60,"min":72,"max":183,"target":"absent","response":"absent","rt":538.69999998808,"correct":true,"confidence":4},{"trial_n":61,"min":73,"max":182,"target":"absent","response":"absent","rt":1005.5,"correct":true,"confidence":1},{"trial_n":62,"min":73,"max":182,"target":"present","response":"present","rt":520,"correct":true,"confidence":5},{"trial_n":63,"min":74,"max":181,"target":"present","response":"present","rt":489.80000001192,"correct":true,"confidence":4},{"trial_n":64,"min":74,"max":181,"target":"present","response":"present","rt":439.30000001192,"correct":true,"confidence":5},{"trial_n":65,"min":75,"max":180,"target":"absent","response":"absent","rt":515.19999998808,"correct":true,"confidence":5},{"trial_n":66,"min":75,"max":180,"target":"present","response":"present","rt":427.40000003576,"correct":true,"confidence":5},{"trial_n":67,"min":76,"max":179,"target":"absent","response":"absent","rt":459.89999997616,"correct":true,"confidence":5},{"trial_n":68,"min":76,"max":179,"target":"present","response":"present","rt":373.5,"correct":true,"confidence":5},{"trial_n":69,"min":77,"max":178,"target":"present","response":"present","rt":480.40000003576,"correct":true,"confidence":5},{"trial_n":70,"min":77,"max":178,"target":"present","response":"present","rt":413.19999998808,"correct":true,"confidence":5},{"trial_n":71,"min":41,"max":214,"target":"present","response":"present","rt":2790.6999999881,"correct":true,"confidence":-1},{"trial_n":72,"min":41,"max":214,"target":"present","response":"present","rt":543.60000002384,"correct":true,"confidence":-1},{"trial_n":73,"min":57,"max":198,"target":"absent","response":"absent","rt":685.80000001192,"correct":true,"confidence":-1},{"trial_n":74,"min":57,"max":198,"target":"absent","response":"absent","rt":1184.2000000477,"correct":true,"confidence":-1},{"trial_n":75,"min":73,"max":182,"target":"present","response":"present","rt":302.30000001192,"correct":true,"confidence":-1},{"trial_n":76,"min":73,"max":182,"target":"present","response":"present","rt":494.80000001192,"correct":true,"confidence":-1},{"trial_n":77,"min":89,"max":166,"target":"absent","response":"present","rt":1395.7000000477,"correct":false,"confidence":-1},{"trial_n":78,"min":73,"max":182,"target":"present","response":"present","rt":309.69999998808,"correct":true,"confidence":-1},{"trial_n":79,"min":73,"max":182,"target":"present","response":"present","rt":332.60000002384,"correct":true,"confidence":-1},{"trial_n":80,"min":89,"max":166,"target":"present","response":"present","rt":575.09999996424,"correct":true,"confidence":-1},{"trial_n":81,"min":89,"max":166,"target":"present","response":"present","rt":454.79999995232,"correct":true,"confidence":-1},{"trial_n":82,"min":97,"max":158,"target":"present","response":"present","rt":686.30000001192,"correct":true,"confidence":-1},{"trial_n":83,"min":97,"max":158,"target":"present","response":"present","rt":373.20000004768,"correct":true,"confidence":-1},{"trial_n":84,"min":105,"max":150,"target":"present","response":"present","rt":716.90000003576,"correct":true,"confidence":-1},{"trial_n":85,"min":105,"max":150,"target":"absent","response":"present","rt":379.10000002384,"correct":false,"confidence":-1},{"trial_n":86,"min":97,"max":158,"target":"present","response":"present","rt":399.09999996424,"correct":true,"confidence":-1},{"trial_n":87,"min":97,"max":158,"target":"absent","response":"present","rt":352.19999998808,"correct":false,"confidence":-1},{"trial_n":88,"min":89,"max":166,"target":"present","response":"present","rt":837.39999997616,"correct":true,"confidence":-1},{"trial_n":89,"min":89,"max":166,"target":"present","response":"present","rt":371.90000003576,"correct":true,"confidence":-1},{"trial_n":90,"min":97,"max":158,"target":"present","response":"absent","rt":1001.8999999762,"correct":false,"confidence":-1},{"trial_n":91,"min":93,"max":162,"target":"present","response":"present","rt":595.5,"correct":true,"confidence":4},{"trial_n":92,"min":93,"max":162,"target":"absent","response":"present","rt":622.5,"correct":false,"confidence":2},{"trial_n":93,"min":89,"max":166,"target":"present","response":"present","rt":635.69999998808,"correct":true,"confidence":1},{"trial_n":94,"min":89,"max":166,"target":"absent","response":"present","rt":593.10000002384,"correct":false,"confidence":1},{"trial_n":95,"min":85,"max":170,"target":"absent","response":"present","rt":461.80000001192,"correct":false,"confidence":1},{"trial_n":96,"min":81,"max":174,"target":"present","response":"present","rt":320.60000002384,"correct":true,"confidence":5},{"trial_n":97,"min":81,"max":174,"target":"absent","response":"absent","rt":482.69999998808,"correct":true,"confidence":4},{"trial_n":98,"min":85,"max":170,"target":"present","response":"present","rt":426.09999996424,"correct":true,"confidence":4},{"trial_n":99,"min":85,"max":170,"target":"present","response":"present","rt":329.30000001192,"correct":true,"confidence":5},{"trial_n":100,"min":89,"max":166,"target":"present","response":"present","rt":372.10000002384,"correct":true,"confidence":4},{"trial_n":101,"min":89,"max":166,"target":"absent","response":"absent","rt":622.59999996424,"correct":true,"confidence":4},{"trial_n":102,"min":91,"max":164,"target":"absent","response":"present","rt":403.29999995232,"correct":false,"confidence":3},{"trial_n":103,"min":89,"max":166,"target":"absent","response":"absent","rt":1387.5,"correct":true,"confidence":3},{"trial_n":104,"min":89,"max":166,"target":"absent","response":"present","rt":394.60000002384,"correct":false,"confidence":3},{"trial_n":105,"min":87,"max":168,"target":"present","response":"present","rt":254.5,"correct":true,"confidence":5},{"trial_n":106,"min":87,"max":168,"target":"present","response":"present","rt":629.69999998808,"correct":true,"confidence":4},{"trial_n":107,"min":89,"max":166,"target":"present","response":"present","rt":243.5,"correct":true,"confidence":5},{"trial_n":108,"min":89,"max":166,"target":"present","response":"present","rt":291.20000004768,"correct":true,"confidence":5},{"trial_n":109,"min":91,"max":164,"target":"absent","response":"absent","rt":680.19999998808,"correct":true,"confidence":4},{"trial_n":110,"min":91,"max":164,"target":"absent","response":"absent","rt":537.39999997616,"correct":true,"confidence":4},{"trial_n":111,"min":92,"max":163,"target":"absent","response":"absent","rt":716.19999998808,"correct":true,"confidence":4},{"trial_n":112,"min":92,"max":163,"target":"absent","response":"absent","rt":794.90000003576,"correct":true,"confidence":5},{"trial_n":113,"min":93,"max":162,"target":"present","response":"present","rt":1223.3999999762,"correct":true,"confidence":2},{"trial_n":114,"min":93,"max":162,"target":"present","response":"present","rt":615.29999995232,"correct":true,"confidence":3},{"trial_n":115,"min":94,"max":161,"target":"absent","response":"absent","rt":720.39999997616,"correct":true,"confidence":2},{"trial_n":116,"min":94,"max":161,"target":"present","response":"present","rt":372.30000001192,"correct":true,"confidence":3},{"trial_n":117,"min":95,"max":160,"target":"absent","response":"absent","rt":1476.8000000119,"correct":true,"confidence":2},{"trial_n":118,"min":95,"max":160,"target":"absent","response":"present","rt":353.79999995232,"correct":false,"confidence":2},{"trial_n":119,"min":94,"max":161,"target":"present","response":"present","rt":636.89999997616,"correct":true,"confidence":2},{"trial_n":120,"min":94,"max":161,"target":"present","response":"present","rt":543.5,"correct":true,"confidence":2},{"trial_n":121,"min":95,"max":160,"target":"absent","response":"present","rt":489.90000003576,"correct":false,"confidence":3},{"trial_n":122,"min":94,"max":161,"target":"absent","response":"absent","rt":2232.6999999881,"correct":true,"confidence":2},{"trial_n":123,"min":94,"max":161,"target":"absent","response":"absent","rt":539.89999997616,"correct":true,"confidence":4},{"trial_n":124,"min":95,"max":160,"target":"absent","response":"absent","rt":983.60000002384,"correct":true,"confidence":4},{"trial_n":125,"min":95,"max":160,"target":"absent","response":"absent","rt":342.30000001192,"correct":true,"confidence":4},{"trial_n":126,"min":96,"max":159,"target":"absent","response":"present","rt":550.19999998808,"correct":false,"confidence":3},{"trial_n":127,"min":95,"max":160,"target":"present","response":"present","rt":236,"correct":true,"confidence":4},{"trial_n":128,"min":95,"max":160,"target":"absent","response":"present","rt":848.69999998808,"correct":false,"confidence":3},{"trial_n":129,"min":94,"max":161,"target":"present","response":"present","rt":1600.6000000238,"correct":true,"confidence":3},{"trial_n":130,"min":94,"max":161,"target":"absent","response":"absent","rt":359.90000003576,"correct":true,"confidence":4},{"trial_n":131,"min":95,"max":160,"target":"present","response":"present","rt":539.90000003576,"correct":true,"confidence":2},{"trial_n":132,"min":95,"max":160,"target":"present","response":"present","rt":253.30000001192,"correct":true,"confidence":5},{"trial_n":133,"min":96,"max":159,"target":"absent","response":"present","rt":590.5,"correct":false,"confidence":3},{"trial_n":134,"min":95,"max":160,"target":"absent","response":"present","rt":267.10000002384,"correct":false,"confidence":4},{"trial_n":135,"min":94,"max":161,"target":"present","response":"present","rt":465.60000002384,"correct":true,"confidence":3},{"trial_n":136,"min":94,"max":161,"target":"absent","response":"present","rt":1605.3000000119,"correct":false,"confidence":2},{"trial_n":137,"min":93,"max":162,"target":"present","response":"absent","rt":870.19999998808,"correct":false,"confidence":2},{"trial_n":138,"min":92,"max":163,"target":"absent","response":"present","rt":335.70000004768,"correct":false,"confidence":3},{"trial_n":139,"min":91,"max":164,"target":"absent","response":"present","rt":373.5,"correct":false,"confidence":2},{"trial_n":140,"min":90,"max":165,"target":"absent","response":"absent","rt":814.39999997616,"correct":true,"confidence":4}]