[{"trial_n":1,"span":8,"encoder":"11611179","distractor":"15611179","target":"present","response":"present","rt":"4947.2999999523","correct":true,"confidence":-1},{"trial_n":2,"span":8,"encoder":"07225178","distractor":"07225179","target":"present","response":"present","rt":"2472.5","correct":true,"confidence":-1},{"trial_n":3,"span":10,"encoder":"1118167091","distractor":"1618167091","target":"absent","response":"absent","rt":"1877.1999999881","correct":true,"confidence":-1},{"trial_n":4,"span":10,"encoder":"9778919363","distractor":"9771919363","target":"absent","response":"absent","rt":"2902.5","correct":true,"confidence":-1},{"trial_n":5,"span":12,"encoder":"406184162235","distractor":"406189162235","target":"present","response":"present","rt":"4410.8999999762","correct":true,"confidence":-1},{"trial_n":6,"span":12,"encoder":"979219988600","distractor":"969219988600","target":"absent","response":"absent","rt":"2066.6999999881","correct":true,"confidence":-1},{"trial_n":7,"span":14,"encoder":"56983827365157","distractor":"56983827385157","target":"absent","response":"absent","rt":"4253.1999999881","correct":true,"confidence":-1},{"trial_n":8,"span":14,"encoder":"90104236622947","distractor":"90104236622927","target":"absent","response":"present","rt":"5030.7000000477","correct":false,"confidence":-1},{"trial_n":9,"span":12,"encoder":"634755621287","distractor":"634755621987","target":"present","response":"present","rt":"3336.5","correct":true,"confidence":-1},{"trial_n":10,"span":12,"encoder":"551164692736","distractor":"051164692736","target":"present","response":"absent","rt":"4888.2999999523","correct":false,"confidence":-1},{"trial_n":11,"span":10,"encoder":"6554185020","distractor":"7554185020","target":"absent","response":"present","rt":"1569.6000000238","correct":false,"confidence":-1},{"trial_n":12,"span":9,"encoder":"150873608","distractor":"150873638","target":"present","response":"present","rt":"2501.1999999881","correct":true,"confidence":-1},{"trial_n":13,"span":9,"encoder":"342546280","distractor":"302546280","target":"absent","response":"present","rt":"4827.8000000119","correct":false,"confidence":-1},{"trial_n":14,"span":8,"encoder":"78211270","distractor":"70211270","target":"present","response":"present","rt":"1971.9000000358","correct":true,"confidence":-1},{"trial_n":15,"span":8,"encoder":"79064492","distractor":"29064492","target":"present","response":"present","rt":"1685","correct":true,"confidence":-1},{"trial_n":16,"span":9,"encoder":"327748599","distractor":"327748899","target":"absent","response":"absent","rt":"1391.8999999762","correct":true,"confidence":-1},{"trial_n":17,"span":9,"encoder":"139181008","distractor":"139101008","target":"absent","response":"present","rt":"2726.1999999881","correct":false,"confidence":-1},{"trial_n":18,"span":8,"encoder":"03926278","distractor":"03926978","target":"absent","response":"present","rt":"2266.5","correct":false,"confidence":-1},{"trial_n":19,"span":7,"encoder":"0618071","distractor":"0618271","target":"absent","response":"absent","rt":"10096.799999952","correct":true,"confidence":-1},{"trial_n":20,"span":7,"encoder":"7533423","distractor":"7533427","target":"absent","response":"present","rt":"1508.5999999642","correct":false,"confidence":-1},{"trial_n":21,"span":6,"encoder":"910717","distractor":"910417","target":"absent","response":"absent","rt":"3501","correct":true,"confidence":4},{"trial_n":22,"span":6,"encoder":"389554","distractor":"589554","target":"absent","response":"present","rt":"1723.3999999762","correct":false,"confidence":5},{"trial_n":23,"span":5,"encoder":"27655","distractor":"27656","target":"present","response":"present","rt":"1865.3999999762","correct":true,"confidence":5},{"trial_n":24,"span":5,"encoder":"43217","distractor":"43917","target":"absent","response":"absent","rt":"1846","correct":true,"confidence":5},{"trial_n":25,"span":6,"encoder":"179032","distractor":"176032","target":"absent","response":"absent","rt":"1583.4000000358","correct":true,"confidence":5},{"trial_n":26,"span":6,"encoder":"325173","distractor":"328173","target":"present","response":"present","rt":"2069.4000000358","correct":true,"confidence":5},{"trial_n":27,"span":7,"encoder":"3839956","distractor":"3837956","target":"absent","response":"absent","rt":"1654.1999999881","correct":true,"confidence":5},{"trial_n":28,"span":7,"encoder":"2897229","distractor":"2897279","target":"absent","response":"absent","rt":"2070.5","correct":true,"confidence":5},{"trial_n":29,"span":8,"encoder":"38183068","distractor":"38184068","target":"present","response":"present","rt":"2440.8999999762","correct":true,"confidence":4},{"trial_n":30,"span":8,"encoder":"15745108","distractor":"11745108","target":"present","response":"present","rt":"4861.2000000477","correct":true,"confidence":4},{"trial_n":31,"span":9,"encoder":"971552751","distractor":"901552751","target":"present","response":"present","rt":"7941.2999999523","correct":true,"confidence":5},{"trial_n":32,"span":9,"encoder":"233862905","distractor":"233866905","target":"present","response":"present","rt":"5733.6999999881","correct":true,"confidence":4},{"trial_n":33,"span":10,"encoder":"1057838453","distractor":"1657838453","target":"present","response":"present","rt":"5346","correct":true,"confidence":4},{"trial_n":34,"span":10,"encoder":"0516537541","distractor":"0514537541","target":"absent","response":"absent","rt":"5070.1999999881","correct":true,"confidence":3},{"trial_n":35,"span":11,"encoder":"48610344064","distractor":"48010344064","target":"present","response":"present","rt":"8159.8000000119","correct":true,"confidence":4},{"trial_n":36,"span":11,"encoder":"98560335795","distractor":"98160335795","target":"present","response":"present","rt":"7322.4000000358","correct":true,"confidence":4},{"trial_n":37,"span":12,"encoder":"927247969646","distractor":"922247969646","target":"present","response":"present","rt":"5237.5","correct":true,"confidence":3},{"trial_n":38,"span":12,"encoder":"093821116821","distractor":"093841116821","target":"absent","response":"absent","rt":"2645.6000000238","correct":true,"confidence":3},{"trial_n":39,"span":13,"encoder":"0124069006108","distractor":"0127069006108","target":"present","response":"present","rt":"4859.3000000119","correct":true,"confidence":3},{"trial_n":40,"span":13,"encoder":"1172862730743","distractor":"1772862730743","target":"absent","response":"present","rt":"1740.6999999881","correct":false,"confidence":2},{"trial_n":41,"span":12,"encoder":"500983574542","distractor":"500983574842","target":"absent","response":"present","rt":"1997.6000000238","correct":false,"confidence":3},{"trial_n":42,"span":11,"encoder":"76303399261","distractor":"76363399261","target":"absent","response":"absent","rt":"2876.5","correct":true,"confidence":2},{"trial_n":43,"span":11,"encoder":"19832460819","distractor":"19832460119","target":"present","response":"absent","rt":"9455.3000000119","correct":false,"confidence":2},{"trial_n":44,"span":10,"encoder":"3690877937","distractor":"3690867937","target":"present","response":"present","rt":"2514.1999999881","correct":true,"confidence":2},{"trial_n":45,"span":10,"encoder":"1433302291","distractor":"1433302293","target":"absent","response":"present","rt":"3047.1999999881","correct":false,"confidence":3},{"trial_n":46,"span":9,"encoder":"756276572","distractor":"756276472","target":"present","response":"present","rt":"1648.0999999642","correct":true,"confidence":3},{"trial_n":47,"span":9,"encoder":"596592369","distractor":"596552369","target":"present","response":"present","rt":"2308.6000000238","correct":true,"confidence":2},{"trial_n":48,"span":10,"encoder":"7514691938","distractor":"7514891938","target":"absent","response":"present","rt":"3145.2000000477","correct":false,"confidence":2},{"trial_n":49,"span":9,"encoder":"545574949","distractor":"545574549","target":"absent","response":"absent","rt":"2227.2000000477","correct":true,"confidence":2},{"trial_n":50,"span":9,"encoder":"393771561","distractor":"393771566","target":"present","response":"present","rt":"3413.5","correct":true,"confidence":2},{"trial_n":51,"span":10,"encoder":"3749805426","distractor":"3749005426","target":"present","response":"present","rt":"2186.5","correct":true,"confidence":3},{"trial_n":52,"span":10,"encoder":"6023996118","distractor":"6023993118","target":"present","response":"present","rt":"3267.5","correct":true,"confidence":4},{"trial_n":53,"span":11,"encoder":"83637877545","distractor":"83637877505","target":"absent","response":"absent","rt":"5581.7999999523","correct":true,"confidence":3},{"trial_n":54,"span":11,"encoder":"01007230401","distractor":"01007234401","target":"present","response":"present","rt":"2996.0999999642","correct":true,"confidence":3},{"trial_n":55,"span":12,"encoder":"308582288580","distractor":"508582288580","target":"absent","response":"absent","rt":"2528.9000000358","correct":true,"confidence":2},{"trial_n":56,"span":12,"encoder":"560600109792","distractor":"760600109792","target":"present","response":"present","rt":"5446.1999999881","correct":true,"confidence":2},{"trial_n":57,"span":13,"encoder":"4889613142313","distractor":"4489613142313","target":"absent","response":"absent","rt":"3175.1000000238","correct":true,"confidence":3},{"trial_n":58,"span":13,"encoder":"0362785727081","distractor":"0362785727281","target":"absent","response":"present","rt":"4756.4000000358","correct":false,"confidence":3},{"trial_n":59,"span":12,"encoder":"617184800348","distractor":"617184820348","target":"present","response":"present","rt":"3220.1000000238","correct":true,"confidence":4},{"trial_n":60,"span":12,"encoder":"341185559278","distractor":"341585559278","target":"absent","response":"absent","rt":"2694.5","correct":true,"confidence":2},{"trial_n":61,"span":13,"encoder":"0611047688632","distractor":"0611047588632","target":"present","response":"absent","rt":"6858.6000000238","correct":false,"confidence":2},{"trial_n":62,"span":12,"encoder":"720852892459","distractor":"720852892479","target":"present","response":"absent","rt":"2662.2000000477","correct":false,"confidence":2},{"trial_n":63,"span":11,"encoder":"02092793781","distractor":"02082793781","target":"absent","response":"absent","rt":"6129.2999999523","correct":true,"confidence":4},{"trial_n":64,"span":11,"encoder":"59760798960","distractor":"59760788960","target":"present","response":"present","rt":"3683.4000000358","correct":true,"confidence":3},{"trial_n":65,"span":12,"encoder":"799188575814","distractor":"799188572814","target":"absent","response":"absent","rt":"4410.3000000119","correct":true,"confidence":1},{"trial_n":66,"span":12,"encoder":"909561452637","distractor":"909561453637","target":"present","response":"present","rt":"1958.6000000238","correct":true,"confidence":2},{"trial_n":67,"span":13,"encoder":"9884602625954","distractor":"9804602625954","target":"absent","response":"present","rt":"5088.1000000238","correct":false,"confidence":3},{"trial_n":68,"span":12,"encoder":"736432397243","distractor":"736432396243","target":"present","response":"absent","rt":"3502.8000000119","correct":false,"confidence":2},{"trial_n":69,"span":11,"encoder":"23923043226","distractor":"53923043226","target":"present","response":"absent","rt":"18181.300000012","correct":false,"confidence":1},{"trial_n":70,"span":10,"encoder":"8752541566","distractor":"8755541566","target":"present","response":"absent","rt":"72452.5","correct":false,"confidence":2},{"trial_n":71,"span":8,"encoder":"65761951","distractor":"65761751","target":"present","response":"present","rt":"6430.5","correct":true,"confidence":-1},{"trial_n":72,"span":8,"encoder":"74206044","distractor":"74216044","target":"present","response":"present","rt":"5036.1000000238","correct":true,"confidence":-1},{"trial_n":73,"span":9,"encoder":"595116328","distractor":"395116328","target":"absent","response":"absent","rt":"2675.1999999881","correct":true,"confidence":-1},{"trial_n":74,"span":9,"encoder":"701632755","distractor":"701932755","target":"absent","response":"absent","rt":"3628.5999999642","correct":true,"confidence":-1},{"trial_n":75,"span":10,"encoder":"9419038497","distractor":"9419038495","target":"present","response":"absent","rt":"6803.3000000119","correct":false,"confidence":-1},{"trial_n":76,"span":9,"encoder":"558936940","distractor":"558936949","target":"absent","response":"present","rt":"4661.6000000238","correct":false,"confidence":-1},{"trial_n":77,"span":8,"encoder":"85971389","distractor":"85171389","target":"present","response":"absent","rt":"5042.3999999762","correct":false,"confidence":-1},{"trial_n":78,"span":7,"encoder":"7780291","distractor":"6780291","target":"present","response":"present","rt":"1979.8000000119","correct":true,"confidence":-1},{"trial_n":79,"span":7,"encoder":"0589709","distractor":"0589704","target":"absent","response":"present","rt":"3042.3999999762","correct":false,"confidence":-1},{"trial_n":80,"span":6,"encoder":"027604","distractor":"027684","target":"present","response":"present","rt":"3201.3000000119","correct":true,"confidence":-1},{"trial_n":81,"span":6,"encoder":"966191","distractor":"966991","target":"absent","response":"absent","rt":"7032.5999999642","correct":true,"confidence":-1},{"trial_n":82,"span":7,"encoder":"5996666","distractor":"5986666","target":"absent","response":"absent","rt":"2086.5999999642","correct":true,"confidence":-1},{"trial_n":83,"span":7,"encoder":"4400827","distractor":"4407827","target":"present","response":"present","rt":"2211.8000000119","correct":true,"confidence":-1},{"trial_n":84,"span":8,"encoder":"73412467","distractor":"73412465","target":"present","response":"present","rt":"5210","correct":true,"confidence":-1},{"trial_n":85,"span":8,"encoder":"41468710","distractor":"41468712","target":"absent","response":"absent","rt":"3583.8999999762","correct":true,"confidence":-1},{"trial_n":86,"span":9,"encoder":"518582209","distractor":"518587209","target":"present","response":"absent","rt":"4482.8000000119","correct":false,"confidence":-1},{"trial_n":87,"span":8,"encoder":"51601527","distractor":"51691527","target":"absent","response":"absent","rt":"3520.8000000119","correct":true,"confidence":-1},{"trial_n":88,"span":8,"encoder":"75430427","distractor":"75439427","target":"present","response":"present","rt":"2080.5","correct":true,"confidence":-1},{"trial_n":89,"span":9,"encoder":"930706565","distractor":"930746565","target":"absent","response":"absent","rt":"7608.2000000477","correct":true,"confidence":-1},{"trial_n":90,"span":9,"encoder":"293523809","distractor":"293563809","target":"present","response":"absent","rt":"2654","correct":false,"confidence":-1},{"trial_n":91,"span":8,"encoder":"18737021","distractor":"18737221","target":"absent","response":"absent","rt":"5320.0999999642","correct":true,"confidence":4},{"trial_n":92,"span":8,"encoder":"60898791","distractor":"60892791","target":"absent","response":"absent","rt":"5195.3999999762","correct":true,"confidence":4},{"trial_n":93,"span":9,"encoder":"360947801","distractor":"360947809","target":"present","response":"present","rt":"1370.8999999762","correct":true,"confidence":2},{"trial_n":94,"span":9,"encoder":"398613993","distractor":"698613993","target":"absent","response":"present","rt":"14388.300000012","correct":false,"confidence":2},{"trial_n":95,"span":8,"encoder":"58945842","distractor":"38945842","target":"present","response":"present","rt":"9725","correct":true,"confidence":5},{"trial_n":96,"span":8,"encoder":"16244510","distractor":"16234510","target":"present","response":"present","rt":"3625.6999999881","correct":true,"confidence":4},{"trial_n":97,"span":9,"encoder":"542271587","distractor":"542271527","target":"absent","response":"present","rt":"7665.6999999881","correct":false,"confidence":4},{"trial_n":98,"span":8,"encoder":"02465860","distractor":"02465862","target":"present","response":"present","rt":"5835.6999999881","correct":true,"confidence":2},{"trial_n":99,"span":8,"encoder":"95711732","distractor":"95711752","target":"present","response":"absent","rt":"5500.0999999642","correct":false,"confidence":2},{"trial_n":100,"span":7,"encoder":"1426758","distractor":"1428758","target":"absent","response":"present","rt":"4356.6999999881","correct":false,"confidence":4},{"trial_n":101,"span":6,"encoder":"645051","distractor":"445051","target":"present","response":"absent","rt":"3598.5","correct":false,"confidence":5},{"trial_n":102,"span":5,"encoder":"80217","distractor":"80257","target":"absent","response":"present","rt":"3062.0999999642","correct":false,"confidence":4},{"trial_n":103,"span":4,"encoder":"0229","distractor":"0223","target":"absent","response":"absent","rt":"1901.5","correct":true,"confidence":5},{"trial_n":104,"span":4,"encoder":"1156","distractor":"1136","target":"absent","response":"absent","rt":"1643.0999999642","correct":true,"confidence":5},{"trial_n":105,"span":5,"encoder":"18793","distractor":"16793","target":"absent","response":"absent","rt":"1564.8000000119","correct":true,"confidence":5},{"trial_n":106,"span":5,"encoder":"31949","distractor":"11949","target":"present","response":"present","rt":"2120.8000000119","correct":true,"confidence":5},{"trial_n":107,"span":6,"encoder":"513306","distractor":"503306","target":"absent","response":"absent","rt":"1928.6000000238","correct":true,"confidence":5},{"trial_n":108,"span":6,"encoder":"311510","distractor":"311610","target":"absent","response":"absent","rt":"3315.8000000119","correct":true,"confidence":5},{"trial_n":109,"span":7,"encoder":"8927071","distractor":"8925071","target":"absent","response":"absent","rt":"2478.1999999881","correct":true,"confidence":5},{"trial_n":110,"span":7,"encoder":"7902088","distractor":"7902988","target":"present","response":"present","rt":"2932.9000000358","correct":true,"confidence":5},{"trial_n":111,"span":8,"encoder":"10682262","distractor":"40682262","target":"absent","response":"absent","rt":"2107.5","correct":true,"confidence":5},{"trial_n":112,"span":8,"encoder":"85074075","distractor":"85974075","target":"absent","response":"absent","rt":"3726.8000000119","correct":true,"confidence":5},{"trial_n":113,"span":9,"encoder":"477057360","distractor":"477857360","target":"present","response":"present","rt":"2465.3000000119","correct":true,"confidence":5},{"trial_n":114,"span":9,"encoder":"463328153","distractor":"463358153","target":"absent","response":"absent","rt":"7922.5","correct":true,"confidence":4},{"trial_n":115,"span":10,"encoder":"7997990950","distractor":"7497990950","target":"present","response":"present","rt":"5517.4000000358","correct":true,"confidence":5},{"trial_n":116,"span":10,"encoder":"2811493200","distractor":"2811497200","target":"present","response":"present","rt":"4958.4000000358","correct":true,"confidence":4},{"trial_n":117,"span":11,"encoder":"71694142131","distractor":"71694142191","target":"present","response":"present","rt":"4902.7000000477","correct":true,"confidence":2},{"trial_n":118,"span":11,"encoder":"77451179653","distractor":"77451179657","target":"present","response":"present","rt":"2317.3000000119","correct":true,"confidence":3},{"trial_n":119,"span":12,"encoder":"900791335829","distractor":"900791335869","target":"present","response":"present","rt":"7165.3000000119","correct":true,"confidence":2},{"trial_n":120,"span":12,"encoder":"375116691289","distractor":"375916691289","target":"absent","response":"absent","rt":"12132.699999988","correct":true,"confidence":3},{"trial_n":121,"span":13,"encoder":"8523162530799","distractor":"0523162530799","target":"absent","response":"absent","rt":"4263.8000000119","correct":true,"confidence":5},{"trial_n":122,"span":13,"encoder":"7050551966464","distractor":"7055551966464","target":"present","response":"present","rt":"5404.1999999881","correct":true,"confidence":5},{"trial_n":123,"span":14,"encoder":"49752157539119","distractor":"29752157539119","target":"absent","response":"present","rt":"4515","correct":false,"confidence":4},{"trial_n":124,"span":13,"encoder":"2370304384278","distractor":"2170304384278","target":"present","response":"present","rt":"4029.1999999881","correct":true,"confidence":5},{"trial_n":125,"span":13,"encoder":"3083665741487","distractor":"3081665741487","target":"present","response":"absent","rt":"8327.5","correct":false,"confidence":3},{"trial_n":126,"span":12,"encoder":"937256058789","distractor":"937256058729","target":"absent","response":"absent","rt":"5090.3999999762","correct":true,"confidence":2},{"trial_n":127,"span":12,"encoder":"697082422068","distractor":"697082421068","target":"present","response":"absent","rt":"6854","correct":false,"confidence":4},{"trial_n":128,"span":11,"encoder":"31722795593","distractor":"35722795593","target":"absent","response":"absent","rt":"3213.5999999642","correct":true,"confidence":5},{"trial_n":129,"span":11,"encoder":"76232198034","distractor":"76282198034","target":"absent","response":"absent","rt":"2763.1999999881","correct":true,"confidence":5},{"trial_n":130,"span":12,"encoder":"401682973073","distractor":"401682973973","target":"present","response":"present","rt":"8030","correct":true,"confidence":4},{"trial_n":131,"span":12,"encoder":"344428495100","distractor":"344428495101","target":"present","response":"absent","rt":"6431.7999999523","correct":false,"confidence":3},{"trial_n":132,"span":11,"encoder":"64608519386","distractor":"64600519386","target":"present","response":"present","rt":"5959.6999999881","correct":true,"confidence":4},{"trial_n":133,"span":11,"encoder":"08456029347","distractor":"08456829347","target":"absent","response":"absent","rt":"5770.6000000238","correct":true,"confidence":3},{"trial_n":134,"span":12,"encoder":"353096833179","distractor":"353036833179","target":"absent","response":"absent","rt":"6050.1000000238","correct":true,"confidence":3},{"trial_n":135,"span":12,"encoder":"454259917468","distractor":"454259919468","target":"present","response":"present","rt":"5681.3000000119","correct":true,"confidence":3},{"trial_n":136,"span":13,"encoder":"3938461786286","distractor":"3938061786286","target":"absent","response":"present","rt":"6449.6999999881","correct":false,"confidence":5},{"trial_n":137,"span":12,"encoder":"731557488657","distractor":"731757488657","target":"present","response":"present","rt":"5125.1999999881","correct":true,"confidence":5},{"trial_n":138,"span":12,"encoder":"350130445795","distractor":"350133445795","target":"present","response":"present","rt":"9070.6999999881","correct":true,"confidence":5},{"trial_n":139,"span":13,"encoder":"0754841338743","distractor":"0954841338743","target":"present","response":"present","rt":"5768.1000000238","correct":true,"confidence":1},{"trial_n":140,"span":13,"encoder":"8454727965171","distractor":"8454797965171","target":"absent","response":"present","rt":"8603.5","correct":false,"confidence":2}]