[{"trial_n":1,"span":8,"encoder":"95956568","distractor":"95957568","target":"present","response":"absent","rt":"3815","correct":false,"confidence":-1},{"trial_n":2,"span":6,"encoder":"475540","distractor":"425540","target":"present","response":"present","rt":"1303","correct":true,"confidence":-1},{"trial_n":3,"span":6,"encoder":"142986","distractor":"042986","target":"absent","response":"absent","rt":"806.99999999999","correct":true,"confidence":-1},{"trial_n":4,"span":8,"encoder":"92694309","distractor":"92694399","target":"absent","response":"present","rt":"1922","correct":false,"confidence":-1},{"trial_n":5,"span":6,"encoder":"329758","distractor":"329708","target":"present","response":"absent","rt":"653.00000000001","correct":false,"confidence":-1},{"trial_n":6,"span":4,"encoder":"7374","distractor":"7377","target":"present","response":"present","rt":"593","correct":true,"confidence":-1},{"trial_n":7,"span":4,"encoder":"6936","distractor":"6916","target":"present","response":"present","rt":"486","correct":true,"confidence":-1},{"trial_n":8,"span":6,"encoder":"935427","distractor":"635427","target":"absent","response":"present","rt":"516","correct":false,"confidence":-1},{"trial_n":9,"span":4,"encoder":"1099","distractor":"1999","target":"present","response":"present","rt":"1583","correct":true,"confidence":-1},{"trial_n":10,"span":4,"encoder":"7217","distractor":"7215","target":"absent","response":"present","rt":"1617","correct":false,"confidence":-1},{"trial_n":11,"span":2,"encoder":"62","distractor":"60","target":"absent","response":"absent","rt":"2105","correct":true,"confidence":-1},{"trial_n":12,"span":2,"encoder":"23","distractor":"63","target":"absent","response":"absent","rt":"1529","correct":true,"confidence":-1},{"trial_n":13,"span":3,"encoder":"840","distractor":"850","target":"absent","response":"present","rt":"808.00000000001","correct":false,"confidence":-1},{"trial_n":14,"span":2,"encoder":"68","distractor":"18","target":"absent","response":"present","rt":"1241","correct":false,"confidence":-1},{"trial_n":15,"span":2,"encoder":"06","distractor":"03","target":"absent","response":"present","rt":"921","correct":false,"confidence":-1},{"trial_n":16,"span":2,"encoder":"47","distractor":"43","target":"present","response":"present","rt":"1115","correct":true,"confidence":-1},{"trial_n":17,"span":2,"encoder":"60","distractor":"65","target":"present","response":"present","rt":"641","correct":true,"confidence":-1},{"trial_n":18,"span":3,"encoder":"520","distractor":"527","target":"absent","response":"absent","rt":"918.00000000001","correct":true,"confidence":-1},{"trial_n":19,"span":3,"encoder":"678","distractor":"638","target":"absent","response":"present","rt":"433","correct":false,"confidence":-1},{"trial_n":20,"span":2,"encoder":"23","distractor":"20","target":"present","response":"present","rt":"659","correct":true,"confidence":-1},{"trial_n":21,"span":2,"encoder":"77","distractor":"17","target":"absent","response":"absent","rt":"2656","correct":true,"confidence":5},{"trial_n":22,"span":3,"encoder":"646","distractor":"649","target":"present","response":"present","rt":"1210","correct":true,"confidence":5},{"trial_n":23,"span":3,"encoder":"805","distractor":"855","target":"present","response":"present","rt":"1191","correct":true,"confidence":5},{"trial_n":24,"span":4,"encoder":"4752","distractor":"5752","target":"absent","response":"absent","rt":"1465","correct":true,"confidence":5},{"trial_n":25,"span":4,"encoder":"8977","distractor":"8917","target":"present","response":"present","rt":"1659","correct":true,"confidence":5},{"trial_n":26,"span":5,"encoder":"76224","distractor":"76294","target":"present","response":"present","rt":"1727","correct":true,"confidence":5},{"trial_n":27,"span":5,"encoder":"98264","distractor":"98265","target":"present","response":"present","rt":"3183","correct":true,"confidence":5},{"trial_n":28,"span":6,"encoder":"661592","distractor":"668592","target":"absent","response":"absent","rt":"3079","correct":true,"confidence":5},{"trial_n":29,"span":6,"encoder":"956025","distractor":"952025","target":"absent","response":"absent","rt":"6230","correct":true,"confidence":3},{"trial_n":30,"span":7,"encoder":"7376537","distractor":"7376737","target":"present","response":"present","rt":"2832","correct":true,"confidence":5},{"trial_n":31,"span":7,"encoder":"6270124","distractor":"6230124","target":"absent","response":"absent","rt":"2219","correct":true,"confidence":4},{"trial_n":32,"span":8,"encoder":"86681018","distractor":"86681011","target":"absent","response":"absent","rt":"3004","correct":true,"confidence":5},{"trial_n":33,"span":8,"encoder":"56151978","distractor":"56151948","target":"present","response":"present","rt":"2509","correct":true,"confidence":5},{"trial_n":34,"span":9,"encoder":"638761447","distractor":"630761447","target":"present","response":"present","rt":"2698","correct":true,"confidence":5},{"trial_n":35,"span":9,"encoder":"241248422","distractor":"241948422","target":"absent","response":"absent","rt":"4226","correct":true,"confidence":4},{"trial_n":36,"span":10,"encoder":"0901225105","distractor":"0901227105","target":"absent","response":"absent","rt":"4236","correct":true,"confidence":3},{"trial_n":37,"span":10,"encoder":"9229416523","distractor":"9229476523","target":"present","response":"present","rt":"3302","correct":true,"confidence":4},{"trial_n":38,"span":11,"encoder":"13369222901","distractor":"13369222401","target":"present","response":"present","rt":"3642","correct":true,"confidence":4},{"trial_n":39,"span":11,"encoder":"98064190564","distractor":"98064190554","target":"present","response":"absent","rt":"4419","correct":false,"confidence":2},{"trial_n":40,"span":10,"encoder":"9363766395","distractor":"9363776395","target":"present","response":"absent","rt":"4349","correct":false,"confidence":2},{"trial_n":41,"span":9,"encoder":"159536411","distractor":"159736411","target":"absent","response":"absent","rt":"3899","correct":true,"confidence":3},{"trial_n":42,"span":9,"encoder":"982771514","distractor":"982771518","target":"absent","response":"absent","rt":"3490","correct":true,"confidence":5},{"trial_n":43,"span":10,"encoder":"9628145466","distractor":"2628145466","target":"present","response":"present","rt":"3638","correct":true,"confidence":4},{"trial_n":44,"span":10,"encoder":"5410618663","distractor":"5418618663","target":"present","response":"present","rt":"4405","correct":true,"confidence":3},{"trial_n":45,"span":11,"encoder":"82714762344","distractor":"82714762744","target":"absent","response":"present","rt":"8574.9999999999","correct":false,"confidence":2},{"trial_n":46,"span":10,"encoder":"3334103850","distractor":"3334903850","target":"present","response":"present","rt":"3340.9999999999","correct":true,"confidence":4},{"trial_n":47,"span":10,"encoder":"9349027438","distractor":"9349127438","target":"present","response":"present","rt":"3464","correct":true,"confidence":4},{"trial_n":48,"span":11,"encoder":"46667775513","distractor":"46367775513","target":"present","response":"present","rt":"4482","correct":true,"confidence":3},{"trial_n":49,"span":11,"encoder":"57927190939","distractor":"57227190939","target":"absent","response":"present","rt":"5148","correct":false,"confidence":2},{"trial_n":50,"span":10,"encoder":"6422234577","distractor":"0422234577","target":"present","response":"present","rt":"3606","correct":true,"confidence":5},{"trial_n":51,"span":10,"encoder":"8686145915","distractor":"8686141915","target":"absent","response":"absent","rt":"4750","correct":true,"confidence":5},{"trial_n":52,"span":11,"encoder":"71537357199","distractor":"71537357699","target":"absent","response":"absent","rt":"5418","correct":true,"confidence":4},{"trial_n":53,"span":11,"encoder":"49557313963","distractor":"49057313963","target":"absent","response":"absent","rt":"3805.9999999999","correct":true,"confidence":3},{"trial_n":54,"span":12,"encoder":"187538127818","distractor":"187538120818","target":"present","response":"present","rt":"4187","correct":true,"confidence":2},{"trial_n":55,"span":12,"encoder":"764117252231","distractor":"764117253231","target":"absent","response":"absent","rt":"4469","correct":true,"confidence":4},{"trial_n":56,"span":13,"encoder":"7835914910756","distractor":"7835814910756","target":"absent","response":"absent","rt":"2873.0000000001","correct":true,"confidence":2},{"trial_n":57,"span":13,"encoder":"1493307779558","distractor":"1293307779558","target":"absent","response":"present","rt":"4670.9999999999","correct":false,"confidence":2},{"trial_n":58,"span":12,"encoder":"490360741294","distractor":"490363741294","target":"absent","response":"absent","rt":"4437","correct":true,"confidence":1},{"trial_n":59,"span":12,"encoder":"759569522146","distractor":"759569122146","target":"absent","response":"present","rt":"5114","correct":false,"confidence":2},{"trial_n":60,"span":11,"encoder":"90222138128","distractor":"90222138148","target":"absent","response":"absent","rt":"4554.0000000001","correct":true,"confidence":2},{"trial_n":61,"span":11,"encoder":"85876144439","distractor":"85876143439","target":"present","response":"present","rt":"2848.0000000001","correct":true,"confidence":3},{"trial_n":62,"span":12,"encoder":"587671751973","distractor":"587631751973","target":"absent","response":"absent","rt":"2794","correct":true,"confidence":1},{"trial_n":63,"span":12,"encoder":"933396754156","distractor":"933396754956","target":"present","response":"present","rt":"3838","correct":true,"confidence":3},{"trial_n":64,"span":13,"encoder":"4240151653203","distractor":"4240151653603","target":"present","response":"absent","rt":"5022","correct":false,"confidence":2},{"trial_n":65,"span":12,"encoder":"061683679577","distractor":"061683679277","target":"present","response":"present","rt":"4904","correct":true,"confidence":2},{"trial_n":66,"span":12,"encoder":"723937157457","distractor":"723937177457","target":"absent","response":"present","rt":"4400","correct":false,"confidence":3},{"trial_n":67,"span":11,"encoder":"03688511401","distractor":"06688511401","target":"present","response":"present","rt":"3947","correct":true,"confidence":3},{"trial_n":68,"span":11,"encoder":"48943074546","distractor":"78943074546","target":"present","response":"absent","rt":"3779","correct":false,"confidence":4},{"trial_n":69,"span":10,"encoder":"5233992693","distractor":"5231992693","target":"present","response":"present","rt":"3906.0000000001","correct":true,"confidence":4},{"trial_n":70,"span":10,"encoder":"9986733482","distractor":"9386733482","target":"present","response":"present","rt":"3388","correct":true,"confidence":2},{"trial_n":71,"span":8,"encoder":"29285725","distractor":"29283725","target":"present","response":"present","rt":"9278","correct":true,"confidence":-1},{"trial_n":72,"span":8,"encoder":"50347638","distractor":"50347636","target":"present","response":"present","rt":"6089","correct":true,"confidence":-1},{"trial_n":73,"span":9,"encoder":"984227172","distractor":"984927172","target":"absent","response":"absent","rt":"6368","correct":true,"confidence":-1},{"trial_n":74,"span":9,"encoder":"305956867","distractor":"305926867","target":"absent","response":"absent","rt":"4677","correct":true,"confidence":-1},{"trial_n":75,"span":10,"encoder":"5920777934","distractor":"5920877934","target":"present","response":"absent","rt":"3489","correct":false,"confidence":-1},{"trial_n":76,"span":9,"encoder":"421927557","distractor":"421027557","target":"present","response":"absent","rt":"545.00000000012","correct":false,"confidence":-1},{"trial_n":77,"span":8,"encoder":"72964283","distractor":"72064283","target":"present","response":"absent","rt":"1401.0000000001","correct":false,"confidence":-1},{"trial_n":78,"span":7,"encoder":"8840701","distractor":"8840741","target":"present","response":"absent","rt":"820","correct":false,"confidence":-1},{"trial_n":79,"span":6,"encoder":"805680","distractor":"805080","target":"present","response":"absent","rt":"1578","correct":false,"confidence":-1},{"trial_n":80,"span":5,"encoder":"94216","distractor":"94218","target":"absent","response":"present","rt":"3222","correct":false,"confidence":-1},{"trial_n":81,"span":4,"encoder":"1900","distractor":"7900","target":"present","response":"absent","rt":"1615","correct":false,"confidence":-1},{"trial_n":82,"span":3,"encoder":"404","distractor":"484","target":"absent","response":"present","rt":"1929","correct":false,"confidence":-1},{"trial_n":83,"span":2,"encoder":"18","distractor":"11","target":"present","response":"absent","rt":"1485","correct":false,"confidence":-1},{"trial_n":84,"span":2,"encoder":"28","distractor":"78","target":"present","response":"absent","rt":"1046","correct":false,"confidence":-1},{"trial_n":85,"span":2,"encoder":"11","distractor":"61","target":"absent","response":"present","rt":"1462","correct":false,"confidence":-1},{"trial_n":86,"span":2,"encoder":"90","distractor":"96","target":"absent","response":"present","rt":"931","correct":false,"confidence":-1},{"trial_n":87,"span":2,"encoder":"11","distractor":"71","target":"present","response":"absent","rt":"1372.9999999999","correct":false,"confidence":-1},{"trial_n":88,"span":2,"encoder":"94","distractor":"84","target":"absent","response":"present","rt":"1343","correct":false,"confidence":-1},{"trial_n":89,"span":2,"encoder":"18","distractor":"11","target":"absent","response":"present","rt":"892","correct":false,"confidence":-1},{"trial_n":90,"span":2,"encoder":"61","distractor":"65","target":"present","response":"absent","rt":"1252.9999999999","correct":false,"confidence":-1},{"trial_n":91,"span":2,"encoder":"68","distractor":"98","target":"absent","response":"absent","rt":"1922.0000000001","correct":true,"confidence":5},{"trial_n":92,"span":2,"encoder":"93","distractor":"91","target":"absent","response":"absent","rt":"1508","correct":true,"confidence":5},{"trial_n":93,"span":3,"encoder":"816","distractor":"806","target":"present","response":"present","rt":"1484","correct":true,"confidence":5},{"trial_n":94,"span":3,"encoder":"013","distractor":"015","target":"absent","response":"absent","rt":"1348","correct":true,"confidence":5},{"trial_n":95,"span":4,"encoder":"6388","distractor":"6381","target":"present","response":"present","rt":"2417","correct":true,"confidence":5},{"trial_n":96,"span":4,"encoder":"8319","distractor":"6319","target":"absent","response":"absent","rt":"1467","correct":true,"confidence":5},{"trial_n":97,"span":5,"encoder":"47167","distractor":"47187","target":"absent","response":"absent","rt":"1934","correct":true,"confidence":5},{"trial_n":98,"span":5,"encoder":"64185","distractor":"64585","target":"present","response":"present","rt":"2430","correct":true,"confidence":5},{"trial_n":99,"span":6,"encoder":"275023","distractor":"775023","target":"present","response":"present","rt":"2041.0000000001","correct":true,"confidence":5},{"trial_n":100,"span":6,"encoder":"069781","distractor":"089781","target":"present","response":"present","rt":"3226","correct":true,"confidence":5},{"trial_n":101,"span":7,"encoder":"1210497","distractor":"7210497","target":"present","response":"present","rt":"3040","correct":true,"confidence":5},{"trial_n":102,"span":7,"encoder":"3003795","distractor":"5003795","target":"absent","response":"absent","rt":"1867","correct":true,"confidence":5},{"trial_n":103,"span":8,"encoder":"22142699","distractor":"22142689","target":"absent","response":"present","rt":"5943.0000000001","correct":false,"confidence":4},{"trial_n":104,"span":7,"encoder":"3508866","distractor":"3508816","target":"present","response":"present","rt":"4523","correct":true,"confidence":4},{"trial_n":105,"span":7,"encoder":"5935592","distractor":"5938592","target":"absent","response":"absent","rt":"2590.0000000001","correct":true,"confidence":5},{"trial_n":106,"span":8,"encoder":"53695781","distractor":"53695681","target":"present","response":"present","rt":"4160","correct":true,"confidence":5},{"trial_n":107,"span":8,"encoder":"74776770","distractor":"74776170","target":"present","response":"present","rt":"4573.0000000001","correct":true,"confidence":5},{"trial_n":108,"span":9,"encoder":"794398909","distractor":"594398909","target":"absent","response":"absent","rt":"3760","correct":true,"confidence":5},{"trial_n":109,"span":9,"encoder":"196115904","distractor":"193115904","target":"absent","response":"absent","rt":"3036.0000000001","correct":true,"confidence":5},{"trial_n":110,"span":10,"encoder":"2009474002","distractor":"2009074002","target":"present","response":"present","rt":"5548","correct":true,"confidence":3},{"trial_n":111,"span":10,"encoder":"0409650634","distractor":"1409650634","target":"absent","response":"absent","rt":"1750","correct":true,"confidence":5},{"trial_n":112,"span":11,"encoder":"19308710005","distractor":"19308810005","target":"present","response":"present","rt":"5775.9999999998","correct":true,"confidence":2},{"trial_n":113,"span":11,"encoder":"49171188890","distractor":"49171188820","target":"absent","response":"present","rt":"6062.9999999999","correct":false,"confidence":1},{"trial_n":114,"span":10,"encoder":"7679524660","distractor":"7679528660","target":"present","response":"present","rt":"3351","correct":true,"confidence":4},{"trial_n":115,"span":10,"encoder":"6402173442","distractor":"6402173942","target":"absent","response":"absent","rt":"4643","correct":true,"confidence":3},{"trial_n":116,"span":11,"encoder":"38822352856","distractor":"38823352856","target":"present","response":"present","rt":"4130","correct":true,"confidence":5},{"trial_n":117,"span":11,"encoder":"53199764592","distractor":"53199764692","target":"present","response":"absent","rt":"9103","correct":false,"confidence":2},{"trial_n":118,"span":10,"encoder":"6247549048","distractor":"6647549048","target":"absent","response":"absent","rt":"2263","correct":true,"confidence":5},{"trial_n":119,"span":10,"encoder":"7915854315","distractor":"7915814315","target":"absent","response":"absent","rt":"3979","correct":true,"confidence":1},{"trial_n":120,"span":11,"encoder":"45530473653","distractor":"55530473653","target":"absent","response":"absent","rt":"3575","correct":true,"confidence":4},{"trial_n":121,"span":11,"encoder":"04287975222","distractor":"04285975222","target":"absent","response":"absent","rt":"9009.0000000002","correct":true,"confidence":4},{"trial_n":122,"span":12,"encoder":"196160573470","distractor":"196160573430","target":"absent","response":"absent","rt":"5524","correct":true,"confidence":2},{"trial_n":123,"span":12,"encoder":"700407323967","distractor":"704407323967","target":"present","response":"absent","rt":"8277","correct":false,"confidence":3},{"trial_n":124,"span":11,"encoder":"47009596834","distractor":"47009599834","target":"absent","response":"absent","rt":"8351","correct":true,"confidence":2},{"trial_n":125,"span":11,"encoder":"58664113202","distractor":"58674113202","target":"present","response":"present","rt":"3911","correct":true,"confidence":4},{"trial_n":126,"span":12,"encoder":"449602708688","distractor":"449602708682","target":"absent","response":"absent","rt":"2566","correct":true,"confidence":5},{"trial_n":127,"span":12,"encoder":"957861582883","distractor":"957861582983","target":"absent","response":"absent","rt":"2303","correct":true,"confidence":5},{"trial_n":128,"span":13,"encoder":"7878733440814","distractor":"7878733440514","target":"absent","response":"absent","rt":"5788","correct":true,"confidence":1},{"trial_n":129,"span":13,"encoder":"1067107846619","distractor":"1067102846619","target":"present","response":"present","rt":"11481","correct":true,"confidence":4},{"trial_n":130,"span":14,"encoder":"21705481532773","distractor":"21705481532573","target":"present","response":"present","rt":"5594","correct":true,"confidence":5},{"trial_n":131,"span":14,"encoder":"51090173181007","distractor":"71090173181007","target":"absent","response":"absent","rt":"7226.0000000002","correct":true,"confidence":2},{"trial_n":132,"span":15,"encoder":"336837657324832","distractor":"336337657324832","target":"absent","response":"absent","rt":"6467","correct":true,"confidence":2},{"trial_n":133,"span":15,"encoder":"213032021014813","distractor":"213032021054813","target":"present","response":"absent","rt":"8796.9999999998","correct":false,"confidence":1},{"trial_n":134,"span":14,"encoder":"63622299393301","distractor":"63622299393303","target":"present","response":"absent","rt":"3823","correct":false,"confidence":1},{"trial_n":135,"span":13,"encoder":"3552687312658","distractor":"3552687312654","target":"present","response":"present","rt":"2356","correct":true,"confidence":5},{"trial_n":136,"span":13,"encoder":"3127864217395","distractor":"3127864218395","target":"absent","response":"absent","rt":"4609","correct":true,"confidence":4},{"trial_n":137,"span":14,"encoder":"84114554258370","distractor":"85114554258370","target":"present","response":"present","rt":"4925","correct":true,"confidence":2},{"trial_n":138,"span":14,"encoder":"80336709068226","distractor":"80338709068226","target":"present","response":"present","rt":"4919","correct":true,"confidence":3},{"trial_n":139,"span":15,"encoder":"039331378607425","distractor":"039331078607425","target":"present","response":"absent","rt":"5072","correct":false,"confidence":1},{"trial_n":140,"span":14,"encoder":"65722150921387","distractor":"62722150921387","target":"absent","response":"present","rt":"3776","correct":false,"confidence":1}]