[{"trial_n":1,"n_dots":4.25,"target":"right","response":"left","rt":8877.5,"correct":false,"confidence":-1},{"trial_n":2,"n_dots":4.25,"target":"left","response":"right","rt":1434.5,"correct":false,"confidence":-1},{"trial_n":3,"n_dots":4.65,"target":"right","response":"left","rt":1790.6000000238,"correct":false,"confidence":-1},{"trial_n":4,"n_dots":5.05,"target":"left","response":"left","rt":1334.7000000477,"correct":true,"confidence":-1},{"trial_n":5,"n_dots":5.05,"target":"left","response":"left","rt":320.40000009537,"correct":true,"confidence":-1},{"trial_n":6,"n_dots":4.65,"target":"right","response":"right","rt":816.30000007153,"correct":true,"confidence":-1},{"trial_n":7,"n_dots":4.65,"target":"left","response":"left","rt":-8.7999999523163,"correct":true,"confidence":-1},{"trial_n":8,"n_dots":4.45,"target":"left","response":"left","rt":55.600000023842,"correct":true,"confidence":-1},{"trial_n":9,"n_dots":4.45,"target":"left","response":"left","rt":933.5,"correct":true,"confidence":-1},{"trial_n":10,"n_dots":4.25,"target":"right","response":"right","rt":222,"correct":true,"confidence":-1},{"trial_n":11,"n_dots":4.25,"target":"right","response":"left","rt":617.60000002384,"correct":false,"confidence":-1},{"trial_n":12,"n_dots":4.45,"target":"left","response":"left","rt":51.099999904633,"correct":true,"confidence":-1},{"trial_n":13,"n_dots":4.45,"target":"right","response":"right","rt":835.79999995232,"correct":true,"confidence":-1},{"trial_n":14,"n_dots":4.35,"target":"right","response":"right","rt":493.10000002384,"correct":true,"confidence":-1},{"trial_n":15,"n_dots":4.35,"target":"left","response":"left","rt":78.799999952316,"correct":true,"confidence":-1},{"trial_n":16,"n_dots":4.25,"target":"right","response":"right","rt":87.399999976158,"correct":true,"confidence":-1},{"trial_n":17,"n_dots":4.25,"target":"right","response":"right","rt":719.80000007153,"correct":true,"confidence":-1},{"trial_n":18,"n_dots":4.15,"target":"right","response":"right","rt":269.10000002384,"correct":true,"confidence":-1},{"trial_n":19,"n_dots":4.15,"target":"right","response":"right","rt":-0.79999995231628,"correct":true,"confidence":-1},{"trial_n":20,"n_dots":4.05,"target":"right","response":"right","rt":233.5,"correct":true,"confidence":-1},{"trial_n":21,"n_dots":4.05,"target":"left","response":"left","rt":1637.1000000238,"correct":true,"confidence":3},{"trial_n":22,"n_dots":3.95,"target":"right","response":"right","rt":445.29999995232,"correct":true,"confidence":4},{"trial_n":23,"n_dots":3.95,"target":"left","response":"left","rt":1608,"correct":true,"confidence":5},{"trial_n":24,"n_dots":3.85,"target":"left","response":"left","rt":328,"correct":true,"confidence":5},{"trial_n":25,"n_dots":3.85,"target":"left","response":"left","rt":1290.3999999762,"correct":true,"confidence":5},{"trial_n":26,"n_dots":3.75,"target":"left","response":"right","rt":690.40000009537,"correct":false,"confidence":4},{"trial_n":27,"n_dots":3.85,"target":"right","response":"right","rt":1436.5,"correct":true,"confidence":4},{"trial_n":28,"n_dots":3.85,"target":"left","response":"left","rt":3760.2999999523,"correct":true,"confidence":3},{"trial_n":29,"n_dots":3.75,"target":"left","response":"left","rt":835.79999995232,"correct":true,"confidence":5},{"trial_n":30,"n_dots":3.75,"target":"right","response":"right","rt":738.20000004768,"correct":true,"confidence":5},{"trial_n":31,"n_dots":3.65,"target":"left","response":"left","rt":574.39999997616,"correct":true,"confidence":5},{"trial_n":32,"n_dots":3.65,"target":"left","response":"right","rt":363.69999992847,"correct":false,"confidence":1},{"trial_n":33,"n_dots":3.75,"target":"right","response":"right","rt":797.89999997616,"correct":true,"confidence":1},{"trial_n":34,"n_dots":3.75,"target":"left","response":"left","rt":-9.3000000715256,"correct":true,"confidence":4},{"trial_n":35,"n_dots":3.65,"target":"left","response":"left","rt":55.399999976158,"correct":true,"confidence":5},{"trial_n":36,"n_dots":3.65,"target":"left","response":"left","rt":14,"correct":true,"confidence":5},{"trial_n":37,"n_dots":3.55,"target":"left","response":"left","rt":1026.6000000238,"correct":true,"confidence":5},{"trial_n":38,"n_dots":3.55,"target":"left","response":"left","rt":1047.8999999762,"correct":true,"confidence":5},{"trial_n":39,"n_dots":3.45,"target":"left","response":"left","rt":143.60000002384,"correct":true,"confidence":5},{"trial_n":40,"n_dots":3.45,"target":"left","response":"left","rt":81.299999952316,"correct":true,"confidence":5},{"trial_n":41,"n_dots":3.35,"target":"left","response":"left","rt":152,"correct":true,"confidence":3},{"trial_n":42,"n_dots":3.35,"target":"left","response":"left","rt":29.399999976158,"correct":true,"confidence":4},{"trial_n":43,"n_dots":3.25,"target":"left","response":"left","rt":99.5,"correct":true,"confidence":1},{"trial_n":44,"n_dots":3.25,"target":"right","response":"right","rt":23.5,"correct":true,"confidence":4},{"trial_n":45,"n_dots":3.15,"target":"left","response":"right","rt":119.69999992847,"correct":false,"confidence":1},{"trial_n":46,"n_dots":3.25,"target":"right","response":"right","rt":157.30000007153,"correct":true,"confidence":3},{"trial_n":47,"n_dots":3.25,"target":"left","response":"left","rt":381.5,"correct":true,"confidence":3},{"trial_n":48,"n_dots":3.15,"target":"right","response":"right","rt":187.39999997616,"correct":true,"confidence":4},{"trial_n":49,"n_dots":3.15,"target":"right","response":"right","rt":685.60000002384,"correct":true,"confidence":1},{"trial_n":50,"n_dots":3.05,"target":"left","response":"left","rt":791.80000007153,"correct":true,"confidence":4},{"trial_n":51,"n_dots":3.05,"target":"left","response":"left","rt":540.79999995232,"correct":true,"confidence":3},{"trial_n":52,"n_dots":2.95,"target":"right","response":"right","rt":743.40000009537,"correct":true,"confidence":1},{"trial_n":53,"n_dots":2.95,"target":"right","response":"left","rt":727.09999990463,"correct":false,"confidence":3},{"trial_n":54,"n_dots":3.05,"target":"left","response":"left","rt":38,"correct":true,"confidence":4},{"trial_n":55,"n_dots":3.05,"target":"left","response":"right","rt":757.29999995232,"correct":false,"confidence":4},{"trial_n":56,"n_dots":3.15,"target":"left","response":"left","rt":903.19999992847,"correct":true,"confidence":3},{"trial_n":57,"n_dots":3.15,"target":"right","response":"right","rt":462,"correct":true,"confidence":4},{"trial_n":58,"n_dots":3.05,"target":"right","response":"left","rt":267.5,"correct":false,"confidence":1},{"trial_n":59,"n_dots":3.15,"target":"right","response":"right","rt":785.20000004768,"correct":true,"confidence":3},{"trial_n":60,"n_dots":3.15,"target":"left","response":"left","rt":628.29999995232,"correct":true,"confidence":1},{"trial_n":61,"n_dots":3.05,"target":"left","response":"left","rt":267.40000009537,"correct":true,"confidence":4},{"trial_n":62,"n_dots":3.05,"target":"left","response":"left","rt":1605,"correct":true,"confidence":1},{"trial_n":63,"n_dots":2.95,"target":"right","response":"left","rt":293,"correct":false,"confidence":4},{"trial_n":64,"n_dots":3.05,"target":"left","response":"left","rt":7951.2999999523,"correct":true,"confidence":2},{"trial_n":65,"n_dots":3.05,"target":"left","response":"right","rt":281.20000004768,"correct":false,"confidence":2},{"trial_n":66,"n_dots":3.15,"target":"right","response":"left","rt":935.69999992847,"correct":false,"confidence":4},{"trial_n":67,"n_dots":3.25,"target":"right","response":"left","rt":817.29999995232,"correct":false,"confidence":2},{"trial_n":68,"n_dots":3.35,"target":"left","response":"left","rt":2608.6000000238,"correct":true,"confidence":3},{"trial_n":69,"n_dots":3.35,"target":"right","response":"right","rt":588.69999992847,"correct":true,"confidence":3},{"trial_n":70,"n_dots":3.25,"target":"right","response":"right","rt":136.5,"correct":true,"confidence":3},{"trial_n":71,"n_dots":3.25,"target":"right","response":"right","rt":131.69999992847,"correct":true,"confidence":4},{"trial_n":72,"n_dots":3.15,"target":"left","response":"left","rt":909.5,"correct":true,"confidence":4},{"trial_n":73,"n_dots":3.15,"target":"right","response":"left","rt":3778.7000000477,"correct":false,"confidence":1},{"trial_n":74,"n_dots":3.25,"target":"left","response":"left","rt":578.10000002384,"correct":true,"confidence":3},{"trial_n":75,"n_dots":3.25,"target":"left","response":"left","rt":838.69999992847,"correct":true,"confidence":1},{"trial_n":76,"n_dots":3.15,"target":"left","response":"left","rt":3123.1000000238,"correct":true,"confidence":1},{"trial_n":77,"n_dots":3.15,"target":"right","response":"left","rt":1088.7999999523,"correct":false,"confidence":1},{"trial_n":78,"n_dots":3.25,"target":"right","response":"left","rt":2445.1999999285,"correct":false,"confidence":1},{"trial_n":79,"n_dots":3.35,"target":"right","response":"right","rt":392.89999997616,"correct":true,"confidence":5},{"trial_n":80,"n_dots":3.35,"target":"right","response":"right","rt":84.200000047684,"correct":true,"confidence":5},{"trial_n":81,"n_dots":3.25,"target":"left","response":"left","rt":636.19999992847,"correct":true,"confidence":3},{"trial_n":82,"n_dots":3.25,"target":"right","response":"right","rt":71.800000071526,"correct":true,"confidence":4},{"trial_n":83,"n_dots":3.15,"target":"right","response":"left","rt":154.5,"correct":false,"confidence":2},{"trial_n":84,"n_dots":3.25,"target":"left","response":"left","rt":179.79999995232,"correct":true,"confidence":5},{"trial_n":85,"n_dots":3.25,"target":"right","response":"right","rt":2.1999999284744,"correct":true,"confidence":3},{"trial_n":86,"n_dots":3.15,"target":"right","response":"left","rt":4719.3999999762,"correct":false,"confidence":1},{"trial_n":87,"n_dots":3.25,"target":"right","response":"right","rt":339.20000004768,"correct":true,"confidence":3},{"trial_n":88,"n_dots":3.25,"target":"left","response":"left","rt":363.20000004768,"correct":true,"confidence":1},{"trial_n":89,"n_dots":3.15,"target":"left","response":"left","rt":3276.5,"correct":true,"confidence":4},{"trial_n":90,"n_dots":3.15,"target":"left","response":"left","rt":553.10000002384,"correct":true,"confidence":4},{"trial_n":91,"n_dots":3.05,"target":"right","response":"right","rt":25.399999976158,"correct":true,"confidence":5},{"trial_n":92,"n_dots":3.05,"target":"left","response":"right","rt":539.30000007153,"correct":false,"confidence":1},{"trial_n":93,"n_dots":3.15,"target":"right","response":"right","rt":314.5,"correct":true,"confidence":3},{"trial_n":94,"n_dots":3.15,"target":"left","response":"left","rt":126.80000007153,"correct":true,"confidence":4},{"trial_n":95,"n_dots":3.05,"target":"right","response":"left","rt":71.099999904633,"correct":false,"confidence":4},{"trial_n":96,"n_dots":3.15,"target":"right","response":"right","rt":758.40000009537,"correct":true,"confidence":4},{"trial_n":97,"n_dots":3.15,"target":"right","response":"right","rt":598.79999995232,"correct":true,"confidence":3},{"trial_n":98,"n_dots":3.05,"target":"left","response":"left","rt":260.40000009537,"correct":true,"confidence":4},{"trial_n":99,"n_dots":3.05,"target":"right","response":"right","rt":89.200000047684,"correct":true,"confidence":4},{"trial_n":100,"n_dots":2.95,"target":"right","response":"left","rt":2142.7999999523,"correct":false,"confidence":4},{"trial_n":101,"n_dots":3.05,"target":"right","response":"right","rt":226.39999997616,"correct":true,"confidence":4},{"trial_n":102,"n_dots":3.05,"target":"left","response":"right","rt":503.19999992847,"correct":false,"confidence":1},{"trial_n":103,"n_dots":3.15,"target":"right","response":"right","rt":-8.7000000476837,"correct":true,"confidence":4},{"trial_n":104,"n_dots":3.15,"target":"right","response":"left","rt":9344.1000000238,"correct":false,"confidence":1},{"trial_n":105,"n_dots":3.25,"target":"left","response":"left","rt":338.90000009537,"correct":true,"confidence":5},{"trial_n":106,"n_dots":3.25,"target":"left","response":"left","rt":-1.8999999761581,"correct":true,"confidence":5},{"trial_n":107,"n_dots":3.15,"target":"right","response":"right","rt":80.899999976158,"correct":true,"confidence":5},{"trial_n":108,"n_dots":3.15,"target":"left","response":"left","rt":473.40000009537,"correct":true,"confidence":4},{"trial_n":109,"n_dots":3.05,"target":"right","response":"right","rt":783,"correct":true,"confidence":3},{"trial_n":110,"n_dots":3.05,"target":"right","response":"right","rt":434.5,"correct":true,"confidence":4},{"trial_n":111,"n_dots":2.95,"target":"right","response":"right","rt":120.79999995232,"correct":true,"confidence":3},{"trial_n":112,"n_dots":2.95,"target":"right","response":"right","rt":1169.1000000238,"correct":true,"confidence":4},{"trial_n":113,"n_dots":2.85,"target":"right","response":"right","rt":759.10000002384,"correct":true,"confidence":4},{"trial_n":114,"n_dots":2.85,"target":"right","response":"left","rt":1194.6999999285,"correct":false,"confidence":1},{"trial_n":115,"n_dots":2.95,"target":"left","response":"left","rt":1123.6000000238,"correct":true,"confidence":3},{"trial_n":116,"n_dots":2.95,"target":"right","response":"right","rt":195.09999990463,"correct":true,"confidence":2},{"trial_n":117,"n_dots":2.85,"target":"left","response":"left","rt":563.5,"correct":true,"confidence":3},{"trial_n":118,"n_dots":2.85,"target":"left","response":"left","rt":340.29999995232,"correct":true,"confidence":3},{"trial_n":119,"n_dots":2.75,"target":"right","response":"right","rt":144,"correct":true,"confidence":4},{"trial_n":120,"n_dots":2.75,"target":"left","response":"left","rt":187.19999992847,"correct":true,"confidence":3}]