[{"trial_n":1,"n_dots":4.25,"target":"left","response":"left","rt":5669.8,"correct":true,"confidence":-1},{"trial_n":2,"n_dots":4.25,"target":"right","response":"right","rt":643.59999999986,"correct":true,"confidence":-1},{"trial_n":3,"n_dots":3.85,"target":"right","response":"right","rt":527.19999999995,"correct":true,"confidence":-1},{"trial_n":4,"n_dots":3.85,"target":"left","response":"left","rt":1259.3999999999,"correct":true,"confidence":-1},{"trial_n":5,"n_dots":3.45,"target":"left","response":"right","rt":318.60000000009,"correct":false,"confidence":-1},{"trial_n":6,"n_dots":3.85,"target":"left","response":"right","rt":388.19999999995,"correct":false,"confidence":-1},{"trial_n":7,"n_dots":4.25,"target":"left","response":"left","rt":19.600000000093,"correct":true,"confidence":-1},{"trial_n":8,"n_dots":4.25,"target":"right","response":"left","rt":1123.0999999999,"correct":false,"confidence":-1},{"trial_n":9,"n_dots":4.45,"target":"left","response":"left","rt":587.30000000005,"correct":true,"confidence":-1},{"trial_n":10,"n_dots":4.45,"target":"right","response":"right","rt":193.19999999995,"correct":true,"confidence":-1},{"trial_n":11,"n_dots":4.25,"target":"right","response":"right","rt":529,"correct":true,"confidence":-1},{"trial_n":12,"n_dots":4.25,"target":"left","response":"left","rt":1212.3,"correct":true,"confidence":-1},{"trial_n":13,"n_dots":4.15,"target":"right","response":"left","rt":438.39999999991,"correct":false,"confidence":-1},{"trial_n":14,"n_dots":4.25,"target":"right","response":"right","rt":813.89999999991,"correct":true,"confidence":-1},{"trial_n":15,"n_dots":4.25,"target":"left","response":"left","rt":544.09999999986,"correct":true,"confidence":-1},{"trial_n":16,"n_dots":4.15,"target":"right","response":"right","rt":550.69999999995,"correct":true,"confidence":-1},{"trial_n":17,"n_dots":4.15,"target":"right","response":"right","rt":499.19999999995,"correct":true,"confidence":-1},{"trial_n":18,"n_dots":4.05,"target":"left","response":"left","rt":162.69999999995,"correct":true,"confidence":-1},{"trial_n":19,"n_dots":4.05,"target":"right","response":"right","rt":349.60000000009,"correct":true,"confidence":-1},{"trial_n":20,"n_dots":3.95,"target":"left","response":"left","rt":160.80000000005,"correct":true,"confidence":-1},{"trial_n":21,"n_dots":3.95,"target":"left","response":"left","rt":507.70000000019,"correct":true,"confidence":3},{"trial_n":22,"n_dots":3.85,"target":"left","response":"right","rt":1638.7000000002,"correct":false,"confidence":4},{"trial_n":23,"n_dots":3.95,"target":"right","response":"right","rt":511.80000000005,"correct":true,"confidence":2},{"trial_n":24,"n_dots":3.95,"target":"left","response":"left","rt":1383.7,"correct":true,"confidence":4},{"trial_n":25,"n_dots":3.85,"target":"left","response":"right","rt":1321.3,"correct":false,"confidence":4},{"trial_n":26,"n_dots":3.95,"target":"right","response":"left","rt":2153.3999999999,"correct":false,"confidence":3},{"trial_n":27,"n_dots":4.05,"target":"left","response":"left","rt":513.80000000005,"correct":true,"confidence":2},{"trial_n":28,"n_dots":4.05,"target":"right","response":"right","rt":758.89999999991,"correct":true,"confidence":3},{"trial_n":29,"n_dots":3.95,"target":"left","response":"left","rt":946.39999999991,"correct":true,"confidence":4},{"trial_n":30,"n_dots":3.95,"target":"left","response":"right","rt":841.30000000005,"correct":false,"confidence":3},{"trial_n":31,"n_dots":4.05,"target":"left","response":"left","rt":596.59999999986,"correct":true,"confidence":4},{"trial_n":32,"n_dots":4.05,"target":"left","response":"right","rt":313.69999999995,"correct":false,"confidence":4},{"trial_n":33,"n_dots":4.15,"target":"right","response":"right","rt":379,"correct":true,"confidence":4},{"trial_n":34,"n_dots":4.15,"target":"left","response":"left","rt":643.69999999995,"correct":true,"confidence":4},{"trial_n":35,"n_dots":4.05,"target":"left","response":"right","rt":1905.3,"correct":false,"confidence":3},{"trial_n":36,"n_dots":4.15,"target":"left","response":"right","rt":1261.7,"correct":false,"confidence":3},{"trial_n":37,"n_dots":4.25,"target":"right","response":"right","rt":744.10000000009,"correct":true,"confidence":4},{"trial_n":38,"n_dots":4.25,"target":"left","response":"right","rt":1086.8999999999,"correct":false,"confidence":1},{"trial_n":39,"n_dots":4.35,"target":"right","response":"right","rt":558.39999999991,"correct":true,"confidence":3},{"trial_n":40,"n_dots":4.35,"target":"left","response":"right","rt":678.19999999995,"correct":false,"confidence":2},{"trial_n":41,"n_dots":4.45,"target":"right","response":"right","rt":989.90000000014,"correct":true,"confidence":3},{"trial_n":42,"n_dots":4.45,"target":"right","response":"left","rt":781,"correct":false,"confidence":1},{"trial_n":43,"n_dots":4.55,"target":"right","response":"right","rt":1620.7999999998,"correct":true,"confidence":4},{"trial_n":44,"n_dots":4.55,"target":"left","response":"left","rt":1107,"correct":true,"confidence":4},{"trial_n":45,"n_dots":4.45,"target":"right","response":"right","rt":1032.2,"correct":true,"confidence":4},{"trial_n":46,"n_dots":4.45,"target":"left","response":"left","rt":813.80000000005,"correct":true,"confidence":5},{"trial_n":47,"n_dots":4.35,"target":"right","response":"right","rt":1381.5999999999,"correct":true,"confidence":3},{"trial_n":48,"n_dots":4.35,"target":"right","response":"left","rt":398.59999999986,"correct":false,"confidence":2},{"trial_n":49,"n_dots":4.45,"target":"left","response":"left","rt":362.30000000005,"correct":true,"confidence":3},{"trial_n":50,"n_dots":4.45,"target":"left","response":"right","rt":809,"correct":false,"confidence":2},{"trial_n":51,"n_dots":4.55,"target":"left","response":"left","rt":338.30000000005,"correct":true,"confidence":4},{"trial_n":52,"n_dots":4.55,"target":"left","response":"left","rt":531.5,"correct":true,"confidence":4},{"trial_n":53,"n_dots":4.45,"target":"left","response":"right","rt":611.80000000005,"correct":false,"confidence":3},{"trial_n":54,"n_dots":4.55,"target":"right","response":"right","rt":857.19999999995,"correct":true,"confidence":3},{"trial_n":55,"n_dots":4.55,"target":"left","response":"left","rt":441.29999999981,"correct":true,"confidence":3},{"trial_n":56,"n_dots":4.45,"target":"right","response":"right","rt":643.59999999986,"correct":true,"confidence":3},{"trial_n":57,"n_dots":4.45,"target":"left","response":"left","rt":27.199999999953,"correct":true,"confidence":3},{"trial_n":58,"n_dots":4.35,"target":"left","response":"right","rt":1941.6000000001,"correct":false,"confidence":3},{"trial_n":59,"n_dots":4.45,"target":"left","response":"left","rt":735.09999999986,"correct":true,"confidence":2},{"trial_n":60,"n_dots":4.45,"target":"right","response":"right","rt":55.40000000014,"correct":true,"confidence":1},{"trial_n":61,"n_dots":4.35,"target":"left","response":"right","rt":1968,"correct":false,"confidence":3},{"trial_n":62,"n_dots":4.45,"target":"right","response":"right","rt":498.40000000014,"correct":true,"confidence":2},{"trial_n":63,"n_dots":4.45,"target":"right","response":"right","rt":769.60000000009,"correct":true,"confidence":1},{"trial_n":64,"n_dots":4.35,"target":"left","response":"left","rt":1163.3,"correct":true,"confidence":5},{"trial_n":65,"n_dots":4.35,"target":"right","response":"right","rt":2280,"correct":true,"confidence":4},{"trial_n":66,"n_dots":4.25,"target":"right","response":"right","rt":957.69999999995,"correct":true,"confidence":4},{"trial_n":67,"n_dots":4.25,"target":"left","response":"right","rt":2518.5,"correct":false,"confidence":3},{"trial_n":68,"n_dots":4.35,"target":"right","response":"right","rt":753.10000000009,"correct":true,"confidence":3},{"trial_n":69,"n_dots":4.35,"target":"left","response":"right","rt":105.79999999981,"correct":false,"confidence":5},{"trial_n":70,"n_dots":4.45,"target":"left","response":"left","rt":157.19999999995,"correct":true,"confidence":3},{"trial_n":71,"n_dots":4.45,"target":"right","response":"right","rt":365.79999999981,"correct":true,"confidence":4},{"trial_n":72,"n_dots":4.35,"target":"right","response":"right","rt":562.80000000005,"correct":true,"confidence":3},{"trial_n":73,"n_dots":4.35,"target":"left","response":"left","rt":126.39999999991,"correct":true,"confidence":2},{"trial_n":74,"n_dots":4.25,"target":"right","response":"right","rt":2215.1000000001,"correct":true,"confidence":3},{"trial_n":75,"n_dots":4.25,"target":"left","response":"left","rt":212,"correct":true,"confidence":2},{"trial_n":76,"n_dots":4.15,"target":"right","response":"right","rt":628.59999999986,"correct":true,"confidence":5},{"trial_n":77,"n_dots":4.15,"target":"left","response":"left","rt":420.40000000014,"correct":true,"confidence":1},{"trial_n":78,"n_dots":4.05,"target":"left","response":"right","rt":593,"correct":false,"confidence":1},{"trial_n":79,"n_dots":4.15,"target":"right","response":"right","rt":950.39999999991,"correct":true,"confidence":3},{"trial_n":80,"n_dots":4.15,"target":"left","response":"left","rt":355.80000000005,"correct":true,"confidence":4},{"trial_n":81,"n_dots":4.05,"target":"left","response":"left","rt":1052.9000000001,"correct":true,"confidence":2},{"trial_n":82,"n_dots":4.05,"target":"right","response":"right","rt":739.30000000005,"correct":true,"confidence":3},{"trial_n":83,"n_dots":3.95,"target":"left","response":"left","rt":493.60000000009,"correct":true,"confidence":4},{"trial_n":84,"n_dots":3.95,"target":"right","response":"right","rt":1942.8,"correct":true,"confidence":5},{"trial_n":85,"n_dots":3.85,"target":"right","response":"left","rt":501,"correct":false,"confidence":3},{"trial_n":86,"n_dots":3.95,"target":"right","response":"right","rt":712.60000000009,"correct":true,"confidence":2},{"trial_n":87,"n_dots":3.95,"target":"right","response":"right","rt":505.69999999995,"correct":true,"confidence":2},{"trial_n":88,"n_dots":3.85,"target":"right","response":"right","rt":739.30000000005,"correct":true,"confidence":3},{"trial_n":89,"n_dots":3.85,"target":"left","response":"left","rt":168.79999999981,"correct":true,"confidence":5},{"trial_n":90,"n_dots":3.75,"target":"right","response":"right","rt":3414.5999999999,"correct":true,"confidence":3},{"trial_n":91,"n_dots":3.75,"target":"right","response":"right","rt":438.79999999981,"correct":true,"confidence":3},{"trial_n":92,"n_dots":3.65,"target":"right","response":"left","rt":428.19999999995,"correct":false,"confidence":3},{"trial_n":93,"n_dots":3.75,"target":"right","response":"right","rt":55.600000000093,"correct":true,"confidence":5},{"trial_n":94,"n_dots":3.75,"target":"right","response":"left","rt":1713,"correct":false,"confidence":3},{"trial_n":95,"n_dots":3.85,"target":"right","response":"left","rt":476.89999999991,"correct":false,"confidence":2},{"trial_n":96,"n_dots":3.95,"target":"right","response":"right","rt":295.10000000009,"correct":true,"confidence":1},{"trial_n":97,"n_dots":3.95,"target":"right","response":"right","rt":156.10000000009,"correct":true,"confidence":1},{"trial_n":98,"n_dots":3.85,"target":"right","response":"right","rt":591.09999999986,"correct":true,"confidence":3},{"trial_n":99,"n_dots":3.85,"target":"left","response":"left","rt":513.39999999991,"correct":true,"confidence":2},{"trial_n":100,"n_dots":3.75,"target":"right","response":"right","rt":3278.7999999998,"correct":true,"confidence":1},{"trial_n":101,"n_dots":3.75,"target":"right","response":"right","rt":248.19999999995,"correct":true,"confidence":2},{"trial_n":102,"n_dots":3.65,"target":"left","response":"left","rt":74.799999999814,"correct":true,"confidence":2},{"trial_n":103,"n_dots":3.65,"target":"right","response":"right","rt":442.39999999991,"correct":true,"confidence":4},{"trial_n":104,"n_dots":3.55,"target":"left","response":"left","rt":32.600000000093,"correct":true,"confidence":3},{"trial_n":105,"n_dots":3.55,"target":"right","response":"right","rt":68.59999999986,"correct":true,"confidence":3},{"trial_n":106,"n_dots":3.45,"target":"left","response":"left","rt":168.10000000009,"correct":true,"confidence":4},{"trial_n":107,"n_dots":3.45,"target":"right","response":"left","rt":181.59999999986,"correct":false,"confidence":1},{"trial_n":108,"n_dots":3.55,"target":"left","response":"left","rt":725,"correct":true,"confidence":4},{"trial_n":109,"n_dots":3.55,"target":"right","response":"right","rt":157.69999999995,"correct":true,"confidence":3},{"trial_n":110,"n_dots":3.45,"target":"left","response":"left","rt":426.59999999986,"correct":true,"confidence":2},{"trial_n":111,"n_dots":3.45,"target":"right","response":"right","rt":554.39999999991,"correct":true,"confidence":2},{"trial_n":112,"n_dots":3.35,"target":"right","response":"right","rt":411.89999999991,"correct":true,"confidence":1},{"trial_n":113,"n_dots":3.35,"target":"left","response":"left","rt":889.09999999986,"correct":true,"confidence":3},{"trial_n":114,"n_dots":3.25,"target":"right","response":"left","rt":55.600000000093,"correct":false,"confidence":3},{"trial_n":115,"n_dots":3.35,"target":"left","response":"right","rt":520.80000000005,"correct":false,"confidence":3},{"trial_n":116,"n_dots":3.45,"target":"left","response":"right","rt":396.80000000005,"correct":false,"confidence":3},{"trial_n":117,"n_dots":3.55,"target":"right","response":"right","rt":1023,"correct":true,"confidence":2},{"trial_n":118,"n_dots":3.55,"target":"left","response":"left","rt":619.10000000009,"correct":true,"confidence":1},{"trial_n":119,"n_dots":3.45,"target":"left","response":"left","rt":882.89999999991,"correct":true,"confidence":1},{"trial_n":120,"n_dots":3.45,"target":"left","response":"right","rt":290.59999999986,"correct":false,"confidence":1}]