[{"trial_n":1,"span":8,"encoder":"76352834","distractor":"76351834","target":"present","response":"present","rt":"3461.7999999998","correct":true,"confidence":-1},{"trial_n":2,"span":8,"encoder":"36130976","distractor":"36130977","target":"present","response":"present","rt":"1489.2999999998","correct":true,"confidence":-1},{"trial_n":3,"span":10,"encoder":"9393452136","distractor":"3393452136","target":"absent","response":"absent","rt":"1245.7999999998","correct":true,"confidence":-1},{"trial_n":4,"span":10,"encoder":"6894986100","distractor":"6854986100","target":"absent","response":"present","rt":"2007","correct":false,"confidence":-1},{"trial_n":5,"span":8,"encoder":"44745791","distractor":"74745791","target":"present","response":"absent","rt":"324","correct":false,"confidence":-1},{"trial_n":6,"span":6,"encoder":"130413","distractor":"130423","target":"absent","response":"absent","rt":"1260.3999999999","correct":true,"confidence":-1},{"trial_n":7,"span":6,"encoder":"987457","distractor":"987357","target":"present","response":"present","rt":"2248.7999999998","correct":true,"confidence":-1},{"trial_n":8,"span":8,"encoder":"36683424","distractor":"36683422","target":"absent","response":"absent","rt":"2695","correct":true,"confidence":-1},{"trial_n":9,"span":8,"encoder":"03645453","distractor":"03649453","target":"absent","response":"absent","rt":"2422.5","correct":true,"confidence":-1},{"trial_n":10,"span":10,"encoder":"2477358380","distractor":"2477357380","target":"absent","response":"absent","rt":"1447.2000000002","correct":true,"confidence":-1},{"trial_n":11,"span":10,"encoder":"2950169084","distractor":"5950169084","target":"absent","response":"present","rt":"979.59999999963","correct":false,"confidence":-1},{"trial_n":12,"span":9,"encoder":"651802563","distractor":"351802563","target":"absent","response":"present","rt":"15481.7","correct":false,"confidence":-1},{"trial_n":13,"span":8,"encoder":"57112848","distractor":"53112848","target":"present","response":"absent","rt":"6285.7000000002","correct":false,"confidence":-1},{"trial_n":14,"span":7,"encoder":"7322439","distractor":"7342439","target":"absent","response":"present","rt":"1516.5","correct":false,"confidence":-1},{"trial_n":15,"span":6,"encoder":"085418","distractor":"785418","target":"present","response":"present","rt":"3769.6000000001","correct":true,"confidence":-1},{"trial_n":16,"span":6,"encoder":"528819","distractor":"528119","target":"present","response":"present","rt":"1615.3999999999","correct":true,"confidence":-1},{"trial_n":17,"span":7,"encoder":"9298183","distractor":"9298883","target":"present","response":"present","rt":"451.89999999991","correct":true,"confidence":-1},{"trial_n":18,"span":7,"encoder":"4249939","distractor":"7249939","target":"present","response":"present","rt":"397.29999999981","correct":true,"confidence":-1},{"trial_n":19,"span":8,"encoder":"70311144","distractor":"70311114","target":"present","response":"present","rt":"392","correct":true,"confidence":-1},{"trial_n":20,"span":8,"encoder":"38969323","distractor":"58969323","target":"present","response":"present","rt":"395.29999999981","correct":true,"confidence":-1},{"trial_n":21,"span":9,"encoder":"692555406","distractor":"692545406","target":"absent","response":"present","rt":"1034.2000000002","correct":false,"confidence":1},{"trial_n":22,"span":8,"encoder":"82004766","distractor":"72004766","target":"absent","response":"absent","rt":"2561.7000000002","correct":true,"confidence":2},{"trial_n":23,"span":8,"encoder":"01331155","distractor":"01331195","target":"absent","response":"present","rt":"3139.7000000002","correct":false,"confidence":3},{"trial_n":24,"span":7,"encoder":"1708843","distractor":"1608843","target":"absent","response":"present","rt":"1846.2000000002","correct":false,"confidence":4},{"trial_n":25,"span":6,"encoder":"046932","distractor":"066932","target":"absent","response":"absent","rt":"2331.7999999998","correct":true,"confidence":5},{"trial_n":26,"span":6,"encoder":"685459","distractor":"885459","target":"present","response":"absent","rt":"2945.6000000001","correct":false,"confidence":3},{"trial_n":27,"span":5,"encoder":"39487","distractor":"39437","target":"absent","response":"present","rt":"2153.1000000001","correct":false,"confidence":4},{"trial_n":28,"span":4,"encoder":"0048","distractor":"0748","target":"present","response":"absent","rt":"2426.4000000004","correct":false,"confidence":2},{"trial_n":29,"span":3,"encoder":"299","distractor":"599","target":"absent","response":"present","rt":"2025.2999999998","correct":false,"confidence":3},{"trial_n":30,"span":2,"encoder":"64","distractor":"62","target":"present","response":"present","rt":"2183","correct":true,"confidence":5},{"trial_n":31,"span":2,"encoder":"10","distractor":"15","target":"absent","response":"present","rt":"2044.5","correct":false,"confidence":3},{"trial_n":32,"span":2,"encoder":"20","distractor":"70","target":"present","response":"present","rt":"1601","correct":true,"confidence":4},{"trial_n":33,"span":2,"encoder":"28","distractor":"26","target":"present","response":"present","rt":"1226.3000000003","correct":true,"confidence":5},{"trial_n":34,"span":3,"encoder":"314","distractor":"319","target":"present","response":"present","rt":"1573.6000000001","correct":true,"confidence":5},{"trial_n":35,"span":3,"encoder":"764","distractor":"765","target":"absent","response":"absent","rt":"1560.7000000002","correct":true,"confidence":5},{"trial_n":36,"span":4,"encoder":"9449","distractor":"9469","target":"present","response":"present","rt":"1204.3999999999","correct":true,"confidence":5},{"trial_n":37,"span":4,"encoder":"1821","distractor":"9821","target":"present","response":"present","rt":"2099.5999999996","correct":true,"confidence":5},{"trial_n":38,"span":5,"encoder":"59581","distractor":"69581","target":"present","response":"present","rt":"1688.6000000001","correct":true,"confidence":5},{"trial_n":39,"span":5,"encoder":"74988","distractor":"74888","target":"present","response":"present","rt":"1422.5","correct":true,"confidence":4},{"trial_n":40,"span":6,"encoder":"411545","distractor":"415545","target":"present","response":"present","rt":"2022.6000000001","correct":true,"confidence":5},{"trial_n":41,"span":6,"encoder":"441392","distractor":"471392","target":"present","response":"present","rt":"1486.5999999996","correct":true,"confidence":4},{"trial_n":42,"span":7,"encoder":"0071142","distractor":"0171142","target":"present","response":"present","rt":"1712.7000000002","correct":true,"confidence":4},{"trial_n":43,"span":7,"encoder":"2120850","distractor":"2120858","target":"absent","response":"absent","rt":"2036.5","correct":true,"confidence":3},{"trial_n":44,"span":8,"encoder":"73871064","distractor":"73871084","target":"absent","response":"present","rt":"1541.2999999998","correct":false,"confidence":4},{"trial_n":45,"span":7,"encoder":"3136008","distractor":"3136208","target":"absent","response":"present","rt":"2265.3000000003","correct":false,"confidence":4},{"trial_n":46,"span":6,"encoder":"778877","distractor":"778872","target":"absent","response":"present","rt":"1827.6999999997","correct":false,"confidence":5},{"trial_n":47,"span":5,"encoder":"09097","distractor":"89097","target":"absent","response":"present","rt":"1520.2999999998","correct":false,"confidence":5},{"trial_n":48,"span":4,"encoder":"6410","distractor":"6910","target":"present","response":"present","rt":"1564","correct":true,"confidence":3},{"trial_n":49,"span":4,"encoder":"9120","distractor":"9720","target":"present","response":"present","rt":"1903.3999999999","correct":true,"confidence":5},{"trial_n":50,"span":5,"encoder":"55398","distractor":"55378","target":"present","response":"present","rt":"1372.5","correct":true,"confidence":4},{"trial_n":51,"span":5,"encoder":"99582","distractor":"99583","target":"absent","response":"present","rt":"1480.8999999999","correct":false,"confidence":4},{"trial_n":52,"span":4,"encoder":"1507","distractor":"6507","target":"absent","response":"absent","rt":"430","correct":true,"confidence":5},{"trial_n":53,"span":4,"encoder":"2009","distractor":"2099","target":"present","response":"present","rt":"1960.5","correct":true,"confidence":5},{"trial_n":54,"span":5,"encoder":"00505","distractor":"05505","target":"present","response":"present","rt":"2384.6000000001","correct":true,"confidence":3},{"trial_n":55,"span":5,"encoder":"95967","distractor":"25967","target":"present","response":"absent","rt":"1264.5","correct":false,"confidence":3},{"trial_n":56,"span":4,"encoder":"4765","distractor":"4265","target":"absent","response":"present","rt":"1456.2999999998","correct":false,"confidence":5},{"trial_n":57,"span":3,"encoder":"307","distractor":"306","target":"present","response":"present","rt":"3204.3999999999","correct":true,"confidence":4},{"trial_n":58,"span":3,"encoder":"946","distractor":"046","target":"present","response":"present","rt":"1393.8999999999","correct":true,"confidence":5},{"trial_n":59,"span":4,"encoder":"8738","distractor":"8938","target":"absent","response":"absent","rt":"1568.3000000003","correct":true,"confidence":5},{"trial_n":60,"span":4,"encoder":"2974","distractor":"2976","target":"present","response":"present","rt":"1359.3999999999","correct":true,"confidence":5},{"trial_n":61,"span":5,"encoder":"70222","distractor":"70822","target":"present","response":"present","rt":"2629.8000000003","correct":true,"confidence":5},{"trial_n":62,"span":5,"encoder":"78151","distractor":"78351","target":"absent","response":"present","rt":"925.29999999981","correct":false,"confidence":5},{"trial_n":63,"span":4,"encoder":"0059","distractor":"0089","target":"absent","response":"present","rt":"2835.6999999997","correct":false,"confidence":4},{"trial_n":64,"span":3,"encoder":"516","distractor":"716","target":"present","response":"present","rt":"1471.6000000001","correct":true,"confidence":3},{"trial_n":65,"span":3,"encoder":"558","distractor":"158","target":"absent","response":"absent","rt":"2052.8999999999","correct":true,"confidence":3},{"trial_n":66,"span":4,"encoder":"9602","distractor":"9692","target":"absent","response":"absent","rt":"2507.3999999999","correct":true,"confidence":5},{"trial_n":67,"span":4,"encoder":"7074","distractor":"8074","target":"absent","response":"absent","rt":"1375.9000000004","correct":true,"confidence":5},{"trial_n":68,"span":5,"encoder":"94667","distractor":"04667","target":"absent","response":"present","rt":"1253.6000000001","correct":false,"confidence":5},{"trial_n":69,"span":4,"encoder":"1875","distractor":"1975","target":"present","response":"present","rt":"1745.2000000002","correct":true,"confidence":5},{"trial_n":70,"span":4,"encoder":"5164","distractor":"1164","target":"absent","response":"absent","rt":"1647.8000000003","correct":true,"confidence":1},{"trial_n":71,"span":8,"encoder":"10126905","distractor":"13126905","target":"present","response":"present","rt":"7675.5","correct":true,"confidence":-1},{"trial_n":72,"span":8,"encoder":"44867697","distractor":"44667697","target":"present","response":"present","rt":"3009","correct":true,"confidence":-1},{"trial_n":73,"span":9,"encoder":"196522974","distractor":"196522954","target":"absent","response":"absent","rt":"3053.7000000002","correct":true,"confidence":-1},{"trial_n":74,"span":9,"encoder":"251737790","distractor":"251737792","target":"absent","response":"present","rt":"483.20000000019","correct":false,"confidence":-1},{"trial_n":75,"span":8,"encoder":"66554133","distractor":"66558133","target":"present","response":"absent","rt":"1624","correct":false,"confidence":-1},{"trial_n":76,"span":7,"encoder":"5794534","distractor":"5794544","target":"absent","response":"present","rt":"704.29999999981","correct":false,"confidence":-1},{"trial_n":77,"span":6,"encoder":"866801","distractor":"826801","target":"present","response":"absent","rt":"271.10000000009","correct":false,"confidence":-1},{"trial_n":78,"span":5,"encoder":"20046","distractor":"80046","target":"absent","response":"present","rt":"229.20000000019","correct":false,"confidence":-1},{"trial_n":79,"span":4,"encoder":"1933","distractor":"1937","target":"present","response":"present","rt":"2238.7000000002","correct":true,"confidence":-1},{"trial_n":80,"span":4,"encoder":"7002","distractor":"7062","target":"present","response":"present","rt":"1688.2000000002","correct":true,"confidence":-1},{"trial_n":81,"span":5,"encoder":"96913","distractor":"96973","target":"present","response":"absent","rt":"1821.3999999999","correct":false,"confidence":-1},{"trial_n":82,"span":4,"encoder":"1369","distractor":"1361","target":"absent","response":"present","rt":"367.29999999981","correct":false,"confidence":-1},{"trial_n":83,"span":3,"encoder":"151","distractor":"851","target":"present","response":"present","rt":"1677.3999999999","correct":true,"confidence":-1},{"trial_n":84,"span":3,"encoder":"169","distractor":"165","target":"present","response":"absent","rt":"1337.7000000002","correct":false,"confidence":-1},{"trial_n":85,"span":2,"encoder":"36","distractor":"35","target":"present","response":"present","rt":"501.10000000009","correct":true,"confidence":-1},{"trial_n":86,"span":2,"encoder":"09","distractor":"39","target":"present","response":"absent","rt":"7747.0999999996","correct":false,"confidence":-1},{"trial_n":87,"span":2,"encoder":"48","distractor":"88","target":"absent","response":"present","rt":"1274","correct":false,"confidence":-1},{"trial_n":88,"span":2,"encoder":"48","distractor":"41","target":"present","response":"absent","rt":"4744.5","correct":false,"confidence":-1},{"trial_n":89,"span":2,"encoder":"24","distractor":"44","target":"absent","response":"absent","rt":"2449.3999999999","correct":true,"confidence":-1},{"trial_n":90,"span":2,"encoder":"40","distractor":"50","target":"present","response":"present","rt":"9340.1000000001","correct":true,"confidence":-1},{"trial_n":91,"span":3,"encoder":"810","distractor":"610","target":"present","response":"present","rt":"1547.1999999997","correct":true,"confidence":4},{"trial_n":92,"span":3,"encoder":"565","distractor":"555","target":"present","response":"present","rt":"3816","correct":true,"confidence":4},{"trial_n":93,"span":4,"encoder":"1405","distractor":"1605","target":"present","response":"absent","rt":"2115.6000000001","correct":false,"confidence":2},{"trial_n":94,"span":3,"encoder":"024","distractor":"054","target":"present","response":"present","rt":"2232.7999999998","correct":true,"confidence":3},{"trial_n":95,"span":3,"encoder":"054","distractor":"074","target":"absent","response":"absent","rt":"2001.1000000001","correct":true,"confidence":4},{"trial_n":96,"span":4,"encoder":"8982","distractor":"8972","target":"absent","response":"absent","rt":"1733","correct":true,"confidence":1},{"trial_n":97,"span":4,"encoder":"5389","distractor":"5589","target":"present","response":"present","rt":"2008.5999999996","correct":true,"confidence":2},{"trial_n":98,"span":5,"encoder":"43944","distractor":"43994","target":"present","response":"present","rt":"2772","correct":true,"confidence":1},{"trial_n":99,"span":5,"encoder":"25622","distractor":"25322","target":"absent","response":"present","rt":"1112.5","correct":false,"confidence":1},{"trial_n":100,"span":4,"encoder":"0222","distractor":"7222","target":"present","response":"present","rt":"1332.3999999999","correct":true,"confidence":4},{"trial_n":101,"span":4,"encoder":"6827","distractor":"6857","target":"present","response":"present","rt":"2061.8000000003","correct":true,"confidence":3},{"trial_n":102,"span":5,"encoder":"93620","distractor":"91620","target":"present","response":"present","rt":"3263.8999999999","correct":true,"confidence":2},{"trial_n":103,"span":5,"encoder":"77710","distractor":"77720","target":"absent","response":"absent","rt":"2007.5","correct":true,"confidence":4},{"trial_n":104,"span":6,"encoder":"990068","distractor":"690068","target":"present","response":"absent","rt":"3436.8999999999","correct":false,"confidence":1},{"trial_n":105,"span":5,"encoder":"17131","distractor":"17151","target":"present","response":"present","rt":"2239.0999999996","correct":true,"confidence":4},{"trial_n":106,"span":5,"encoder":"18462","distractor":"98462","target":"present","response":"absent","rt":"3336.6000000001","correct":false,"confidence":3},{"trial_n":107,"span":4,"encoder":"9481","distractor":"9401","target":"absent","response":"absent","rt":"2653.3999999999","correct":true,"confidence":5},{"trial_n":108,"span":4,"encoder":"4778","distractor":"4758","target":"present","response":"present","rt":"2104.8000000003","correct":true,"confidence":3},{"trial_n":109,"span":5,"encoder":"96032","distractor":"96038","target":"absent","response":"absent","rt":"2092.8999999999","correct":true,"confidence":4},{"trial_n":110,"span":5,"encoder":"02557","distractor":"02537","target":"absent","response":"present","rt":"3533.5","correct":false,"confidence":3},{"trial_n":111,"span":4,"encoder":"7568","distractor":"7564","target":"absent","response":"absent","rt":"512.5","correct":true,"confidence":5},{"trial_n":112,"span":4,"encoder":"5847","distractor":"5837","target":"absent","response":"present","rt":"278.69999999972","correct":false,"confidence":5},{"trial_n":113,"span":3,"encoder":"385","distractor":"380","target":"absent","response":"absent","rt":"1407.2000000002","correct":true,"confidence":2},{"trial_n":114,"span":3,"encoder":"116","distractor":"117","target":"present","response":"present","rt":"1205.6999999997","correct":true,"confidence":2},{"trial_n":115,"span":4,"encoder":"6029","distractor":"6027","target":"absent","response":"absent","rt":"2330.6000000001","correct":true,"confidence":5},{"trial_n":116,"span":4,"encoder":"6212","distractor":"6222","target":"absent","response":"absent","rt":"3134.7000000002","correct":true,"confidence":3},{"trial_n":117,"span":5,"encoder":"45955","distractor":"45956","target":"absent","response":"absent","rt":"2163.7999999998","correct":true,"confidence":5},{"trial_n":118,"span":5,"encoder":"58846","distractor":"58946","target":"present","response":"present","rt":"3452.6000000001","correct":true,"confidence":2},{"trial_n":119,"span":6,"encoder":"164213","distractor":"144213","target":"absent","response":"absent","rt":"3762.6999999997","correct":true,"confidence":3},{"trial_n":120,"span":6,"encoder":"085511","distractor":"084511","target":"present","response":"absent","rt":"2913","correct":false,"confidence":4},{"trial_n":121,"span":5,"encoder":"01464","distractor":"01474","target":"absent","response":"absent","rt":"2996","correct":true,"confidence":4},{"trial_n":122,"span":5,"encoder":"09334","distractor":"09324","target":"absent","response":"present","rt":"377.10000000009","correct":false,"confidence":3},{"trial_n":123,"span":4,"encoder":"1487","distractor":"1287","target":"absent","response":"absent","rt":"2384.7999999998","correct":true,"confidence":3},{"trial_n":124,"span":4,"encoder":"3792","distractor":"3798","target":"present","response":"present","rt":"3174.8999999999","correct":true,"confidence":3},{"trial_n":125,"span":5,"encoder":"14458","distractor":"14158","target":"absent","response":"absent","rt":"3263.6000000001","correct":true,"confidence":5},{"trial_n":126,"span":5,"encoder":"44800","distractor":"44880","target":"absent","response":"present","rt":"3153.7000000002","correct":false,"confidence":3},{"trial_n":127,"span":4,"encoder":"3288","distractor":"3248","target":"present","response":"present","rt":"2723.0999999996","correct":true,"confidence":3},{"trial_n":128,"span":4,"encoder":"8852","distractor":"1852","target":"absent","response":"present","rt":"2163.8000000003","correct":false,"confidence":3},{"trial_n":129,"span":3,"encoder":"293","distractor":"283","target":"present","response":"absent","rt":"700","correct":false,"confidence":4},{"trial_n":130,"span":2,"encoder":"25","distractor":"05","target":"present","response":"present","rt":"1858.5999999996","correct":true,"confidence":2},{"trial_n":131,"span":2,"encoder":"25","distractor":"20","target":"absent","response":"absent","rt":"1850.5","correct":true,"confidence":4},{"trial_n":132,"span":3,"encoder":"027","distractor":"427","target":"absent","response":"absent","rt":"1563.8999999999","correct":true,"confidence":5},{"trial_n":133,"span":3,"encoder":"958","distractor":"928","target":"absent","response":"absent","rt":"1697.4000000004","correct":true,"confidence":5},{"trial_n":134,"span":4,"encoder":"3934","distractor":"3939","target":"absent","response":"absent","rt":"1748.0999999996","correct":true,"confidence":4},{"trial_n":135,"span":4,"encoder":"6315","distractor":"6215","target":"absent","response":"absent","rt":"3103.5","correct":true,"confidence":5},{"trial_n":136,"span":5,"encoder":"18317","distractor":"17317","target":"present","response":"present","rt":"3545.2999999998","correct":true,"confidence":4},{"trial_n":137,"span":5,"encoder":"53632","distractor":"53532","target":"absent","response":"absent","rt":"2825.9000000004","correct":true,"confidence":5},{"trial_n":138,"span":6,"encoder":"562656","distractor":"562696","target":"absent","response":"absent","rt":"2123.5999999996","correct":true,"confidence":4},{"trial_n":139,"span":6,"encoder":"541402","distractor":"541302","target":"present","response":"present","rt":"2203.4000000004","correct":true,"confidence":5},{"trial_n":140,"span":7,"encoder":"1725389","distractor":"1725689","target":"present","response":"absent","rt":"1057.2000000002","correct":false,"confidence":5}]