[{"trial_n":1,"min":25,"max":230,"target":"present","response":"present","rt":10679.6,"correct":true,"confidence":-1},{"trial_n":2,"min":25,"max":230,"target":"present","response":"present","rt":1783.7,"correct":true,"confidence":-1},{"trial_n":3,"min":41,"max":214,"target":"absent","response":"absent","rt":1164,"correct":true,"confidence":-1},{"trial_n":4,"min":41,"max":214,"target":"absent","response":"absent","rt":900.19999999995,"correct":true,"confidence":-1},{"trial_n":5,"min":57,"max":198,"target":"present","response":"present","rt":1278.6,"correct":true,"confidence":-1},{"trial_n":6,"min":57,"max":198,"target":"present","response":"present","rt":1090.3,"correct":true,"confidence":-1},{"trial_n":7,"min":73,"max":182,"target":"absent","response":"absent","rt":1409.1,"correct":true,"confidence":-1},{"trial_n":8,"min":73,"max":182,"target":"absent","response":"absent","rt":612.19999999995,"correct":true,"confidence":-1},{"trial_n":9,"min":89,"max":166,"target":"absent","response":"absent","rt":613.30000000005,"correct":true,"confidence":-1},{"trial_n":10,"min":89,"max":166,"target":"absent","response":"absent","rt":643.80000000005,"correct":true,"confidence":-1},{"trial_n":11,"min":97,"max":158,"target":"absent","response":"absent","rt":801.40000000002,"correct":true,"confidence":-1},{"trial_n":12,"min":97,"max":158,"target":"absent","response":"absent","rt":676.5,"correct":true,"confidence":-1},{"trial_n":13,"min":105,"max":150,"target":"absent","response":"absent","rt":580.30000000005,"correct":true,"confidence":-1},{"trial_n":14,"min":105,"max":150,"target":"absent","response":"present","rt":1401.2,"correct":false,"confidence":-1},{"trial_n":15,"min":97,"max":158,"target":"absent","response":"absent","rt":1056.4,"correct":true,"confidence":-1},{"trial_n":16,"min":97,"max":158,"target":"present","response":"present","rt":979.19999999995,"correct":true,"confidence":-1},{"trial_n":17,"min":105,"max":150,"target":"absent","response":"absent","rt":1324.7,"correct":true,"confidence":-1},{"trial_n":18,"min":105,"max":150,"target":"present","response":"absent","rt":644.70000000001,"correct":false,"confidence":-1},{"trial_n":19,"min":97,"max":158,"target":"present","response":"absent","rt":472.40000000002,"correct":false,"confidence":-1},{"trial_n":20,"min":89,"max":166,"target":"absent","response":"absent","rt":440.39999999997,"correct":true,"confidence":-1},{"trial_n":21,"min":89,"max":166,"target":"absent","response":"absent","rt":1005.9,"correct":true,"confidence":4},{"trial_n":22,"min":93,"max":162,"target":"absent","response":"absent","rt":1223.3,"correct":true,"confidence":5},{"trial_n":23,"min":93,"max":162,"target":"absent","response":"absent","rt":1119.5,"correct":true,"confidence":3},{"trial_n":24,"min":97,"max":158,"target":"absent","response":"absent","rt":994.09999999998,"correct":true,"confidence":5},{"trial_n":25,"min":97,"max":158,"target":"absent","response":"present","rt":1227.5,"correct":false,"confidence":4},{"trial_n":26,"min":93,"max":162,"target":"present","response":"absent","rt":1194.7999999999,"correct":false,"confidence":5},{"trial_n":27,"min":89,"max":166,"target":"present","response":"absent","rt":1009.5,"correct":false,"confidence":3},{"trial_n":28,"min":85,"max":170,"target":"absent","response":"absent","rt":1084.4,"correct":true,"confidence":1},{"trial_n":29,"min":85,"max":170,"target":"present","response":"absent","rt":1132.2999999999,"correct":false,"confidence":4},{"trial_n":30,"min":81,"max":174,"target":"absent","response":"present","rt":929.5,"correct":false,"confidence":3},{"trial_n":31,"min":79,"max":176,"target":"absent","response":"absent","rt":1101.3,"correct":true,"confidence":4},{"trial_n":32,"min":79,"max":176,"target":"absent","response":"present","rt":1104.7999999999,"correct":false,"confidence":3},{"trial_n":33,"min":77,"max":178,"target":"present","response":"absent","rt":974.59999999998,"correct":false,"confidence":4},{"trial_n":34,"min":75,"max":180,"target":"present","response":"present","rt":977.10000000009,"correct":true,"confidence":5},{"trial_n":35,"min":75,"max":180,"target":"present","response":"present","rt":1340.8,"correct":true,"confidence":3},{"trial_n":36,"min":77,"max":178,"target":"present","response":"present","rt":1663.2000000001,"correct":true,"confidence":4},{"trial_n":37,"min":77,"max":178,"target":"present","response":"absent","rt":960.30000000005,"correct":false,"confidence":4},{"trial_n":38,"min":75,"max":180,"target":"present","response":"present","rt":1652.5,"correct":true,"confidence":4},{"trial_n":39,"min":75,"max":180,"target":"absent","response":"absent","rt":1652.2000000001,"correct":true,"confidence":5},{"trial_n":40,"min":77,"max":178,"target":"present","response":"present","rt":994.69999999995,"correct":true,"confidence":3},{"trial_n":41,"min":77,"max":178,"target":"absent","response":"absent","rt":1683.1,"correct":true,"confidence":4},{"trial_n":42,"min":78,"max":177,"target":"absent","response":"absent","rt":1210.5,"correct":true,"confidence":4},{"trial_n":43,"min":78,"max":177,"target":"absent","response":"absent","rt":1216.2,"correct":true,"confidence":4},{"trial_n":44,"min":79,"max":176,"target":"absent","response":"absent","rt":1377.2,"correct":true,"confidence":2},{"trial_n":45,"min":79,"max":176,"target":"present","response":"present","rt":1079.7999999999,"correct":true,"confidence":5},{"trial_n":46,"min":80,"max":175,"target":"present","response":"present","rt":1531.2,"correct":true,"confidence":4},{"trial_n":47,"min":80,"max":175,"target":"present","response":"present","rt":2373.3,"correct":true,"confidence":4},{"trial_n":48,"min":81,"max":174,"target":"present","response":"present","rt":965.89999999991,"correct":true,"confidence":4},{"trial_n":49,"min":81,"max":174,"target":"present","response":"present","rt":1155.9,"correct":true,"confidence":2},{"trial_n":50,"min":82,"max":173,"target":"present","response":"present","rt":1427.6,"correct":true,"confidence":3},{"trial_n":51,"min":82,"max":173,"target":"present","response":"present","rt":2154.7000000001,"correct":true,"confidence":3},{"trial_n":52,"min":83,"max":172,"target":"present","response":"absent","rt":1440.1,"correct":false,"confidence":4},{"trial_n":53,"min":82,"max":173,"target":"present","response":"present","rt":1040.4,"correct":true,"confidence":3},{"trial_n":54,"min":82,"max":173,"target":"present","response":"present","rt":1536.7999999999,"correct":true,"confidence":2},{"trial_n":55,"min":83,"max":172,"target":"absent","response":"absent","rt":1765.2999999999,"correct":true,"confidence":1},{"trial_n":56,"min":83,"max":172,"target":"present","response":"present","rt":1007.7000000001,"correct":true,"confidence":1},{"trial_n":57,"min":84,"max":171,"target":"present","response":"absent","rt":1025.8,"correct":false,"confidence":2},{"trial_n":58,"min":83,"max":172,"target":"absent","response":"present","rt":1170.5,"correct":false,"confidence":3},{"trial_n":59,"min":82,"max":173,"target":"absent","response":"absent","rt":1279.4,"correct":true,"confidence":3},{"trial_n":60,"min":82,"max":173,"target":"present","response":"absent","rt":1118.7,"correct":false,"confidence":4},{"trial_n":61,"min":81,"max":174,"target":"absent","response":"absent","rt":929.30000000005,"correct":true,"confidence":4},{"trial_n":62,"min":81,"max":174,"target":"present","response":"present","rt":1673.2999999999,"correct":true,"confidence":3},{"trial_n":63,"min":82,"max":173,"target":"present","response":"absent","rt":961.40000000002,"correct":false,"confidence":4},{"trial_n":64,"min":81,"max":174,"target":"absent","response":"present","rt":963,"correct":false,"confidence":3},{"trial_n":65,"min":80,"max":175,"target":"absent","response":"absent","rt":1144.3,"correct":true,"confidence":4},{"trial_n":66,"min":80,"max":175,"target":"present","response":"absent","rt":1070.4,"correct":false,"confidence":3},{"trial_n":67,"min":79,"max":176,"target":"absent","response":"present","rt":1210.7000000001,"correct":false,"confidence":2},{"trial_n":68,"min":78,"max":177,"target":"present","response":"absent","rt":1104.1,"correct":false,"confidence":4},{"trial_n":69,"min":77,"max":178,"target":"present","response":"present","rt":1013.8,"correct":true,"confidence":3},{"trial_n":70,"min":77,"max":178,"target":"present","response":"absent","rt":1085.3,"correct":false,"confidence":4},{"trial_n":71,"min":41,"max":214,"target":"present","response":"present","rt":2259.9,"correct":true,"confidence":-1},{"trial_n":72,"min":41,"max":214,"target":"present","response":"present","rt":966.40000000002,"correct":true,"confidence":-1},{"trial_n":73,"min":57,"max":198,"target":"absent","response":"absent","rt":1626.2999999999,"correct":true,"confidence":-1},{"trial_n":74,"min":57,"max":198,"target":"absent","response":"absent","rt":1065.2999999999,"correct":true,"confidence":-1},{"trial_n":75,"min":73,"max":182,"target":"present","response":"present","rt":1246.5,"correct":true,"confidence":-1},{"trial_n":76,"min":73,"max":182,"target":"present","response":"absent","rt":914.90000000002,"correct":false,"confidence":-1},{"trial_n":77,"min":57,"max":198,"target":"present","response":"present","rt":1571,"correct":true,"confidence":-1},{"trial_n":78,"min":57,"max":198,"target":"absent","response":"absent","rt":1206.6,"correct":true,"confidence":-1},{"trial_n":79,"min":73,"max":182,"target":"present","response":"present","rt":1281.4,"correct":true,"confidence":-1},{"trial_n":80,"min":73,"max":182,"target":"absent","response":"absent","rt":2142.1,"correct":true,"confidence":-1},{"trial_n":81,"min":81,"max":174,"target":"present","response":"present","rt":996.20000000007,"correct":true,"confidence":-1},{"trial_n":82,"min":81,"max":174,"target":"present","response":"present","rt":1307.5,"correct":true,"confidence":-1},{"trial_n":83,"min":89,"max":166,"target":"present","response":"present","rt":803.29999999993,"correct":true,"confidence":-1},{"trial_n":84,"min":89,"max":166,"target":"present","response":"present","rt":1107.3,"correct":true,"confidence":-1},{"trial_n":85,"min":97,"max":158,"target":"present","response":"present","rt":612.40000000002,"correct":true,"confidence":-1},{"trial_n":86,"min":97,"max":158,"target":"absent","response":"absent","rt":1589.6000000001,"correct":true,"confidence":-1},{"trial_n":87,"min":105,"max":150,"target":"present","response":"present","rt":1313.8,"correct":true,"confidence":-1},{"trial_n":88,"min":105,"max":150,"target":"absent","response":"present","rt":943.19999999995,"correct":false,"confidence":-1},{"trial_n":89,"min":97,"max":158,"target":"absent","response":"absent","rt":1323.6,"correct":true,"confidence":-1},{"trial_n":90,"min":97,"max":158,"target":"absent","response":"present","rt":744.40000000002,"correct":false,"confidence":-1},{"trial_n":91,"min":93,"max":162,"target":"absent","response":"absent","rt":1056.7000000001,"correct":true,"confidence":2},{"trial_n":92,"min":93,"max":162,"target":"absent","response":"present","rt":852.40000000002,"correct":false,"confidence":3},{"trial_n":93,"min":89,"max":166,"target":"present","response":"absent","rt":1180.7999999999,"correct":false,"confidence":3},{"trial_n":94,"min":85,"max":170,"target":"absent","response":"present","rt":1024.4,"correct":false,"confidence":3},{"trial_n":95,"min":81,"max":174,"target":"present","response":"present","rt":1080.7,"correct":true,"confidence":4},{"trial_n":96,"min":81,"max":174,"target":"absent","response":"absent","rt":1134.7,"correct":true,"confidence":3},{"trial_n":97,"min":85,"max":170,"target":"absent","response":"present","rt":961.90000000002,"correct":false,"confidence":2},{"trial_n":98,"min":81,"max":174,"target":"absent","response":"absent","rt":1073.4,"correct":true,"confidence":4},{"trial_n":99,"min":81,"max":174,"target":"absent","response":"present","rt":1131.7999999999,"correct":false,"confidence":4},{"trial_n":100,"min":77,"max":178,"target":"absent","response":"absent","rt":2213.8,"correct":true,"confidence":4},{"trial_n":101,"min":77,"max":178,"target":"absent","response":"absent","rt":1085.5,"correct":true,"confidence":4},{"trial_n":102,"min":79,"max":176,"target":"present","response":"present","rt":976.30000000005,"correct":true,"confidence":3},{"trial_n":103,"min":79,"max":176,"target":"present","response":"present","rt":1481,"correct":true,"confidence":4},{"trial_n":104,"min":81,"max":174,"target":"present","response":"present","rt":994.30000000005,"correct":true,"confidence":3},{"trial_n":105,"min":81,"max":174,"target":"present","response":"absent","rt":1338.7999999999,"correct":false,"confidence":3},{"trial_n":106,"min":79,"max":176,"target":"absent","response":"present","rt":963.09999999998,"correct":false,"confidence":3},{"trial_n":107,"min":77,"max":178,"target":"absent","response":"absent","rt":1310.2000000001,"correct":true,"confidence":4},{"trial_n":108,"min":77,"max":178,"target":"present","response":"present","rt":1121,"correct":true,"confidence":3},{"trial_n":109,"min":79,"max":176,"target":"present","response":"present","rt":1085.8,"correct":true,"confidence":3},{"trial_n":110,"min":79,"max":176,"target":"present","response":"present","rt":1278.1000000001,"correct":true,"confidence":4},{"trial_n":111,"min":80,"max":175,"target":"absent","response":"present","rt":1227.3,"correct":false,"confidence":4},{"trial_n":112,"min":79,"max":176,"target":"absent","response":"present","rt":1211.6000000001,"correct":false,"confidence":3},{"trial_n":113,"min":78,"max":177,"target":"present","response":"present","rt":925.80000000005,"correct":true,"confidence":5},{"trial_n":114,"min":78,"max":177,"target":"absent","response":"absent","rt":1009.6,"correct":true,"confidence":2},{"trial_n":115,"min":79,"max":176,"target":"absent","response":"absent","rt":2431.2000000001,"correct":true,"confidence":3},{"trial_n":116,"min":79,"max":176,"target":"present","response":"present","rt":1876.7,"correct":true,"confidence":4},{"trial_n":117,"min":80,"max":175,"target":"absent","response":"present","rt":1084.1,"correct":false,"confidence":3},{"trial_n":118,"min":79,"max":176,"target":"absent","response":"present","rt":1011.2,"correct":false,"confidence":1},{"trial_n":119,"min":78,"max":177,"target":"absent","response":"absent","rt":1194.7,"correct":true,"confidence":1},{"trial_n":120,"min":78,"max":177,"target":"absent","response":"absent","rt":947.30000000005,"correct":true,"confidence":3},{"trial_n":121,"min":79,"max":176,"target":"absent","response":"absent","rt":1266.5,"correct":true,"confidence":3},{"trial_n":122,"min":79,"max":176,"target":"present","response":"present","rt":695.30000000005,"correct":true,"confidence":4},{"trial_n":123,"min":80,"max":175,"target":"present","response":"absent","rt":1917.3,"correct":false,"confidence":1},{"trial_n":124,"min":79,"max":176,"target":"present","response":"present","rt":1306.5,"correct":true,"confidence":3},{"trial_n":125,"min":79,"max":176,"target":"absent","response":"absent","rt":1293.5999999999,"correct":true,"confidence":4},{"trial_n":126,"min":80,"max":175,"target":"absent","response":"present","rt":1147.6000000001,"correct":false,"confidence":3},{"trial_n":127,"min":79,"max":176,"target":"present","response":"absent","rt":1234.3,"correct":false,"confidence":4},{"trial_n":128,"min":78,"max":177,"target":"present","response":"absent","rt":992.90000000014,"correct":false,"confidence":1},{"trial_n":129,"min":77,"max":178,"target":"present","response":"present","rt":1845.2,"correct":true,"confidence":4},{"trial_n":130,"min":77,"max":178,"target":"present","response":"present","rt":2351.8,"correct":true,"confidence":5},{"trial_n":131,"min":78,"max":177,"target":"absent","response":"present","rt":1445,"correct":false,"confidence":4},{"trial_n":132,"min":77,"max":178,"target":"absent","response":"absent","rt":1366.5,"correct":true,"confidence":3},{"trial_n":133,"min":77,"max":178,"target":"present","response":"present","rt":851.80000000005,"correct":true,"confidence":4},{"trial_n":134,"min":78,"max":177,"target":"absent","response":"absent","rt":1485.4000000001,"correct":true,"confidence":3},{"trial_n":135,"min":78,"max":177,"target":"present","response":"present","rt":992.39999999991,"correct":true,"confidence":1},{"trial_n":136,"min":79,"max":176,"target":"present","response":"present","rt":2334.0999999999,"correct":true,"confidence":4},{"trial_n":137,"min":79,"max":176,"target":"present","response":"present","rt":961.5,"correct":true,"confidence":1},{"trial_n":138,"min":80,"max":175,"target":"present","response":"absent","rt":1007.3,"correct":false,"confidence":4},{"trial_n":139,"min":79,"max":176,"target":"present","response":"present","rt":819.5,"correct":true,"confidence":3},{"trial_n":140,"min":79,"max":176,"target":"absent","response":"absent","rt":1071.5,"correct":true,"confidence":2}]