[{"trial_n":1,"min":25,"max":230,"target":"present","response":"present","rt":5211,"correct":true,"confidence":-1},{"trial_n":2,"min":25,"max":230,"target":"present","response":"present","rt":758.40000009537,"correct":true,"confidence":-1},{"trial_n":3,"min":41,"max":214,"target":"absent","response":"absent","rt":1437.5,"correct":true,"confidence":-1},{"trial_n":4,"min":41,"max":214,"target":"absent","response":"absent","rt":707.59999990463,"correct":true,"confidence":-1},{"trial_n":5,"min":57,"max":198,"target":"present","response":"present","rt":1090.8999996185,"correct":true,"confidence":-1},{"trial_n":6,"min":57,"max":198,"target":"present","response":"present","rt":678.2000002861,"correct":true,"confidence":-1},{"trial_n":7,"min":73,"max":182,"target":"absent","response":"absent","rt":1249.6000003815,"correct":true,"confidence":-1},{"trial_n":8,"min":73,"max":182,"target":"absent","response":"absent","rt":709,"correct":true,"confidence":-1},{"trial_n":9,"min":89,"max":166,"target":"absent","response":"absent","rt":630.80000019073,"correct":true,"confidence":-1},{"trial_n":10,"min":89,"max":166,"target":"absent","response":"absent","rt":660.89999961853,"correct":true,"confidence":-1},{"trial_n":11,"min":97,"max":158,"target":"absent","response":"absent","rt":772.2000002861,"correct":true,"confidence":-1},{"trial_n":12,"min":97,"max":158,"target":"absent","response":"absent","rt":677.59999990463,"correct":true,"confidence":-1},{"trial_n":13,"min":105,"max":150,"target":"absent","response":"absent","rt":520.10000038147,"correct":true,"confidence":-1},{"trial_n":14,"min":105,"max":150,"target":"absent","response":"absent","rt":521.2000002861,"correct":true,"confidence":-1},{"trial_n":15,"min":113,"max":142,"target":"present","response":"absent","rt":613.59999990463,"correct":false,"confidence":-1},{"trial_n":16,"min":105,"max":150,"target":"absent","response":"absent","rt":914.40000009537,"correct":true,"confidence":-1},{"trial_n":17,"min":105,"max":150,"target":"absent","response":"absent","rt":567.59999990463,"correct":true,"confidence":-1},{"trial_n":18,"min":113,"max":142,"target":"present","response":"present","rt":1406,"correct":true,"confidence":-1},{"trial_n":19,"min":113,"max":142,"target":"absent","response":"present","rt":645.09999990463,"correct":false,"confidence":-1},{"trial_n":20,"min":105,"max":150,"target":"present","response":"present","rt":707.5,"correct":true,"confidence":-1},{"trial_n":21,"min":105,"max":150,"target":"present","response":"present","rt":677.30000019073,"correct":true,"confidence":3},{"trial_n":22,"min":109,"max":146,"target":"present","response":"present","rt":1230.5999999046,"correct":true,"confidence":3},{"trial_n":23,"min":109,"max":146,"target":"present","response":"absent","rt":1363.2999997139,"correct":false,"confidence":4},{"trial_n":24,"min":105,"max":150,"target":"present","response":"absent","rt":1312.6999998093,"correct":false,"confidence":4},{"trial_n":25,"min":101,"max":154,"target":"present","response":"absent","rt":1329.9000000954,"correct":false,"confidence":4},{"trial_n":26,"min":97,"max":158,"target":"present","response":"absent","rt":1406.9000000954,"correct":false,"confidence":4},{"trial_n":27,"min":93,"max":162,"target":"absent","response":"present","rt":1282.7999997139,"correct":false,"confidence":3},{"trial_n":28,"min":89,"max":166,"target":"present","response":"present","rt":1143.8000001907,"correct":true,"confidence":5},{"trial_n":29,"min":89,"max":166,"target":"present","response":"absent","rt":2150.5999999046,"correct":false,"confidence":4},{"trial_n":30,"min":85,"max":170,"target":"absent","response":"present","rt":1341.7000002861,"correct":false,"confidence":3},{"trial_n":31,"min":83,"max":172,"target":"present","response":"absent","rt":2577.6000003815,"correct":false,"confidence":3},{"trial_n":32,"min":81,"max":174,"target":"present","response":"present","rt":1438.7000002861,"correct":true,"confidence":5},{"trial_n":33,"min":81,"max":174,"target":"absent","response":"present","rt":1345.5999999046,"correct":false,"confidence":3},{"trial_n":34,"min":79,"max":176,"target":"absent","response":"absent","rt":1773.7999997139,"correct":true,"confidence":4},{"trial_n":35,"min":79,"max":176,"target":"present","response":"present","rt":1152.5999999046,"correct":true,"confidence":5},{"trial_n":36,"min":81,"max":174,"target":"present","response":"present","rt":1170.5999999046,"correct":true,"confidence":5},{"trial_n":37,"min":81,"max":174,"target":"absent","response":"absent","rt":1185.3000001907,"correct":true,"confidence":4},{"trial_n":38,"min":83,"max":172,"target":"absent","response":"absent","rt":2006.0999999046,"correct":true,"confidence":4},{"trial_n":39,"min":83,"max":172,"target":"present","response":"present","rt":1296.0999999046,"correct":true,"confidence":5},{"trial_n":40,"min":85,"max":170,"target":"absent","response":"present","rt":1375.0999999046,"correct":false,"confidence":3},{"trial_n":41,"min":84,"max":171,"target":"present","response":"present","rt":1136.2999997139,"correct":true,"confidence":5},{"trial_n":42,"min":84,"max":171,"target":"absent","response":"present","rt":1137.5,"correct":false,"confidence":3},{"trial_n":43,"min":83,"max":172,"target":"present","response":"present","rt":996.30000019073,"correct":true,"confidence":5},{"trial_n":44,"min":83,"max":172,"target":"present","response":"present","rt":1329,"correct":true,"confidence":5},{"trial_n":45,"min":84,"max":171,"target":"present","response":"present","rt":1452.2999997139,"correct":true,"confidence":5},{"trial_n":46,"min":84,"max":171,"target":"present","response":"present","rt":963.19999980927,"correct":true,"confidence":5},{"trial_n":47,"min":85,"max":170,"target":"present","response":"present","rt":1279.0999999046,"correct":true,"confidence":5},{"trial_n":48,"min":85,"max":170,"target":"absent","response":"absent","rt":1374.4000000954,"correct":true,"confidence":5},{"trial_n":49,"min":86,"max":169,"target":"present","response":"present","rt":1549.4000000954,"correct":true,"confidence":5},{"trial_n":50,"min":86,"max":169,"target":"absent","response":"absent","rt":1357.5999999046,"correct":true,"confidence":4},{"trial_n":51,"min":87,"max":168,"target":"absent","response":"present","rt":1754.6999998093,"correct":false,"confidence":4},{"trial_n":52,"min":86,"max":169,"target":"absent","response":"absent","rt":1199.9000000954,"correct":true,"confidence":4},{"trial_n":53,"min":86,"max":169,"target":"present","response":"present","rt":1073.3000001907,"correct":true,"confidence":5},{"trial_n":54,"min":87,"max":168,"target":"absent","response":"absent","rt":2089.0999999046,"correct":true,"confidence":4},{"trial_n":55,"min":87,"max":168,"target":"present","response":"present","rt":1122,"correct":true,"confidence":5},{"trial_n":56,"min":88,"max":167,"target":"present","response":"present","rt":1042.5,"correct":true,"confidence":4},{"trial_n":57,"min":88,"max":167,"target":"absent","response":"absent","rt":1233,"correct":true,"confidence":4},{"trial_n":58,"min":89,"max":166,"target":"absent","response":"present","rt":1172.6999998093,"correct":false,"confidence":3},{"trial_n":59,"min":88,"max":167,"target":"present","response":"absent","rt":1452.7000002861,"correct":false,"confidence":3},{"trial_n":60,"min":87,"max":168,"target":"absent","response":"absent","rt":1215,"correct":true,"confidence":4},{"trial_n":61,"min":87,"max":168,"target":"present","response":"absent","rt":1373.2999997139,"correct":false,"confidence":2},{"trial_n":62,"min":86,"max":169,"target":"absent","response":"absent","rt":1391.2000002861,"correct":true,"confidence":3},{"trial_n":63,"min":86,"max":169,"target":"present","response":"present","rt":1155.7000002861,"correct":true,"confidence":5},{"trial_n":64,"min":87,"max":168,"target":"absent","response":"absent","rt":1435.6999998093,"correct":true,"confidence":3},{"trial_n":65,"min":87,"max":168,"target":"absent","response":"absent","rt":1137.5,"correct":true,"confidence":4},{"trial_n":66,"min":88,"max":167,"target":"absent","response":"absent","rt":1245.4000000954,"correct":true,"confidence":4},{"trial_n":67,"min":88,"max":167,"target":"present","response":"present","rt":1060.0999999046,"correct":true,"confidence":5},{"trial_n":68,"min":89,"max":166,"target":"present","response":"present","rt":947.39999961853,"correct":true,"confidence":5},{"trial_n":69,"min":89,"max":166,"target":"present","response":"present","rt":1168.2999997139,"correct":true,"confidence":4},{"trial_n":70,"min":90,"max":165,"target":"absent","response":"present","rt":1058.6999998093,"correct":false,"confidence":3},{"trial_n":71,"min":41,"max":214,"target":"present","response":"present","rt":2879.5,"correct":true,"confidence":-1},{"trial_n":72,"min":41,"max":214,"target":"present","response":"present","rt":841.60000038147,"correct":true,"confidence":-1},{"trial_n":73,"min":57,"max":198,"target":"absent","response":"absent","rt":1072.9000000954,"correct":true,"confidence":-1},{"trial_n":74,"min":57,"max":198,"target":"absent","response":"absent","rt":772.09999990463,"correct":true,"confidence":-1},{"trial_n":75,"min":73,"max":182,"target":"present","response":"present","rt":2008.5,"correct":true,"confidence":-1},{"trial_n":76,"min":73,"max":182,"target":"present","response":"present","rt":1395.0999999046,"correct":true,"confidence":-1},{"trial_n":77,"min":89,"max":166,"target":"absent","response":"present","rt":1435.3000001907,"correct":false,"confidence":-1},{"trial_n":78,"min":73,"max":182,"target":"present","response":"present","rt":1717.5,"correct":true,"confidence":-1},{"trial_n":79,"min":73,"max":182,"target":"present","response":"present","rt":777.90000009537,"correct":true,"confidence":-1},{"trial_n":80,"min":89,"max":166,"target":"absent","response":"present","rt":1295.4000000954,"correct":false,"confidence":-1},{"trial_n":81,"min":81,"max":174,"target":"absent","response":"absent","rt":1313.0999999046,"correct":true,"confidence":-1},{"trial_n":82,"min":81,"max":174,"target":"present","response":"present","rt":1263.1999998093,"correct":true,"confidence":-1},{"trial_n":83,"min":89,"max":166,"target":"present","response":"present","rt":994.90000009537,"correct":true,"confidence":-1},{"trial_n":84,"min":89,"max":166,"target":"present","response":"present","rt":1296.9000000954,"correct":true,"confidence":-1},{"trial_n":85,"min":97,"max":158,"target":"present","response":"present","rt":1220.1999998093,"correct":true,"confidence":-1},{"trial_n":86,"min":97,"max":158,"target":"absent","response":"present","rt":964.19999980927,"correct":false,"confidence":-1},{"trial_n":87,"min":89,"max":166,"target":"absent","response":"absent","rt":1806.3999996185,"correct":true,"confidence":-1},{"trial_n":88,"min":89,"max":166,"target":"absent","response":"present","rt":1251.9000000954,"correct":false,"confidence":-1},{"trial_n":89,"min":81,"max":174,"target":"present","response":"present","rt":1091.0999999046,"correct":true,"confidence":-1},{"trial_n":90,"min":81,"max":174,"target":"absent","response":"absent","rt":1171.6999998093,"correct":true,"confidence":-1},{"trial_n":91,"min":85,"max":170,"target":"present","response":"present","rt":1217.5999999046,"correct":true,"confidence":2},{"trial_n":92,"min":85,"max":170,"target":"present","response":"present","rt":1030.6999998093,"correct":true,"confidence":3},{"trial_n":93,"min":89,"max":166,"target":"absent","response":"absent","rt":1248.7999997139,"correct":true,"confidence":3},{"trial_n":94,"min":89,"max":166,"target":"present","response":"present","rt":1200.1000003815,"correct":true,"confidence":3},{"trial_n":95,"min":93,"max":162,"target":"present","response":"present","rt":1168.1000003815,"correct":true,"confidence":2},{"trial_n":96,"min":93,"max":162,"target":"present","response":"present","rt":1137,"correct":true,"confidence":3},{"trial_n":97,"min":97,"max":158,"target":"absent","response":"absent","rt":1312,"correct":true,"confidence":4},{"trial_n":98,"min":97,"max":158,"target":"absent","response":"present","rt":1155.1999998093,"correct":false,"confidence":2},{"trial_n":99,"min":93,"max":162,"target":"absent","response":"absent","rt":2025.8000001907,"correct":true,"confidence":4},{"trial_n":100,"min":93,"max":162,"target":"present","response":"present","rt":1060.6000003815,"correct":true,"confidence":5},{"trial_n":101,"min":95,"max":160,"target":"present","response":"present","rt":1167.8999996185,"correct":true,"confidence":3},{"trial_n":102,"min":95,"max":160,"target":"present","response":"present","rt":1102.6999998093,"correct":true,"confidence":2},{"trial_n":103,"min":97,"max":158,"target":"present","response":"present","rt":1630.3999996185,"correct":true,"confidence":2},{"trial_n":104,"min":97,"max":158,"target":"present","response":"present","rt":1201.3000001907,"correct":true,"confidence":2},{"trial_n":105,"min":99,"max":156,"target":"absent","response":"absent","rt":1661,"correct":true,"confidence":3},{"trial_n":106,"min":99,"max":156,"target":"present","response":"present","rt":1262.6999998093,"correct":true,"confidence":2},{"trial_n":107,"min":101,"max":154,"target":"present","response":"present","rt":1627.4000000954,"correct":true,"confidence":2},{"trial_n":108,"min":101,"max":154,"target":"present","response":"present","rt":1293.7999997139,"correct":true,"confidence":2},{"trial_n":109,"min":103,"max":152,"target":"absent","response":"present","rt":1185.3000001907,"correct":false,"confidence":3},{"trial_n":110,"min":101,"max":154,"target":"present","response":"present","rt":1028.9000000954,"correct":true,"confidence":2},{"trial_n":111,"min":101,"max":154,"target":"present","response":"absent","rt":1389.9000000954,"correct":false,"confidence":3},{"trial_n":112,"min":100,"max":155,"target":"absent","response":"absent","rt":1342.0999999046,"correct":true,"confidence":4},{"trial_n":113,"min":100,"max":155,"target":"absent","response":"present","rt":2247,"correct":false,"confidence":3},{"trial_n":114,"min":99,"max":156,"target":"absent","response":"present","rt":1199,"correct":false,"confidence":3},{"trial_n":115,"min":98,"max":157,"target":"absent","response":"present","rt":1214.3999996185,"correct":false,"confidence":3},{"trial_n":116,"min":97,"max":158,"target":"absent","response":"present","rt":1562.9000000954,"correct":false,"confidence":2},{"trial_n":117,"min":96,"max":159,"target":"absent","response":"present","rt":1281.8999996185,"correct":false,"confidence":3},{"trial_n":118,"min":95,"max":160,"target":"present","response":"present","rt":1120.9000000954,"correct":true,"confidence":4},{"trial_n":119,"min":95,"max":160,"target":"absent","response":"present","rt":1578.4000000954,"correct":false,"confidence":4},{"trial_n":120,"min":94,"max":161,"target":"absent","response":"present","rt":1329.2000002861,"correct":false,"confidence":2},{"trial_n":121,"min":93,"max":162,"target":"absent","response":"present","rt":1134.7000002861,"correct":false,"confidence":2},{"trial_n":122,"min":92,"max":163,"target":"absent","response":"present","rt":1014.0999999046,"correct":false,"confidence":2},{"trial_n":123,"min":91,"max":164,"target":"present","response":"present","rt":3345.5999999046,"correct":true,"confidence":1},{"trial_n":124,"min":91,"max":164,"target":"present","response":"present","rt":1325.8000001907,"correct":true,"confidence":5},{"trial_n":125,"min":92,"max":163,"target":"present","response":"present","rt":1233.9000000954,"correct":true,"confidence":4},{"trial_n":126,"min":92,"max":163,"target":"absent","response":"present","rt":1075.1999998093,"correct":false,"confidence":2},{"trial_n":127,"min":91,"max":164,"target":"absent","response":"absent","rt":2335.6000003815,"correct":true,"confidence":4},{"trial_n":128,"min":91,"max":164,"target":"absent","response":"absent","rt":1422.7000002861,"correct":true,"confidence":3},{"trial_n":129,"min":92,"max":163,"target":"absent","response":"absent","rt":1293.5999999046,"correct":true,"confidence":3},{"trial_n":130,"min":92,"max":163,"target":"present","response":"absent","rt":1419.6999998093,"correct":false,"confidence":3},{"trial_n":131,"min":91,"max":164,"target":"present","response":"present","rt":1640.9000000954,"correct":true,"confidence":4},{"trial_n":132,"min":91,"max":164,"target":"absent","response":"absent","rt":1185.4000000954,"correct":true,"confidence":4},{"trial_n":133,"min":92,"max":163,"target":"present","response":"present","rt":1045.8999996185,"correct":true,"confidence":4},{"trial_n":134,"min":92,"max":163,"target":"present","response":"present","rt":1627.0999999046,"correct":true,"confidence":3},{"trial_n":135,"min":93,"max":162,"target":"present","response":"present","rt":1183.3000001907,"correct":true,"confidence":5},{"trial_n":136,"min":93,"max":162,"target":"absent","response":"present","rt":2608.1999998093,"correct":false,"confidence":2},{"trial_n":137,"min":92,"max":163,"target":"absent","response":"absent","rt":1782.8000001907,"correct":true,"confidence":4},{"trial_n":138,"min":92,"max":163,"target":"absent","response":"absent","rt":1989.5999999046,"correct":true,"confidence":3},{"trial_n":139,"min":93,"max":162,"target":"absent","response":"present","rt":1043.6999998093,"correct":false,"confidence":5},{"trial_n":140,"min":92,"max":163,"target":"present","response":"present","rt":1168.1999998093,"correct":true,"confidence":5}]