[{"trial_n":1,"n_dots":4.25,"target":"right","response":"right","rt":4393.7999999523,"correct":true,"confidence":-1},{"trial_n":2,"n_dots":4.25,"target":"left","response":"left","rt":409.90000003576,"correct":true,"confidence":-1},{"trial_n":3,"n_dots":3.85,"target":"left","response":"left","rt":265.5,"correct":true,"confidence":-1},{"trial_n":4,"n_dots":3.85,"target":"left","response":"right","rt":268.10000002384,"correct":false,"confidence":-1},{"trial_n":5,"n_dots":4.25,"target":"right","response":"right","rt":193.30000001192,"correct":true,"confidence":-1},{"trial_n":6,"n_dots":4.25,"target":"right","response":"left","rt":121.19999998808,"correct":false,"confidence":-1},{"trial_n":7,"n_dots":4.65,"target":"right","response":"right","rt":353.30000001192,"correct":true,"confidence":-1},{"trial_n":8,"n_dots":4.65,"target":"left","response":"left","rt":888.30000001192,"correct":true,"confidence":-1},{"trial_n":9,"n_dots":4.45,"target":"left","response":"right","rt":692.59999996424,"correct":false,"confidence":-1},{"trial_n":10,"n_dots":4.65,"target":"right","response":"right","rt":103.30000001192,"correct":true,"confidence":-1},{"trial_n":11,"n_dots":4.65,"target":"right","response":"right","rt":279.30000001192,"correct":true,"confidence":-1},{"trial_n":12,"n_dots":4.45,"target":"left","response":"left","rt":221.5,"correct":true,"confidence":-1},{"trial_n":13,"n_dots":4.45,"target":"left","response":"left","rt":213.80000001192,"correct":true,"confidence":-1},{"trial_n":14,"n_dots":4.35,"target":"left","response":"left","rt":26.699999988079,"correct":true,"confidence":-1},{"trial_n":15,"n_dots":4.35,"target":"right","response":"right","rt":82.900000035763,"correct":true,"confidence":-1},{"trial_n":16,"n_dots":4.25,"target":"right","response":"right","rt":159.80000001192,"correct":true,"confidence":-1},{"trial_n":17,"n_dots":4.25,"target":"right","response":"right","rt":243.5,"correct":true,"confidence":-1},{"trial_n":18,"n_dots":4.15,"target":"right","response":"right","rt":266.09999996424,"correct":true,"confidence":-1},{"trial_n":19,"n_dots":4.15,"target":"right","response":"right","rt":213.20000004768,"correct":true,"confidence":-1},{"trial_n":20,"n_dots":4.05,"target":"left","response":"left","rt":230.90000003576,"correct":true,"confidence":-1},{"trial_n":21,"n_dots":4.05,"target":"left","response":"left","rt":46.699999988079,"correct":true,"confidence":5},{"trial_n":22,"n_dots":3.95,"target":"left","response":"left","rt":1156,"correct":true,"confidence":5},{"trial_n":23,"n_dots":3.95,"target":"left","response":"left","rt":593.69999998808,"correct":true,"confidence":5},{"trial_n":24,"n_dots":3.85,"target":"left","response":"left","rt":351,"correct":true,"confidence":5},{"trial_n":25,"n_dots":3.85,"target":"right","response":"right","rt":408.39999997616,"correct":true,"confidence":1},{"trial_n":26,"n_dots":3.75,"target":"right","response":"right","rt":468.39999997616,"correct":true,"confidence":5},{"trial_n":27,"n_dots":3.75,"target":"right","response":"right","rt":643,"correct":true,"confidence":5},{"trial_n":28,"n_dots":3.65,"target":"right","response":"right","rt":1230,"correct":true,"confidence":1},{"trial_n":29,"n_dots":3.65,"target":"left","response":"left","rt":1167.8000000119,"correct":true,"confidence":4},{"trial_n":30,"n_dots":3.55,"target":"left","response":"right","rt":1735.2999999523,"correct":false,"confidence":1},{"trial_n":31,"n_dots":3.65,"target":"right","response":"right","rt":756.89999997616,"correct":true,"confidence":5},{"trial_n":32,"n_dots":3.65,"target":"left","response":"left","rt":600.5,"correct":true,"confidence":4},{"trial_n":33,"n_dots":3.55,"target":"right","response":"right","rt":1377.7999999523,"correct":true,"confidence":1},{"trial_n":34,"n_dots":3.55,"target":"left","response":"left","rt":1046,"correct":true,"confidence":5},{"trial_n":35,"n_dots":3.45,"target":"left","response":"left","rt":1811.1999999881,"correct":true,"confidence":2},{"trial_n":36,"n_dots":3.45,"target":"right","response":"right","rt":530.80000001192,"correct":true,"confidence":5},{"trial_n":37,"n_dots":3.35,"target":"right","response":"right","rt":640.5,"correct":true,"confidence":1},{"trial_n":38,"n_dots":3.35,"target":"left","response":"left","rt":913.5,"correct":true,"confidence":4},{"trial_n":39,"n_dots":3.25,"target":"left","response":"left","rt":1581.5,"correct":true,"confidence":2},{"trial_n":40,"n_dots":3.25,"target":"right","response":"right","rt":872.39999997616,"correct":true,"confidence":5},{"trial_n":41,"n_dots":3.15,"target":"right","response":"right","rt":942,"correct":true,"confidence":1},{"trial_n":42,"n_dots":3.15,"target":"right","response":"right","rt":608.60000002384,"correct":true,"confidence":5},{"trial_n":43,"n_dots":3.05,"target":"left","response":"left","rt":615.59999996424,"correct":true,"confidence":3},{"trial_n":44,"n_dots":3.05,"target":"right","response":"left","rt":1249.1000000238,"correct":false,"confidence":4},{"trial_n":45,"n_dots":3.15,"target":"right","response":"right","rt":498.09999996424,"correct":true,"confidence":5},{"trial_n":46,"n_dots":3.15,"target":"left","response":"left","rt":735.69999998808,"correct":true,"confidence":3},{"trial_n":47,"n_dots":3.05,"target":"left","response":"right","rt":1135.1999999881,"correct":false,"confidence":5},{"trial_n":48,"n_dots":3.15,"target":"left","response":"left","rt":1035.1999999881,"correct":true,"confidence":2},{"trial_n":49,"n_dots":3.15,"target":"right","response":"left","rt":621.69999998808,"correct":false,"confidence":3},{"trial_n":50,"n_dots":3.25,"target":"right","response":"left","rt":791.5,"correct":false,"confidence":4},{"trial_n":51,"n_dots":3.35,"target":"left","response":"left","rt":544.40000003576,"correct":true,"confidence":3},{"trial_n":52,"n_dots":3.35,"target":"left","response":"left","rt":902.69999998808,"correct":true,"confidence":3},{"trial_n":53,"n_dots":3.25,"target":"right","response":"right","rt":550.09999996424,"correct":true,"confidence":1},{"trial_n":54,"n_dots":3.25,"target":"right","response":"right","rt":487.79999995232,"correct":true,"confidence":5},{"trial_n":55,"n_dots":3.15,"target":"left","response":"right","rt":663.69999998808,"correct":false,"confidence":5},{"trial_n":56,"n_dots":3.25,"target":"right","response":"right","rt":445.59999996424,"correct":true,"confidence":5},{"trial_n":57,"n_dots":3.25,"target":"right","response":"left","rt":700.90000003576,"correct":false,"confidence":3},{"trial_n":58,"n_dots":3.35,"target":"left","response":"left","rt":363.80000001192,"correct":true,"confidence":4},{"trial_n":59,"n_dots":3.35,"target":"left","response":"left","rt":415.5,"correct":true,"confidence":4},{"trial_n":60,"n_dots":3.25,"target":"right","response":"right","rt":621.20000004768,"correct":true,"confidence":5},{"trial_n":61,"n_dots":3.25,"target":"left","response":"left","rt":859.30000001192,"correct":true,"confidence":4},{"trial_n":62,"n_dots":3.15,"target":"left","response":"left","rt":726.10000002384,"correct":true,"confidence":3},{"trial_n":63,"n_dots":3.15,"target":"left","response":"left","rt":372.89999997616,"correct":true,"confidence":5},{"trial_n":64,"n_dots":3.05,"target":"left","response":"left","rt":533.90000003576,"correct":true,"confidence":3},{"trial_n":65,"n_dots":3.05,"target":"left","response":"left","rt":716.30000001192,"correct":true,"confidence":4},{"trial_n":66,"n_dots":2.95,"target":"left","response":"left","rt":758,"correct":true,"confidence":3},{"trial_n":67,"n_dots":2.95,"target":"right","response":"right","rt":447.69999998808,"correct":true,"confidence":4},{"trial_n":68,"n_dots":2.85,"target":"left","response":"left","rt":421.40000003576,"correct":true,"confidence":3},{"trial_n":69,"n_dots":2.85,"target":"left","response":"left","rt":361.39999997616,"correct":true,"confidence":4},{"trial_n":70,"n_dots":2.75,"target":"right","response":"right","rt":397,"correct":true,"confidence":5},{"trial_n":71,"n_dots":2.75,"target":"left","response":"left","rt":319.10000002384,"correct":true,"confidence":2},{"trial_n":72,"n_dots":2.65,"target":"left","response":"left","rt":817.89999997616,"correct":true,"confidence":4},{"trial_n":73,"n_dots":2.65,"target":"left","response":"left","rt":390.60000002384,"correct":true,"confidence":3},{"trial_n":74,"n_dots":2.55,"target":"left","response":"left","rt":449.5,"correct":true,"confidence":4},{"trial_n":75,"n_dots":2.55,"target":"right","response":"right","rt":353.19999998808,"correct":true,"confidence":5},{"trial_n":76,"n_dots":2.45,"target":"left","response":"left","rt":339.19999998808,"correct":true,"confidence":4},{"trial_n":77,"n_dots":2.45,"target":"left","response":"right","rt":860.10000002384,"correct":false,"confidence":5},{"trial_n":78,"n_dots":2.55,"target":"right","response":"right","rt":428.30000001192,"correct":true,"confidence":5},{"trial_n":79,"n_dots":2.55,"target":"right","response":"right","rt":487.5,"correct":true,"confidence":5},{"trial_n":80,"n_dots":2.45,"target":"right","response":"right","rt":415.09999996424,"correct":true,"confidence":1},{"trial_n":81,"n_dots":2.45,"target":"right","response":"right","rt":598.09999996424,"correct":true,"confidence":4},{"trial_n":82,"n_dots":2.35,"target":"left","response":"left","rt":768.19999998808,"correct":true,"confidence":3},{"trial_n":83,"n_dots":2.35,"target":"right","response":"right","rt":629.30000001192,"correct":true,"confidence":1},{"trial_n":84,"n_dots":2.25,"target":"left","response":"right","rt":715.10000002384,"correct":false,"confidence":4},{"trial_n":85,"n_dots":2.35,"target":"left","response":"left","rt":657.10000002384,"correct":true,"confidence":3},{"trial_n":86,"n_dots":2.35,"target":"left","response":"left","rt":513.19999998808,"correct":true,"confidence":2},{"trial_n":87,"n_dots":2.25,"target":"left","response":"right","rt":492,"correct":false,"confidence":4},{"trial_n":88,"n_dots":2.35,"target":"right","response":"right","rt":560.30000001192,"correct":true,"confidence":5},{"trial_n":89,"n_dots":2.35,"target":"left","response":"left","rt":742.80000001192,"correct":true,"confidence":3},{"trial_n":90,"n_dots":2.25,"target":"right","response":"right","rt":450.19999998808,"correct":true,"confidence":4},{"trial_n":91,"n_dots":2.25,"target":"left","response":"right","rt":464.19999998808,"correct":false,"confidence":5},{"trial_n":92,"n_dots":2.35,"target":"right","response":"right","rt":439.30000001192,"correct":true,"confidence":1},{"trial_n":93,"n_dots":2.35,"target":"left","response":"right","rt":1744.1999999881,"correct":false,"confidence":4},{"trial_n":94,"n_dots":2.45,"target":"right","response":"left","rt":512.69999998808,"correct":false,"confidence":3},{"trial_n":95,"n_dots":2.55,"target":"right","response":"right","rt":402.5,"correct":true,"confidence":4},{"trial_n":96,"n_dots":2.55,"target":"left","response":"left","rt":449,"correct":true,"confidence":3},{"trial_n":97,"n_dots":2.45,"target":"right","response":"right","rt":443.19999998808,"correct":true,"confidence":2},{"trial_n":98,"n_dots":2.45,"target":"right","response":"left","rt":325.40000003576,"correct":false,"confidence":3},{"trial_n":99,"n_dots":2.55,"target":"right","response":"right","rt":313.90000003576,"correct":true,"confidence":3},{"trial_n":100,"n_dots":2.55,"target":"left","response":"left","rt":451.59999996424,"correct":true,"confidence":2},{"trial_n":101,"n_dots":2.45,"target":"left","response":"left","rt":404.5,"correct":true,"confidence":3},{"trial_n":102,"n_dots":2.45,"target":"left","response":"right","rt":1313.0999999642,"correct":false,"confidence":1},{"trial_n":103,"n_dots":2.55,"target":"right","response":"left","rt":479.89999997616,"correct":false,"confidence":3},{"trial_n":104,"n_dots":2.65,"target":"left","response":"right","rt":25.800000011921,"correct":false,"confidence":4},{"trial_n":105,"n_dots":2.75,"target":"left","response":"left","rt":463.60000002384,"correct":true,"confidence":2},{"trial_n":106,"n_dots":2.75,"target":"right","response":"right","rt":440.5,"correct":true,"confidence":4},{"trial_n":107,"n_dots":2.65,"target":"right","response":"right","rt":518.89999997616,"correct":true,"confidence":3},{"trial_n":108,"n_dots":2.65,"target":"left","response":"right","rt":3539.6999999881,"correct":false,"confidence":1},{"trial_n":109,"n_dots":2.75,"target":"right","response":"left","rt":369.39999997616,"correct":false,"confidence":2},{"trial_n":110,"n_dots":2.85,"target":"left","response":"right","rt":1077.0999999642,"correct":false,"confidence":1},{"trial_n":111,"n_dots":2.95,"target":"right","response":"left","rt":632.5,"correct":false,"confidence":3},{"trial_n":112,"n_dots":3.05,"target":"right","response":"right","rt":605,"correct":true,"confidence":5},{"trial_n":113,"n_dots":3.05,"target":"right","response":"left","rt":876.89999997616,"correct":false,"confidence":4},{"trial_n":114,"n_dots":3.15,"target":"right","response":"right","rt":657.19999998808,"correct":true,"confidence":1},{"trial_n":115,"n_dots":3.15,"target":"right","response":"right","rt":465.69999998808,"correct":true,"confidence":1},{"trial_n":116,"n_dots":3.05,"target":"right","response":"right","rt":447.19999998808,"correct":true,"confidence":5},{"trial_n":117,"n_dots":3.05,"target":"right","response":"right","rt":393.5,"correct":true,"confidence":5},{"trial_n":118,"n_dots":2.95,"target":"right","response":"left","rt":443.59999996424,"correct":false,"confidence":4},{"trial_n":119,"n_dots":3.05,"target":"left","response":"left","rt":369.09999996424,"correct":true,"confidence":3},{"trial_n":120,"n_dots":3.05,"target":"right","response":"right","rt":729.5,"correct":true,"confidence":5}]