[{"trial_n":1,"min":25,"max":230,"target":"present","response":"present","rt":7092.5,"correct":true,"confidence":-1},{"trial_n":2,"min":25,"max":230,"target":"present","response":"absent","rt":690.89999997616,"correct":false,"confidence":-1},{"trial_n":3,"min":9,"max":246,"target":"absent","response":"absent","rt":497.20000004768,"correct":true,"confidence":-1},{"trial_n":4,"min":9,"max":246,"target":"absent","response":"absent","rt":416.5,"correct":true,"confidence":-1},{"trial_n":5,"min":25,"max":230,"target":"present","response":"present","rt":683.80000007153,"correct":true,"confidence":-1},{"trial_n":6,"min":25,"max":230,"target":"present","response":"present","rt":359.40000009537,"correct":true,"confidence":-1},{"trial_n":7,"min":41,"max":214,"target":"absent","response":"absent","rt":359.5,"correct":true,"confidence":-1},{"trial_n":8,"min":41,"max":214,"target":"present","response":"present","rt":527.79999995232,"correct":true,"confidence":-1},{"trial_n":9,"min":57,"max":198,"target":"present","response":"absent","rt":187.10000002384,"correct":false,"confidence":-1},{"trial_n":10,"min":41,"max":214,"target":"absent","response":"absent","rt":433.20000004768,"correct":true,"confidence":-1},{"trial_n":11,"min":41,"max":214,"target":"absent","response":"absent","rt":329.79999995232,"correct":true,"confidence":-1},{"trial_n":12,"min":49,"max":206,"target":"absent","response":"absent","rt":329.10000002384,"correct":true,"confidence":-1},{"trial_n":13,"min":49,"max":206,"target":"present","response":"present","rt":393.59999990463,"correct":true,"confidence":-1},{"trial_n":14,"min":57,"max":198,"target":"present","response":"present","rt":460.60000002384,"correct":true,"confidence":-1},{"trial_n":15,"min":57,"max":198,"target":"absent","response":"absent","rt":424.5,"correct":true,"confidence":-1},{"trial_n":16,"min":65,"max":190,"target":"present","response":"absent","rt":218.80000007153,"correct":false,"confidence":-1},{"trial_n":17,"min":57,"max":198,"target":"absent","response":"absent","rt":539.19999992847,"correct":true,"confidence":-1},{"trial_n":18,"min":57,"max":198,"target":"present","response":"present","rt":142.10000002384,"correct":true,"confidence":-1},{"trial_n":19,"min":65,"max":190,"target":"absent","response":"absent","rt":1029.5,"correct":true,"confidence":-1},{"trial_n":20,"min":65,"max":190,"target":"present","response":"present","rt":483.5,"correct":true,"confidence":-1},{"trial_n":21,"min":69,"max":186,"target":"present","response":"present","rt":507.69999992847,"correct":true,"confidence":5},{"trial_n":22,"min":69,"max":186,"target":"absent","response":"present","rt":795,"correct":false,"confidence":4},{"trial_n":23,"min":65,"max":190,"target":"absent","response":"absent","rt":790.89999997616,"correct":true,"confidence":3},{"trial_n":24,"min":65,"max":190,"target":"present","response":"present","rt":767.09999990463,"correct":true,"confidence":5},{"trial_n":25,"min":69,"max":186,"target":"present","response":"absent","rt":2883.6999999285,"correct":false,"confidence":2},{"trial_n":26,"min":65,"max":190,"target":"absent","response":"present","rt":1856.1000000238,"correct":false,"confidence":5},{"trial_n":27,"min":61,"max":194,"target":"absent","response":"absent","rt":856.80000007153,"correct":true,"confidence":5},{"trial_n":28,"min":61,"max":194,"target":"absent","response":"absent","rt":1212.7000000477,"correct":true,"confidence":5},{"trial_n":29,"min":65,"max":190,"target":"absent","response":"absent","rt":790.10000002384,"correct":true,"confidence":5},{"trial_n":30,"min":65,"max":190,"target":"present","response":"present","rt":1243.3999999762,"correct":true,"confidence":5},{"trial_n":31,"min":67,"max":188,"target":"present","response":"present","rt":940.60000002384,"correct":true,"confidence":5},{"trial_n":32,"min":67,"max":188,"target":"present","response":"present","rt":1038.1000000238,"correct":true,"confidence":5},{"trial_n":33,"min":69,"max":186,"target":"absent","response":"absent","rt":920.40000009537,"correct":true,"confidence":5},{"trial_n":34,"min":69,"max":186,"target":"absent","response":"absent","rt":672.69999992847,"correct":true,"confidence":5},{"trial_n":35,"min":71,"max":184,"target":"present","response":"present","rt":1342.2999999523,"correct":true,"confidence":5},{"trial_n":36,"min":71,"max":184,"target":"absent","response":"absent","rt":629.90000009537,"correct":true,"confidence":5},{"trial_n":37,"min":73,"max":182,"target":"present","response":"absent","rt":690,"correct":false,"confidence":5},{"trial_n":38,"min":71,"max":184,"target":"absent","response":"absent","rt":397.60000002384,"correct":true,"confidence":5},{"trial_n":39,"min":71,"max":184,"target":"absent","response":"absent","rt":1095.3999999762,"correct":true,"confidence":5},{"trial_n":40,"min":73,"max":182,"target":"present","response":"present","rt":943.89999997616,"correct":true,"confidence":5},{"trial_n":41,"min":73,"max":182,"target":"present","response":"present","rt":833.79999995232,"correct":true,"confidence":5},{"trial_n":42,"min":74,"max":181,"target":"absent","response":"absent","rt":1131.5,"correct":true,"confidence":3},{"trial_n":43,"min":74,"max":181,"target":"present","response":"present","rt":1014.7999999523,"correct":true,"confidence":5},{"trial_n":44,"min":75,"max":180,"target":"absent","response":"absent","rt":712.60000002384,"correct":true,"confidence":5},{"trial_n":45,"min":75,"max":180,"target":"present","response":"absent","rt":600.70000004768,"correct":false,"confidence":5},{"trial_n":46,"min":74,"max":181,"target":"present","response":"present","rt":947.90000009537,"correct":true,"confidence":5},{"trial_n":47,"min":74,"max":181,"target":"present","response":"present","rt":2810.6999999285,"correct":true,"confidence":3},{"trial_n":48,"min":75,"max":180,"target":"present","response":"absent","rt":600.19999992847,"correct":false,"confidence":5},{"trial_n":49,"min":74,"max":181,"target":"present","response":"absent","rt":986.89999997616,"correct":false,"confidence":5},{"trial_n":50,"min":73,"max":182,"target":"absent","response":"present","rt":1064.6000000238,"correct":false,"confidence":3},{"trial_n":51,"min":72,"max":183,"target":"absent","response":"present","rt":1146.3999999762,"correct":false,"confidence":5},{"trial_n":52,"min":71,"max":184,"target":"present","response":"absent","rt":1027.2999999523,"correct":false,"confidence":2},{"trial_n":53,"min":70,"max":185,"target":"absent","response":"absent","rt":844.29999995232,"correct":true,"confidence":3},{"trial_n":54,"min":70,"max":185,"target":"absent","response":"absent","rt":1262.7999999523,"correct":true,"confidence":2},{"trial_n":55,"min":71,"max":184,"target":"present","response":"present","rt":1149,"correct":true,"confidence":5},{"trial_n":56,"min":71,"max":184,"target":"present","response":"present","rt":1583.5,"correct":true,"confidence":5},{"trial_n":57,"min":72,"max":183,"target":"present","response":"present","rt":422.79999995232,"correct":true,"confidence":5},{"trial_n":58,"min":72,"max":183,"target":"present","response":"present","rt":2043.6000000238,"correct":true,"confidence":5},{"trial_n":59,"min":73,"max":182,"target":"absent","response":"absent","rt":761.60000002384,"correct":true,"confidence":5},{"trial_n":60,"min":73,"max":182,"target":"absent","response":"absent","rt":446.89999997616,"correct":true,"confidence":5},{"trial_n":61,"min":74,"max":181,"target":"absent","response":"absent","rt":4543.9000000954,"correct":true,"confidence":1},{"trial_n":62,"min":74,"max":181,"target":"present","response":"present","rt":1511.6000000238,"correct":true,"confidence":5},{"trial_n":63,"min":75,"max":180,"target":"present","response":"present","rt":953,"correct":true,"confidence":4},{"trial_n":64,"min":75,"max":180,"target":"absent","response":"absent","rt":846.39999997616,"correct":true,"confidence":4},{"trial_n":65,"min":76,"max":179,"target":"absent","response":"absent","rt":791.29999995232,"correct":true,"confidence":4},{"trial_n":66,"min":76,"max":179,"target":"absent","response":"absent","rt":704.39999997616,"correct":true,"confidence":4},{"trial_n":67,"min":77,"max":178,"target":"absent","response":"absent","rt":829.69999992847,"correct":true,"confidence":4},{"trial_n":68,"min":77,"max":178,"target":"present","response":"present","rt":1343.6000000238,"correct":true,"confidence":5},{"trial_n":69,"min":78,"max":177,"target":"absent","response":"absent","rt":1278.6999999285,"correct":true,"confidence":5},{"trial_n":70,"min":78,"max":177,"target":"present","response":"absent","rt":814.5,"correct":false,"confidence":5},{"trial_n":71,"min":41,"max":214,"target":"present","response":"present","rt":4346.6000000238,"correct":true,"confidence":-1},{"trial_n":72,"min":41,"max":214,"target":"present","response":"absent","rt":166.89999997616,"correct":false,"confidence":-1},{"trial_n":73,"min":25,"max":230,"target":"absent","response":"absent","rt":749.40000009537,"correct":true,"confidence":-1},{"trial_n":74,"min":25,"max":230,"target":"absent","response":"absent","rt":452.30000007153,"correct":true,"confidence":-1},{"trial_n":75,"min":41,"max":214,"target":"present","response":"present","rt":384.89999997616,"correct":true,"confidence":-1},{"trial_n":76,"min":41,"max":214,"target":"absent","response":"absent","rt":380.5,"correct":true,"confidence":-1},{"trial_n":77,"min":57,"max":198,"target":"absent","response":"absent","rt":524.30000007153,"correct":true,"confidence":-1},{"trial_n":78,"min":57,"max":198,"target":"present","response":"present","rt":619.20000004768,"correct":true,"confidence":-1},{"trial_n":79,"min":73,"max":182,"target":"absent","response":"present","rt":734.09999990463,"correct":false,"confidence":-1},{"trial_n":80,"min":57,"max":198,"target":"absent","response":"absent","rt":586.79999995232,"correct":true,"confidence":-1},{"trial_n":81,"min":57,"max":198,"target":"absent","response":"absent","rt":632.29999995232,"correct":true,"confidence":-1},{"trial_n":82,"min":65,"max":190,"target":"present","response":"present","rt":320.10000002384,"correct":true,"confidence":-1},{"trial_n":83,"min":65,"max":190,"target":"present","response":"absent","rt":710.5,"correct":false,"confidence":-1},{"trial_n":84,"min":57,"max":198,"target":"present","response":"present","rt":559.70000004768,"correct":true,"confidence":-1},{"trial_n":85,"min":57,"max":198,"target":"present","response":"present","rt":339.10000002384,"correct":true,"confidence":-1},{"trial_n":86,"min":65,"max":190,"target":"absent","response":"absent","rt":605.89999997616,"correct":true,"confidence":-1},{"trial_n":87,"min":65,"max":190,"target":"absent","response":"absent","rt":542.10000002384,"correct":true,"confidence":-1},{"trial_n":88,"min":73,"max":182,"target":"present","response":"present","rt":313.89999997616,"correct":true,"confidence":-1},{"trial_n":89,"min":73,"max":182,"target":"present","response":"present","rt":693.39999997616,"correct":true,"confidence":-1},{"trial_n":90,"min":81,"max":174,"target":"absent","response":"absent","rt":555.60000002384,"correct":true,"confidence":-1},{"trial_n":91,"min":81,"max":174,"target":"absent","response":"present","rt":766.60000002384,"correct":false,"confidence":3},{"trial_n":92,"min":77,"max":178,"target":"absent","response":"present","rt":209.10000002384,"correct":false,"confidence":1},{"trial_n":93,"min":73,"max":182,"target":"absent","response":"absent","rt":790.10000002384,"correct":true,"confidence":1},{"trial_n":94,"min":73,"max":182,"target":"absent","response":"present","rt":636.10000002384,"correct":false,"confidence":1},{"trial_n":95,"min":69,"max":186,"target":"present","response":"absent","rt":302.39999997616,"correct":false,"confidence":1},{"trial_n":96,"min":65,"max":190,"target":"present","response":"absent","rt":823,"correct":false,"confidence":3},{"trial_n":97,"min":61,"max":194,"target":"present","response":"present","rt":421.39999997616,"correct":true,"confidence":5},{"trial_n":98,"min":61,"max":194,"target":"present","response":"present","rt":346.5,"correct":true,"confidence":5},{"trial_n":99,"min":65,"max":190,"target":"present","response":"present","rt":238.80000007153,"correct":true,"confidence":5},{"trial_n":100,"min":65,"max":190,"target":"present","response":"present","rt":312.5,"correct":true,"confidence":5},{"trial_n":101,"min":67,"max":188,"target":"absent","response":"present","rt":876.20000004768,"correct":false,"confidence":1},{"trial_n":102,"min":65,"max":190,"target":"absent","response":"absent","rt":1095.8999999762,"correct":true,"confidence":4},{"trial_n":103,"min":65,"max":190,"target":"absent","response":"absent","rt":867.29999995232,"correct":true,"confidence":1},{"trial_n":104,"min":67,"max":188,"target":"present","response":"absent","rt":2052.7000000477,"correct":false,"confidence":1},{"trial_n":105,"min":65,"max":190,"target":"absent","response":"absent","rt":911.10000002384,"correct":true,"confidence":4},{"trial_n":106,"min":65,"max":190,"target":"absent","response":"absent","rt":807.39999997616,"correct":true,"confidence":4},{"trial_n":107,"min":67,"max":188,"target":"present","response":"present","rt":435.19999992847,"correct":true,"confidence":1},{"trial_n":108,"min":67,"max":188,"target":"absent","response":"absent","rt":3356.4000000954,"correct":true,"confidence":2},{"trial_n":109,"min":69,"max":186,"target":"present","response":"present","rt":422.5,"correct":true,"confidence":5},{"trial_n":110,"min":69,"max":186,"target":"present","response":"present","rt":346.20000004768,"correct":true,"confidence":5},{"trial_n":111,"min":70,"max":185,"target":"absent","response":"present","rt":247.20000004768,"correct":false,"confidence":4},{"trial_n":112,"min":69,"max":186,"target":"present","response":"present","rt":508.89999997616,"correct":true,"confidence":4},{"trial_n":113,"min":69,"max":186,"target":"absent","response":"present","rt":496.79999995232,"correct":false,"confidence":4},{"trial_n":114,"min":68,"max":187,"target":"absent","response":"present","rt":565.60000002384,"correct":false,"confidence":4},{"trial_n":115,"min":67,"max":188,"target":"present","response":"present","rt":308.30000007153,"correct":true,"confidence":4},{"trial_n":116,"min":67,"max":188,"target":"absent","response":"present","rt":485.30000007153,"correct":false,"confidence":4},{"trial_n":117,"min":66,"max":189,"target":"present","response":"present","rt":639.10000002384,"correct":true,"confidence":4},{"trial_n":118,"min":66,"max":189,"target":"absent","response":"present","rt":288.70000004768,"correct":false,"confidence":4},{"trial_n":119,"min":65,"max":190,"target":"absent","response":"absent","rt":1926.1000000238,"correct":true,"confidence":3},{"trial_n":120,"min":65,"max":190,"target":"absent","response":"present","rt":554.59999990463,"correct":false,"confidence":1},{"trial_n":121,"min":64,"max":191,"target":"present","response":"present","rt":497.60000002384,"correct":true,"confidence":5},{"trial_n":122,"min":64,"max":191,"target":"present","response":"present","rt":374.70000004768,"correct":true,"confidence":5},{"trial_n":123,"min":65,"max":190,"target":"absent","response":"absent","rt":763.69999992847,"correct":true,"confidence":4},{"trial_n":124,"min":65,"max":190,"target":"present","response":"present","rt":253,"correct":true,"confidence":4},{"trial_n":125,"min":66,"max":189,"target":"absent","response":"absent","rt":904.89999997616,"correct":true,"confidence":5},{"trial_n":126,"min":66,"max":189,"target":"absent","response":"absent","rt":788.29999995232,"correct":true,"confidence":4},{"trial_n":127,"min":67,"max":188,"target":"absent","response":"absent","rt":638,"correct":true,"confidence":4},{"trial_n":128,"min":67,"max":188,"target":"present","response":"present","rt":576.39999997616,"correct":true,"confidence":4},{"trial_n":129,"min":68,"max":187,"target":"present","response":"present","rt":259.70000004768,"correct":true,"confidence":4},{"trial_n":130,"min":68,"max":187,"target":"absent","response":"absent","rt":1397.2999999523,"correct":true,"confidence":5},{"trial_n":131,"min":69,"max":186,"target":"present","response":"present","rt":234.5,"correct":true,"confidence":5},{"trial_n":132,"min":69,"max":186,"target":"absent","response":"absent","rt":1085.1000000238,"correct":true,"confidence":4},{"trial_n":133,"min":70,"max":185,"target":"present","response":"present","rt":288.39999997616,"correct":true,"confidence":4},{"trial_n":134,"min":70,"max":185,"target":"present","response":"present","rt":413.89999997616,"correct":true,"confidence":4},{"trial_n":135,"min":71,"max":184,"target":"present","response":"present","rt":158.19999992847,"correct":true,"confidence":4},{"trial_n":136,"min":71,"max":184,"target":"present","response":"present","rt":544.69999992847,"correct":true,"confidence":4},{"trial_n":137,"min":72,"max":183,"target":"present","response":"present","rt":186.09999990463,"correct":true,"confidence":4},{"trial_n":138,"min":72,"max":183,"target":"absent","response":"absent","rt":1333.1000000238,"correct":true,"confidence":4},{"trial_n":139,"min":73,"max":182,"target":"present","response":"present","rt":241.5,"correct":true,"confidence":4},{"trial_n":140,"min":73,"max":182,"target":"present","response":"present","rt":391.70000004768,"correct":true,"confidence":5}]