[{"trial_n":1,"min":25,"max":230,"target":"present","response":"present","rt":5418.5999999642,"correct":true,"confidence":-1},{"trial_n":2,"min":25,"max":230,"target":"present","response":"present","rt":776,"correct":true,"confidence":-1},{"trial_n":3,"min":41,"max":214,"target":"absent","response":"absent","rt":417,"correct":true,"confidence":-1},{"trial_n":4,"min":41,"max":214,"target":"absent","response":"absent","rt":363.80000001192,"correct":true,"confidence":-1},{"trial_n":5,"min":57,"max":198,"target":"present","response":"present","rt":315.5,"correct":true,"confidence":-1},{"trial_n":6,"min":57,"max":198,"target":"present","response":"present","rt":175.39999997616,"correct":true,"confidence":-1},{"trial_n":7,"min":73,"max":182,"target":"absent","response":"absent","rt":338.09999996424,"correct":true,"confidence":-1},{"trial_n":8,"min":73,"max":182,"target":"present","response":"absent","rt":401.30000001192,"correct":false,"confidence":-1},{"trial_n":9,"min":57,"max":198,"target":"absent","response":"absent","rt":575,"correct":true,"confidence":-1},{"trial_n":10,"min":57,"max":198,"target":"present","response":"present","rt":269.79999995232,"correct":true,"confidence":-1},{"trial_n":11,"min":65,"max":190,"target":"absent","response":"absent","rt":311.09999996424,"correct":true,"confidence":-1},{"trial_n":12,"min":65,"max":190,"target":"absent","response":"absent","rt":293.30000001192,"correct":true,"confidence":-1},{"trial_n":13,"min":73,"max":182,"target":"absent","response":"absent","rt":239,"correct":true,"confidence":-1},{"trial_n":14,"min":73,"max":182,"target":"present","response":"present","rt":254.89999997616,"correct":true,"confidence":-1},{"trial_n":15,"min":81,"max":174,"target":"present","response":"absent","rt":259.19999998808,"correct":false,"confidence":-1},{"trial_n":16,"min":73,"max":182,"target":"present","response":"present","rt":290.60000002384,"correct":true,"confidence":-1},{"trial_n":17,"min":73,"max":182,"target":"absent","response":"absent","rt":714.80000001192,"correct":true,"confidence":-1},{"trial_n":18,"min":81,"max":174,"target":"present","response":"absent","rt":256.69999998808,"correct":false,"confidence":-1},{"trial_n":19,"min":73,"max":182,"target":"absent","response":"present","rt":345.19999998808,"correct":false,"confidence":-1},{"trial_n":20,"min":65,"max":190,"target":"present","response":"present","rt":168.89999997616,"correct":true,"confidence":-1},{"trial_n":21,"min":65,"max":190,"target":"present","response":"present","rt":826.40000003576,"correct":true,"confidence":5},{"trial_n":22,"min":69,"max":186,"target":"absent","response":"absent","rt":666.40000003576,"correct":true,"confidence":4},{"trial_n":23,"min":69,"max":186,"target":"present","response":"present","rt":525,"correct":true,"confidence":5},{"trial_n":24,"min":73,"max":182,"target":"present","response":"present","rt":835.70000004768,"correct":true,"confidence":5},{"trial_n":25,"min":73,"max":182,"target":"present","response":"present","rt":519.09999996424,"correct":true,"confidence":5},{"trial_n":26,"min":77,"max":178,"target":"absent","response":"absent","rt":494.60000002384,"correct":true,"confidence":3},{"trial_n":27,"min":77,"max":178,"target":"absent","response":"absent","rt":467.19999998808,"correct":true,"confidence":4},{"trial_n":28,"min":81,"max":174,"target":"present","response":"absent","rt":402.5,"correct":false,"confidence":4},{"trial_n":29,"min":77,"max":178,"target":"absent","response":"absent","rt":412.30000001192,"correct":true,"confidence":2},{"trial_n":30,"min":77,"max":178,"target":"present","response":"present","rt":430.5,"correct":true,"confidence":1},{"trial_n":31,"min":79,"max":176,"target":"present","response":"absent","rt":467.09999996424,"correct":false,"confidence":5},{"trial_n":32,"min":77,"max":178,"target":"present","response":"present","rt":295.80000001192,"correct":true,"confidence":5},{"trial_n":33,"min":77,"max":178,"target":"present","response":"present","rt":280.69999998808,"correct":true,"confidence":5},{"trial_n":34,"min":79,"max":176,"target":"present","response":"absent","rt":1084,"correct":false,"confidence":3},{"trial_n":35,"min":77,"max":178,"target":"absent","response":"absent","rt":402.39999997616,"correct":true,"confidence":4},{"trial_n":36,"min":77,"max":178,"target":"absent","response":"absent","rt":389,"correct":true,"confidence":2},{"trial_n":37,"min":79,"max":176,"target":"present","response":"present","rt":315.5,"correct":true,"confidence":3},{"trial_n":38,"min":79,"max":176,"target":"absent","response":"present","rt":431.90000003576,"correct":false,"confidence":2},{"trial_n":39,"min":77,"max":178,"target":"absent","response":"absent","rt":359.79999995232,"correct":true,"confidence":4},{"trial_n":40,"min":77,"max":178,"target":"absent","response":"absent","rt":315,"correct":true,"confidence":5},{"trial_n":41,"min":78,"max":177,"target":"present","response":"present","rt":721.80000001192,"correct":true,"confidence":4},{"trial_n":42,"min":78,"max":177,"target":"present","response":"absent","rt":256.70000004768,"correct":false,"confidence":4},{"trial_n":43,"min":77,"max":178,"target":"absent","response":"absent","rt":278.5,"correct":true,"confidence":3},{"trial_n":44,"min":77,"max":178,"target":"absent","response":"absent","rt":538.90000003576,"correct":true,"confidence":5},{"trial_n":45,"min":78,"max":177,"target":"absent","response":"absent","rt":523.5,"correct":true,"confidence":2},{"trial_n":46,"min":78,"max":177,"target":"absent","response":"present","rt":485.60000002384,"correct":false,"confidence":3},{"trial_n":47,"min":77,"max":178,"target":"absent","response":"absent","rt":456.30000001192,"correct":true,"confidence":4},{"trial_n":48,"min":77,"max":178,"target":"present","response":"absent","rt":922.60000002384,"correct":false,"confidence":5},{"trial_n":49,"min":76,"max":179,"target":"absent","response":"absent","rt":823.80000001192,"correct":true,"confidence":4},{"trial_n":50,"min":76,"max":179,"target":"absent","response":"absent","rt":512.39999997616,"correct":true,"confidence":5},{"trial_n":51,"min":77,"max":178,"target":"present","response":"present","rt":837.80000001192,"correct":true,"confidence":3},{"trial_n":52,"min":77,"max":178,"target":"absent","response":"absent","rt":240.89999997616,"correct":true,"confidence":4},{"trial_n":53,"min":78,"max":177,"target":"present","response":"present","rt":383.39999997616,"correct":true,"confidence":5},{"trial_n":54,"min":78,"max":177,"target":"absent","response":"absent","rt":292,"correct":true,"confidence":3},{"trial_n":55,"min":79,"max":176,"target":"present","response":"present","rt":515.5,"correct":true,"confidence":4},{"trial_n":56,"min":79,"max":176,"target":"present","response":"present","rt":301,"correct":true,"confidence":5},{"trial_n":57,"min":80,"max":175,"target":"present","response":"absent","rt":328,"correct":false,"confidence":4},{"trial_n":58,"min":79,"max":176,"target":"present","response":"present","rt":365.5,"correct":true,"confidence":5},{"trial_n":59,"min":79,"max":176,"target":"absent","response":"absent","rt":301.5,"correct":true,"confidence":4},{"trial_n":60,"min":80,"max":175,"target":"present","response":"present","rt":313.40000003576,"correct":true,"confidence":5},{"trial_n":61,"min":80,"max":175,"target":"absent","response":"absent","rt":362.10000002384,"correct":true,"confidence":4},{"trial_n":62,"min":81,"max":174,"target":"absent","response":"absent","rt":299.5,"correct":true,"confidence":2},{"trial_n":63,"min":81,"max":174,"target":"present","response":"absent","rt":770.60000002384,"correct":false,"confidence":5},{"trial_n":64,"min":80,"max":175,"target":"absent","response":"absent","rt":390.30000001192,"correct":true,"confidence":3},{"trial_n":65,"min":80,"max":175,"target":"absent","response":"present","rt":301.09999996424,"correct":false,"confidence":3},{"trial_n":66,"min":79,"max":176,"target":"present","response":"absent","rt":114.60000002384,"correct":false,"confidence":5},{"trial_n":67,"min":78,"max":177,"target":"absent","response":"absent","rt":305.5,"correct":true,"confidence":5},{"trial_n":68,"min":78,"max":177,"target":"present","response":"absent","rt":445.30000001192,"correct":false,"confidence":3},{"trial_n":69,"min":77,"max":178,"target":"present","response":"present","rt":586.90000003576,"correct":true,"confidence":3},{"trial_n":70,"min":77,"max":178,"target":"absent","response":"absent","rt":256.30000001192,"correct":true,"confidence":4},{"trial_n":71,"min":41,"max":214,"target":"present","response":"present","rt":2067.1999999881,"correct":true,"confidence":-1},{"trial_n":72,"min":41,"max":214,"target":"present","response":"present","rt":297.69999998808,"correct":true,"confidence":-1},{"trial_n":73,"min":57,"max":198,"target":"absent","response":"absent","rt":371,"correct":true,"confidence":-1},{"trial_n":74,"min":57,"max":198,"target":"absent","response":"absent","rt":334.69999998808,"correct":true,"confidence":-1},{"trial_n":75,"min":73,"max":182,"target":"present","response":"present","rt":388.69999998808,"correct":true,"confidence":-1},{"trial_n":76,"min":73,"max":182,"target":"present","response":"present","rt":636.29999995232,"correct":true,"confidence":-1},{"trial_n":77,"min":89,"max":166,"target":"absent","response":"absent","rt":1793,"correct":true,"confidence":-1},{"trial_n":78,"min":89,"max":166,"target":"present","response":"present","rt":443.69999998808,"correct":true,"confidence":-1},{"trial_n":79,"min":105,"max":150,"target":"present","response":"absent","rt":449.69999998808,"correct":false,"confidence":-1},{"trial_n":80,"min":89,"max":166,"target":"present","response":"present","rt":389.09999996424,"correct":true,"confidence":-1},{"trial_n":81,"min":89,"max":166,"target":"present","response":"absent","rt":620.5,"correct":false,"confidence":-1},{"trial_n":82,"min":81,"max":174,"target":"present","response":"present","rt":317.19999998808,"correct":true,"confidence":-1},{"trial_n":83,"min":81,"max":174,"target":"absent","response":"absent","rt":347.69999998808,"correct":true,"confidence":-1},{"trial_n":84,"min":89,"max":166,"target":"absent","response":"absent","rt":255.60000002384,"correct":true,"confidence":-1},{"trial_n":85,"min":89,"max":166,"target":"absent","response":"present","rt":289.69999998808,"correct":false,"confidence":-1},{"trial_n":86,"min":81,"max":174,"target":"present","response":"present","rt":321.09999996424,"correct":true,"confidence":-1},{"trial_n":87,"min":81,"max":174,"target":"present","response":"present","rt":283.19999998808,"correct":true,"confidence":-1},{"trial_n":88,"min":89,"max":166,"target":"absent","response":"absent","rt":372.5,"correct":true,"confidence":-1},{"trial_n":89,"min":89,"max":166,"target":"present","response":"present","rt":413,"correct":true,"confidence":-1},{"trial_n":90,"min":97,"max":158,"target":"present","response":"present","rt":412.5,"correct":true,"confidence":-1},{"trial_n":91,"min":97,"max":158,"target":"present","response":"present","rt":464,"correct":true,"confidence":4},{"trial_n":92,"min":101,"max":154,"target":"absent","response":"present","rt":653.90000003576,"correct":false,"confidence":4},{"trial_n":93,"min":97,"max":158,"target":"present","response":"present","rt":603.19999998808,"correct":true,"confidence":3},{"trial_n":94,"min":97,"max":158,"target":"present","response":"present","rt":496,"correct":true,"confidence":4},{"trial_n":95,"min":101,"max":154,"target":"absent","response":"absent","rt":681,"correct":true,"confidence":1},{"trial_n":96,"min":101,"max":154,"target":"present","response":"present","rt":499.30000001192,"correct":true,"confidence":2},{"trial_n":97,"min":105,"max":150,"target":"present","response":"absent","rt":1082.0999999642,"correct":false,"confidence":4},{"trial_n":98,"min":101,"max":154,"target":"present","response":"present","rt":565.39999997616,"correct":true,"confidence":4},{"trial_n":99,"min":101,"max":154,"target":"absent","response":"present","rt":663.29999995232,"correct":false,"confidence":5},{"trial_n":100,"min":97,"max":158,"target":"present","response":"present","rt":683.69999998808,"correct":true,"confidence":5},{"trial_n":101,"min":97,"max":158,"target":"absent","response":"present","rt":613.39999997616,"correct":false,"confidence":3},{"trial_n":102,"min":95,"max":160,"target":"absent","response":"absent","rt":457.90000003576,"correct":true,"confidence":3},{"trial_n":103,"min":95,"max":160,"target":"absent","response":"present","rt":1527.3000000119,"correct":false,"confidence":1},{"trial_n":104,"min":93,"max":162,"target":"absent","response":"present","rt":558.80000001192,"correct":false,"confidence":5},{"trial_n":105,"min":91,"max":164,"target":"absent","response":"absent","rt":2240.2999999523,"correct":true,"confidence":4},{"trial_n":106,"min":91,"max":164,"target":"absent","response":"present","rt":672.69999998808,"correct":false,"confidence":3},{"trial_n":107,"min":89,"max":166,"target":"present","response":"present","rt":882.90000003576,"correct":true,"confidence":1},{"trial_n":108,"min":89,"max":166,"target":"absent","response":"present","rt":1742.4000000358,"correct":false,"confidence":2},{"trial_n":109,"min":87,"max":168,"target":"present","response":"absent","rt":1687.8000000119,"correct":false,"confidence":1},{"trial_n":110,"min":85,"max":170,"target":"present","response":"present","rt":494.30000001192,"correct":true,"confidence":5},{"trial_n":111,"min":85,"max":170,"target":"present","response":"present","rt":647,"correct":true,"confidence":5},{"trial_n":112,"min":86,"max":169,"target":"present","response":"present","rt":619,"correct":true,"confidence":3},{"trial_n":113,"min":86,"max":169,"target":"absent","response":"absent","rt":2469.6999999881,"correct":true,"confidence":1},{"trial_n":114,"min":87,"max":168,"target":"absent","response":"present","rt":912.60000002384,"correct":false,"confidence":2},{"trial_n":115,"min":86,"max":169,"target":"absent","response":"present","rt":644.20000004768,"correct":false,"confidence":3},{"trial_n":116,"min":85,"max":170,"target":"absent","response":"present","rt":1233.3999999762,"correct":false,"confidence":1},{"trial_n":117,"min":84,"max":171,"target":"absent","response":"present","rt":740.39999997616,"correct":false,"confidence":4},{"trial_n":118,"min":83,"max":172,"target":"present","response":"present","rt":1180.1999999881,"correct":true,"confidence":5},{"trial_n":119,"min":83,"max":172,"target":"present","response":"absent","rt":2533.3999999762,"correct":false,"confidence":1},{"trial_n":120,"min":82,"max":173,"target":"absent","response":"absent","rt":1487.8999999762,"correct":true,"confidence":1},{"trial_n":121,"min":82,"max":173,"target":"absent","response":"present","rt":1167.3000000119,"correct":false,"confidence":3},{"trial_n":122,"min":81,"max":174,"target":"absent","response":"absent","rt":1129.9000000358,"correct":true,"confidence":4},{"trial_n":123,"min":81,"max":174,"target":"absent","response":"absent","rt":1483.4000000358,"correct":true,"confidence":4},{"trial_n":124,"min":82,"max":173,"target":"absent","response":"present","rt":1519.6999999881,"correct":false,"confidence":1},{"trial_n":125,"min":81,"max":174,"target":"present","response":"present","rt":378.89999997616,"correct":true,"confidence":5},{"trial_n":126,"min":81,"max":174,"target":"absent","response":"present","rt":1954.6999999881,"correct":false,"confidence":4},{"trial_n":127,"min":80,"max":175,"target":"present","response":"absent","rt":1879.3000000119,"correct":false,"confidence":2},{"trial_n":128,"min":79,"max":176,"target":"present","response":"present","rt":563.90000003576,"correct":true,"confidence":5},{"trial_n":129,"min":79,"max":176,"target":"present","response":"present","rt":381.60000002384,"correct":true,"confidence":5},{"trial_n":130,"min":80,"max":175,"target":"absent","response":"present","rt":678.69999998808,"correct":false,"confidence":3},{"trial_n":131,"min":79,"max":176,"target":"present","response":"present","rt":395.90000003576,"correct":true,"confidence":5},{"trial_n":132,"min":79,"max":176,"target":"absent","response":"absent","rt":793.39999997616,"correct":true,"confidence":3},{"trial_n":133,"min":80,"max":175,"target":"present","response":"present","rt":595.39999997616,"correct":true,"confidence":4},{"trial_n":134,"min":80,"max":175,"target":"absent","response":"absent","rt":1160.3999999762,"correct":true,"confidence":5},{"trial_n":135,"min":81,"max":174,"target":"present","response":"present","rt":421.19999998808,"correct":true,"confidence":5},{"trial_n":136,"min":81,"max":174,"target":"present","response":"present","rt":460.40000003576,"correct":true,"confidence":5},{"trial_n":137,"min":82,"max":173,"target":"absent","response":"absent","rt":1288.0999999642,"correct":true,"confidence":1},{"trial_n":138,"min":82,"max":173,"target":"present","response":"absent","rt":962.30000001192,"correct":false,"confidence":2},{"trial_n":139,"min":81,"max":174,"target":"absent","response":"present","rt":1458.5,"correct":false,"confidence":3},{"trial_n":140,"min":80,"max":175,"target":"absent","response":"present","rt":1125.1999999881,"correct":false,"confidence":1}]