[{"trial_n":1,"min":25,"max":230,"target":"present","response":"present","rt":3565,"correct":true,"confidence":-1},{"trial_n":2,"min":25,"max":230,"target":"present","response":"present","rt":977,"correct":true,"confidence":-1},{"trial_n":3,"min":41,"max":214,"target":"absent","response":"absent","rt":1348,"correct":true,"confidence":-1},{"trial_n":4,"min":41,"max":214,"target":"absent","response":"absent","rt":703,"correct":true,"confidence":-1},{"trial_n":5,"min":57,"max":198,"target":"present","response":"absent","rt":502,"correct":false,"confidence":-1},{"trial_n":6,"min":41,"max":214,"target":"present","response":"absent","rt":719,"correct":false,"confidence":-1},{"trial_n":7,"min":25,"max":230,"target":"absent","response":"absent","rt":911,"correct":true,"confidence":-1},{"trial_n":8,"min":25,"max":230,"target":"absent","response":"absent","rt":680,"correct":true,"confidence":-1},{"trial_n":9,"min":41,"max":214,"target":"present","response":"present","rt":991,"correct":true,"confidence":-1},{"trial_n":10,"min":41,"max":214,"target":"absent","response":"absent","rt":725.99999999999,"correct":true,"confidence":-1},{"trial_n":11,"min":49,"max":206,"target":"present","response":"present","rt":1337,"correct":true,"confidence":-1},{"trial_n":12,"min":49,"max":206,"target":"absent","response":"absent","rt":1237,"correct":true,"confidence":-1},{"trial_n":13,"min":57,"max":198,"target":"present","response":"present","rt":1272,"correct":true,"confidence":-1},{"trial_n":14,"min":57,"max":198,"target":"present","response":"present","rt":826,"correct":true,"confidence":-1},{"trial_n":15,"min":65,"max":190,"target":"present","response":"present","rt":898,"correct":true,"confidence":-1},{"trial_n":16,"min":65,"max":190,"target":"present","response":"present","rt":815,"correct":true,"confidence":-1},{"trial_n":17,"min":73,"max":182,"target":"present","response":"present","rt":846,"correct":true,"confidence":-1},{"trial_n":18,"min":73,"max":182,"target":"present","response":"absent","rt":762,"correct":false,"confidence":-1},{"trial_n":19,"min":65,"max":190,"target":"absent","response":"absent","rt":1221,"correct":true,"confidence":-1},{"trial_n":20,"min":65,"max":190,"target":"absent","response":"absent","rt":807,"correct":true,"confidence":-1},{"trial_n":21,"min":69,"max":186,"target":"present","response":"present","rt":1444,"correct":true,"confidence":5},{"trial_n":22,"min":69,"max":186,"target":"absent","response":"present","rt":1286,"correct":false,"confidence":4},{"trial_n":23,"min":65,"max":190,"target":"present","response":"present","rt":923,"correct":true,"confidence":5},{"trial_n":24,"min":65,"max":190,"target":"absent","response":"absent","rt":958,"correct":true,"confidence":1},{"trial_n":25,"min":69,"max":186,"target":"absent","response":"present","rt":1020,"correct":false,"confidence":4},{"trial_n":26,"min":65,"max":190,"target":"present","response":"present","rt":888,"correct":true,"confidence":5},{"trial_n":27,"min":65,"max":190,"target":"present","response":"present","rt":1311,"correct":true,"confidence":5},{"trial_n":28,"min":69,"max":186,"target":"absent","response":"absent","rt":3764,"correct":true,"confidence":1},{"trial_n":29,"min":69,"max":186,"target":"absent","response":"present","rt":990,"correct":false,"confidence":5},{"trial_n":30,"min":65,"max":190,"target":"absent","response":"present","rt":1046,"correct":false,"confidence":5},{"trial_n":31,"min":63,"max":192,"target":"absent","response":"present","rt":895,"correct":false,"confidence":5},{"trial_n":32,"min":61,"max":194,"target":"present","response":"present","rt":1757,"correct":true,"confidence":5},{"trial_n":33,"min":61,"max":194,"target":"absent","response":"present","rt":869.99999999999,"correct":false,"confidence":5},{"trial_n":34,"min":59,"max":196,"target":"present","response":"present","rt":1448,"correct":true,"confidence":5},{"trial_n":35,"min":59,"max":196,"target":"present","response":"present","rt":798,"correct":true,"confidence":5},{"trial_n":36,"min":61,"max":194,"target":"absent","response":"present","rt":934.99999999999,"correct":false,"confidence":5},{"trial_n":37,"min":59,"max":196,"target":"absent","response":"present","rt":752,"correct":false,"confidence":5},{"trial_n":38,"min":57,"max":198,"target":"absent","response":"present","rt":711,"correct":false,"confidence":5},{"trial_n":39,"min":55,"max":200,"target":"absent","response":"present","rt":776,"correct":false,"confidence":5},{"trial_n":40,"min":53,"max":202,"target":"present","response":"absent","rt":1110,"correct":false,"confidence":5},{"trial_n":41,"min":52,"max":203,"target":"present","response":"present","rt":1167,"correct":true,"confidence":5},{"trial_n":42,"min":52,"max":203,"target":"absent","response":"present","rt":737,"correct":false,"confidence":5},{"trial_n":43,"min":51,"max":204,"target":"absent","response":"present","rt":675,"correct":false,"confidence":5},{"trial_n":44,"min":50,"max":205,"target":"present","response":"present","rt":875,"correct":true,"confidence":4},{"trial_n":45,"min":50,"max":205,"target":"absent","response":"present","rt":761,"correct":false,"confidence":5},{"trial_n":46,"min":49,"max":206,"target":"absent","response":"present","rt":791,"correct":false,"confidence":5},{"trial_n":47,"min":48,"max":207,"target":"present","response":"present","rt":1155,"correct":true,"confidence":5},{"trial_n":48,"min":48,"max":207,"target":"present","response":"absent","rt":1265,"correct":false,"confidence":5},{"trial_n":49,"min":47,"max":208,"target":"present","response":"present","rt":712.99999999997,"correct":true,"confidence":5},{"trial_n":50,"min":47,"max":208,"target":"present","response":"present","rt":1028,"correct":true,"confidence":5},{"trial_n":51,"min":48,"max":207,"target":"present","response":"present","rt":807,"correct":true,"confidence":5},{"trial_n":52,"min":48,"max":207,"target":"absent","response":"present","rt":723.00000000003,"correct":false,"confidence":5},{"trial_n":53,"min":47,"max":208,"target":"absent","response":"absent","rt":961,"correct":true,"confidence":5},{"trial_n":54,"min":47,"max":208,"target":"absent","response":"absent","rt":864,"correct":true,"confidence":5},{"trial_n":55,"min":48,"max":207,"target":"absent","response":"absent","rt":849,"correct":true,"confidence":5},{"trial_n":56,"min":48,"max":207,"target":"present","response":"present","rt":1019,"correct":true,"confidence":5},{"trial_n":57,"min":49,"max":206,"target":"absent","response":"absent","rt":776.99999999997,"correct":true,"confidence":5},{"trial_n":58,"min":49,"max":206,"target":"present","response":"present","rt":1388,"correct":true,"confidence":5},{"trial_n":59,"min":50,"max":205,"target":"present","response":"present","rt":880,"correct":true,"confidence":5},{"trial_n":60,"min":50,"max":205,"target":"present","response":"present","rt":895,"correct":true,"confidence":5},{"trial_n":61,"min":51,"max":204,"target":"present","response":"present","rt":1079,"correct":true,"confidence":5},{"trial_n":62,"min":51,"max":204,"target":"present","response":"present","rt":775,"correct":true,"confidence":5},{"trial_n":63,"min":52,"max":203,"target":"absent","response":"absent","rt":1710,"correct":true,"confidence":5},{"trial_n":64,"min":52,"max":203,"target":"present","response":"present","rt":947,"correct":true,"confidence":5},{"trial_n":65,"min":53,"max":202,"target":"absent","response":"absent","rt":929,"correct":true,"confidence":5},{"trial_n":66,"min":53,"max":202,"target":"absent","response":"absent","rt":1733,"correct":true,"confidence":5},{"trial_n":67,"min":54,"max":201,"target":"present","response":"present","rt":1241,"correct":true,"confidence":5},{"trial_n":68,"min":54,"max":201,"target":"present","response":"present","rt":1148,"correct":true,"confidence":5},{"trial_n":69,"min":55,"max":200,"target":"absent","response":"absent","rt":896,"correct":true,"confidence":5},{"trial_n":70,"min":55,"max":200,"target":"absent","response":"absent","rt":1018,"correct":true,"confidence":5},{"trial_n":71,"min":41,"max":214,"target":"present","response":"present","rt":1485,"correct":true,"confidence":-1},{"trial_n":72,"min":41,"max":214,"target":"present","response":"present","rt":2039,"correct":true,"confidence":-1},{"trial_n":73,"min":57,"max":198,"target":"absent","response":"absent","rt":926.99999999997,"correct":true,"confidence":-1},{"trial_n":74,"min":57,"max":198,"target":"absent","response":"absent","rt":1180,"correct":true,"confidence":-1},{"trial_n":75,"min":73,"max":182,"target":"present","response":"absent","rt":1138,"correct":false,"confidence":-1},{"trial_n":76,"min":57,"max":198,"target":"absent","response":"absent","rt":626.99999999997,"correct":true,"confidence":-1},{"trial_n":77,"min":57,"max":198,"target":"absent","response":"absent","rt":669,"correct":true,"confidence":-1},{"trial_n":78,"min":73,"max":182,"target":"absent","response":"absent","rt":1075,"correct":true,"confidence":-1},{"trial_n":79,"min":73,"max":182,"target":"present","response":"present","rt":1075,"correct":true,"confidence":-1},{"trial_n":80,"min":89,"max":166,"target":"absent","response":"absent","rt":1088,"correct":true,"confidence":-1},{"trial_n":81,"min":89,"max":166,"target":"absent","response":"absent","rt":1529,"correct":true,"confidence":-1},{"trial_n":82,"min":97,"max":158,"target":"present","response":"absent","rt":1078.9999999999,"correct":false,"confidence":-1},{"trial_n":83,"min":89,"max":166,"target":"absent","response":"absent","rt":1974.9999999999,"correct":true,"confidence":-1},{"trial_n":84,"min":89,"max":166,"target":"absent","response":"present","rt":1445,"correct":false,"confidence":-1},{"trial_n":85,"min":81,"max":174,"target":"absent","response":"absent","rt":877,"correct":true,"confidence":-1},{"trial_n":86,"min":81,"max":174,"target":"absent","response":"absent","rt":895,"correct":true,"confidence":-1},{"trial_n":87,"min":89,"max":166,"target":"present","response":"absent","rt":760,"correct":false,"confidence":-1},{"trial_n":88,"min":81,"max":174,"target":"absent","response":"absent","rt":757,"correct":true,"confidence":-1},{"trial_n":89,"min":81,"max":174,"target":"absent","response":"present","rt":1802,"correct":false,"confidence":-1},{"trial_n":90,"min":73,"max":182,"target":"present","response":"absent","rt":744,"correct":false,"confidence":-1},{"trial_n":91,"min":69,"max":186,"target":"present","response":"present","rt":1093,"correct":true,"confidence":4},{"trial_n":92,"min":69,"max":186,"target":"absent","response":"absent","rt":869,"correct":true,"confidence":5},{"trial_n":93,"min":73,"max":182,"target":"absent","response":"absent","rt":850,"correct":true,"confidence":5},{"trial_n":94,"min":73,"max":182,"target":"absent","response":"absent","rt":947,"correct":true,"confidence":5},{"trial_n":95,"min":77,"max":178,"target":"present","response":"present","rt":1241,"correct":true,"confidence":5},{"trial_n":96,"min":77,"max":178,"target":"present","response":"present","rt":1218,"correct":true,"confidence":5},{"trial_n":97,"min":81,"max":174,"target":"absent","response":"present","rt":1154,"correct":false,"confidence":5},{"trial_n":98,"min":77,"max":178,"target":"absent","response":"present","rt":1660.9999999999,"correct":false,"confidence":3},{"trial_n":99,"min":73,"max":182,"target":"present","response":"present","rt":1066,"correct":true,"confidence":5},{"trial_n":100,"min":73,"max":182,"target":"present","response":"present","rt":1020,"correct":true,"confidence":5},{"trial_n":101,"min":75,"max":180,"target":"present","response":"present","rt":1506,"correct":true,"confidence":5},{"trial_n":102,"min":75,"max":180,"target":"present","response":"present","rt":730,"correct":true,"confidence":5},{"trial_n":103,"min":77,"max":178,"target":"present","response":"present","rt":997.00000000006,"correct":true,"confidence":5},{"trial_n":104,"min":77,"max":178,"target":"absent","response":"absent","rt":1164,"correct":true,"confidence":5},{"trial_n":105,"min":79,"max":176,"target":"present","response":"present","rt":876,"correct":true,"confidence":5},{"trial_n":106,"min":79,"max":176,"target":"present","response":"present","rt":844,"correct":true,"confidence":5},{"trial_n":107,"min":81,"max":174,"target":"absent","response":"present","rt":1456.9999999999,"correct":false,"confidence":3},{"trial_n":108,"min":79,"max":176,"target":"present","response":"present","rt":879,"correct":true,"confidence":5},{"trial_n":109,"min":79,"max":176,"target":"absent","response":"present","rt":1036,"correct":false,"confidence":3},{"trial_n":110,"min":77,"max":178,"target":"absent","response":"present","rt":870,"correct":false,"confidence":4},{"trial_n":111,"min":76,"max":179,"target":"present","response":"present","rt":876,"correct":true,"confidence":5},{"trial_n":112,"min":76,"max":179,"target":"absent","response":"absent","rt":1018.9999999999,"correct":true,"confidence":3},{"trial_n":113,"min":77,"max":178,"target":"present","response":"present","rt":798,"correct":true,"confidence":5},{"trial_n":114,"min":77,"max":178,"target":"absent","response":"present","rt":772,"correct":false,"confidence":5},{"trial_n":115,"min":76,"max":179,"target":"absent","response":"present","rt":885.00000000006,"correct":false,"confidence":3},{"trial_n":116,"min":75,"max":180,"target":"present","response":"present","rt":670,"correct":true,"confidence":5},{"trial_n":117,"min":75,"max":180,"target":"present","response":"present","rt":909.00000000006,"correct":true,"confidence":5},{"trial_n":118,"min":76,"max":179,"target":"present","response":"present","rt":809,"correct":true,"confidence":5},{"trial_n":119,"min":76,"max":179,"target":"present","response":"present","rt":797.00000000006,"correct":true,"confidence":5},{"trial_n":120,"min":77,"max":178,"target":"present","response":"present","rt":663.00000000006,"correct":true,"confidence":5},{"trial_n":121,"min":77,"max":178,"target":"absent","response":"present","rt":717,"correct":false,"confidence":5},{"trial_n":122,"min":76,"max":179,"target":"absent","response":"present","rt":750,"correct":false,"confidence":5},{"trial_n":123,"min":75,"max":180,"target":"present","response":"present","rt":831,"correct":true,"confidence":5},{"trial_n":124,"min":75,"max":180,"target":"present","response":"absent","rt":1213,"correct":false,"confidence":5},{"trial_n":125,"min":74,"max":181,"target":"present","response":"present","rt":1084,"correct":true,"confidence":5},{"trial_n":126,"min":74,"max":181,"target":"present","response":"present","rt":783.99999999994,"correct":true,"confidence":5},{"trial_n":127,"min":75,"max":180,"target":"present","response":"present","rt":854,"correct":true,"confidence":5},{"trial_n":128,"min":75,"max":180,"target":"absent","response":"present","rt":831.00000000006,"correct":false,"confidence":5},{"trial_n":129,"min":74,"max":181,"target":"absent","response":"present","rt":1159,"correct":false,"confidence":3},{"trial_n":130,"min":73,"max":182,"target":"present","response":"present","rt":898,"correct":true,"confidence":5},{"trial_n":131,"min":73,"max":182,"target":"absent","response":"absent","rt":1234.9999999999,"correct":true,"confidence":3},{"trial_n":132,"min":74,"max":181,"target":"present","response":"present","rt":631,"correct":true,"confidence":5},{"trial_n":133,"min":74,"max":181,"target":"absent","response":"absent","rt":975,"correct":true,"confidence":3},{"trial_n":134,"min":75,"max":180,"target":"present","response":"present","rt":1254,"correct":true,"confidence":3},{"trial_n":135,"min":75,"max":180,"target":"present","response":"present","rt":1807,"correct":true,"confidence":5},{"trial_n":136,"min":76,"max":179,"target":"absent","response":"absent","rt":1058,"correct":true,"confidence":3},{"trial_n":137,"min":76,"max":179,"target":"absent","response":"absent","rt":1077.9999999999,"correct":true,"confidence":4},{"trial_n":138,"min":77,"max":178,"target":"present","response":"present","rt":1233,"correct":true,"confidence":5},{"trial_n":139,"min":77,"max":178,"target":"present","response":"present","rt":941.00000000006,"correct":true,"confidence":5},{"trial_n":140,"min":78,"max":177,"target":"absent","response":"present","rt":1045.9999999999,"correct":false,"confidence":3}]