[{"trial_n":1,"n_dots":4.25,"target":"right","response":"left","rt":8230,"correct":false,"confidence":-1},{"trial_n":2,"n_dots":4.25,"target":"right","response":"right","rt":514.2000002861,"correct":true,"confidence":-1},{"trial_n":3,"n_dots":4.25,"target":"right","response":"right","rt":226.10000038147,"correct":true,"confidence":-1},{"trial_n":4,"n_dots":3.85,"target":"left","response":"right","rt":382.89999961853,"correct":false,"confidence":-1},{"trial_n":5,"n_dots":4.25,"target":"right","response":"right","rt":235.5,"correct":true,"confidence":-1},{"trial_n":6,"n_dots":4.25,"target":"right","response":"left","rt":283.59999990463,"correct":false,"confidence":-1},{"trial_n":7,"n_dots":4.65,"target":"left","response":"left","rt":152.7999997139,"correct":true,"confidence":-1},{"trial_n":8,"n_dots":4.65,"target":"left","response":"left","rt":207.40000009537,"correct":true,"confidence":-1},{"trial_n":9,"n_dots":4.45,"target":"left","response":"left","rt":1744.1000003815,"correct":true,"confidence":-1},{"trial_n":10,"n_dots":4.45,"target":"left","response":"left","rt":253.90000009537,"correct":true,"confidence":-1},{"trial_n":11,"n_dots":4.25,"target":"left","response":"left","rt":1328.5999999046,"correct":true,"confidence":-1},{"trial_n":12,"n_dots":4.25,"target":"left","response":"left","rt":232.80000019073,"correct":true,"confidence":-1},{"trial_n":13,"n_dots":4.15,"target":"left","response":"left","rt":308.90000009537,"correct":true,"confidence":-1},{"trial_n":14,"n_dots":4.15,"target":"left","response":"left","rt":343.40000009537,"correct":true,"confidence":-1},{"trial_n":15,"n_dots":4.05,"target":"left","response":"left","rt":222.40000009537,"correct":true,"confidence":-1},{"trial_n":16,"n_dots":4.05,"target":"right","response":"right","rt":639.80000019073,"correct":true,"confidence":-1},{"trial_n":17,"n_dots":3.95,"target":"left","response":"left","rt":709.80000019073,"correct":true,"confidence":-1},{"trial_n":18,"n_dots":3.95,"target":"right","response":"right","rt":356.90000009537,"correct":true,"confidence":-1},{"trial_n":19,"n_dots":3.85,"target":"right","response":"right","rt":309.2000002861,"correct":true,"confidence":-1},{"trial_n":20,"n_dots":3.85,"target":"left","response":"left","rt":370.59999990463,"correct":true,"confidence":-1},{"trial_n":21,"n_dots":3.75,"target":"left","response":"left","rt":305.19999980927,"correct":true,"confidence":3},{"trial_n":22,"n_dots":3.75,"target":"right","response":"left","rt":405.10000038147,"correct":false,"confidence":3},{"trial_n":23,"n_dots":3.85,"target":"left","response":"left","rt":295,"correct":true,"confidence":4},{"trial_n":24,"n_dots":3.85,"target":"right","response":"right","rt":358.80000019073,"correct":true,"confidence":3},{"trial_n":25,"n_dots":3.75,"target":"right","response":"right","rt":544.90000009537,"correct":true,"confidence":5},{"trial_n":26,"n_dots":3.75,"target":"left","response":"left","rt":284.09999990463,"correct":true,"confidence":5},{"trial_n":27,"n_dots":3.65,"target":"left","response":"left","rt":165,"correct":true,"confidence":5},{"trial_n":28,"n_dots":3.65,"target":"right","response":"right","rt":434.7999997139,"correct":true,"confidence":4},{"trial_n":29,"n_dots":3.55,"target":"right","response":"right","rt":529.30000019073,"correct":true,"confidence":2},{"trial_n":30,"n_dots":3.55,"target":"right","response":"right","rt":296.30000019073,"correct":true,"confidence":4},{"trial_n":31,"n_dots":3.45,"target":"left","response":"left","rt":210.2999997139,"correct":true,"confidence":5},{"trial_n":32,"n_dots":3.45,"target":"right","response":"right","rt":203.89999961853,"correct":true,"confidence":5},{"trial_n":33,"n_dots":3.35,"target":"left","response":"left","rt":336.7999997139,"correct":true,"confidence":2},{"trial_n":34,"n_dots":3.35,"target":"right","response":"right","rt":458.69999980927,"correct":true,"confidence":3},{"trial_n":35,"n_dots":3.25,"target":"right","response":"right","rt":555.60000038147,"correct":true,"confidence":4},{"trial_n":36,"n_dots":3.25,"target":"left","response":"left","rt":410.69999980927,"correct":true,"confidence":3},{"trial_n":37,"n_dots":3.15,"target":"left","response":"right","rt":563,"correct":false,"confidence":3},{"trial_n":38,"n_dots":3.25,"target":"left","response":"left","rt":283.5,"correct":true,"confidence":5},{"trial_n":39,"n_dots":3.25,"target":"right","response":"right","rt":424.80000019073,"correct":true,"confidence":4},{"trial_n":40,"n_dots":3.15,"target":"right","response":"right","rt":796.2999997139,"correct":true,"confidence":1},{"trial_n":41,"n_dots":3.15,"target":"right","response":"right","rt":262.5,"correct":true,"confidence":3},{"trial_n":42,"n_dots":3.05,"target":"right","response":"right","rt":530.5,"correct":true,"confidence":3},{"trial_n":43,"n_dots":3.05,"target":"right","response":"right","rt":369.39999961853,"correct":true,"confidence":4},{"trial_n":44,"n_dots":2.95,"target":"right","response":"right","rt":324.7999997139,"correct":true,"confidence":4},{"trial_n":45,"n_dots":2.95,"target":"right","response":"right","rt":481.7000002861,"correct":true,"confidence":4},{"trial_n":46,"n_dots":2.85,"target":"left","response":"left","rt":279.90000009537,"correct":true,"confidence":1},{"trial_n":47,"n_dots":2.85,"target":"left","response":"left","rt":284.09999990463,"correct":true,"confidence":3},{"trial_n":48,"n_dots":2.75,"target":"right","response":"right","rt":462.40000009537,"correct":true,"confidence":4},{"trial_n":49,"n_dots":2.75,"target":"right","response":"left","rt":476.69999980927,"correct":false,"confidence":5},{"trial_n":50,"n_dots":2.85,"target":"left","response":"right","rt":644.59999990463,"correct":false,"confidence":3},{"trial_n":51,"n_dots":2.95,"target":"right","response":"right","rt":542.19999980927,"correct":true,"confidence":1},{"trial_n":52,"n_dots":2.95,"target":"left","response":"left","rt":590.40000009537,"correct":true,"confidence":2},{"trial_n":53,"n_dots":2.85,"target":"left","response":"left","rt":297.7999997139,"correct":true,"confidence":4},{"trial_n":54,"n_dots":2.85,"target":"left","response":"left","rt":285.19999980927,"correct":true,"confidence":3},{"trial_n":55,"n_dots":2.75,"target":"right","response":"right","rt":786.59999990463,"correct":true,"confidence":3},{"trial_n":56,"n_dots":2.75,"target":"right","response":"right","rt":460.7999997139,"correct":true,"confidence":4},{"trial_n":57,"n_dots":2.65,"target":"right","response":"left","rt":233.89999961853,"correct":false,"confidence":3},{"trial_n":58,"n_dots":2.75,"target":"left","response":"left","rt":446.40000009537,"correct":true,"confidence":2},{"trial_n":59,"n_dots":2.75,"target":"right","response":"right","rt":320,"correct":true,"confidence":3},{"trial_n":60,"n_dots":2.65,"target":"left","response":"left","rt":350,"correct":true,"confidence":3},{"trial_n":61,"n_dots":2.65,"target":"left","response":"left","rt":296.40000009537,"correct":true,"confidence":4},{"trial_n":62,"n_dots":2.55,"target":"left","response":"right","rt":337.59999990463,"correct":false,"confidence":4},{"trial_n":63,"n_dots":2.65,"target":"right","response":"right","rt":23.099999904633,"correct":true,"confidence":4},{"trial_n":64,"n_dots":2.65,"target":"right","response":"left","rt":302.7999997139,"correct":false,"confidence":4},{"trial_n":65,"n_dots":2.75,"target":"left","response":"left","rt":153.2999997139,"correct":true,"confidence":4},{"trial_n":66,"n_dots":2.75,"target":"right","response":"right","rt":351.5,"correct":true,"confidence":4},{"trial_n":67,"n_dots":2.65,"target":"right","response":"right","rt":386.09999990463,"correct":true,"confidence":4},{"trial_n":68,"n_dots":2.65,"target":"left","response":"left","rt":93.299999713898,"correct":true,"confidence":3},{"trial_n":69,"n_dots":2.55,"target":"right","response":"right","rt":380.10000038147,"correct":true,"confidence":3},{"trial_n":70,"n_dots":2.55,"target":"right","response":"right","rt":675.19999980927,"correct":true,"confidence":3},{"trial_n":71,"n_dots":2.45,"target":"right","response":"right","rt":287.59999990463,"correct":true,"confidence":4},{"trial_n":72,"n_dots":2.45,"target":"left","response":"left","rt":283.39999961853,"correct":true,"confidence":3},{"trial_n":73,"n_dots":2.35,"target":"right","response":"right","rt":293.09999990463,"correct":true,"confidence":4},{"trial_n":74,"n_dots":2.35,"target":"left","response":"left","rt":349,"correct":true,"confidence":3},{"trial_n":75,"n_dots":2.25,"target":"right","response":"right","rt":280.7000002861,"correct":true,"confidence":3},{"trial_n":76,"n_dots":2.25,"target":"right","response":"left","rt":673.5,"correct":false,"confidence":2},{"trial_n":77,"n_dots":2.35,"target":"left","response":"left","rt":231.09999990463,"correct":true,"confidence":4},{"trial_n":78,"n_dots":2.35,"target":"right","response":"right","rt":460.69999980927,"correct":true,"confidence":3},{"trial_n":79,"n_dots":2.25,"target":"left","response":"left","rt":2784,"correct":true,"confidence":3},{"trial_n":80,"n_dots":2.25,"target":"left","response":"left","rt":268.19999980927,"correct":true,"confidence":5},{"trial_n":81,"n_dots":2.15,"target":"right","response":"left","rt":4151.9000000954,"correct":false,"confidence":1},{"trial_n":82,"n_dots":2.25,"target":"right","response":"right","rt":331,"correct":true,"confidence":2},{"trial_n":83,"n_dots":2.25,"target":"left","response":"right","rt":259.30000019073,"correct":false,"confidence":1},{"trial_n":84,"n_dots":2.35,"target":"right","response":"left","rt":298.30000019073,"correct":false,"confidence":3},{"trial_n":85,"n_dots":2.45,"target":"right","response":"right","rt":482.80000019073,"correct":true,"confidence":4},{"trial_n":86,"n_dots":2.45,"target":"right","response":"left","rt":404.30000019073,"correct":false,"confidence":4},{"trial_n":87,"n_dots":2.55,"target":"left","response":"left","rt":325,"correct":true,"confidence":4},{"trial_n":88,"n_dots":2.55,"target":"left","response":"left","rt":247.09999990463,"correct":true,"confidence":5},{"trial_n":89,"n_dots":2.45,"target":"left","response":"right","rt":477.80000019073,"correct":false,"confidence":4},{"trial_n":90,"n_dots":2.55,"target":"left","response":"left","rt":237.2999997139,"correct":true,"confidence":4},{"trial_n":91,"n_dots":2.55,"target":"right","response":"left","rt":241,"correct":false,"confidence":4},{"trial_n":92,"n_dots":2.65,"target":"right","response":"right","rt":288.7000002861,"correct":true,"confidence":3},{"trial_n":93,"n_dots":2.65,"target":"left","response":"right","rt":448.90000009537,"correct":false,"confidence":4},{"trial_n":94,"n_dots":2.75,"target":"left","response":"left","rt":313,"correct":true,"confidence":4},{"trial_n":95,"n_dots":2.75,"target":"right","response":"left","rt":536.09999990463,"correct":false,"confidence":4},{"trial_n":96,"n_dots":2.85,"target":"right","response":"right","rt":311.7999997139,"correct":true,"confidence":4},{"trial_n":97,"n_dots":2.85,"target":"left","response":"left","rt":149.30000019073,"correct":true,"confidence":5},{"trial_n":98,"n_dots":2.75,"target":"right","response":"right","rt":317.80000019073,"correct":true,"confidence":4},{"trial_n":99,"n_dots":2.75,"target":"right","response":"right","rt":329,"correct":true,"confidence":4},{"trial_n":100,"n_dots":2.65,"target":"left","response":"left","rt":224,"correct":true,"confidence":3},{"trial_n":101,"n_dots":2.65,"target":"right","response":"left","rt":273.10000038147,"correct":false,"confidence":2},{"trial_n":102,"n_dots":2.75,"target":"left","response":"right","rt":487.59999990463,"correct":false,"confidence":1},{"trial_n":103,"n_dots":2.85,"target":"right","response":"right","rt":388.69999980927,"correct":true,"confidence":4},{"trial_n":104,"n_dots":2.85,"target":"left","response":"left","rt":656.59999990463,"correct":true,"confidence":5},{"trial_n":105,"n_dots":2.75,"target":"left","response":"right","rt":599.2000002861,"correct":false,"confidence":3},{"trial_n":106,"n_dots":2.85,"target":"right","response":"right","rt":994.5,"correct":true,"confidence":3},{"trial_n":107,"n_dots":2.85,"target":"right","response":"left","rt":484.7000002861,"correct":false,"confidence":3},{"trial_n":108,"n_dots":2.95,"target":"right","response":"right","rt":415.19999980927,"correct":true,"confidence":4},{"trial_n":109,"n_dots":2.95,"target":"left","response":"left","rt":107.7000002861,"correct":true,"confidence":5},{"trial_n":110,"n_dots":2.85,"target":"left","response":"left","rt":438.40000009537,"correct":true,"confidence":4},{"trial_n":111,"n_dots":2.85,"target":"left","response":"left","rt":393.59999990463,"correct":true,"confidence":5},{"trial_n":112,"n_dots":2.75,"target":"left","response":"left","rt":324.40000009537,"correct":true,"confidence":4},{"trial_n":113,"n_dots":2.75,"target":"right","response":"left","rt":183.30000019073,"correct":false,"confidence":4},{"trial_n":114,"n_dots":2.85,"target":"right","response":"left","rt":393,"correct":false,"confidence":4},{"trial_n":115,"n_dots":2.95,"target":"left","response":"left","rt":55.700000286102,"correct":true,"confidence":4},{"trial_n":116,"n_dots":2.95,"target":"left","response":"left","rt":213.30000019073,"correct":true,"confidence":5},{"trial_n":117,"n_dots":2.85,"target":"left","response":"left","rt":86.199999809265,"correct":true,"confidence":4},{"trial_n":118,"n_dots":2.85,"target":"left","response":"left","rt":112.40000009537,"correct":true,"confidence":4},{"trial_n":119,"n_dots":2.75,"target":"left","response":"right","rt":187.30000019073,"correct":false,"confidence":4},{"trial_n":120,"n_dots":2.85,"target":"left","response":"left","rt":111.59999990463,"correct":true,"confidence":3}]