[{"trial_n":1,"n_dots":4.25,"target":"left","response":"left","rt":928,"correct":true,"confidence":-1},{"trial_n":2,"n_dots":4.25,"target":"right","response":"right","rt":437,"correct":true,"confidence":-1},{"trial_n":3,"n_dots":3.85,"target":"left","response":"right","rt":363,"correct":false,"confidence":-1},{"trial_n":4,"n_dots":4.25,"target":"right","response":"right","rt":186.00000000003,"correct":true,"confidence":-1},{"trial_n":5,"n_dots":4.25,"target":"left","response":"left","rt":729,"correct":true,"confidence":-1},{"trial_n":6,"n_dots":3.85,"target":"left","response":"right","rt":576,"correct":false,"confidence":-1},{"trial_n":7,"n_dots":4.25,"target":"right","response":"right","rt":244,"correct":true,"confidence":-1},{"trial_n":8,"n_dots":4.25,"target":"right","response":"right","rt":2457,"correct":true,"confidence":-1},{"trial_n":9,"n_dots":4.05,"target":"left","response":"right","rt":483.99999999997,"correct":false,"confidence":-1},{"trial_n":10,"n_dots":4.25,"target":"right","response":"right","rt":1218,"correct":true,"confidence":-1},{"trial_n":11,"n_dots":4.25,"target":"left","response":"right","rt":776,"correct":false,"confidence":-1},{"trial_n":12,"n_dots":4.45,"target":"left","response":"right","rt":805,"correct":false,"confidence":-1},{"trial_n":13,"n_dots":4.55,"target":"left","response":"right","rt":182,"correct":false,"confidence":-1},{"trial_n":14,"n_dots":4.65,"target":"right","response":"right","rt":149.00000000003,"correct":true,"confidence":-1},{"trial_n":15,"n_dots":4.65,"target":"left","response":"left","rt":614.00000000003,"correct":true,"confidence":-1},{"trial_n":16,"n_dots":4.55,"target":"left","response":"left","rt":729.00000000003,"correct":true,"confidence":-1},{"trial_n":17,"n_dots":4.55,"target":"right","response":"right","rt":291,"correct":true,"confidence":-1},{"trial_n":18,"n_dots":4.45,"target":"left","response":"left","rt":555,"correct":true,"confidence":-1},{"trial_n":19,"n_dots":4.45,"target":"left","response":"left","rt":425.99999999997,"correct":true,"confidence":-1},{"trial_n":20,"n_dots":4.35,"target":"right","response":"right","rt":305.99999999997,"correct":true,"confidence":-1},{"trial_n":21,"n_dots":4.35,"target":"left","response":"left","rt":424,"correct":true,"confidence":5},{"trial_n":22,"n_dots":4.25,"target":"left","response":"left","rt":519,"correct":true,"confidence":5},{"trial_n":23,"n_dots":4.25,"target":"left","response":"left","rt":578.99999999997,"correct":true,"confidence":5},{"trial_n":24,"n_dots":4.15,"target":"left","response":"left","rt":511,"correct":true,"confidence":4},{"trial_n":25,"n_dots":4.15,"target":"right","response":"right","rt":355.99999999997,"correct":true,"confidence":5},{"trial_n":26,"n_dots":4.05,"target":"right","response":"right","rt":696,"correct":true,"confidence":4},{"trial_n":27,"n_dots":4.05,"target":"left","response":"left","rt":480,"correct":true,"confidence":4},{"trial_n":28,"n_dots":3.95,"target":"right","response":"right","rt":592,"correct":true,"confidence":4},{"trial_n":29,"n_dots":3.95,"target":"right","response":"right","rt":384.00000000003,"correct":true,"confidence":5},{"trial_n":30,"n_dots":3.85,"target":"left","response":"left","rt":292,"correct":true,"confidence":3},{"trial_n":31,"n_dots":3.85,"target":"right","response":"right","rt":403.99999999994,"correct":true,"confidence":5},{"trial_n":32,"n_dots":3.75,"target":"left","response":"left","rt":665,"correct":true,"confidence":5},{"trial_n":33,"n_dots":3.75,"target":"right","response":"right","rt":675,"correct":true,"confidence":4},{"trial_n":34,"n_dots":3.65,"target":"right","response":"left","rt":888,"correct":false,"confidence":4},{"trial_n":35,"n_dots":3.75,"target":"right","response":"right","rt":367.00000000006,"correct":true,"confidence":5},{"trial_n":36,"n_dots":3.75,"target":"left","response":"left","rt":600.00000000006,"correct":true,"confidence":5},{"trial_n":37,"n_dots":3.65,"target":"left","response":"left","rt":599,"correct":true,"confidence":4},{"trial_n":38,"n_dots":3.65,"target":"right","response":"left","rt":858.99999999994,"correct":false,"confidence":4},{"trial_n":39,"n_dots":3.75,"target":"right","response":"left","rt":1409.0000000001,"correct":false,"confidence":3},{"trial_n":40,"n_dots":3.85,"target":"right","response":"left","rt":550,"correct":false,"confidence":3},{"trial_n":41,"n_dots":3.95,"target":"left","response":"left","rt":627.99999999994,"correct":true,"confidence":4},{"trial_n":42,"n_dots":3.95,"target":"left","response":"left","rt":502,"correct":true,"confidence":4},{"trial_n":43,"n_dots":3.85,"target":"right","response":"right","rt":440,"correct":true,"confidence":4},{"trial_n":44,"n_dots":3.85,"target":"left","response":"left","rt":373,"correct":true,"confidence":5},{"trial_n":45,"n_dots":3.75,"target":"left","response":"right","rt":499,"correct":false,"confidence":4},{"trial_n":46,"n_dots":3.85,"target":"left","response":"left","rt":160,"correct":true,"confidence":3},{"trial_n":47,"n_dots":3.85,"target":"left","response":"left","rt":190,"correct":true,"confidence":4},{"trial_n":48,"n_dots":3.75,"target":"left","response":"left","rt":240,"correct":true,"confidence":4},{"trial_n":49,"n_dots":3.75,"target":"left","response":"left","rt":285,"correct":true,"confidence":4},{"trial_n":50,"n_dots":3.65,"target":"right","response":"right","rt":556.00000000006,"correct":true,"confidence":5},{"trial_n":51,"n_dots":3.65,"target":"right","response":"right","rt":349.00000000006,"correct":true,"confidence":5},{"trial_n":52,"n_dots":3.55,"target":"right","response":"right","rt":486,"correct":true,"confidence":5},{"trial_n":53,"n_dots":3.55,"target":"right","response":"right","rt":292,"correct":true,"confidence":5},{"trial_n":54,"n_dots":3.45,"target":"left","response":"left","rt":629,"correct":true,"confidence":4},{"trial_n":55,"n_dots":3.45,"target":"left","response":"left","rt":1132.0000000001,"correct":true,"confidence":3},{"trial_n":56,"n_dots":3.35,"target":"left","response":"right","rt":192,"correct":false,"confidence":2},{"trial_n":57,"n_dots":3.45,"target":"left","response":"left","rt":484,"correct":true,"confidence":4},{"trial_n":58,"n_dots":3.45,"target":"left","response":"right","rt":1507,"correct":false,"confidence":2},{"trial_n":59,"n_dots":3.55,"target":"right","response":"right","rt":977,"correct":true,"confidence":2},{"trial_n":60,"n_dots":3.55,"target":"right","response":"right","rt":599,"correct":true,"confidence":3},{"trial_n":61,"n_dots":3.45,"target":"left","response":"left","rt":719.00000000006,"correct":true,"confidence":3},{"trial_n":62,"n_dots":3.45,"target":"left","response":"left","rt":664.99999999994,"correct":true,"confidence":3},{"trial_n":63,"n_dots":3.35,"target":"right","response":"left","rt":577,"correct":false,"confidence":3},{"trial_n":64,"n_dots":3.45,"target":"right","response":"left","rt":775,"correct":false,"confidence":3},{"trial_n":65,"n_dots":3.55,"target":"left","response":"left","rt":735,"correct":true,"confidence":3},{"trial_n":66,"n_dots":3.55,"target":"right","response":"right","rt":318,"correct":true,"confidence":4},{"trial_n":67,"n_dots":3.45,"target":"right","response":"right","rt":604,"correct":true,"confidence":4},{"trial_n":68,"n_dots":3.45,"target":"right","response":"right","rt":454,"correct":true,"confidence":5},{"trial_n":69,"n_dots":3.35,"target":"left","response":"right","rt":1164,"correct":false,"confidence":2},{"trial_n":70,"n_dots":3.45,"target":"left","response":"right","rt":552,"correct":false,"confidence":2},{"trial_n":71,"n_dots":3.55,"target":"right","response":"right","rt":1160,"correct":true,"confidence":2},{"trial_n":72,"n_dots":3.55,"target":"right","response":"right","rt":303,"correct":true,"confidence":5},{"trial_n":73,"n_dots":3.45,"target":"right","response":"right","rt":306.00000000006,"correct":true,"confidence":5},{"trial_n":74,"n_dots":3.45,"target":"right","response":"right","rt":641,"correct":true,"confidence":4},{"trial_n":75,"n_dots":3.35,"target":"right","response":"right","rt":616,"correct":true,"confidence":3},{"trial_n":76,"n_dots":3.35,"target":"right","response":"right","rt":322.99999999988,"correct":true,"confidence":3},{"trial_n":77,"n_dots":3.25,"target":"right","response":"right","rt":1884,"correct":true,"confidence":3},{"trial_n":78,"n_dots":3.25,"target":"right","response":"left","rt":1769,"correct":false,"confidence":2},{"trial_n":79,"n_dots":3.35,"target":"left","response":"left","rt":1121,"correct":true,"confidence":2},{"trial_n":80,"n_dots":3.35,"target":"left","response":"right","rt":656,"correct":false,"confidence":2},{"trial_n":81,"n_dots":3.45,"target":"right","response":"right","rt":589.99999999988,"correct":true,"confidence":2},{"trial_n":82,"n_dots":3.45,"target":"left","response":"left","rt":642,"correct":true,"confidence":2},{"trial_n":83,"n_dots":3.35,"target":"left","response":"left","rt":1036,"correct":true,"confidence":2},{"trial_n":84,"n_dots":3.35,"target":"left","response":"left","rt":546.99999999988,"correct":true,"confidence":2},{"trial_n":85,"n_dots":3.25,"target":"left","response":"left","rt":682,"correct":true,"confidence":3},{"trial_n":86,"n_dots":3.25,"target":"right","response":"left","rt":444.00000000012,"correct":false,"confidence":2},{"trial_n":87,"n_dots":3.35,"target":"right","response":"right","rt":362,"correct":true,"confidence":2},{"trial_n":88,"n_dots":3.35,"target":"left","response":"left","rt":294,"correct":true,"confidence":2},{"trial_n":89,"n_dots":3.25,"target":"left","response":"left","rt":214,"correct":true,"confidence":2},{"trial_n":90,"n_dots":3.25,"target":"left","response":"left","rt":321,"correct":true,"confidence":2},{"trial_n":91,"n_dots":3.15,"target":"right","response":"right","rt":451,"correct":true,"confidence":2},{"trial_n":92,"n_dots":3.15,"target":"left","response":"left","rt":251,"correct":true,"confidence":2},{"trial_n":93,"n_dots":3.05,"target":"right","response":"left","rt":685,"correct":false,"confidence":1},{"trial_n":94,"n_dots":3.15,"target":"right","response":"left","rt":1060.0000000001,"correct":false,"confidence":2},{"trial_n":95,"n_dots":3.25,"target":"right","response":"left","rt":456,"correct":false,"confidence":2},{"trial_n":96,"n_dots":3.35,"target":"right","response":"left","rt":522,"correct":false,"confidence":1},{"trial_n":97,"n_dots":3.45,"target":"left","response":"left","rt":509.00000000012,"correct":true,"confidence":2},{"trial_n":98,"n_dots":3.45,"target":"left","response":"left","rt":408,"correct":true,"confidence":2},{"trial_n":99,"n_dots":3.35,"target":"left","response":"left","rt":1445,"correct":true,"confidence":2},{"trial_n":100,"n_dots":3.35,"target":"left","response":"left","rt":668,"correct":true,"confidence":2},{"trial_n":101,"n_dots":3.25,"target":"left","response":"left","rt":546,"correct":true,"confidence":2},{"trial_n":102,"n_dots":3.25,"target":"right","response":"left","rt":444,"correct":false,"confidence":2},{"trial_n":103,"n_dots":3.35,"target":"right","response":"right","rt":416,"correct":true,"confidence":2},{"trial_n":104,"n_dots":3.35,"target":"left","response":"left","rt":337,"correct":true,"confidence":2},{"trial_n":105,"n_dots":3.25,"target":"left","response":"left","rt":726.99999999988,"correct":true,"confidence":2},{"trial_n":106,"n_dots":3.25,"target":"right","response":"right","rt":421.99999999988,"correct":true,"confidence":4},{"trial_n":107,"n_dots":3.15,"target":"right","response":"right","rt":223.99999999988,"correct":true,"confidence":5},{"trial_n":108,"n_dots":3.15,"target":"left","response":"left","rt":1208,"correct":true,"confidence":2},{"trial_n":109,"n_dots":3.05,"target":"left","response":"left","rt":496,"correct":true,"confidence":3},{"trial_n":110,"n_dots":3.05,"target":"right","response":"right","rt":334,"correct":true,"confidence":4},{"trial_n":111,"n_dots":2.95,"target":"right","response":"right","rt":502,"correct":true,"confidence":4},{"trial_n":112,"n_dots":2.95,"target":"right","response":"left","rt":392,"correct":false,"confidence":2},{"trial_n":113,"n_dots":3.05,"target":"right","response":"right","rt":281,"correct":true,"confidence":4},{"trial_n":114,"n_dots":3.05,"target":"right","response":"right","rt":636.00000000012,"correct":true,"confidence":2},{"trial_n":115,"n_dots":2.95,"target":"left","response":"left","rt":760,"correct":true,"confidence":3},{"trial_n":116,"n_dots":2.95,"target":"right","response":"right","rt":512,"correct":true,"confidence":4},{"trial_n":117,"n_dots":2.85,"target":"right","response":"left","rt":588,"correct":false,"confidence":2},{"trial_n":118,"n_dots":2.95,"target":"right","response":"right","rt":390,"correct":true,"confidence":4},{"trial_n":119,"n_dots":2.95,"target":"right","response":"right","rt":750,"correct":true,"confidence":2},{"trial_n":120,"n_dots":2.85,"target":"left","response":"left","rt":697,"correct":true,"confidence":3}]