[{"trial_n":1,"span":8,"encoder":"61003214","distractor":"61006214","target":"present","response":"present","rt":"3641.1999999881","correct":true,"confidence":-1},{"trial_n":2,"span":8,"encoder":"36110989","distractor":"36110889","target":"present","response":"present","rt":"2012.8000000119","correct":true,"confidence":-1},{"trial_n":3,"span":10,"encoder":"7717849803","distractor":"7717849806","target":"absent","response":"absent","rt":"2377.6000000238","correct":true,"confidence":-1},{"trial_n":4,"span":10,"encoder":"4901104433","distractor":"4901104432","target":"absent","response":"present","rt":"898.60000002384","correct":false,"confidence":-1},{"trial_n":5,"span":8,"encoder":"29391368","distractor":"49391368","target":"present","response":"present","rt":"438.5","correct":true,"confidence":-1},{"trial_n":6,"span":8,"encoder":"02409515","distractor":"02209515","target":"present","response":"absent","rt":"644.70000004768","correct":false,"confidence":-1},{"trial_n":7,"span":6,"encoder":"206339","distractor":"206039","target":"absent","response":"present","rt":"955","correct":false,"confidence":-1},{"trial_n":8,"span":4,"encoder":"7649","distractor":"7643","target":"absent","response":"absent","rt":"2053.8000000119","correct":true,"confidence":-1},{"trial_n":9,"span":4,"encoder":"1003","distractor":"1053","target":"present","response":"absent","rt":"771","correct":false,"confidence":-1},{"trial_n":10,"span":2,"encoder":"92","distractor":"62","target":"absent","response":"present","rt":"2686.8000000119","correct":false,"confidence":-1},{"trial_n":11,"span":2,"encoder":"49","distractor":"48","target":"present","response":"absent","rt":"658.39999997616","correct":false,"confidence":-1},{"trial_n":12,"span":2,"encoder":"93","distractor":"92","target":"present","response":"present","rt":"400.80000001192","correct":true,"confidence":-1},{"trial_n":13,"span":2,"encoder":"50","distractor":"54","target":"absent","response":"absent","rt":"1038.3000000119","correct":true,"confidence":-1},{"trial_n":14,"span":3,"encoder":"374","distractor":"474","target":"absent","response":"present","rt":"631.40000003576","correct":false,"confidence":-1},{"trial_n":15,"span":2,"encoder":"71","distractor":"70","target":"present","response":"absent","rt":"999.5","correct":false,"confidence":-1},{"trial_n":16,"span":2,"encoder":"87","distractor":"17","target":"present","response":"present","rt":"15956.600000024","correct":true,"confidence":-1},{"trial_n":17,"span":2,"encoder":"17","distractor":"18","target":"present","response":"present","rt":"515.69999998808","correct":true,"confidence":-1},{"trial_n":18,"span":3,"encoder":"395","distractor":"390","target":"present","response":"present","rt":"554.10000002384","correct":true,"confidence":-1},{"trial_n":19,"span":3,"encoder":"783","distractor":"784","target":"absent","response":"absent","rt":"650","correct":true,"confidence":-1},{"trial_n":20,"span":4,"encoder":"5723","distractor":"5523","target":"present","response":"present","rt":"489.39999997616","correct":true,"confidence":-1},{"trial_n":21,"span":4,"encoder":"0949","distractor":"0999","target":"present","response":"present","rt":"1404.0999999642","correct":true,"confidence":5},{"trial_n":22,"span":5,"encoder":"77307","distractor":"77207","target":"absent","response":"absent","rt":"1038.5","correct":true,"confidence":5},{"trial_n":23,"span":5,"encoder":"36064","distractor":"31064","target":"present","response":"present","rt":"1001.9000000358","correct":true,"confidence":5},{"trial_n":24,"span":6,"encoder":"794889","distractor":"790889","target":"absent","response":"absent","rt":"1409.2999999523","correct":true,"confidence":5},{"trial_n":25,"span":6,"encoder":"123743","distractor":"123443","target":"present","response":"absent","rt":"705.80000001192","correct":false,"confidence":5},{"trial_n":26,"span":5,"encoder":"57169","distractor":"57165","target":"present","response":"absent","rt":"664.90000003576","correct":false,"confidence":5},{"trial_n":27,"span":4,"encoder":"7254","distractor":"7204","target":"absent","response":"present","rt":"1627.3000000119","correct":false,"confidence":4},{"trial_n":28,"span":3,"encoder":"049","distractor":"009","target":"absent","response":"present","rt":"1581.3999999762","correct":false,"confidence":2},{"trial_n":29,"span":2,"encoder":"92","distractor":"94","target":"absent","response":"absent","rt":"961.5","correct":true,"confidence":5},{"trial_n":30,"span":2,"encoder":"79","distractor":"29","target":"absent","response":"present","rt":"1341.3000000119","correct":false,"confidence":5},{"trial_n":31,"span":2,"encoder":"17","distractor":"12","target":"present","response":"present","rt":"1551.3000000119","correct":true,"confidence":5},{"trial_n":32,"span":2,"encoder":"86","distractor":"80","target":"present","response":"present","rt":"1080.3000000119","correct":true,"confidence":5},{"trial_n":33,"span":3,"encoder":"403","distractor":"103","target":"present","response":"present","rt":"968.5","correct":true,"confidence":5},{"trial_n":34,"span":3,"encoder":"243","distractor":"743","target":"present","response":"present","rt":"1003.5","correct":true,"confidence":5},{"trial_n":35,"span":4,"encoder":"0807","distractor":"6807","target":"present","response":"present","rt":"799.60000002384","correct":true,"confidence":5},{"trial_n":36,"span":4,"encoder":"6952","distractor":"6152","target":"absent","response":"absent","rt":"1807.8999999762","correct":true,"confidence":5},{"trial_n":37,"span":5,"encoder":"19455","distractor":"19454","target":"present","response":"present","rt":"1426.3000000119","correct":true,"confidence":5},{"trial_n":38,"span":5,"encoder":"71189","distractor":"74189","target":"present","response":"present","rt":"1202.1000000238","correct":true,"confidence":5},{"trial_n":39,"span":6,"encoder":"065075","distractor":"065975","target":"present","response":"present","rt":"1424.5","correct":true,"confidence":5},{"trial_n":40,"span":6,"encoder":"481590","distractor":"981590","target":"absent","response":"present","rt":"1621.3000000119","correct":false,"confidence":5},{"trial_n":41,"span":5,"encoder":"61011","distractor":"61111","target":"absent","response":"absent","rt":"1124.8999999762","correct":true,"confidence":5},{"trial_n":42,"span":5,"encoder":"55129","distractor":"55159","target":"present","response":"present","rt":"976.29999995232","correct":true,"confidence":5},{"trial_n":43,"span":6,"encoder":"545630","distractor":"245630","target":"absent","response":"present","rt":"1459.1999999881","correct":false,"confidence":5},{"trial_n":44,"span":5,"encoder":"82327","distractor":"82320","target":"absent","response":"absent","rt":"827.80000001192","correct":true,"confidence":5},{"trial_n":45,"span":5,"encoder":"67156","distractor":"67152","target":"present","response":"present","rt":"1078","correct":true,"confidence":5},{"trial_n":46,"span":6,"encoder":"005371","distractor":"095371","target":"absent","response":"absent","rt":"2311.6000000238","correct":true,"confidence":5},{"trial_n":47,"span":6,"encoder":"129361","distractor":"429361","target":"present","response":"present","rt":"1034.8000000119","correct":true,"confidence":5},{"trial_n":48,"span":7,"encoder":"3582176","distractor":"3586176","target":"present","response":"absent","rt":"1868.4000000358","correct":false,"confidence":5},{"trial_n":49,"span":6,"encoder":"189734","distractor":"189434","target":"absent","response":"present","rt":"927.60000002384","correct":false,"confidence":5},{"trial_n":50,"span":5,"encoder":"69604","distractor":"69404","target":"absent","response":"absent","rt":"1455.5","correct":true,"confidence":5},{"trial_n":51,"span":5,"encoder":"01077","distractor":"01477","target":"absent","response":"absent","rt":"1670.8000000119","correct":true,"confidence":5},{"trial_n":52,"span":6,"encoder":"421263","distractor":"421563","target":"present","response":"present","rt":"1699.8000000119","correct":true,"confidence":5},{"trial_n":53,"span":6,"encoder":"507337","distractor":"507331","target":"absent","response":"absent","rt":"1428.2000000477","correct":true,"confidence":5},{"trial_n":54,"span":7,"encoder":"1507961","distractor":"1507861","target":"absent","response":"absent","rt":"3315.8000000119","correct":true,"confidence":3},{"trial_n":55,"span":7,"encoder":"0249476","distractor":"0269476","target":"present","response":"absent","rt":"3458.6000000238","correct":false,"confidence":2},{"trial_n":56,"span":6,"encoder":"996783","distractor":"996583","target":"absent","response":"absent","rt":"2073.5","correct":true,"confidence":5},{"trial_n":57,"span":6,"encoder":"038161","distractor":"038181","target":"absent","response":"present","rt":"1423.2000000477","correct":false,"confidence":3},{"trial_n":58,"span":5,"encoder":"70410","distractor":"70610","target":"absent","response":"absent","rt":"1984.5","correct":true,"confidence":5},{"trial_n":59,"span":5,"encoder":"46122","distractor":"26122","target":"absent","response":"present","rt":"1868.3999999762","correct":false,"confidence":5},{"trial_n":60,"span":4,"encoder":"3324","distractor":"3328","target":"absent","response":"absent","rt":"1371.5","correct":true,"confidence":5},{"trial_n":61,"span":4,"encoder":"1325","distractor":"1025","target":"absent","response":"absent","rt":"1268.8000000119","correct":true,"confidence":5},{"trial_n":62,"span":5,"encoder":"40870","distractor":"47870","target":"absent","response":"absent","rt":"2587.1999999881","correct":true,"confidence":5},{"trial_n":63,"span":5,"encoder":"93732","distractor":"99732","target":"present","response":"present","rt":"1507.6999999881","correct":true,"confidence":5},{"trial_n":64,"span":6,"encoder":"697196","distractor":"297196","target":"present","response":"present","rt":"1756.5","correct":true,"confidence":4},{"trial_n":65,"span":6,"encoder":"338462","distractor":"338468","target":"present","response":"present","rt":"1926.2999999523","correct":true,"confidence":5},{"trial_n":66,"span":7,"encoder":"5995362","distractor":"5995062","target":"absent","response":"absent","rt":"2331.3000000119","correct":true,"confidence":5},{"trial_n":67,"span":7,"encoder":"9752706","distractor":"9752701","target":"present","response":"present","rt":"2285.3999999762","correct":true,"confidence":4},{"trial_n":68,"span":8,"encoder":"57542266","distractor":"67542266","target":"present","response":"present","rt":"1983","correct":true,"confidence":3},{"trial_n":69,"span":8,"encoder":"88820571","distractor":"38820571","target":"present","response":"present","rt":"1068","correct":true,"confidence":4},{"trial_n":70,"span":9,"encoder":"864701218","distractor":"864701018","target":"absent","response":"absent","rt":"4164","correct":true,"confidence":5},{"trial_n":71,"span":8,"encoder":"42432802","distractor":"12432802","target":"present","response":"present","rt":"7074.1999999881","correct":true,"confidence":-1},{"trial_n":72,"span":8,"encoder":"78725487","distractor":"78725488","target":"present","response":"present","rt":"2750.1000000238","correct":true,"confidence":-1},{"trial_n":73,"span":9,"encoder":"088903390","distractor":"688903390","target":"absent","response":"absent","rt":"2625.8000000119","correct":true,"confidence":-1},{"trial_n":74,"span":9,"encoder":"057140380","distractor":"054140380","target":"absent","response":"present","rt":"4090.1000000238","correct":false,"confidence":-1},{"trial_n":75,"span":8,"encoder":"45446230","distractor":"45646230","target":"present","response":"absent","rt":"2799.4000000358","correct":false,"confidence":-1},{"trial_n":76,"span":7,"encoder":"1121725","distractor":"1121125","target":"absent","response":"present","rt":"8251.5","correct":false,"confidence":-1},{"trial_n":77,"span":6,"encoder":"761440","distractor":"761840","target":"absent","response":"absent","rt":"1986.1000000238","correct":true,"confidence":-1},{"trial_n":78,"span":6,"encoder":"191527","distractor":"191507","target":"absent","response":"absent","rt":"2340","correct":true,"confidence":-1},{"trial_n":79,"span":7,"encoder":"4767572","distractor":"4767574","target":"present","response":"present","rt":"1845.7000000477","correct":true,"confidence":-1},{"trial_n":80,"span":7,"encoder":"3683700","distractor":"3683720","target":"present","response":"present","rt":"1669.8000000119","correct":true,"confidence":-1},{"trial_n":81,"span":8,"encoder":"77746560","distractor":"77736560","target":"absent","response":"absent","rt":"1529.8999999762","correct":true,"confidence":-1},{"trial_n":82,"span":8,"encoder":"30261885","distractor":"30265885","target":"absent","response":"present","rt":"338","correct":false,"confidence":-1},{"trial_n":83,"span":7,"encoder":"5330311","distractor":"5330318","target":"present","response":"absent","rt":"2114.2000000477","correct":false,"confidence":-1},{"trial_n":84,"span":6,"encoder":"719703","distractor":"719783","target":"absent","response":"present","rt":"782.40000003576","correct":false,"confidence":-1},{"trial_n":85,"span":5,"encoder":"36014","distractor":"36114","target":"present","response":"absent","rt":"143.30000001192","correct":false,"confidence":-1},{"trial_n":86,"span":4,"encoder":"5784","distractor":"5794","target":"absent","response":"present","rt":"1008.7999999523","correct":false,"confidence":-1},{"trial_n":87,"span":3,"encoder":"994","distractor":"991","target":"present","response":"present","rt":"877.60000002384","correct":true,"confidence":-1},{"trial_n":88,"span":3,"encoder":"358","distractor":"458","target":"absent","response":"absent","rt":"807.89999997616","correct":true,"confidence":-1},{"trial_n":89,"span":4,"encoder":"5667","distractor":"5687","target":"present","response":"present","rt":"799.40000003576","correct":true,"confidence":-1},{"trial_n":90,"span":4,"encoder":"3712","distractor":"3512","target":"absent","response":"present","rt":"906.39999997616","correct":false,"confidence":-1},{"trial_n":91,"span":3,"encoder":"956","distractor":"916","target":"present","response":"present","rt":"1297.8000000119","correct":true,"confidence":5},{"trial_n":92,"span":3,"encoder":"632","distractor":"636","target":"present","response":"present","rt":"1285.7000000477","correct":true,"confidence":5},{"trial_n":93,"span":4,"encoder":"8431","distractor":"8231","target":"absent","response":"absent","rt":"1818.2999999523","correct":true,"confidence":5},{"trial_n":94,"span":4,"encoder":"9594","distractor":"9524","target":"absent","response":"absent","rt":"1737.0999999642","correct":true,"confidence":5},{"trial_n":95,"span":5,"encoder":"74732","distractor":"44732","target":"present","response":"present","rt":"2409.8000000119","correct":true,"confidence":5},{"trial_n":96,"span":5,"encoder":"53005","distractor":"53065","target":"present","response":"present","rt":"2469.6000000238","correct":true,"confidence":5},{"trial_n":97,"span":6,"encoder":"518113","distractor":"513113","target":"absent","response":"absent","rt":"1627.6000000238","correct":true,"confidence":5},{"trial_n":98,"span":6,"encoder":"043494","distractor":"043464","target":"present","response":"present","rt":"3133.2999999523","correct":true,"confidence":5},{"trial_n":99,"span":7,"encoder":"0746405","distractor":"0746406","target":"absent","response":"absent","rt":"2180.6999999881","correct":true,"confidence":5},{"trial_n":100,"span":7,"encoder":"8003849","distractor":"8003149","target":"absent","response":"absent","rt":"2570","correct":true,"confidence":5},{"trial_n":101,"span":8,"encoder":"97838859","distractor":"97832859","target":"absent","response":"absent","rt":"2860.8000000119","correct":true,"confidence":5},{"trial_n":102,"span":8,"encoder":"71476101","distractor":"21476101","target":"absent","response":"absent","rt":"1871.6999999881","correct":true,"confidence":5},{"trial_n":103,"span":9,"encoder":"128055190","distractor":"128055199","target":"present","response":"present","rt":"3182.1000000238","correct":true,"confidence":5},{"trial_n":104,"span":9,"encoder":"932305543","distractor":"932305548","target":"absent","response":"absent","rt":"3881.6999999881","correct":true,"confidence":4},{"trial_n":105,"span":10,"encoder":"6912111793","distractor":"1912111793","target":"absent","response":"present","rt":"5894.8999999762","correct":false,"confidence":3},{"trial_n":106,"span":9,"encoder":"110769400","distractor":"110769500","target":"absent","response":"absent","rt":"2531.7000000477","correct":true,"confidence":5},{"trial_n":107,"span":9,"encoder":"680949246","distractor":"680049246","target":"present","response":"present","rt":"4756.5999999642","correct":true,"confidence":2},{"trial_n":108,"span":10,"encoder":"4070724798","distractor":"4070724728","target":"absent","response":"absent","rt":"10969.199999988","correct":true,"confidence":5},{"trial_n":109,"span":10,"encoder":"8586454732","distractor":"8587454732","target":"present","response":"present","rt":"2462.6999999881","correct":true,"confidence":1},{"trial_n":110,"span":11,"encoder":"96608730177","distractor":"96668730177","target":"absent","response":"absent","rt":"5155.6000000238","correct":true,"confidence":4},{"trial_n":111,"span":11,"encoder":"52806366346","distractor":"52816366346","target":"present","response":"present","rt":"3334.3999999762","correct":true,"confidence":4},{"trial_n":112,"span":12,"encoder":"710985332431","distractor":"710985332731","target":"absent","response":"absent","rt":"12467.600000024","correct":true,"confidence":2},{"trial_n":113,"span":12,"encoder":"165141577533","distractor":"165141577033","target":"absent","response":"present","rt":"1207","correct":false,"confidence":4},{"trial_n":114,"span":11,"encoder":"05817339427","distractor":"05817319427","target":"present","response":"absent","rt":"1829.1000000238","correct":false,"confidence":2},{"trial_n":115,"span":10,"encoder":"1367387399","distractor":"1367347399","target":"present","response":"present","rt":"1895.5","correct":true,"confidence":4},{"trial_n":116,"span":10,"encoder":"7828005795","distractor":"7828005735","target":"absent","response":"absent","rt":"2889.8000000119","correct":true,"confidence":3},{"trial_n":117,"span":11,"encoder":"75109789058","distractor":"75109788058","target":"present","response":"present","rt":"1072.3000000119","correct":true,"confidence":2},{"trial_n":118,"span":11,"encoder":"58453559794","distractor":"58423559794","target":"present","response":"absent","rt":"1077.6000000238","correct":false,"confidence":3},{"trial_n":119,"span":10,"encoder":"7705424589","distractor":"7705414589","target":"absent","response":"present","rt":"1393.0999999642","correct":false,"confidence":4},{"trial_n":120,"span":9,"encoder":"100861699","distractor":"104861699","target":"present","response":"absent","rt":"2483.8000000119","correct":false,"confidence":5},{"trial_n":121,"span":8,"encoder":"71108321","distractor":"71148321","target":"absent","response":"present","rt":"1624.8000000119","correct":false,"confidence":4},{"trial_n":122,"span":7,"encoder":"2918984","distractor":"2618984","target":"present","response":"present","rt":"2801","correct":true,"confidence":5},{"trial_n":123,"span":7,"encoder":"6393212","distractor":"6693212","target":"absent","response":"absent","rt":"2476.8000000119","correct":true,"confidence":5},{"trial_n":124,"span":8,"encoder":"00000800","distractor":"00000805","target":"absent","response":"absent","rt":"1849.0999999642","correct":true,"confidence":5},{"trial_n":125,"span":8,"encoder":"23082023","distractor":"23982023","target":"present","response":"present","rt":"4380.5","correct":true,"confidence":4},{"trial_n":126,"span":9,"encoder":"004499304","distractor":"004499804","target":"present","response":"present","rt":"3420.6999999881","correct":true,"confidence":5},{"trial_n":127,"span":9,"encoder":"099036396","distractor":"099236396","target":"present","response":"present","rt":"4689.3999999762","correct":true,"confidence":3},{"trial_n":128,"span":10,"encoder":"1159762008","distractor":"3159762008","target":"present","response":"present","rt":"5255.9000000358","correct":true,"confidence":4},{"trial_n":129,"span":10,"encoder":"8032442037","distractor":"8082442037","target":"present","response":"absent","rt":"5336.3000000119","correct":false,"confidence":3},{"trial_n":130,"span":9,"encoder":"811571245","distractor":"811571247","target":"absent","response":"present","rt":"1603","correct":false,"confidence":4},{"trial_n":131,"span":8,"encoder":"05696577","distractor":"05796577","target":"present","response":"present","rt":"4440.8999999762","correct":true,"confidence":5},{"trial_n":132,"span":8,"encoder":"88564225","distractor":"88564825","target":"absent","response":"absent","rt":"4069.6000000238","correct":true,"confidence":3},{"trial_n":133,"span":9,"encoder":"764044486","distractor":"764047486","target":"present","response":"present","rt":"2216.9000000358","correct":true,"confidence":2},{"trial_n":134,"span":9,"encoder":"791700126","distractor":"791700176","target":"present","response":"absent","rt":"1768.1999999881","correct":false,"confidence":4},{"trial_n":135,"span":8,"encoder":"88457412","distractor":"88457812","target":"present","response":"present","rt":"1700.5","correct":true,"confidence":3},{"trial_n":136,"span":8,"encoder":"76333738","distractor":"76333438","target":"present","response":"present","rt":"1003.6000000238","correct":true,"confidence":4},{"trial_n":137,"span":9,"encoder":"562643489","distractor":"562643789","target":"absent","response":"absent","rt":"1326.8000000119","correct":true,"confidence":4},{"trial_n":138,"span":9,"encoder":"965640744","distractor":"965641744","target":"present","response":"absent","rt":"1416.1000000238","correct":false,"confidence":3},{"trial_n":139,"span":8,"encoder":"50233958","distractor":"50233950","target":"absent","response":"present","rt":"1796.4000000358","correct":false,"confidence":3},{"trial_n":140,"span":7,"encoder":"1197759","distractor":"1177759","target":"present","response":"present","rt":"1298.1000000238","correct":true,"confidence":4}]