[{"trial_n":1,"span":8,"encoder":"99376530","distractor":"99876530","target":"present","response":"absent","rt":"3317.4000000954","correct":false,"confidence":-1},{"trial_n":2,"span":6,"encoder":"774706","distractor":"774006","target":"present","response":"absent","rt":"5159","correct":false,"confidence":-1},{"trial_n":3,"span":4,"encoder":"0509","distractor":"0709","target":"absent","response":"absent","rt":"1291.5","correct":true,"confidence":-1},{"trial_n":4,"span":4,"encoder":"0192","distractor":"0198","target":"absent","response":"absent","rt":"1911.6000000238","correct":true,"confidence":-1},{"trial_n":5,"span":6,"encoder":"112694","distractor":"112194","target":"present","response":"absent","rt":"1831.5","correct":false,"confidence":-1},{"trial_n":6,"span":4,"encoder":"0279","distractor":"0299","target":"present","response":"present","rt":"2437.7999999523","correct":true,"confidence":-1},{"trial_n":7,"span":4,"encoder":"2811","distractor":"2411","target":"absent","response":"absent","rt":"1927.2999999523","correct":true,"confidence":-1},{"trial_n":8,"span":6,"encoder":"575439","distractor":"675439","target":"present","response":"present","rt":"2381.3999999762","correct":true,"confidence":-1},{"trial_n":9,"span":6,"encoder":"476481","distractor":"476401","target":"present","response":"present","rt":"610.5","correct":true,"confidence":-1},{"trial_n":10,"span":8,"encoder":"41381236","distractor":"41387236","target":"absent","response":"present","rt":"786.40000009537","correct":false,"confidence":-1},{"trial_n":11,"span":6,"encoder":"388236","distractor":"384236","target":"absent","response":"absent","rt":"1599.3000000715","correct":true,"confidence":-1},{"trial_n":12,"span":6,"encoder":"053198","distractor":"052198","target":"absent","response":"absent","rt":"3405.7000000477","correct":true,"confidence":-1},{"trial_n":13,"span":7,"encoder":"9919859","distractor":"9959859","target":"present","response":"absent","rt":"1981.6999999285","correct":false,"confidence":-1},{"trial_n":14,"span":6,"encoder":"484511","distractor":"488511","target":"present","response":"absent","rt":"1895.1000000238","correct":false,"confidence":-1},{"trial_n":15,"span":5,"encoder":"68855","distractor":"38855","target":"absent","response":"present","rt":"2567.2999999523","correct":false,"confidence":-1},{"trial_n":16,"span":4,"encoder":"2211","distractor":"8211","target":"present","response":"present","rt":"1311.7999999523","correct":true,"confidence":-1},{"trial_n":17,"span":4,"encoder":"6417","distractor":"6410","target":"absent","response":"absent","rt":"2146.6999999285","correct":true,"confidence":-1},{"trial_n":18,"span":5,"encoder":"73064","distractor":"03064","target":"absent","response":"absent","rt":"1119.8000000715","correct":true,"confidence":-1},{"trial_n":19,"span":5,"encoder":"15108","distractor":"15106","target":"absent","response":"absent","rt":"1073.2000000477","correct":true,"confidence":-1},{"trial_n":20,"span":6,"encoder":"372595","distractor":"374595","target":"present","response":"absent","rt":"1773.7999999523","correct":false,"confidence":-1},{"trial_n":21,"span":5,"encoder":"95397","distractor":"97397","target":"absent","response":"absent","rt":"2422.8999999762","correct":true,"confidence":4},{"trial_n":22,"span":5,"encoder":"09358","distractor":"09352","target":"present","response":"present","rt":"2190.2999999523","correct":true,"confidence":4},{"trial_n":23,"span":6,"encoder":"910267","distractor":"910367","target":"present","response":"present","rt":"2487.3999999762","correct":true,"confidence":5},{"trial_n":24,"span":6,"encoder":"456894","distractor":"456895","target":"absent","response":"absent","rt":"2617.4000000954","correct":true,"confidence":4},{"trial_n":25,"span":7,"encoder":"4655688","distractor":"4650688","target":"absent","response":"present","rt":"4977.6000000238","correct":false,"confidence":3},{"trial_n":26,"span":6,"encoder":"657768","distractor":"658768","target":"present","response":"present","rt":"2758.5999999046","correct":true,"confidence":5},{"trial_n":27,"span":6,"encoder":"794168","distractor":"794128","target":"absent","response":"absent","rt":"2721.2999999523","correct":true,"confidence":3},{"trial_n":28,"span":7,"encoder":"3436720","distractor":"3236720","target":"present","response":"present","rt":"2167.4000000954","correct":true,"confidence":4},{"trial_n":29,"span":7,"encoder":"3556175","distractor":"3550175","target":"absent","response":"absent","rt":"3100.5","correct":true,"confidence":3},{"trial_n":30,"span":8,"encoder":"75293211","distractor":"75292211","target":"present","response":"present","rt":"1651.2000000477","correct":true,"confidence":3},{"trial_n":31,"span":8,"encoder":"80107120","distractor":"80107100","target":"absent","response":"absent","rt":"1064.2000000477","correct":true,"confidence":4},{"trial_n":32,"span":9,"encoder":"091459544","distractor":"091455544","target":"present","response":"present","rt":"3780.6000000238","correct":true,"confidence":4},{"trial_n":33,"span":9,"encoder":"383584036","distractor":"383584096","target":"absent","response":"present","rt":"5260.7000000477","correct":false,"confidence":3},{"trial_n":34,"span":8,"encoder":"43429183","distractor":"47429183","target":"present","response":"present","rt":"4030.6000000238","correct":true,"confidence":5},{"trial_n":35,"span":8,"encoder":"66382951","distractor":"66362951","target":"present","response":"present","rt":"3860.2999999523","correct":true,"confidence":3},{"trial_n":36,"span":9,"encoder":"629728540","distractor":"629720540","target":"present","response":"absent","rt":"2091.7999999523","correct":false,"confidence":1},{"trial_n":37,"span":8,"encoder":"11875257","distractor":"11873257","target":"absent","response":"absent","rt":"1409.2000000477","correct":true,"confidence":5},{"trial_n":38,"span":8,"encoder":"46798020","distractor":"46798060","target":"present","response":"present","rt":"3793.7999999523","correct":true,"confidence":4},{"trial_n":39,"span":9,"encoder":"501068976","distractor":"501068376","target":"present","response":"present","rt":"3212.8999999762","correct":true,"confidence":4},{"trial_n":40,"span":9,"encoder":"036144004","distractor":"035144004","target":"present","response":"absent","rt":"2399.1999999285","correct":false,"confidence":2},{"trial_n":41,"span":8,"encoder":"98450216","distractor":"98350216","target":"present","response":"present","rt":"4910.6000000238","correct":true,"confidence":5},{"trial_n":42,"span":8,"encoder":"94845845","distractor":"94840845","target":"present","response":"present","rt":"2802.5","correct":true,"confidence":4},{"trial_n":43,"span":9,"encoder":"986398605","distractor":"986398635","target":"absent","response":"absent","rt":"3708.7000000477","correct":true,"confidence":5},{"trial_n":44,"span":9,"encoder":"658896079","distractor":"658856079","target":"present","response":"present","rt":"3534","correct":true,"confidence":4},{"trial_n":45,"span":10,"encoder":"1019368839","distractor":"1019365839","target":"absent","response":"absent","rt":"2034.1000000238","correct":true,"confidence":3},{"trial_n":46,"span":10,"encoder":"4430319544","distractor":"4450319544","target":"absent","response":"present","rt":"3318.5","correct":false,"confidence":4},{"trial_n":47,"span":9,"encoder":"590860052","distractor":"790860052","target":"present","response":"present","rt":"3515.3000000715","correct":true,"confidence":5},{"trial_n":48,"span":9,"encoder":"031585124","distractor":"031589124","target":"present","response":"absent","rt":"1822.1000000238","correct":false,"confidence":2},{"trial_n":49,"span":8,"encoder":"95506909","distractor":"95502909","target":"absent","response":"absent","rt":"2765.3000000715","correct":true,"confidence":1},{"trial_n":50,"span":8,"encoder":"89608491","distractor":"89628491","target":"absent","response":"absent","rt":"2852.5999999046","correct":true,"confidence":5},{"trial_n":51,"span":9,"encoder":"789554338","distractor":"789544338","target":"present","response":"present","rt":"6226.8000000715","correct":true,"confidence":3},{"trial_n":52,"span":9,"encoder":"773114941","distractor":"773114641","target":"present","response":"present","rt":"2260.1000000238","correct":true,"confidence":1},{"trial_n":53,"span":10,"encoder":"0043641873","distractor":"0043651873","target":"present","response":"absent","rt":"2111.1000000238","correct":false,"confidence":3},{"trial_n":54,"span":9,"encoder":"447782558","distractor":"447782058","target":"absent","response":"absent","rt":"4689.2999999523","correct":true,"confidence":4},{"trial_n":55,"span":9,"encoder":"117469886","distractor":"117464886","target":"absent","response":"absent","rt":"3893.8999999762","correct":true,"confidence":5},{"trial_n":56,"span":10,"encoder":"8033067971","distractor":"8033067071","target":"absent","response":"absent","rt":"1184.2999999523","correct":true,"confidence":3},{"trial_n":57,"span":10,"encoder":"1116557641","distractor":"6116557641","target":"absent","response":"absent","rt":"1759.7999999523","correct":true,"confidence":5},{"trial_n":58,"span":11,"encoder":"08269860388","distractor":"08265860388","target":"present","response":"present","rt":"4132","correct":true,"confidence":4},{"trial_n":59,"span":11,"encoder":"24626671994","distractor":"24626671998","target":"absent","response":"absent","rt":"3226.3999999762","correct":true,"confidence":4},{"trial_n":60,"span":12,"encoder":"789522915608","distractor":"789512915608","target":"present","response":"absent","rt":"1266","correct":false,"confidence":2},{"trial_n":61,"span":11,"encoder":"21195342341","distractor":"21195342361","target":"present","response":"present","rt":"2267.3999999762","correct":true,"confidence":4},{"trial_n":62,"span":11,"encoder":"63420967625","distractor":"63450967625","target":"absent","response":"absent","rt":"1391.8999999762","correct":true,"confidence":3},{"trial_n":63,"span":12,"encoder":"284456393184","distractor":"234456393184","target":"present","response":"present","rt":"287.60000002384","correct":true,"confidence":1},{"trial_n":64,"span":12,"encoder":"796245725943","distractor":"796225725943","target":"absent","response":"present","rt":"3723.3999999762","correct":false,"confidence":4},{"trial_n":65,"span":11,"encoder":"11610447374","distractor":"11610447377","target":"absent","response":"absent","rt":"6157.0999999046","correct":true,"confidence":5},{"trial_n":66,"span":11,"encoder":"92378850427","distractor":"92378870427","target":"absent","response":"present","rt":"963.19999992847","correct":false,"confidence":3},{"trial_n":67,"span":10,"encoder":"4554833228","distractor":"4554830228","target":"absent","response":"absent","rt":"1444.6000000238","correct":true,"confidence":4},{"trial_n":68,"span":10,"encoder":"8516792950","distractor":"8516792900","target":"present","response":"present","rt":"3804.2999999523","correct":true,"confidence":5},{"trial_n":69,"span":11,"encoder":"05975312631","distractor":"05975318631","target":"absent","response":"present","rt":"5205.7000000477","correct":false,"confidence":3},{"trial_n":70,"span":10,"encoder":"6690524615","distractor":"6690523615","target":"present","response":"present","rt":"2885.1999999285","correct":true,"confidence":3},{"trial_n":71,"span":8,"encoder":"14608904","distractor":"54608904","target":"present","response":"present","rt":"3244.3999999762","correct":true,"confidence":-1},{"trial_n":72,"span":8,"encoder":"21391444","distractor":"21391404","target":"present","response":"present","rt":"2502.1000000238","correct":true,"confidence":-1},{"trial_n":73,"span":9,"encoder":"389382877","distractor":"389382837","target":"absent","response":"absent","rt":"1605.2999999523","correct":true,"confidence":-1},{"trial_n":74,"span":9,"encoder":"423932008","distractor":"423932048","target":"absent","response":"absent","rt":"1965.7000000477","correct":true,"confidence":-1},{"trial_n":75,"span":10,"encoder":"0723255782","distractor":"0723255722","target":"present","response":"absent","rt":"2602.7000000477","correct":false,"confidence":-1},{"trial_n":76,"span":9,"encoder":"539189948","distractor":"539389948","target":"present","response":"present","rt":"1304.8999999762","correct":true,"confidence":-1},{"trial_n":77,"span":9,"encoder":"213807000","distractor":"213807020","target":"absent","response":"absent","rt":"1440.5","correct":true,"confidence":-1},{"trial_n":78,"span":10,"encoder":"7261066046","distractor":"8261066046","target":"present","response":"present","rt":"2942","correct":true,"confidence":-1},{"trial_n":79,"span":10,"encoder":"4567602150","distractor":"4567602140","target":"absent","response":"present","rt":"1505.3999999762","correct":false,"confidence":-1},{"trial_n":80,"span":9,"encoder":"510530969","distractor":"510538969","target":"present","response":"absent","rt":"1400.7000000477","correct":false,"confidence":-1},{"trial_n":81,"span":8,"encoder":"17065881","distractor":"07065881","target":"absent","response":"absent","rt":"1139.8999999762","correct":true,"confidence":-1},{"trial_n":82,"span":8,"encoder":"02394079","distractor":"02394075","target":"absent","response":"absent","rt":"2050.5","correct":true,"confidence":-1},{"trial_n":83,"span":9,"encoder":"874534282","distractor":"874534292","target":"absent","response":"absent","rt":"939.40000009537","correct":true,"confidence":-1},{"trial_n":84,"span":9,"encoder":"465067923","distractor":"465067623","target":"present","response":"absent","rt":"792.30000007153","correct":false,"confidence":-1},{"trial_n":85,"span":8,"encoder":"94905356","distractor":"94005356","target":"present","response":"present","rt":"3986.6000000238","correct":true,"confidence":-1},{"trial_n":86,"span":8,"encoder":"84758477","distractor":"84758417","target":"present","response":"present","rt":"1168.6000000238","correct":true,"confidence":-1},{"trial_n":87,"span":9,"encoder":"246949445","distractor":"246849445","target":"present","response":"present","rt":"2347.7999999523","correct":true,"confidence":-1},{"trial_n":88,"span":9,"encoder":"032849150","distractor":"037849150","target":"present","response":"present","rt":"1225.5","correct":true,"confidence":-1},{"trial_n":89,"span":10,"encoder":"9120306966","distractor":"9120308966","target":"present","response":"absent","rt":"881.5","correct":false,"confidence":-1},{"trial_n":90,"span":9,"encoder":"278205049","distractor":"277205049","target":"present","response":"present","rt":"1343.1999999285","correct":true,"confidence":-1},{"trial_n":91,"span":9,"encoder":"675070850","distractor":"675370850","target":"absent","response":"absent","rt":"3110.7999999523","correct":true,"confidence":4},{"trial_n":92,"span":10,"encoder":"8294199826","distractor":"7294199826","target":"present","response":"present","rt":"3098.2000000477","correct":true,"confidence":3},{"trial_n":93,"span":10,"encoder":"3429700390","distractor":"3429700394","target":"present","response":"present","rt":"1448.6000000238","correct":true,"confidence":4},{"trial_n":94,"span":11,"encoder":"36361705529","distractor":"36361705629","target":"present","response":"present","rt":"2042.2999999523","correct":true,"confidence":5},{"trial_n":95,"span":11,"encoder":"40657241719","distractor":"40657251719","target":"present","response":"present","rt":"3176.2000000477","correct":true,"confidence":2},{"trial_n":96,"span":12,"encoder":"895726917858","distractor":"895726915858","target":"present","response":"present","rt":"808.10000002384","correct":true,"confidence":3},{"trial_n":97,"span":12,"encoder":"603003760673","distractor":"603003761673","target":"absent","response":"absent","rt":"5043.5","correct":true,"confidence":5},{"trial_n":98,"span":13,"encoder":"5855300824484","distractor":"5855300824486","target":"absent","response":"absent","rt":"2633.6000000238","correct":true,"confidence":3},{"trial_n":99,"span":13,"encoder":"6630323333303","distractor":"7630323333303","target":"absent","response":"present","rt":"2164.1000000238","correct":false,"confidence":1},{"trial_n":100,"span":12,"encoder":"610997520555","distractor":"310997520555","target":"present","response":"present","rt":"4499.6000000238","correct":true,"confidence":5},{"trial_n":101,"span":12,"encoder":"077767541471","distractor":"077967541471","target":"absent","response":"present","rt":"6176.1999999285","correct":false,"confidence":4},{"trial_n":102,"span":11,"encoder":"19069824313","distractor":"19069824315","target":"absent","response":"absent","rt":"3338.2999999523","correct":true,"confidence":5},{"trial_n":103,"span":11,"encoder":"25732160815","distractor":"25732160855","target":"absent","response":"absent","rt":"1560.5999999046","correct":true,"confidence":2},{"trial_n":104,"span":12,"encoder":"663575645405","distractor":"663575645505","target":"absent","response":"absent","rt":"3849.4000000954","correct":true,"confidence":3},{"trial_n":105,"span":12,"encoder":"030425362614","distractor":"030426362614","target":"absent","response":"absent","rt":"933.5","correct":true,"confidence":3},{"trial_n":106,"span":13,"encoder":"5552222096341","distractor":"5512222096341","target":"present","response":"present","rt":"6823.1000000238","correct":true,"confidence":3},{"trial_n":107,"span":13,"encoder":"7446143928115","distractor":"7446143928175","target":"absent","response":"absent","rt":"1446.1000000238","correct":true,"confidence":1},{"trial_n":108,"span":14,"encoder":"11299918141514","distractor":"11299918141513","target":"absent","response":"absent","rt":"2780.1000000238","correct":true,"confidence":4},{"trial_n":109,"span":14,"encoder":"27534955220802","distractor":"27334955220802","target":"present","response":"absent","rt":"4217.3999999762","correct":false,"confidence":3},{"trial_n":110,"span":13,"encoder":"3283075843173","distractor":"3223075843173","target":"present","response":"present","rt":"4533","correct":true,"confidence":3},{"trial_n":111,"span":13,"encoder":"5930776915641","distractor":"5930776115641","target":"absent","response":"absent","rt":"5993.0999999046","correct":true,"confidence":3},{"trial_n":112,"span":14,"encoder":"65355696954810","distractor":"65355656954810","target":"present","response":"absent","rt":"1250.7000000477","correct":false,"confidence":4},{"trial_n":113,"span":13,"encoder":"4982375603595","distractor":"4982375663595","target":"absent","response":"present","rt":"1612.5","correct":false,"confidence":2},{"trial_n":114,"span":12,"encoder":"804112447626","distractor":"804412447626","target":"absent","response":"absent","rt":"2303.9000000954","correct":true,"confidence":1},{"trial_n":115,"span":12,"encoder":"951591124364","distractor":"951191124364","target":"present","response":"present","rt":"2543.2000000477","correct":true,"confidence":2},{"trial_n":116,"span":13,"encoder":"8552186081807","distractor":"8552186281807","target":"absent","response":"absent","rt":"1247.2000000477","correct":true,"confidence":1},{"trial_n":117,"span":13,"encoder":"9678375267303","distractor":"9678375267308","target":"present","response":"present","rt":"1897.5","correct":true,"confidence":1},{"trial_n":118,"span":14,"encoder":"94481965560876","distractor":"94481965569876","target":"absent","response":"present","rt":"2704.8000000715","correct":false,"confidence":3},{"trial_n":119,"span":13,"encoder":"8901449345178","distractor":"8901449345578","target":"present","response":"present","rt":"1219","correct":true,"confidence":1},{"trial_n":120,"span":13,"encoder":"4021270455909","distractor":"4021270455919","target":"present","response":"absent","rt":"4425.5","correct":false,"confidence":2},{"trial_n":121,"span":12,"encoder":"180102501146","distractor":"180102201146","target":"present","response":"present","rt":"561","correct":true,"confidence":3},{"trial_n":122,"span":12,"encoder":"469958264993","distractor":"439958264993","target":"absent","response":"present","rt":"1375.7000000477","correct":false,"confidence":1},{"trial_n":123,"span":11,"encoder":"24524627994","distractor":"24524627996","target":"absent","response":"absent","rt":"5533.8999999762","correct":true,"confidence":3},{"trial_n":124,"span":11,"encoder":"34532835675","distractor":"34532865675","target":"absent","response":"present","rt":"2059.6000000238","correct":false,"confidence":5},{"trial_n":125,"span":10,"encoder":"3751974106","distractor":"3851974106","target":"present","response":"present","rt":"2477.6000000238","correct":true,"confidence":2},{"trial_n":126,"span":10,"encoder":"5471244593","distractor":"0471244593","target":"present","response":"absent","rt":"4425","correct":false,"confidence":3},{"trial_n":127,"span":9,"encoder":"465099383","distractor":"465099389","target":"absent","response":"absent","rt":"5220.5999999046","correct":true,"confidence":3},{"trial_n":128,"span":9,"encoder":"779697790","distractor":"779697190","target":"present","response":"present","rt":"3696.1000000238","correct":true,"confidence":3},{"trial_n":129,"span":10,"encoder":"9258680713","distractor":"9258620713","target":"absent","response":"present","rt":"796.39999997616","correct":false,"confidence":3},{"trial_n":130,"span":9,"encoder":"992931701","distractor":"992930701","target":"present","response":"present","rt":"964.89999997616","correct":true,"confidence":3},{"trial_n":131,"span":9,"encoder":"314316886","distractor":"314416886","target":"present","response":"present","rt":"2637.3999999762","correct":true,"confidence":4},{"trial_n":132,"span":10,"encoder":"8061465776","distractor":"8061445776","target":"present","response":"absent","rt":"4637.2999999523","correct":false,"confidence":3},{"trial_n":133,"span":9,"encoder":"672300148","distractor":"622300148","target":"present","response":"present","rt":"4171.2000000477","correct":true,"confidence":5},{"trial_n":134,"span":9,"encoder":"523226901","distractor":"523226601","target":"absent","response":"absent","rt":"3091.7000000477","correct":true,"confidence":3},{"trial_n":135,"span":10,"encoder":"1929854470","distractor":"1929854472","target":"absent","response":"absent","rt":"2112.6999999285","correct":true,"confidence":5},{"trial_n":136,"span":10,"encoder":"4874268295","distractor":"4574268295","target":"absent","response":"present","rt":"2004.3999999762","correct":false,"confidence":2},{"trial_n":137,"span":9,"encoder":"258481227","distractor":"208481227","target":"absent","response":"absent","rt":"4767.2000000477","correct":true,"confidence":4},{"trial_n":138,"span":9,"encoder":"351420688","distractor":"351470688","target":"absent","response":"absent","rt":"4321.8000000715","correct":true,"confidence":5},{"trial_n":139,"span":10,"encoder":"1968874813","distractor":"1568874813","target":"present","response":"absent","rt":"1378.2999999523","correct":false,"confidence":3},{"trial_n":140,"span":9,"encoder":"984284820","distractor":"984254820","target":"absent","response":"absent","rt":"804.80000007153","correct":true,"confidence":4}]