[{"trial_n":1,"span":8,"encoder":"89315551","distractor":"81315551","target":"present","response":"present","rt":"3604","correct":true,"confidence":-1},{"trial_n":2,"span":8,"encoder":"88199594","distractor":"88197594","target":"present","response":"absent","rt":"3274","correct":false,"confidence":-1},{"trial_n":3,"span":6,"encoder":"400570","distractor":"450570","target":"absent","response":"present","rt":"2130","correct":false,"confidence":-1},{"trial_n":4,"span":4,"encoder":"6044","distractor":"6344","target":"absent","response":"present","rt":"2358","correct":false,"confidence":-1},{"trial_n":5,"span":2,"encoder":"07","distractor":"47","target":"present","response":"present","rt":"1510","correct":true,"confidence":-1},{"trial_n":6,"span":2,"encoder":"08","distractor":"68","target":"present","response":"present","rt":"1046","correct":true,"confidence":-1},{"trial_n":7,"span":4,"encoder":"5415","distractor":"5425","target":"absent","response":"absent","rt":"1822","correct":true,"confidence":-1},{"trial_n":8,"span":4,"encoder":"8879","distractor":"8876","target":"absent","response":"absent","rt":"1224","correct":true,"confidence":-1},{"trial_n":9,"span":6,"encoder":"181798","distractor":"181298","target":"present","response":"present","rt":"2242","correct":true,"confidence":-1},{"trial_n":10,"span":6,"encoder":"554858","distractor":"554857","target":"present","response":"absent","rt":"1672","correct":false,"confidence":-1},{"trial_n":11,"span":4,"encoder":"7131","distractor":"1131","target":"present","response":"present","rt":"1367","correct":true,"confidence":-1},{"trial_n":12,"span":4,"encoder":"1626","distractor":"6626","target":"absent","response":"absent","rt":"1553","correct":true,"confidence":-1},{"trial_n":13,"span":5,"encoder":"87254","distractor":"87234","target":"absent","response":"absent","rt":"2605","correct":true,"confidence":-1},{"trial_n":14,"span":5,"encoder":"94753","distractor":"04753","target":"present","response":"present","rt":"1686","correct":true,"confidence":-1},{"trial_n":15,"span":6,"encoder":"740597","distractor":"740592","target":"absent","response":"absent","rt":"2308","correct":true,"confidence":-1},{"trial_n":16,"span":6,"encoder":"559496","distractor":"759496","target":"absent","response":"present","rt":"3925","correct":false,"confidence":-1},{"trial_n":17,"span":5,"encoder":"40216","distractor":"49216","target":"absent","response":"absent","rt":"2476","correct":true,"confidence":-1},{"trial_n":18,"span":5,"encoder":"54396","distractor":"58396","target":"present","response":"present","rt":"2079","correct":true,"confidence":-1},{"trial_n":19,"span":6,"encoder":"500482","distractor":"800482","target":"present","response":"present","rt":"2000","correct":true,"confidence":-1},{"trial_n":20,"span":6,"encoder":"864114","distractor":"864514","target":"absent","response":"absent","rt":"1690","correct":true,"confidence":-1},{"trial_n":21,"span":7,"encoder":"2771499","distractor":"2771459","target":"absent","response":"absent","rt":"1490","correct":true,"confidence":5},{"trial_n":22,"span":7,"encoder":"1338576","distractor":"5338576","target":"absent","response":"absent","rt":"1462","correct":true,"confidence":5},{"trial_n":23,"span":8,"encoder":"74890096","distractor":"74890396","target":"present","response":"absent","rt":"2183","correct":false,"confidence":4},{"trial_n":24,"span":7,"encoder":"8382879","distractor":"8382878","target":"present","response":"absent","rt":"8448","correct":false,"confidence":3},{"trial_n":25,"span":6,"encoder":"465487","distractor":"463487","target":"present","response":"present","rt":"2218","correct":true,"confidence":5},{"trial_n":26,"span":6,"encoder":"445780","distractor":"443780","target":"absent","response":"absent","rt":"2996","correct":true,"confidence":4},{"trial_n":27,"span":7,"encoder":"0042828","distractor":"0042128","target":"absent","response":"absent","rt":"1546","correct":true,"confidence":5},{"trial_n":28,"span":7,"encoder":"2385551","distractor":"2385511","target":"absent","response":"absent","rt":"2130","correct":true,"confidence":5},{"trial_n":29,"span":8,"encoder":"55442308","distractor":"65442308","target":"present","response":"absent","rt":"3885","correct":false,"confidence":4},{"trial_n":30,"span":7,"encoder":"4038141","distractor":"4033141","target":"present","response":"present","rt":"2300","correct":true,"confidence":5},{"trial_n":31,"span":7,"encoder":"7402459","distractor":"7802459","target":"present","response":"present","rt":"2011","correct":true,"confidence":4},{"trial_n":32,"span":8,"encoder":"60110113","distractor":"60170113","target":"present","response":"absent","rt":"2863","correct":false,"confidence":5},{"trial_n":33,"span":7,"encoder":"2862454","distractor":"2832454","target":"absent","response":"absent","rt":"3361","correct":true,"confidence":3},{"trial_n":34,"span":7,"encoder":"4407579","distractor":"4407479","target":"present","response":"absent","rt":"5866.0000000001","correct":false,"confidence":4},{"trial_n":35,"span":6,"encoder":"349236","distractor":"349836","target":"absent","response":"present","rt":"4003","correct":false,"confidence":4},{"trial_n":36,"span":5,"encoder":"25912","distractor":"15912","target":"present","response":"present","rt":"1638","correct":true,"confidence":5},{"trial_n":37,"span":5,"encoder":"69838","distractor":"69833","target":"present","response":"present","rt":"2055","correct":true,"confidence":5},{"trial_n":38,"span":6,"encoder":"889186","distractor":"289186","target":"absent","response":"present","rt":"1922.0000000001","correct":false,"confidence":4},{"trial_n":39,"span":5,"encoder":"25221","distractor":"25224","target":"present","response":"absent","rt":"4925","correct":false,"confidence":3},{"trial_n":40,"span":4,"encoder":"8916","distractor":"9916","target":"present","response":"present","rt":"1691","correct":true,"confidence":4},{"trial_n":41,"span":4,"encoder":"0843","distractor":"0873","target":"absent","response":"present","rt":"1146","correct":false,"confidence":3},{"trial_n":42,"span":3,"encoder":"068","distractor":"060","target":"present","response":"present","rt":"1983","correct":true,"confidence":5},{"trial_n":43,"span":3,"encoder":"057","distractor":"557","target":"present","response":"present","rt":"1313","correct":true,"confidence":5},{"trial_n":44,"span":4,"encoder":"6104","distractor":"5104","target":"absent","response":"absent","rt":"1746.0000000001","correct":true,"confidence":5},{"trial_n":45,"span":4,"encoder":"7907","distractor":"2907","target":"present","response":"present","rt":"1714.9999999999","correct":true,"confidence":5},{"trial_n":46,"span":5,"encoder":"23328","distractor":"23323","target":"present","response":"absent","rt":"2919","correct":false,"confidence":4},{"trial_n":47,"span":4,"encoder":"2548","distractor":"2568","target":"present","response":"present","rt":"1948","correct":true,"confidence":5},{"trial_n":48,"span":4,"encoder":"1290","distractor":"1490","target":"absent","response":"present","rt":"6746","correct":false,"confidence":2},{"trial_n":49,"span":3,"encoder":"730","distractor":"737","target":"absent","response":"absent","rt":"2215","correct":true,"confidence":5},{"trial_n":50,"span":3,"encoder":"993","distractor":"923","target":"absent","response":"absent","rt":"1629","correct":true,"confidence":5},{"trial_n":51,"span":4,"encoder":"1332","distractor":"1342","target":"absent","response":"absent","rt":"1826","correct":true,"confidence":5},{"trial_n":52,"span":4,"encoder":"6507","distractor":"8507","target":"absent","response":"absent","rt":"1211.9999999999","correct":true,"confidence":5},{"trial_n":53,"span":5,"encoder":"40298","distractor":"90298","target":"present","response":"present","rt":"1479","correct":true,"confidence":5},{"trial_n":54,"span":5,"encoder":"08609","distractor":"58609","target":"present","response":"present","rt":"4714","correct":true,"confidence":3},{"trial_n":55,"span":6,"encoder":"439120","distractor":"439170","target":"present","response":"present","rt":"2107","correct":true,"confidence":5},{"trial_n":56,"span":6,"encoder":"358623","distractor":"458623","target":"absent","response":"absent","rt":"3986.0000000001","correct":true,"confidence":4},{"trial_n":57,"span":7,"encoder":"5610667","distractor":"5680667","target":"absent","response":"absent","rt":"1689.9999999999","correct":true,"confidence":5},{"trial_n":58,"span":7,"encoder":"1849426","distractor":"1899426","target":"present","response":"present","rt":"2822","correct":true,"confidence":4},{"trial_n":59,"span":8,"encoder":"85266750","distractor":"85966750","target":"present","response":"absent","rt":"1359.9999999999","correct":false,"confidence":5},{"trial_n":60,"span":7,"encoder":"4568241","distractor":"4561241","target":"absent","response":"absent","rt":"2709.9999999999","correct":true,"confidence":4},{"trial_n":61,"span":7,"encoder":"5412179","distractor":"5412199","target":"present","response":"present","rt":"1514","correct":true,"confidence":4},{"trial_n":62,"span":8,"encoder":"64782471","distractor":"64742471","target":"absent","response":"absent","rt":"2342","correct":true,"confidence":4},{"trial_n":63,"span":8,"encoder":"50399049","distractor":"50899049","target":"absent","response":"absent","rt":"2500","correct":true,"confidence":4},{"trial_n":64,"span":9,"encoder":"090140426","distractor":"090140429","target":"present","response":"present","rt":"4040","correct":true,"confidence":4},{"trial_n":65,"span":9,"encoder":"316986784","distractor":"326986784","target":"absent","response":"present","rt":"3633","correct":false,"confidence":3},{"trial_n":66,"span":8,"encoder":"93260242","distractor":"93060242","target":"absent","response":"present","rt":"1897","correct":false,"confidence":4},{"trial_n":67,"span":7,"encoder":"0316161","distractor":"0316111","target":"absent","response":"absent","rt":"4958","correct":true,"confidence":3},{"trial_n":68,"span":7,"encoder":"5614204","distractor":"5014204","target":"present","response":"present","rt":"2829","correct":true,"confidence":5},{"trial_n":69,"span":8,"encoder":"66006737","distractor":"46006737","target":"absent","response":"present","rt":"2897.0000000001","correct":false,"confidence":3},{"trial_n":70,"span":7,"encoder":"1616706","distractor":"1646706","target":"present","response":"present","rt":"2115","correct":true,"confidence":5},{"trial_n":71,"span":8,"encoder":"86630088","distractor":"86639088","target":"present","response":"present","rt":"4343.0000000001","correct":true,"confidence":-1},{"trial_n":72,"span":8,"encoder":"54222594","distractor":"51222594","target":"present","response":"present","rt":"3620","correct":true,"confidence":-1},{"trial_n":73,"span":9,"encoder":"074116195","distractor":"374116195","target":"absent","response":"present","rt":"2939","correct":false,"confidence":-1},{"trial_n":74,"span":8,"encoder":"32569192","distractor":"32569392","target":"absent","response":"absent","rt":"3253","correct":true,"confidence":-1},{"trial_n":75,"span":8,"encoder":"76139185","distractor":"76134185","target":"present","response":"present","rt":"2817.0000000001","correct":true,"confidence":-1},{"trial_n":76,"span":9,"encoder":"647207568","distractor":"647247568","target":"present","response":"present","rt":"3188","correct":true,"confidence":-1},{"trial_n":77,"span":9,"encoder":"058185993","distractor":"058185995","target":"present","response":"present","rt":"6719","correct":true,"confidence":-1},{"trial_n":78,"span":10,"encoder":"9872799714","distractor":"9872769714","target":"present","response":"absent","rt":"2783","correct":false,"confidence":-1},{"trial_n":79,"span":9,"encoder":"390908395","distractor":"390928395","target":"present","response":"absent","rt":"5504","correct":false,"confidence":-1},{"trial_n":80,"span":8,"encoder":"08589032","distractor":"08589033","target":"present","response":"present","rt":"1757.0000000001","correct":true,"confidence":-1},{"trial_n":81,"span":8,"encoder":"56306083","distractor":"57306083","target":"present","response":"present","rt":"3386.9999999999","correct":true,"confidence":-1},{"trial_n":82,"span":9,"encoder":"972309001","distractor":"972304001","target":"present","response":"present","rt":"1883","correct":true,"confidence":-1},{"trial_n":83,"span":9,"encoder":"968978958","distractor":"968978558","target":"present","response":"present","rt":"2375","correct":true,"confidence":-1},{"trial_n":84,"span":10,"encoder":"8826291334","distractor":"8226291334","target":"present","response":"present","rt":"3386","correct":true,"confidence":-1},{"trial_n":85,"span":10,"encoder":"3928766417","distractor":"3928736417","target":"absent","response":"absent","rt":"3253","correct":true,"confidence":-1},{"trial_n":86,"span":11,"encoder":"91201885700","distractor":"91201885760","target":"absent","response":"present","rt":"2694","correct":false,"confidence":-1},{"trial_n":87,"span":10,"encoder":"5332214918","distractor":"5334214918","target":"absent","response":"present","rt":"2930.9999999999","correct":false,"confidence":-1},{"trial_n":88,"span":9,"encoder":"565896770","distractor":"465896770","target":"absent","response":"absent","rt":"4752","correct":true,"confidence":-1},{"trial_n":89,"span":9,"encoder":"347179740","distractor":"347179780","target":"present","response":"present","rt":"2203","correct":true,"confidence":-1},{"trial_n":90,"span":10,"encoder":"1695076615","distractor":"1695076115","target":"absent","response":"absent","rt":"1774","correct":true,"confidence":-1},{"trial_n":91,"span":10,"encoder":"6931154294","distractor":"6931454294","target":"present","response":"present","rt":"6055","correct":true,"confidence":3},{"trial_n":92,"span":11,"encoder":"35433862371","distractor":"35433862271","target":"absent","response":"absent","rt":"1944","correct":true,"confidence":4},{"trial_n":93,"span":11,"encoder":"92196309706","distractor":"92196300706","target":"present","response":"present","rt":"2955","correct":true,"confidence":4},{"trial_n":94,"span":12,"encoder":"757694908299","distractor":"757694908999","target":"absent","response":"absent","rt":"2660","correct":true,"confidence":4},{"trial_n":95,"span":12,"encoder":"087772869507","distractor":"687772869507","target":"absent","response":"present","rt":"5577","correct":false,"confidence":3},{"trial_n":96,"span":11,"encoder":"06936949594","distractor":"06966949594","target":"absent","response":"absent","rt":"5395.0000000001","correct":true,"confidence":2},{"trial_n":97,"span":11,"encoder":"93588155792","distractor":"93588155722","target":"absent","response":"absent","rt":"3238","correct":true,"confidence":5},{"trial_n":98,"span":12,"encoder":"174877450119","distractor":"174877450179","target":"absent","response":"absent","rt":"3303","correct":true,"confidence":5},{"trial_n":99,"span":12,"encoder":"688284731999","distractor":"688284731909","target":"absent","response":"absent","rt":"4298.9999999999","correct":true,"confidence":3},{"trial_n":100,"span":13,"encoder":"7028520126521","distractor":"7028520126528","target":"absent","response":"absent","rt":"2188","correct":true,"confidence":5},{"trial_n":101,"span":13,"encoder":"5474726682701","distractor":"5474326682701","target":"absent","response":"absent","rt":"5311","correct":true,"confidence":3},{"trial_n":102,"span":14,"encoder":"96116949770687","distractor":"96116949770187","target":"present","response":"present","rt":"2091.9999999999","correct":true,"confidence":5},{"trial_n":103,"span":14,"encoder":"74184924467922","distractor":"74180924467922","target":"present","response":"present","rt":"5562","correct":true,"confidence":3},{"trial_n":104,"span":15,"encoder":"526376732398453","distractor":"126376732398453","target":"absent","response":"absent","rt":"7950.0000000001","correct":true,"confidence":3},{"trial_n":105,"span":15,"encoder":"790834233468218","distractor":"790834233668218","target":"absent","response":"absent","rt":"8002.0000000001","correct":true,"confidence":4},{"trial_n":106,"span":16,"encoder":"7025861236964639","distractor":"7025861236964939","target":"absent","response":"absent","rt":"5222","correct":true,"confidence":5},{"trial_n":107,"span":16,"encoder":"7204908032501445","distractor":"7204908032501444","target":"absent","response":"absent","rt":"3278","correct":true,"confidence":5},{"trial_n":108,"span":17,"encoder":"98190629791993971","distractor":"98190629791993972","target":"absent","response":"absent","rt":"3645.9999999999","correct":true,"confidence":5},{"trial_n":109,"span":17,"encoder":"49247963384418939","distractor":"49247963384419939","target":"present","response":"present","rt":"12247","correct":true,"confidence":4},{"trial_n":110,"span":18,"encoder":"851392297478149193","distractor":"851390297478149193","target":"present","response":"present","rt":"5101.9999999999","correct":true,"confidence":2},{"trial_n":111,"span":18,"encoder":"262634581890426134","distractor":"262634591890426134","target":"present","response":"present","rt":"7568","correct":true,"confidence":3},{"trial_n":112,"span":19,"encoder":"0998039548021801687","distractor":"0698039548021801687","target":"present","response":"absent","rt":"5954","correct":false,"confidence":3},{"trial_n":113,"span":18,"encoder":"664282678835595240","distractor":"664282678830595240","target":"absent","response":"present","rt":"6013.0000000002","correct":false,"confidence":2},{"trial_n":114,"span":17,"encoder":"36475622614410874","distractor":"36475622614410374","target":"present","response":"present","rt":"2830","correct":true,"confidence":4},{"trial_n":115,"span":17,"encoder":"21186020920487490","distractor":"23186020920487490","target":"absent","response":"absent","rt":"3372","correct":true,"confidence":3},{"trial_n":116,"span":18,"encoder":"517007371926484939","distractor":"514007371926484939","target":"present","response":"absent","rt":"11611","correct":false,"confidence":2},{"trial_n":117,"span":17,"encoder":"25599328773776109","distractor":"25519328773776109","target":"absent","response":"absent","rt":"8075","correct":true,"confidence":4},{"trial_n":118,"span":17,"encoder":"67312403873327207","distractor":"67311403873327207","target":"present","response":"absent","rt":"9104","correct":false,"confidence":2},{"trial_n":119,"span":16,"encoder":"2457670084388878","distractor":"2457670064388878","target":"present","response":"present","rt":"6964","correct":true,"confidence":3},{"trial_n":120,"span":16,"encoder":"0564183372125983","distractor":"0564183372125783","target":"present","response":"present","rt":"3348","correct":true,"confidence":4},{"trial_n":121,"span":17,"encoder":"58346539316422938","distractor":"58356539316422938","target":"present","response":"present","rt":"5533","correct":true,"confidence":2},{"trial_n":122,"span":17,"encoder":"94468242392130327","distractor":"94468246392130327","target":"absent","response":"present","rt":"6444","correct":false,"confidence":3},{"trial_n":123,"span":16,"encoder":"9525811773770188","distractor":"9525811773770888","target":"absent","response":"absent","rt":"4477","correct":true,"confidence":3},{"trial_n":124,"span":16,"encoder":"5628403537726912","distractor":"5628403537726982","target":"present","response":"present","rt":"1768","correct":true,"confidence":5},{"trial_n":125,"span":17,"encoder":"21744158571459202","distractor":"21714158571459202","target":"absent","response":"present","rt":"5666","correct":false,"confidence":2},{"trial_n":126,"span":16,"encoder":"3492122820970059","distractor":"3492122820270059","target":"absent","response":"absent","rt":"4250","correct":true,"confidence":3},{"trial_n":127,"span":16,"encoder":"7628926912930478","distractor":"7678926912930478","target":"present","response":"present","rt":"5244","correct":true,"confidence":3},{"trial_n":128,"span":17,"encoder":"72430105120356724","distractor":"72430105120326724","target":"absent","response":"present","rt":"8263","correct":false,"confidence":2},{"trial_n":129,"span":16,"encoder":"5862174637730653","distractor":"5862184637730653","target":"absent","response":"absent","rt":"7397","correct":true,"confidence":3},{"trial_n":130,"span":16,"encoder":"2696469346872578","distractor":"2696469346672578","target":"present","response":"present","rt":"10142","correct":true,"confidence":4},{"trial_n":131,"span":17,"encoder":"64306103640094871","distractor":"34306103640094871","target":"absent","response":"absent","rt":"7173","correct":true,"confidence":3},{"trial_n":132,"span":17,"encoder":"90375139958389724","distractor":"90370139958389724","target":"present","response":"present","rt":"8595","correct":true,"confidence":3},{"trial_n":133,"span":18,"encoder":"294623537846652714","distractor":"294623537846612714","target":"absent","response":"absent","rt":"4416.0000000002","correct":true,"confidence":5},{"trial_n":134,"span":18,"encoder":"870940436082582801","distractor":"870940436082585801","target":"absent","response":"absent","rt":"5524","correct":true,"confidence":3},{"trial_n":135,"span":19,"encoder":"0395477921698305155","distractor":"0395417921698305155","target":"present","response":"absent","rt":"9731","correct":false,"confidence":3},{"trial_n":136,"span":18,"encoder":"593640865954687382","distractor":"553640865954687382","target":"present","response":"present","rt":"3668","correct":true,"confidence":4},{"trial_n":137,"span":18,"encoder":"351260167278090214","distractor":"351260367278090214","target":"present","response":"absent","rt":"7559","correct":false,"confidence":4},{"trial_n":138,"span":17,"encoder":"76627118007830399","distractor":"76620118007830399","target":"present","response":"absent","rt":"7796","correct":false,"confidence":4},{"trial_n":139,"span":16,"encoder":"5892274534572775","distractor":"5692274534572775","target":"absent","response":"absent","rt":"7783.0000000002","correct":true,"confidence":4},{"trial_n":140,"span":16,"encoder":"5404919623311674","distractor":"5454919623311674","target":"present","response":"absent","rt":"10751","correct":false,"confidence":4}]