[{"trial_n":1,"span":8,"encoder":"09273101","distractor":"09173101","target":"present","response":"absent","rt":"6955.4000000954","correct":false,"confidence":-1},{"trial_n":2,"span":6,"encoder":"918828","distractor":"918848","target":"present","response":"present","rt":"3201.5","correct":true,"confidence":-1},{"trial_n":3,"span":6,"encoder":"195544","distractor":"195744","target":"absent","response":"absent","rt":"2226.2000002861","correct":true,"confidence":-1},{"trial_n":4,"span":8,"encoder":"40904873","distractor":"40909873","target":"absent","response":"absent","rt":"2282.0999999046","correct":true,"confidence":-1},{"trial_n":5,"span":8,"encoder":"62604096","distractor":"62604095","target":"present","response":"present","rt":"1895.7000002861","correct":true,"confidence":-1},{"trial_n":6,"span":10,"encoder":"0095357615","distractor":"0095359615","target":"absent","response":"present","rt":"1718.5","correct":false,"confidence":-1},{"trial_n":7,"span":8,"encoder":"27415222","distractor":"27418222","target":"present","response":"absent","rt":"2018.5999999046","correct":false,"confidence":-1},{"trial_n":8,"span":6,"encoder":"835538","distractor":"832538","target":"present","response":"present","rt":"1673","correct":true,"confidence":-1},{"trial_n":9,"span":6,"encoder":"962578","distractor":"562578","target":"absent","response":"absent","rt":"1608.7999997139","correct":true,"confidence":-1},{"trial_n":10,"span":8,"encoder":"77751425","distractor":"77051425","target":"absent","response":"present","rt":"6560.0999999046","correct":false,"confidence":-1},{"trial_n":11,"span":6,"encoder":"760561","distractor":"460561","target":"absent","response":"absent","rt":"1450.0999999046","correct":true,"confidence":-1},{"trial_n":12,"span":6,"encoder":"742475","distractor":"752475","target":"absent","response":"absent","rt":"1038.0999999046","correct":true,"confidence":-1},{"trial_n":13,"span":7,"encoder":"2484104","distractor":"2284104","target":"present","response":"present","rt":"1707.5","correct":true,"confidence":-1},{"trial_n":14,"span":7,"encoder":"2360790","distractor":"2330790","target":"present","response":"absent","rt":"1787.4000000954","correct":false,"confidence":-1},{"trial_n":15,"span":6,"encoder":"681823","distractor":"681523","target":"present","response":"present","rt":"2499.7000002861","correct":true,"confidence":-1},{"trial_n":16,"span":6,"encoder":"622779","distractor":"022779","target":"absent","response":"absent","rt":"1766.0999999046","correct":true,"confidence":-1},{"trial_n":17,"span":7,"encoder":"0355026","distractor":"0305026","target":"present","response":"present","rt":"2921.9000000954","correct":true,"confidence":-1},{"trial_n":18,"span":7,"encoder":"1455833","distractor":"1455533","target":"present","response":"present","rt":"2719.5999999046","correct":true,"confidence":-1},{"trial_n":19,"span":8,"encoder":"30779076","distractor":"36779076","target":"present","response":"present","rt":"1420","correct":true,"confidence":-1},{"trial_n":20,"span":8,"encoder":"90743506","distractor":"90743706","target":"present","response":"present","rt":"1816.7000002861","correct":true,"confidence":-1},{"trial_n":21,"span":9,"encoder":"881737578","distractor":"881737571","target":"absent","response":"absent","rt":"4480.7999997139","correct":true,"confidence":4},{"trial_n":22,"span":9,"encoder":"350935602","distractor":"320935602","target":"absent","response":"present","rt":"4954.7000002861","correct":false,"confidence":3},{"trial_n":23,"span":8,"encoder":"47766418","distractor":"47766618","target":"present","response":"present","rt":"2270.1999998093","correct":true,"confidence":4},{"trial_n":24,"span":8,"encoder":"88008111","distractor":"38008111","target":"present","response":"present","rt":"1847.4000000954","correct":true,"confidence":3},{"trial_n":25,"span":9,"encoder":"738701166","distractor":"738701196","target":"absent","response":"present","rt":"2599.2999997139","correct":false,"confidence":4},{"trial_n":26,"span":8,"encoder":"68851420","distractor":"98851420","target":"present","response":"present","rt":"2873.7000002861","correct":true,"confidence":5},{"trial_n":27,"span":8,"encoder":"55249327","distractor":"55249323","target":"present","response":"present","rt":"1532.1999998093","correct":true,"confidence":4},{"trial_n":28,"span":9,"encoder":"735902096","distractor":"735902996","target":"absent","response":"present","rt":"2024.4000000954","correct":false,"confidence":4},{"trial_n":29,"span":8,"encoder":"70611991","distractor":"70615991","target":"present","response":"present","rt":"3405.3000001907","correct":true,"confidence":5},{"trial_n":30,"span":8,"encoder":"01672224","distractor":"01632224","target":"present","response":"present","rt":"3206.7000002861","correct":true,"confidence":5},{"trial_n":31,"span":9,"encoder":"775404483","distractor":"775404485","target":"absent","response":"present","rt":"3941.9000000954","correct":false,"confidence":5},{"trial_n":32,"span":8,"encoder":"15643046","distractor":"15643846","target":"absent","response":"absent","rt":"2745.2000002861","correct":true,"confidence":3},{"trial_n":33,"span":8,"encoder":"77461815","distractor":"57461815","target":"absent","response":"absent","rt":"3157.0999999046","correct":true,"confidence":3},{"trial_n":34,"span":9,"encoder":"123463797","distractor":"123443797","target":"absent","response":"present","rt":"10228.5","correct":false,"confidence":3},{"trial_n":35,"span":8,"encoder":"35545408","distractor":"35525408","target":"absent","response":"absent","rt":"3212.8000001907","correct":true,"confidence":4},{"trial_n":36,"span":8,"encoder":"28725839","distractor":"28725838","target":"absent","response":"absent","rt":"5562","correct":true,"confidence":5},{"trial_n":37,"span":9,"encoder":"225734862","distractor":"225730862","target":"present","response":"present","rt":"6415.5999999046","correct":true,"confidence":2},{"trial_n":38,"span":9,"encoder":"835683201","distractor":"835683801","target":"present","response":"present","rt":"4114.1999998093","correct":true,"confidence":4},{"trial_n":39,"span":10,"encoder":"8338371368","distractor":"8335371368","target":"absent","response":"absent","rt":"3947.7000002861","correct":true,"confidence":3},{"trial_n":40,"span":10,"encoder":"7107642184","distractor":"7107642181","target":"absent","response":"present","rt":"4567.2000002861","correct":false,"confidence":4},{"trial_n":41,"span":9,"encoder":"582065167","distractor":"582065169","target":"present","response":"present","rt":"4799","correct":true,"confidence":4},{"trial_n":42,"span":9,"encoder":"228911371","distractor":"228911375","target":"present","response":"present","rt":"2147.5","correct":true,"confidence":4},{"trial_n":43,"span":10,"encoder":"2707611775","distractor":"2777611775","target":"absent","response":"absent","rt":"4916.4000000954","correct":true,"confidence":4},{"trial_n":44,"span":10,"encoder":"3348918511","distractor":"3348928511","target":"present","response":"present","rt":"3008.3000001907","correct":true,"confidence":4},{"trial_n":45,"span":11,"encoder":"51742483851","distractor":"51742480851","target":"absent","response":"absent","rt":"5373.5999999046","correct":true,"confidence":3},{"trial_n":46,"span":11,"encoder":"87400225175","distractor":"87480225175","target":"absent","response":"present","rt":"3739.5","correct":false,"confidence":3},{"trial_n":47,"span":10,"encoder":"3117416134","distractor":"3117456134","target":"absent","response":"present","rt":"1893.8999996185","correct":false,"confidence":2},{"trial_n":48,"span":9,"encoder":"050783872","distractor":"650783872","target":"absent","response":"absent","rt":"3788.5","correct":true,"confidence":4},{"trial_n":49,"span":9,"encoder":"146774128","distractor":"147774128","target":"present","response":"present","rt":"1674.3999996185","correct":true,"confidence":3},{"trial_n":50,"span":10,"encoder":"6348719545","distractor":"6358719545","target":"absent","response":"present","rt":"3846.7000002861","correct":false,"confidence":3},{"trial_n":51,"span":9,"encoder":"994313429","distractor":"994383429","target":"absent","response":"absent","rt":"4558.4000000954","correct":true,"confidence":4},{"trial_n":52,"span":9,"encoder":"123113809","distractor":"122113809","target":"absent","response":"absent","rt":"2219.6999998093","correct":true,"confidence":5},{"trial_n":53,"span":10,"encoder":"1616787038","distractor":"1016787038","target":"absent","response":"absent","rt":"5212.7999997139","correct":true,"confidence":4},{"trial_n":54,"span":10,"encoder":"8831648707","distractor":"8832648707","target":"present","response":"present","rt":"4638.8000001907","correct":true,"confidence":3},{"trial_n":55,"span":11,"encoder":"58813744648","distractor":"58813774648","target":"present","response":"present","rt":"5250.9000000954","correct":true,"confidence":4},{"trial_n":56,"span":11,"encoder":"50612483751","distractor":"54612483751","target":"absent","response":"present","rt":"6148.5","correct":false,"confidence":3},{"trial_n":57,"span":10,"encoder":"2135125197","distractor":"2135105197","target":"present","response":"present","rt":"5641.0999999046","correct":true,"confidence":3},{"trial_n":58,"span":10,"encoder":"2753429784","distractor":"2753429584","target":"absent","response":"present","rt":"3433.7000002861","correct":false,"confidence":4},{"trial_n":59,"span":9,"encoder":"887211584","distractor":"827211584","target":"present","response":"present","rt":"4803.9000000954","correct":true,"confidence":4},{"trial_n":60,"span":9,"encoder":"821997580","distractor":"821997520","target":"present","response":"present","rt":"4819.2999997139","correct":true,"confidence":5},{"trial_n":61,"span":10,"encoder":"8320821558","distractor":"8320821528","target":"absent","response":"absent","rt":"4536.7999997139","correct":true,"confidence":4},{"trial_n":62,"span":10,"encoder":"8729079501","distractor":"8429079501","target":"present","response":"present","rt":"5191","correct":true,"confidence":4},{"trial_n":63,"span":11,"encoder":"93684849407","distractor":"93684849400","target":"present","response":"present","rt":"4032.5999999046","correct":true,"confidence":4},{"trial_n":64,"span":11,"encoder":"32598098218","distractor":"32598598218","target":"present","response":"present","rt":"3598.0999999046","correct":true,"confidence":4},{"trial_n":65,"span":12,"encoder":"811034288780","distractor":"811039288780","target":"absent","response":"absent","rt":"4980.5999999046","correct":true,"confidence":2},{"trial_n":66,"span":12,"encoder":"606899849088","distractor":"606899849788","target":"present","response":"present","rt":"2773.3000001907","correct":true,"confidence":3},{"trial_n":67,"span":13,"encoder":"0324439097815","distractor":"0324419097815","target":"present","response":"present","rt":"2017","correct":true,"confidence":2},{"trial_n":68,"span":13,"encoder":"8437674284515","distractor":"8437774284515","target":"present","response":"present","rt":"4095","correct":true,"confidence":2},{"trial_n":69,"span":14,"encoder":"38985449215352","distractor":"38985449216352","target":"absent","response":"present","rt":"4663.5999999046","correct":false,"confidence":3},{"trial_n":70,"span":13,"encoder":"5793249030677","distractor":"5793249030674","target":"present","response":"present","rt":"2699.2999997139","correct":true,"confidence":3},{"trial_n":71,"span":8,"encoder":"66439123","distractor":"66439183","target":"present","response":"present","rt":"4017.7999997139","correct":true,"confidence":-1},{"trial_n":72,"span":8,"encoder":"02111765","distractor":"02111795","target":"present","response":"present","rt":"2142.5999999046","correct":true,"confidence":-1},{"trial_n":73,"span":9,"encoder":"545679510","distractor":"945679510","target":"absent","response":"absent","rt":"2756.7000002861","correct":true,"confidence":-1},{"trial_n":74,"span":9,"encoder":"780771627","distractor":"780771727","target":"absent","response":"absent","rt":"1687.8000001907","correct":true,"confidence":-1},{"trial_n":75,"span":10,"encoder":"3723655706","distractor":"3723655766","target":"present","response":"present","rt":"1892.7000002861","correct":true,"confidence":-1},{"trial_n":76,"span":10,"encoder":"8061743345","distractor":"8001743345","target":"absent","response":"absent","rt":"3874.4000000954","correct":true,"confidence":-1},{"trial_n":77,"span":11,"encoder":"58138927276","distractor":"58138987276","target":"present","response":"absent","rt":"1560.8000001907","correct":false,"confidence":-1},{"trial_n":78,"span":10,"encoder":"1882692284","distractor":"1872692284","target":"absent","response":"present","rt":"2271.7000002861","correct":false,"confidence":-1},{"trial_n":79,"span":9,"encoder":"742262517","distractor":"642262517","target":"absent","response":"present","rt":"1227.8000001907","correct":false,"confidence":-1},{"trial_n":80,"span":8,"encoder":"45239869","distractor":"45339869","target":"present","response":"present","rt":"2349.0999999046","correct":true,"confidence":-1},{"trial_n":81,"span":8,"encoder":"04244555","distractor":"94244555","target":"absent","response":"absent","rt":"2096.4000000954","correct":true,"confidence":-1},{"trial_n":82,"span":9,"encoder":"543915899","distractor":"043915899","target":"absent","response":"present","rt":"3340.2999997139","correct":false,"confidence":-1},{"trial_n":83,"span":8,"encoder":"89937742","distractor":"80937742","target":"present","response":"present","rt":"2666.1999998093","correct":true,"confidence":-1},{"trial_n":84,"span":8,"encoder":"77312370","distractor":"77812370","target":"present","response":"present","rt":"3092.9000000954","correct":true,"confidence":-1},{"trial_n":85,"span":9,"encoder":"503678518","distractor":"503678519","target":"absent","response":"absent","rt":"2958.0999999046","correct":true,"confidence":-1},{"trial_n":86,"span":9,"encoder":"710365992","distractor":"714365992","target":"present","response":"absent","rt":"3017","correct":false,"confidence":-1},{"trial_n":87,"span":8,"encoder":"48535352","distractor":"48535152","target":"present","response":"present","rt":"4146.2999997139","correct":true,"confidence":-1},{"trial_n":88,"span":8,"encoder":"75832426","distractor":"75882426","target":"absent","response":"absent","rt":"5025.9000000954","correct":true,"confidence":-1},{"trial_n":89,"span":9,"encoder":"253341214","distractor":"653341214","target":"absent","response":"present","rt":"2128.6000003815","correct":false,"confidence":-1},{"trial_n":90,"span":8,"encoder":"61792602","distractor":"91792602","target":"present","response":"present","rt":"4912.5","correct":true,"confidence":-1},{"trial_n":91,"span":8,"encoder":"15992522","distractor":"15998522","target":"absent","response":"absent","rt":"3517.4000000954","correct":true,"confidence":4},{"trial_n":92,"span":9,"encoder":"328863149","distractor":"328863143","target":"present","response":"absent","rt":"2824.7000002861","correct":false,"confidence":4},{"trial_n":93,"span":8,"encoder":"46334309","distractor":"46334304","target":"absent","response":"present","rt":"3089.3000001907","correct":false,"confidence":3},{"trial_n":94,"span":7,"encoder":"9894467","distractor":"9894468","target":"present","response":"present","rt":"1891.3999996185","correct":true,"confidence":5},{"trial_n":95,"span":7,"encoder":"9064105","distractor":"5064105","target":"absent","response":"absent","rt":"2536.4000000954","correct":true,"confidence":4},{"trial_n":96,"span":8,"encoder":"37134678","distractor":"37234678","target":"present","response":"present","rt":"3294.2999997139","correct":true,"confidence":5},{"trial_n":97,"span":8,"encoder":"39398627","distractor":"30398627","target":"present","response":"present","rt":"3200.2000002861","correct":true,"confidence":5},{"trial_n":98,"span":9,"encoder":"813758678","distractor":"803758678","target":"absent","response":"present","rt":"4833","correct":false,"confidence":3},{"trial_n":99,"span":8,"encoder":"28534446","distractor":"28534447","target":"absent","response":"absent","rt":"1531.8999996185","correct":true,"confidence":5},{"trial_n":100,"span":8,"encoder":"37051789","distractor":"37051788","target":"absent","response":"absent","rt":"2227.2000002861","correct":true,"confidence":5},{"trial_n":101,"span":9,"encoder":"660076022","distractor":"665076022","target":"absent","response":"absent","rt":"3075","correct":true,"confidence":4},{"trial_n":102,"span":9,"encoder":"889390733","distractor":"489390733","target":"present","response":"present","rt":"3991.0999999046","correct":true,"confidence":4},{"trial_n":103,"span":10,"encoder":"6336245350","distractor":"6336240350","target":"absent","response":"absent","rt":"6081.1999998093","correct":true,"confidence":3},{"trial_n":104,"span":10,"encoder":"1595682887","distractor":"1505682887","target":"present","response":"present","rt":"7763.7999997139","correct":true,"confidence":4},{"trial_n":105,"span":11,"encoder":"25304298826","distractor":"25304298886","target":"present","response":"present","rt":"6352.7000002861","correct":true,"confidence":3},{"trial_n":106,"span":11,"encoder":"36832936183","distractor":"36832933183","target":"absent","response":"present","rt":"5469.8000001907","correct":false,"confidence":3},{"trial_n":107,"span":10,"encoder":"2416148414","distractor":"2416148614","target":"present","response":"present","rt":"6596.5","correct":true,"confidence":2},{"trial_n":108,"span":10,"encoder":"0004176360","distractor":"4004176360","target":"present","response":"present","rt":"3310.2999997139","correct":true,"confidence":5},{"trial_n":109,"span":11,"encoder":"98189718638","distractor":"91189718638","target":"absent","response":"absent","rt":"4474.8999996185","correct":true,"confidence":3},{"trial_n":110,"span":11,"encoder":"77998641361","distractor":"77994641361","target":"present","response":"present","rt":"3529.3000001907","correct":true,"confidence":4},{"trial_n":111,"span":12,"encoder":"212456422581","distractor":"262456422581","target":"absent","response":"absent","rt":"4554.3999996185","correct":true,"confidence":4},{"trial_n":112,"span":12,"encoder":"546534287866","distractor":"545534287866","target":"absent","response":"absent","rt":"4664.7000002861","correct":true,"confidence":1},{"trial_n":113,"span":13,"encoder":"0714865598666","distractor":"0714865508666","target":"present","response":"present","rt":"3484.5","correct":true,"confidence":3},{"trial_n":114,"span":13,"encoder":"0035831224924","distractor":"0035838224924","target":"absent","response":"absent","rt":"4551.2000002861","correct":true,"confidence":3},{"trial_n":115,"span":14,"encoder":"74600100649156","distractor":"75600100649156","target":"present","response":"present","rt":"7344.6999998093","correct":true,"confidence":2},{"trial_n":116,"span":14,"encoder":"54286460421472","distractor":"54686460421472","target":"present","response":"absent","rt":"9135.1999998093","correct":false,"confidence":3},{"trial_n":117,"span":13,"encoder":"2726543977219","distractor":"0726543977219","target":"present","response":"present","rt":"3922.5","correct":true,"confidence":3},{"trial_n":118,"span":13,"encoder":"9651338943491","distractor":"9651358943491","target":"present","response":"present","rt":"4319.2000002861","correct":true,"confidence":2},{"trial_n":119,"span":14,"encoder":"98469296975937","distractor":"98469296905937","target":"absent","response":"absent","rt":"9373.2999997139","correct":true,"confidence":4},{"trial_n":120,"span":14,"encoder":"69838486411173","distractor":"69838486611173","target":"absent","response":"present","rt":"3181.9000000954","correct":false,"confidence":1},{"trial_n":121,"span":13,"encoder":"0875048705003","distractor":"0875048705403","target":"absent","response":"present","rt":"4178.4000000954","correct":false,"confidence":3},{"trial_n":122,"span":12,"encoder":"778206494529","distractor":"778216494529","target":"present","response":"present","rt":"2931.5","correct":true,"confidence":1},{"trial_n":123,"span":12,"encoder":"855479329934","distractor":"855479329931","target":"present","response":"present","rt":"3013.6000003815","correct":true,"confidence":5},{"trial_n":124,"span":13,"encoder":"5146466765007","distractor":"5106466765007","target":"absent","response":"present","rt":"3613.4000000954","correct":false,"confidence":2},{"trial_n":125,"span":12,"encoder":"447777271108","distractor":"447777271008","target":"absent","response":"absent","rt":"9343.3000001907","correct":true,"confidence":3},{"trial_n":126,"span":12,"encoder":"692973090581","distractor":"692973990581","target":"present","response":"present","rt":"5057.9000000954","correct":true,"confidence":3},{"trial_n":127,"span":13,"encoder":"2952073312209","distractor":"2952873312209","target":"present","response":"present","rt":"4240.5","correct":true,"confidence":2},{"trial_n":128,"span":13,"encoder":"8818568570627","distractor":"8811568570627","target":"absent","response":"present","rt":"6069","correct":false,"confidence":3},{"trial_n":129,"span":12,"encoder":"831976142006","distractor":"831936142006","target":"absent","response":"absent","rt":"4571.5","correct":true,"confidence":4},{"trial_n":130,"span":12,"encoder":"091280819945","distractor":"091280811945","target":"present","response":"present","rt":"8237.9000000954","correct":true,"confidence":3},{"trial_n":131,"span":13,"encoder":"6790076426567","distractor":"6790376426567","target":"absent","response":"absent","rt":"4212.1000003815","correct":true,"confidence":3},{"trial_n":132,"span":13,"encoder":"4611166570338","distractor":"6611166570338","target":"present","response":"absent","rt":"6846.1999998093","correct":false,"confidence":3},{"trial_n":133,"span":12,"encoder":"791760046136","distractor":"791710046136","target":"present","response":"present","rt":"4425.5999999046","correct":true,"confidence":3},{"trial_n":134,"span":12,"encoder":"000772990493","distractor":"000772990483","target":"present","response":"present","rt":"2084.0999999046","correct":true,"confidence":5},{"trial_n":135,"span":13,"encoder":"8176076672368","distractor":"8176072672368","target":"present","response":"present","rt":"4727.6000003815","correct":true,"confidence":3},{"trial_n":136,"span":13,"encoder":"0212178392613","distractor":"0212175392613","target":"absent","response":"present","rt":"1875","correct":false,"confidence":1},{"trial_n":137,"span":12,"encoder":"537262922828","distractor":"537262952828","target":"absent","response":"absent","rt":"3950.4000000954","correct":true,"confidence":4},{"trial_n":138,"span":12,"encoder":"944510691570","distractor":"944510691670","target":"present","response":"present","rt":"6340.8000001907","correct":true,"confidence":3},{"trial_n":139,"span":13,"encoder":"6096394843971","distractor":"6096394853971","target":"present","response":"absent","rt":"4872.4000000954","correct":false,"confidence":3},{"trial_n":140,"span":12,"encoder":"174786798044","distractor":"184786798044","target":"absent","response":"absent","rt":"5954.0999999046","correct":true,"confidence":3}]