[{"trial_n":1,"span":8,"encoder":"39202603","distractor":"39202303","target":"present","response":"absent","rt":"2421.4000000004","correct":false,"confidence":-1},{"trial_n":2,"span":6,"encoder":"924063","distractor":"934063","target":"present","response":"present","rt":"1381.5999999996","correct":true,"confidence":-1},{"trial_n":3,"span":6,"encoder":"754818","distractor":"754812","target":"absent","response":"absent","rt":"1315.1999999993","correct":true,"confidence":-1},{"trial_n":4,"span":8,"encoder":"22558660","distractor":"22588660","target":"absent","response":"present","rt":"880.5","correct":false,"confidence":-1},{"trial_n":5,"span":6,"encoder":"971383","distractor":"971083","target":"present","response":"present","rt":"1099.3999999985","correct":true,"confidence":-1},{"trial_n":6,"span":6,"encoder":"149550","distractor":"649550","target":"absent","response":"absent","rt":"1361.5","correct":true,"confidence":-1},{"trial_n":7,"span":8,"encoder":"43859799","distractor":"43159799","target":"absent","response":"absent","rt":"1251.7999999989","correct":true,"confidence":-1},{"trial_n":8,"span":8,"encoder":"93491498","distractor":"93491198","target":"absent","response":"absent","rt":"1301.9000000004","correct":true,"confidence":-1},{"trial_n":9,"span":10,"encoder":"9644795695","distractor":"9644895695","target":"absent","response":"present","rt":"1482.8000000007","correct":false,"confidence":-1},{"trial_n":10,"span":8,"encoder":"42677957","distractor":"42677857","target":"absent","response":"present","rt":"1454.4000000004","correct":false,"confidence":-1},{"trial_n":11,"span":6,"encoder":"872314","distractor":"872514","target":"present","response":"present","rt":"1377.4000000004","correct":true,"confidence":-1},{"trial_n":12,"span":6,"encoder":"084180","distractor":"086180","target":"absent","response":"present","rt":"1571.6999999993","correct":false,"confidence":-1},{"trial_n":13,"span":5,"encoder":"93127","distractor":"93157","target":"absent","response":"present","rt":"1658.5999999996","correct":false,"confidence":-1},{"trial_n":14,"span":4,"encoder":"4206","distractor":"4202","target":"present","response":"present","rt":"1012.8999999985","correct":true,"confidence":-1},{"trial_n":15,"span":4,"encoder":"7781","distractor":"7881","target":"absent","response":"present","rt":"1324","correct":false,"confidence":-1},{"trial_n":16,"span":3,"encoder":"414","distractor":"454","target":"present","response":"present","rt":"884.10000000149","correct":true,"confidence":-1},{"trial_n":17,"span":3,"encoder":"851","distractor":"891","target":"present","response":"present","rt":"823.5","correct":true,"confidence":-1},{"trial_n":18,"span":4,"encoder":"0269","distractor":"1269","target":"present","response":"present","rt":"1097.9000000004","correct":true,"confidence":-1},{"trial_n":19,"span":4,"encoder":"6154","distractor":"6754","target":"absent","response":"present","rt":"824.70000000112","correct":false,"confidence":-1},{"trial_n":20,"span":3,"encoder":"312","distractor":"317","target":"absent","response":"absent","rt":"1199.5999999996","correct":true,"confidence":-1},{"trial_n":21,"span":3,"encoder":"253","distractor":"256","target":"present","response":"present","rt":"1034.3000000007","correct":true,"confidence":4},{"trial_n":22,"span":4,"encoder":"5752","distractor":"5756","target":"present","response":"present","rt":"794.79999999888","correct":true,"confidence":5},{"trial_n":23,"span":4,"encoder":"5749","distractor":"5549","target":"absent","response":"absent","rt":"1461.5999999996","correct":true,"confidence":5},{"trial_n":24,"span":5,"encoder":"63040","distractor":"63020","target":"absent","response":"present","rt":"872.40000000037","correct":false,"confidence":1},{"trial_n":25,"span":4,"encoder":"0879","distractor":"0873","target":"present","response":"present","rt":"2006.6999999993","correct":true,"confidence":4},{"trial_n":26,"span":4,"encoder":"9066","distractor":"9076","target":"absent","response":"absent","rt":"1203.4000000004","correct":true,"confidence":4},{"trial_n":27,"span":5,"encoder":"91662","distractor":"99662","target":"absent","response":"absent","rt":"1535.2999999989","correct":true,"confidence":4},{"trial_n":28,"span":5,"encoder":"74701","distractor":"54701","target":"present","response":"present","rt":"1194","correct":true,"confidence":3},{"trial_n":29,"span":6,"encoder":"736758","distractor":"736718","target":"absent","response":"absent","rt":"2552.1999999993","correct":true,"confidence":4},{"trial_n":30,"span":6,"encoder":"685733","distractor":"985733","target":"present","response":"present","rt":"1402.3000000007","correct":true,"confidence":4},{"trial_n":31,"span":7,"encoder":"1339476","distractor":"1330476","target":"absent","response":"present","rt":"762.30000000075","correct":false,"confidence":1},{"trial_n":32,"span":6,"encoder":"996079","distractor":"999079","target":"present","response":"present","rt":"1197.1000000015","correct":true,"confidence":1},{"trial_n":33,"span":6,"encoder":"007127","distractor":"008127","target":"present","response":"absent","rt":"526.30000000075","correct":false,"confidence":1},{"trial_n":34,"span":5,"encoder":"42407","distractor":"49407","target":"absent","response":"absent","rt":"2415.1999999993","correct":true,"confidence":4},{"trial_n":35,"span":5,"encoder":"36029","distractor":"36027","target":"present","response":"present","rt":"1341.6999999993","correct":true,"confidence":1},{"trial_n":36,"span":6,"encoder":"559846","distractor":"556846","target":"present","response":"present","rt":"2129.0999999996","correct":true,"confidence":4},{"trial_n":37,"span":6,"encoder":"742549","distractor":"142549","target":"present","response":"present","rt":"1230","correct":true,"confidence":4},{"trial_n":38,"span":7,"encoder":"0599853","distractor":"0593853","target":"absent","response":"absent","rt":"1461.0999999996","correct":true,"confidence":1},{"trial_n":39,"span":7,"encoder":"3969753","distractor":"3960753","target":"absent","response":"present","rt":"1581.5999999996","correct":false,"confidence":1},{"trial_n":40,"span":6,"encoder":"233477","distractor":"239477","target":"present","response":"present","rt":"1687.1000000015","correct":true,"confidence":3},{"trial_n":41,"span":6,"encoder":"229736","distractor":"229336","target":"absent","response":"present","rt":"1156.7000000011","correct":false,"confidence":4},{"trial_n":42,"span":5,"encoder":"60661","distractor":"60631","target":"absent","response":"absent","rt":"3089.8999999985","correct":true,"confidence":3},{"trial_n":43,"span":5,"encoder":"61705","distractor":"61701","target":"present","response":"present","rt":"1368.0999999996","correct":true,"confidence":3},{"trial_n":44,"span":6,"encoder":"790223","distractor":"700223","target":"absent","response":"present","rt":"1736.5","correct":false,"confidence":3},{"trial_n":45,"span":5,"encoder":"20032","distractor":"25032","target":"present","response":"present","rt":"1205.0999999996","correct":true,"confidence":3},{"trial_n":46,"span":5,"encoder":"79847","distractor":"79846","target":"present","response":"present","rt":"1419.1000000015","correct":true,"confidence":4},{"trial_n":47,"span":6,"encoder":"385879","distractor":"385849","target":"present","response":"present","rt":"2141.6999999993","correct":true,"confidence":4},{"trial_n":48,"span":6,"encoder":"483489","distractor":"483189","target":"present","response":"present","rt":"1078.1999999993","correct":true,"confidence":4},{"trial_n":49,"span":7,"encoder":"8947917","distractor":"8947914","target":"absent","response":"absent","rt":"2717.1000000015","correct":true,"confidence":3},{"trial_n":50,"span":7,"encoder":"5589924","distractor":"6589924","target":"absent","response":"present","rt":"1238.7999999989","correct":false,"confidence":4},{"trial_n":51,"span":6,"encoder":"317297","distractor":"417297","target":"absent","response":"present","rt":"1912.2000000011","correct":false,"confidence":4},{"trial_n":52,"span":5,"encoder":"84981","distractor":"64981","target":"present","response":"present","rt":"1319.0999999996","correct":true,"confidence":4},{"trial_n":53,"span":5,"encoder":"16777","distractor":"16577","target":"present","response":"present","rt":"700.69999999925","correct":true,"confidence":1},{"trial_n":54,"span":6,"encoder":"103670","distractor":"103650","target":"present","response":"absent","rt":"603","correct":false,"confidence":1},{"trial_n":55,"span":5,"encoder":"30323","distractor":"40323","target":"present","response":"present","rt":"927.89999999851","correct":true,"confidence":3},{"trial_n":56,"span":5,"encoder":"75509","distractor":"75599","target":"present","response":"present","rt":"1088.0999999996","correct":true,"confidence":3},{"trial_n":57,"span":6,"encoder":"445306","distractor":"445305","target":"absent","response":"absent","rt":"836.09999999963","correct":true,"confidence":1},{"trial_n":58,"span":6,"encoder":"680623","distractor":"680624","target":"absent","response":"absent","rt":"2284.2000000011","correct":true,"confidence":3},{"trial_n":59,"span":7,"encoder":"5206933","distractor":"5206433","target":"absent","response":"present","rt":"1291.5","correct":false,"confidence":4},{"trial_n":60,"span":6,"encoder":"480502","distractor":"483502","target":"present","response":"present","rt":"1575.5","correct":true,"confidence":3},{"trial_n":61,"span":6,"encoder":"621139","distractor":"321139","target":"present","response":"present","rt":"1173.7999999989","correct":true,"confidence":4},{"trial_n":62,"span":7,"encoder":"5924674","distractor":"5124674","target":"present","response":"present","rt":"1646.3999999985","correct":true,"confidence":2},{"trial_n":63,"span":7,"encoder":"7651975","distractor":"7651972","target":"absent","response":"absent","rt":"1542.5","correct":true,"confidence":3},{"trial_n":64,"span":8,"encoder":"33667872","distractor":"33367872","target":"present","response":"present","rt":"1326.0999999996","correct":true,"confidence":3},{"trial_n":65,"span":8,"encoder":"11098653","distractor":"11099653","target":"absent","response":"absent","rt":"1162.2000000011","correct":true,"confidence":3},{"trial_n":66,"span":9,"encoder":"008758789","distractor":"008958789","target":"present","response":"present","rt":"1297.6999999993","correct":true,"confidence":4},{"trial_n":67,"span":9,"encoder":"885863853","distractor":"885563853","target":"absent","response":"present","rt":"1313.4000000004","correct":false,"confidence":3},{"trial_n":68,"span":8,"encoder":"61853807","distractor":"61653807","target":"present","response":"present","rt":"1299.5","correct":true,"confidence":1},{"trial_n":69,"span":8,"encoder":"06108369","distractor":"01108369","target":"present","response":"present","rt":"1302.6999999993","correct":true,"confidence":2},{"trial_n":70,"span":9,"encoder":"264102955","distractor":"264102952","target":"absent","response":"present","rt":"1485.2000000011","correct":false,"confidence":1},{"trial_n":71,"span":8,"encoder":"10978572","distractor":"80978572","target":"present","response":"present","rt":"3383.7000000011","correct":true,"confidence":-1},{"trial_n":72,"span":8,"encoder":"65653938","distractor":"65653918","target":"present","response":"absent","rt":"2535.4000000004","correct":false,"confidence":-1},{"trial_n":73,"span":7,"encoder":"2231106","distractor":"2231103","target":"absent","response":"absent","rt":"1613.5","correct":true,"confidence":-1},{"trial_n":74,"span":7,"encoder":"3616306","distractor":"3616326","target":"absent","response":"absent","rt":"1854.5","correct":true,"confidence":-1},{"trial_n":75,"span":8,"encoder":"25082768","distractor":"25982768","target":"present","response":"present","rt":"665.5","correct":true,"confidence":-1},{"trial_n":76,"span":8,"encoder":"84747203","distractor":"84747293","target":"absent","response":"absent","rt":"1573.4000000004","correct":true,"confidence":-1},{"trial_n":77,"span":9,"encoder":"321437417","distractor":"321437447","target":"absent","response":"present","rt":"1828.0999999996","correct":false,"confidence":-1},{"trial_n":78,"span":8,"encoder":"57022669","distractor":"57022629","target":"absent","response":"absent","rt":"1105","correct":true,"confidence":-1},{"trial_n":79,"span":8,"encoder":"01084616","distractor":"09084616","target":"absent","response":"absent","rt":"720","correct":true,"confidence":-1},{"trial_n":80,"span":9,"encoder":"810661647","distractor":"816661647","target":"present","response":"present","rt":"738.09999999963","correct":true,"confidence":-1},{"trial_n":81,"span":9,"encoder":"106712177","distractor":"103712177","target":"present","response":"absent","rt":"1304.5999999996","correct":false,"confidence":-1},{"trial_n":82,"span":8,"encoder":"91475363","distractor":"94475363","target":"present","response":"present","rt":"563.30000000075","correct":true,"confidence":-1},{"trial_n":83,"span":8,"encoder":"48866307","distractor":"48866507","target":"present","response":"absent","rt":"1191.8000000007","correct":false,"confidence":-1},{"trial_n":84,"span":7,"encoder":"1534502","distractor":"1534802","target":"absent","response":"absent","rt":"470.29999999888","correct":true,"confidence":-1},{"trial_n":85,"span":7,"encoder":"6016898","distractor":"6016098","target":"present","response":"present","rt":"532","correct":true,"confidence":-1},{"trial_n":86,"span":8,"encoder":"63702102","distractor":"63702103","target":"present","response":"absent","rt":"389.20000000112","correct":false,"confidence":-1},{"trial_n":87,"span":7,"encoder":"1504835","distractor":"1503835","target":"absent","response":"present","rt":"591.19999999925","correct":false,"confidence":-1},{"trial_n":88,"span":6,"encoder":"065328","distractor":"965328","target":"present","response":"absent","rt":"623.30000000075","correct":false,"confidence":-1},{"trial_n":89,"span":5,"encoder":"16825","distractor":"16895","target":"absent","response":"present","rt":"738.80000000075","correct":false,"confidence":-1},{"trial_n":90,"span":4,"encoder":"6553","distractor":"6550","target":"absent","response":"absent","rt":"798","correct":true,"confidence":-1},{"trial_n":91,"span":4,"encoder":"1382","distractor":"1322","target":"absent","response":"absent","rt":"774.59999999963","correct":true,"confidence":1},{"trial_n":92,"span":5,"encoder":"11074","distractor":"11014","target":"absent","response":"absent","rt":"2599","correct":true,"confidence":4},{"trial_n":93,"span":5,"encoder":"75353","distractor":"45353","target":"absent","response":"absent","rt":"695.5","correct":true,"confidence":1},{"trial_n":94,"span":6,"encoder":"878029","distractor":"578029","target":"absent","response":"absent","rt":"1344.0999999996","correct":true,"confidence":4},{"trial_n":95,"span":6,"encoder":"218848","distractor":"210848","target":"present","response":"present","rt":"1729","correct":true,"confidence":3},{"trial_n":96,"span":7,"encoder":"6054912","distractor":"6054915","target":"present","response":"absent","rt":"1246.1999999993","correct":false,"confidence":1},{"trial_n":97,"span":6,"encoder":"580101","distractor":"590101","target":"present","response":"absent","rt":"779","correct":false,"confidence":1},{"trial_n":98,"span":5,"encoder":"41637","distractor":"41337","target":"absent","response":"present","rt":"1085.3000000007","correct":false,"confidence":1},{"trial_n":99,"span":4,"encoder":"3503","distractor":"3502","target":"absent","response":"present","rt":"1000.5","correct":false,"confidence":1},{"trial_n":100,"span":3,"encoder":"016","distractor":"012","target":"present","response":"present","rt":"1246.7000000011","correct":true,"confidence":4},{"trial_n":101,"span":3,"encoder":"202","distractor":"282","target":"present","response":"present","rt":"1107.2999999989","correct":true,"confidence":4},{"trial_n":102,"span":4,"encoder":"0467","distractor":"0967","target":"absent","response":"absent","rt":"1219.3999999985","correct":true,"confidence":4},{"trial_n":103,"span":4,"encoder":"0705","distractor":"0785","target":"present","response":"present","rt":"1142.0999999996","correct":true,"confidence":3},{"trial_n":104,"span":5,"encoder":"08357","distractor":"78357","target":"absent","response":"present","rt":"1486.5","correct":false,"confidence":1},{"trial_n":105,"span":4,"encoder":"9474","distractor":"9484","target":"absent","response":"present","rt":"1468.4000000004","correct":false,"confidence":3},{"trial_n":106,"span":3,"encoder":"048","distractor":"008","target":"absent","response":"absent","rt":"1305.5999999996","correct":true,"confidence":4},{"trial_n":107,"span":3,"encoder":"905","distractor":"915","target":"absent","response":"absent","rt":"1390.8000000007","correct":true,"confidence":4},{"trial_n":108,"span":4,"encoder":"2224","distractor":"1224","target":"present","response":"present","rt":"956.30000000075","correct":true,"confidence":4},{"trial_n":109,"span":4,"encoder":"5380","distractor":"7380","target":"absent","response":"absent","rt":"936.09999999963","correct":true,"confidence":4},{"trial_n":110,"span":5,"encoder":"83261","distractor":"86261","target":"absent","response":"absent","rt":"1186.2999999989","correct":true,"confidence":3},{"trial_n":111,"span":5,"encoder":"48765","distractor":"48365","target":"absent","response":"absent","rt":"1317.5999999996","correct":true,"confidence":4},{"trial_n":112,"span":6,"encoder":"584619","distractor":"084619","target":"absent","response":"absent","rt":"996.5","correct":true,"confidence":4},{"trial_n":113,"span":6,"encoder":"735225","distractor":"735215","target":"present","response":"absent","rt":"1307.5999999996","correct":false,"confidence":1},{"trial_n":114,"span":5,"encoder":"84364","distractor":"74364","target":"absent","response":"present","rt":"707.19999999925","correct":false,"confidence":1},{"trial_n":115,"span":4,"encoder":"5722","distractor":"5725","target":"present","response":"present","rt":"1236.5","correct":true,"confidence":4},{"trial_n":116,"span":4,"encoder":"6320","distractor":"6380","target":"present","response":"present","rt":"1203","correct":true,"confidence":4},{"trial_n":117,"span":5,"encoder":"22454","distractor":"72454","target":"present","response":"present","rt":"1152.4000000004","correct":true,"confidence":1},{"trial_n":118,"span":5,"encoder":"21415","distractor":"20415","target":"present","response":"present","rt":"1029.9000000004","correct":true,"confidence":4},{"trial_n":119,"span":6,"encoder":"148018","distractor":"048018","target":"present","response":"present","rt":"1382.5","correct":true,"confidence":4},{"trial_n":120,"span":6,"encoder":"608076","distractor":"608776","target":"absent","response":"absent","rt":"648.09999999963","correct":true,"confidence":1},{"trial_n":121,"span":7,"encoder":"5015136","distractor":"5015036","target":"present","response":"present","rt":"2190.8000000007","correct":true,"confidence":4},{"trial_n":122,"span":7,"encoder":"4549028","distractor":"4949028","target":"absent","response":"absent","rt":"1844.3000000007","correct":true,"confidence":4},{"trial_n":123,"span":8,"encoder":"29197165","distractor":"29197161","target":"absent","response":"absent","rt":"916","correct":true,"confidence":1},{"trial_n":124,"span":8,"encoder":"65504208","distractor":"65504008","target":"present","response":"absent","rt":"1661.2999999989","correct":false,"confidence":3},{"trial_n":125,"span":7,"encoder":"7739148","distractor":"7739158","target":"present","response":"absent","rt":"837","correct":false,"confidence":1},{"trial_n":126,"span":6,"encoder":"818282","distractor":"810282","target":"present","response":"present","rt":"446.19999999925","correct":true,"confidence":1},{"trial_n":127,"span":6,"encoder":"345085","distractor":"345025","target":"absent","response":"absent","rt":"622.5","correct":true,"confidence":3},{"trial_n":128,"span":7,"encoder":"5673781","distractor":"5973781","target":"present","response":"absent","rt":"1758.5","correct":false,"confidence":1},{"trial_n":129,"span":6,"encoder":"300709","distractor":"300700","target":"present","response":"absent","rt":"1009.2999999989","correct":false,"confidence":1},{"trial_n":130,"span":5,"encoder":"98369","distractor":"98469","target":"present","response":"absent","rt":"865.69999999925","correct":false,"confidence":3},{"trial_n":131,"span":4,"encoder":"2985","distractor":"2685","target":"present","response":"present","rt":"1447.9000000004","correct":true,"confidence":3},{"trial_n":132,"span":4,"encoder":"6110","distractor":"6130","target":"present","response":"present","rt":"921.5","correct":true,"confidence":3},{"trial_n":133,"span":5,"encoder":"84919","distractor":"84929","target":"absent","response":"absent","rt":"809.59999999963","correct":true,"confidence":4},{"trial_n":134,"span":5,"encoder":"97517","distractor":"97514","target":"absent","response":"absent","rt":"884.59999999963","correct":true,"confidence":4},{"trial_n":135,"span":6,"encoder":"069702","distractor":"969702","target":"present","response":"present","rt":"960.09999999963","correct":true,"confidence":3},{"trial_n":136,"span":6,"encoder":"474013","distractor":"471013","target":"present","response":"absent","rt":"957.59999999963","correct":false,"confidence":1},{"trial_n":137,"span":5,"encoder":"90840","distractor":"90890","target":"present","response":"present","rt":"1455.5999999996","correct":true,"confidence":1},{"trial_n":138,"span":5,"encoder":"62139","distractor":"62133","target":"absent","response":"absent","rt":"1693.3000000007","correct":true,"confidence":4},{"trial_n":139,"span":6,"encoder":"550300","distractor":"550302","target":"present","response":"present","rt":"2811.1000000015","correct":true,"confidence":4},{"trial_n":140,"span":6,"encoder":"264320","distractor":"264321","target":"absent","response":"absent","rt":"496.70000000112","correct":true,"confidence":1}]