[{"trial_n":1,"span":8,"encoder":"13226127","distractor":"13226124","target":"present","response":"present","rt":"5208.8000000119","correct":true,"confidence":-1},{"trial_n":2,"span":8,"encoder":"43679847","distractor":"43679887","target":"present","response":"present","rt":"6067.9000000358","correct":true,"confidence":-1},{"trial_n":3,"span":10,"encoder":"5398728900","distractor":"5398728960","target":"absent","response":"absent","rt":"3116.6999999881","correct":true,"confidence":-1},{"trial_n":4,"span":10,"encoder":"8533578281","distractor":"8573578281","target":"absent","response":"present","rt":"4535.5","correct":false,"confidence":-1},{"trial_n":5,"span":8,"encoder":"42228979","distractor":"42221979","target":"present","response":"present","rt":"2767","correct":true,"confidence":-1},{"trial_n":6,"span":8,"encoder":"11915258","distractor":"11915218","target":"absent","response":"absent","rt":"3476.8000000119","correct":true,"confidence":-1},{"trial_n":7,"span":10,"encoder":"0651068374","distractor":"0661068374","target":"present","response":"absent","rt":"6094.9000000358","correct":false,"confidence":-1},{"trial_n":8,"span":8,"encoder":"09863356","distractor":"09863396","target":"absent","response":"absent","rt":"4145","correct":true,"confidence":-1},{"trial_n":9,"span":8,"encoder":"27436080","distractor":"17436080","target":"present","response":"absent","rt":"2592.5","correct":false,"confidence":-1},{"trial_n":10,"span":6,"encoder":"577619","distractor":"578619","target":"absent","response":"absent","rt":"4288.8999999762","correct":true,"confidence":-1},{"trial_n":11,"span":6,"encoder":"129627","distractor":"829627","target":"absent","response":"absent","rt":"1612.5999999642","correct":true,"confidence":-1},{"trial_n":12,"span":7,"encoder":"7057875","distractor":"7057675","target":"present","response":"absent","rt":"1649.1000000238","correct":false,"confidence":-1},{"trial_n":13,"span":6,"encoder":"058484","distractor":"058464","target":"present","response":"present","rt":"2635.1000000238","correct":true,"confidence":-1},{"trial_n":14,"span":6,"encoder":"685638","distractor":"685658","target":"absent","response":"absent","rt":"4180.1000000238","correct":true,"confidence":-1},{"trial_n":15,"span":7,"encoder":"2591265","distractor":"2591065","target":"present","response":"absent","rt":"4662.6999999881","correct":false,"confidence":-1},{"trial_n":16,"span":6,"encoder":"607118","distractor":"637118","target":"present","response":"present","rt":"2600.8000000119","correct":true,"confidence":-1},{"trial_n":17,"span":6,"encoder":"963539","distractor":"961539","target":"absent","response":"absent","rt":"3459.3999999762","correct":true,"confidence":-1},{"trial_n":18,"span":7,"encoder":"3356394","distractor":"3350394","target":"absent","response":"absent","rt":"1603.5","correct":true,"confidence":-1},{"trial_n":19,"span":7,"encoder":"9810004","distractor":"9810064","target":"present","response":"present","rt":"4476.1999999881","correct":true,"confidence":-1},{"trial_n":20,"span":8,"encoder":"07010535","distractor":"07010555","target":"present","response":"present","rt":"2499.1999999881","correct":true,"confidence":-1},{"trial_n":21,"span":8,"encoder":"58987917","distractor":"54987917","target":"present","response":"present","rt":"3123.5","correct":true,"confidence":2},{"trial_n":22,"span":9,"encoder":"422641734","distractor":"422141734","target":"absent","response":"absent","rt":"3405.9000000358","correct":true,"confidence":4},{"trial_n":23,"span":9,"encoder":"673453881","distractor":"672453881","target":"present","response":"present","rt":"4063.1000000238","correct":true,"confidence":3},{"trial_n":24,"span":10,"encoder":"1533293880","distractor":"1533297880","target":"present","response":"present","rt":"3459","correct":true,"confidence":4},{"trial_n":25,"span":10,"encoder":"8746498977","distractor":"8741498977","target":"present","response":"present","rt":"2540.9000000358","correct":true,"confidence":3},{"trial_n":26,"span":11,"encoder":"33511009186","distractor":"43511009186","target":"absent","response":"absent","rt":"2153.6999999881","correct":true,"confidence":4},{"trial_n":27,"span":11,"encoder":"46961733996","distractor":"46961733991","target":"absent","response":"absent","rt":"4415.9000000358","correct":true,"confidence":3},{"trial_n":28,"span":12,"encoder":"377494476366","distractor":"377794476366","target":"present","response":"absent","rt":"6666.6000000238","correct":false,"confidence":3},{"trial_n":29,"span":11,"encoder":"12647102082","distractor":"12547102082","target":"absent","response":"absent","rt":"7227.8999999762","correct":true,"confidence":3},{"trial_n":30,"span":11,"encoder":"58179441523","distractor":"58170441523","target":"absent","response":"present","rt":"3543.8999999762","correct":false,"confidence":3},{"trial_n":31,"span":10,"encoder":"1700574593","distractor":"1700504593","target":"present","response":"present","rt":"2238.8999999762","correct":true,"confidence":4},{"trial_n":32,"span":10,"encoder":"6078201944","distractor":"6078261944","target":"absent","response":"present","rt":"1723.5","correct":false,"confidence":3},{"trial_n":33,"span":9,"encoder":"800257230","distractor":"800257530","target":"present","response":"present","rt":"2415.2000000477","correct":true,"confidence":3},{"trial_n":34,"span":9,"encoder":"130968303","distractor":"130968503","target":"absent","response":"absent","rt":"5259","correct":true,"confidence":4},{"trial_n":35,"span":10,"encoder":"2273986374","distractor":"2273988374","target":"absent","response":"absent","rt":"3776.3000000119","correct":true,"confidence":3},{"trial_n":36,"span":10,"encoder":"4039796017","distractor":"4039796016","target":"absent","response":"absent","rt":"3910.6000000238","correct":true,"confidence":4},{"trial_n":37,"span":11,"encoder":"78097600214","distractor":"70097600214","target":"absent","response":"present","rt":"2770.8000000119","correct":false,"confidence":2},{"trial_n":38,"span":10,"encoder":"7697261285","distractor":"7667261285","target":"absent","response":"present","rt":"2303.3999999762","correct":false,"confidence":3},{"trial_n":39,"span":9,"encoder":"440818790","distractor":"440818797","target":"absent","response":"absent","rt":"10923.899999976","correct":true,"confidence":1},{"trial_n":40,"span":9,"encoder":"947582759","distractor":"937582759","target":"present","response":"absent","rt":"3060.9000000358","correct":false,"confidence":3},{"trial_n":41,"span":8,"encoder":"22080696","distractor":"22080396","target":"absent","response":"present","rt":"2560.0999999642","correct":false,"confidence":3},{"trial_n":42,"span":7,"encoder":"6564297","distractor":"6565297","target":"absent","response":"present","rt":"2803.2000000477","correct":false,"confidence":3},{"trial_n":43,"span":6,"encoder":"730573","distractor":"730583","target":"present","response":"present","rt":"1758.5999999642","correct":true,"confidence":4},{"trial_n":44,"span":6,"encoder":"159695","distractor":"159696","target":"present","response":"present","rt":"3721.3999999762","correct":true,"confidence":5},{"trial_n":45,"span":7,"encoder":"4888044","distractor":"4288044","target":"absent","response":"absent","rt":"4740.3000000119","correct":true,"confidence":4},{"trial_n":46,"span":7,"encoder":"3657223","distractor":"3657226","target":"absent","response":"absent","rt":"3198.5999999642","correct":true,"confidence":4},{"trial_n":47,"span":8,"encoder":"49406597","distractor":"29406597","target":"present","response":"absent","rt":"5921.1000000238","correct":false,"confidence":2},{"trial_n":48,"span":7,"encoder":"9985057","distractor":"9685057","target":"present","response":"present","rt":"2980.9000000358","correct":true,"confidence":4},{"trial_n":49,"span":7,"encoder":"6489288","distractor":"6482288","target":"absent","response":"absent","rt":"3524.6999999881","correct":true,"confidence":4},{"trial_n":50,"span":8,"encoder":"49318114","distractor":"49318194","target":"present","response":"present","rt":"3722.3000000119","correct":true,"confidence":5},{"trial_n":51,"span":8,"encoder":"64099631","distractor":"44099631","target":"present","response":"present","rt":"2958.6000000238","correct":true,"confidence":4},{"trial_n":52,"span":9,"encoder":"847210917","distractor":"847240917","target":"present","response":"present","rt":"3373.1000000238","correct":true,"confidence":3},{"trial_n":53,"span":9,"encoder":"054145548","distractor":"052145548","target":"present","response":"present","rt":"2182","correct":true,"confidence":3},{"trial_n":54,"span":10,"encoder":"6200609064","distractor":"6200609069","target":"present","response":"present","rt":"4793","correct":true,"confidence":3},{"trial_n":55,"span":10,"encoder":"0804584516","distractor":"0804584816","target":"absent","response":"absent","rt":"3505.2000000477","correct":true,"confidence":4},{"trial_n":56,"span":11,"encoder":"35375114399","distractor":"35375114393","target":"absent","response":"absent","rt":"2137.9000000358","correct":true,"confidence":4},{"trial_n":57,"span":11,"encoder":"79474007030","distractor":"79404007030","target":"absent","response":"absent","rt":"1693.3000000119","correct":true,"confidence":3},{"trial_n":58,"span":12,"encoder":"039486032079","distractor":"039486034079","target":"absent","response":"present","rt":"2418.7000000477","correct":false,"confidence":4},{"trial_n":59,"span":11,"encoder":"59849103115","distractor":"59849803115","target":"present","response":"present","rt":"1607.1999999881","correct":true,"confidence":2},{"trial_n":60,"span":11,"encoder":"16636259066","distractor":"16633259066","target":"present","response":"present","rt":"2434.3000000119","correct":true,"confidence":3},{"trial_n":61,"span":12,"encoder":"615044216143","distractor":"615044216133","target":"present","response":"present","rt":"2631.0999999642","correct":true,"confidence":3},{"trial_n":62,"span":12,"encoder":"848323921294","distractor":"848322921294","target":"absent","response":"present","rt":"1769.1999999881","correct":false,"confidence":4},{"trial_n":63,"span":11,"encoder":"64892979118","distractor":"64892971118","target":"present","response":"present","rt":"1951.9000000358","correct":true,"confidence":3},{"trial_n":64,"span":11,"encoder":"47379705219","distractor":"47379805219","target":"absent","response":"present","rt":"2276.1999999881","correct":false,"confidence":3},{"trial_n":65,"span":10,"encoder":"3156739092","distractor":"5156739092","target":"present","response":"present","rt":"3860.3999999762","correct":true,"confidence":3},{"trial_n":66,"span":10,"encoder":"8860294818","distractor":"8867294818","target":"absent","response":"present","rt":"11593.100000024","correct":false,"confidence":3},{"trial_n":67,"span":9,"encoder":"450018406","distractor":"450068406","target":"present","response":"present","rt":"13205.5","correct":true,"confidence":3},{"trial_n":68,"span":9,"encoder":"590956707","distractor":"596956707","target":"absent","response":"absent","rt":"2515.1000000238","correct":true,"confidence":3},{"trial_n":69,"span":10,"encoder":"5541757986","distractor":"5541747986","target":"present","response":"present","rt":"2307.9000000358","correct":true,"confidence":3},{"trial_n":70,"span":10,"encoder":"9999448350","distractor":"4999448350","target":"present","response":"absent","rt":"2622.3000000119","correct":false,"confidence":3},{"trial_n":71,"span":8,"encoder":"39671141","distractor":"39661141","target":"present","response":"present","rt":"4633.3000000119","correct":true,"confidence":-1},{"trial_n":72,"span":8,"encoder":"69669891","distractor":"09669891","target":"present","response":"present","rt":"2283.5","correct":true,"confidence":-1},{"trial_n":73,"span":9,"encoder":"365902998","distractor":"165902998","target":"absent","response":"present","rt":"5383.3999999762","correct":false,"confidence":-1},{"trial_n":74,"span":8,"encoder":"82733426","distractor":"82737426","target":"absent","response":"absent","rt":"6925.3999999762","correct":true,"confidence":-1},{"trial_n":75,"span":8,"encoder":"60412394","distractor":"60422394","target":"present","response":"present","rt":"2430.3000000119","correct":true,"confidence":-1},{"trial_n":76,"span":9,"encoder":"412847734","distractor":"412747734","target":"absent","response":"present","rt":"6102.3000000119","correct":false,"confidence":-1},{"trial_n":77,"span":8,"encoder":"83530354","distractor":"43530354","target":"present","response":"present","rt":"3488.5","correct":true,"confidence":-1},{"trial_n":78,"span":8,"encoder":"21574906","distractor":"21674906","target":"present","response":"present","rt":"1392.1000000238","correct":true,"confidence":-1},{"trial_n":79,"span":9,"encoder":"736264124","distractor":"736264127","target":"present","response":"present","rt":"4641.7999999523","correct":true,"confidence":-1},{"trial_n":80,"span":9,"encoder":"924536649","distractor":"924537649","target":"present","response":"present","rt":"6525.3000000119","correct":true,"confidence":-1},{"trial_n":81,"span":10,"encoder":"0147505494","distractor":"0147585494","target":"present","response":"present","rt":"1476","correct":true,"confidence":-1},{"trial_n":82,"span":10,"encoder":"7877966832","distractor":"7877965832","target":"present","response":"present","rt":"5312.3000000119","correct":true,"confidence":-1},{"trial_n":83,"span":11,"encoder":"17950541765","distractor":"17956541765","target":"absent","response":"present","rt":"726.80000001192","correct":false,"confidence":-1},{"trial_n":84,"span":10,"encoder":"1026077380","distractor":"9026077380","target":"present","response":"absent","rt":"1186.5","correct":false,"confidence":-1},{"trial_n":85,"span":9,"encoder":"763183928","distractor":"763180928","target":"present","response":"absent","rt":"916.60000002384","correct":false,"confidence":-1},{"trial_n":86,"span":8,"encoder":"55309702","distractor":"55509702","target":"absent","response":"present","rt":"1015.7000000477","correct":false,"confidence":-1},{"trial_n":87,"span":7,"encoder":"9383970","distractor":"9383570","target":"absent","response":"absent","rt":"2101.5999999642","correct":true,"confidence":-1},{"trial_n":88,"span":7,"encoder":"4386905","distractor":"4383905","target":"present","response":"present","rt":"2410.3999999762","correct":true,"confidence":-1},{"trial_n":89,"span":8,"encoder":"19558048","distractor":"19858048","target":"present","response":"present","rt":"1946.2000000477","correct":true,"confidence":-1},{"trial_n":90,"span":8,"encoder":"46727486","distractor":"46723486","target":"present","response":"present","rt":"3713.3000000119","correct":true,"confidence":-1},{"trial_n":91,"span":9,"encoder":"005564065","distractor":"005564085","target":"absent","response":"present","rt":"4682.6999999881","correct":false,"confidence":2},{"trial_n":92,"span":8,"encoder":"09106733","distractor":"79106733","target":"absent","response":"present","rt":"644","correct":false,"confidence":2},{"trial_n":93,"span":7,"encoder":"4079564","distractor":"4079561","target":"present","response":"present","rt":"867.30000001192","correct":true,"confidence":3},{"trial_n":94,"span":7,"encoder":"9964883","distractor":"9964887","target":"present","response":"present","rt":"2470.5","correct":true,"confidence":4},{"trial_n":95,"span":8,"encoder":"94949394","distractor":"94999394","target":"present","response":"present","rt":"3655.8999999762","correct":true,"confidence":4},{"trial_n":96,"span":8,"encoder":"60406701","distractor":"60306701","target":"absent","response":"absent","rt":"2876.3999999762","correct":true,"confidence":3},{"trial_n":97,"span":9,"encoder":"562424422","distractor":"562424432","target":"absent","response":"absent","rt":"6410.8000000119","correct":true,"confidence":3},{"trial_n":98,"span":9,"encoder":"462663543","distractor":"469663543","target":"absent","response":"absent","rt":"5046.8999999762","correct":true,"confidence":1},{"trial_n":99,"span":10,"encoder":"4786245501","distractor":"4786245901","target":"absent","response":"present","rt":"1221.3999999762","correct":false,"confidence":2},{"trial_n":100,"span":9,"encoder":"292176680","distractor":"292176682","target":"absent","response":"absent","rt":"2849.1999999881","correct":true,"confidence":4},{"trial_n":101,"span":9,"encoder":"889627914","distractor":"886627914","target":"absent","response":"present","rt":"825.60000002384","correct":false,"confidence":3},{"trial_n":102,"span":8,"encoder":"54471433","distractor":"54971433","target":"present","response":"present","rt":"1906.8999999762","correct":true,"confidence":2},{"trial_n":103,"span":8,"encoder":"73451542","distractor":"73451541","target":"absent","response":"absent","rt":"1426.5","correct":true,"confidence":3},{"trial_n":104,"span":9,"encoder":"325023553","distractor":"625023553","target":"present","response":"present","rt":"2406.8999999762","correct":true,"confidence":3},{"trial_n":105,"span":9,"encoder":"072582698","distractor":"072982698","target":"present","response":"absent","rt":"894","correct":false,"confidence":3},{"trial_n":106,"span":8,"encoder":"79827029","distractor":"79827021","target":"present","response":"present","rt":"1332","correct":true,"confidence":3},{"trial_n":107,"span":8,"encoder":"83276117","distractor":"83276517","target":"absent","response":"absent","rt":"1803.6999999881","correct":true,"confidence":4},{"trial_n":108,"span":9,"encoder":"375293034","distractor":"370293034","target":"absent","response":"present","rt":"1030.2999999523","correct":false,"confidence":1},{"trial_n":109,"span":8,"encoder":"60913424","distractor":"60933424","target":"present","response":"present","rt":"813.80000001192","correct":true,"confidence":3},{"trial_n":110,"span":8,"encoder":"54099001","distractor":"54099101","target":"absent","response":"present","rt":"804.60000002384","correct":false,"confidence":1},{"trial_n":111,"span":7,"encoder":"3502425","distractor":"3502485","target":"present","response":"absent","rt":"650.60000002384","correct":false,"confidence":1},{"trial_n":112,"span":6,"encoder":"617297","distractor":"617291","target":"present","response":"present","rt":"778.09999996424","correct":true,"confidence":3},{"trial_n":113,"span":6,"encoder":"864022","distractor":"804022","target":"absent","response":"present","rt":"1712.6999999881","correct":false,"confidence":3},{"trial_n":114,"span":5,"encoder":"76980","distractor":"76380","target":"absent","response":"absent","rt":"2469.3999999762","correct":true,"confidence":3},{"trial_n":115,"span":5,"encoder":"85446","distractor":"80446","target":"present","response":"present","rt":"1245.1000000238","correct":true,"confidence":3},{"trial_n":116,"span":6,"encoder":"157186","distractor":"177186","target":"absent","response":"present","rt":"895.5","correct":false,"confidence":3},{"trial_n":117,"span":5,"encoder":"98277","distractor":"98272","target":"present","response":"absent","rt":"726.60000002384","correct":false,"confidence":3},{"trial_n":118,"span":4,"encoder":"4183","distractor":"6183","target":"absent","response":"absent","rt":"1468.6999999881","correct":true,"confidence":5},{"trial_n":119,"span":4,"encoder":"0535","distractor":"0537","target":"present","response":"present","rt":"1152.3000000119","correct":true,"confidence":5},{"trial_n":120,"span":5,"encoder":"28945","distractor":"28845","target":"absent","response":"absent","rt":"1363.6000000238","correct":true,"confidence":5},{"trial_n":121,"span":5,"encoder":"29465","distractor":"89465","target":"present","response":"present","rt":"1216.3000000119","correct":true,"confidence":5},{"trial_n":122,"span":6,"encoder":"739069","distractor":"539069","target":"absent","response":"absent","rt":"1450.3999999762","correct":true,"confidence":5},{"trial_n":123,"span":6,"encoder":"308568","distractor":"308168","target":"absent","response":"absent","rt":"2659.8999999762","correct":true,"confidence":5},{"trial_n":124,"span":7,"encoder":"1495761","distractor":"1395761","target":"present","response":"present","rt":"2154.5","correct":true,"confidence":5},{"trial_n":125,"span":7,"encoder":"0298603","distractor":"0298903","target":"absent","response":"absent","rt":"6126.5999999642","correct":true,"confidence":5},{"trial_n":126,"span":8,"encoder":"01215253","distractor":"01215203","target":"present","response":"present","rt":"4986.8999999762","correct":true,"confidence":5},{"trial_n":127,"span":8,"encoder":"41542484","distractor":"41542454","target":"present","response":"absent","rt":"6050.3000000119","correct":false,"confidence":5},{"trial_n":128,"span":7,"encoder":"8462162","distractor":"8492162","target":"absent","response":"absent","rt":"2564.0999999642","correct":true,"confidence":5},{"trial_n":129,"span":7,"encoder":"0893542","distractor":"0893242","target":"absent","response":"absent","rt":"4002","correct":true,"confidence":4},{"trial_n":130,"span":8,"encoder":"67898604","distractor":"67868604","target":"absent","response":"absent","rt":"4498.5","correct":true,"confidence":4},{"trial_n":131,"span":8,"encoder":"74870003","distractor":"64870003","target":"absent","response":"present","rt":"9327.1999999881","correct":false,"confidence":3},{"trial_n":132,"span":7,"encoder":"8272085","distractor":"8252085","target":"present","response":"present","rt":"2590.4000000358","correct":true,"confidence":5},{"trial_n":133,"span":7,"encoder":"3048456","distractor":"3044456","target":"absent","response":"absent","rt":"2791.8999999762","correct":true,"confidence":5},{"trial_n":134,"span":8,"encoder":"68303829","distractor":"68303825","target":"absent","response":"present","rt":"6927.9000000358","correct":false,"confidence":2},{"trial_n":135,"span":7,"encoder":"2123561","distractor":"2123565","target":"present","response":"present","rt":"2150.6999999881","correct":true,"confidence":5},{"trial_n":136,"span":7,"encoder":"8264114","distractor":"8164114","target":"present","response":"present","rt":"8654.2000000477","correct":true,"confidence":5},{"trial_n":137,"span":8,"encoder":"52799436","distractor":"52799446","target":"present","response":"present","rt":"2643.5999999642","correct":true,"confidence":5},{"trial_n":138,"span":8,"encoder":"68888682","distractor":"88888682","target":"absent","response":"absent","rt":"2635.6000000238","correct":true,"confidence":4},{"trial_n":139,"span":9,"encoder":"534345677","distractor":"534045677","target":"present","response":"absent","rt":"2619.1999999881","correct":false,"confidence":4},{"trial_n":140,"span":8,"encoder":"07880945","distractor":"07880943","target":"absent","response":"absent","rt":"2866.1000000238","correct":true,"confidence":5}]