[{"trial_n":1,"min":25,"max":230,"target":"present","response":"present","rt":6040,"correct":true,"confidence":-1},{"trial_n":2,"min":25,"max":230,"target":"present","response":"present","rt":1685,"correct":true,"confidence":-1},{"trial_n":3,"min":41,"max":214,"target":"absent","response":"absent","rt":804.00000000003,"correct":true,"confidence":-1},{"trial_n":4,"min":41,"max":214,"target":"absent","response":"absent","rt":444,"correct":true,"confidence":-1},{"trial_n":5,"min":57,"max":198,"target":"present","response":"absent","rt":230,"correct":false,"confidence":-1},{"trial_n":6,"min":41,"max":214,"target":"present","response":"present","rt":406,"correct":true,"confidence":-1},{"trial_n":7,"min":41,"max":214,"target":"present","response":"present","rt":211,"correct":true,"confidence":-1},{"trial_n":8,"min":57,"max":198,"target":"present","response":"present","rt":286,"correct":true,"confidence":-1},{"trial_n":9,"min":57,"max":198,"target":"absent","response":"absent","rt":418.99999999997,"correct":true,"confidence":-1},{"trial_n":10,"min":73,"max":182,"target":"absent","response":"absent","rt":272.99999999997,"correct":true,"confidence":-1},{"trial_n":11,"min":73,"max":182,"target":"absent","response":"absent","rt":344.00000000003,"correct":true,"confidence":-1},{"trial_n":12,"min":81,"max":174,"target":"present","response":"present","rt":437,"correct":true,"confidence":-1},{"trial_n":13,"min":81,"max":174,"target":"absent","response":"absent","rt":315,"correct":true,"confidence":-1},{"trial_n":14,"min":89,"max":166,"target":"absent","response":"absent","rt":429.99999999997,"correct":true,"confidence":-1},{"trial_n":15,"min":89,"max":166,"target":"present","response":"absent","rt":255.00000000003,"correct":false,"confidence":-1},{"trial_n":16,"min":81,"max":174,"target":"present","response":"present","rt":436.00000000003,"correct":true,"confidence":-1},{"trial_n":17,"min":81,"max":174,"target":"absent","response":"absent","rt":710,"correct":true,"confidence":-1},{"trial_n":18,"min":89,"max":166,"target":"absent","response":"absent","rt":470,"correct":true,"confidence":-1},{"trial_n":19,"min":89,"max":166,"target":"absent","response":"absent","rt":400,"correct":true,"confidence":-1},{"trial_n":20,"min":97,"max":158,"target":"present","response":"absent","rt":482,"correct":false,"confidence":-1},{"trial_n":21,"min":93,"max":162,"target":"absent","response":"present","rt":1651,"correct":false,"confidence":3},{"trial_n":22,"min":89,"max":166,"target":"absent","response":"present","rt":639.99999999994,"correct":false,"confidence":3},{"trial_n":23,"min":85,"max":170,"target":"absent","response":"absent","rt":822,"correct":true,"confidence":4},{"trial_n":24,"min":85,"max":170,"target":"absent","response":"absent","rt":585,"correct":true,"confidence":4},{"trial_n":25,"min":89,"max":166,"target":"present","response":"present","rt":939,"correct":true,"confidence":1},{"trial_n":26,"min":89,"max":166,"target":"absent","response":"present","rt":4723,"correct":false,"confidence":4},{"trial_n":27,"min":85,"max":170,"target":"present","response":"present","rt":800,"correct":true,"confidence":3},{"trial_n":28,"min":85,"max":170,"target":"present","response":"present","rt":1279,"correct":true,"confidence":3},{"trial_n":29,"min":89,"max":166,"target":"present","response":"present","rt":592,"correct":true,"confidence":3},{"trial_n":30,"min":89,"max":166,"target":"present","response":"present","rt":671,"correct":true,"confidence":3},{"trial_n":31,"min":91,"max":164,"target":"present","response":"present","rt":1046,"correct":true,"confidence":3},{"trial_n":32,"min":91,"max":164,"target":"absent","response":"absent","rt":822,"correct":true,"confidence":4},{"trial_n":33,"min":93,"max":162,"target":"absent","response":"present","rt":783,"correct":false,"confidence":3},{"trial_n":34,"min":91,"max":164,"target":"absent","response":"absent","rt":713,"correct":true,"confidence":3},{"trial_n":35,"min":91,"max":164,"target":"present","response":"present","rt":704,"correct":true,"confidence":2},{"trial_n":36,"min":93,"max":162,"target":"present","response":"present","rt":1552,"correct":true,"confidence":4},{"trial_n":37,"min":93,"max":162,"target":"present","response":"absent","rt":828.99999999994,"correct":false,"confidence":3},{"trial_n":38,"min":91,"max":164,"target":"absent","response":"absent","rt":804,"correct":true,"confidence":3},{"trial_n":39,"min":91,"max":164,"target":"present","response":"absent","rt":828,"correct":false,"confidence":2},{"trial_n":40,"min":89,"max":166,"target":"absent","response":"present","rt":929,"correct":false,"confidence":2},{"trial_n":41,"min":88,"max":167,"target":"absent","response":"present","rt":422,"correct":false,"confidence":3},{"trial_n":42,"min":87,"max":168,"target":"present","response":"absent","rt":1250,"correct":false,"confidence":3},{"trial_n":43,"min":86,"max":169,"target":"present","response":"present","rt":530.00000000006,"correct":true,"confidence":3},{"trial_n":44,"min":86,"max":169,"target":"present","response":"present","rt":436,"correct":true,"confidence":3},{"trial_n":45,"min":87,"max":168,"target":"present","response":"absent","rt":747,"correct":false,"confidence":3},{"trial_n":46,"min":86,"max":169,"target":"absent","response":"absent","rt":651,"correct":true,"confidence":3},{"trial_n":47,"min":86,"max":169,"target":"present","response":"absent","rt":794,"correct":false,"confidence":3},{"trial_n":48,"min":85,"max":170,"target":"absent","response":"absent","rt":1721,"correct":true,"confidence":3},{"trial_n":49,"min":85,"max":170,"target":"absent","response":"absent","rt":599,"correct":true,"confidence":1},{"trial_n":50,"min":86,"max":169,"target":"absent","response":"present","rt":726,"correct":false,"confidence":3},{"trial_n":51,"min":85,"max":170,"target":"present","response":"present","rt":673,"correct":true,"confidence":3},{"trial_n":52,"min":85,"max":170,"target":"present","response":"present","rt":674,"correct":true,"confidence":3},{"trial_n":53,"min":86,"max":169,"target":"absent","response":"absent","rt":600,"correct":true,"confidence":3},{"trial_n":54,"min":86,"max":169,"target":"absent","response":"present","rt":633,"correct":false,"confidence":3},{"trial_n":55,"min":85,"max":170,"target":"present","response":"present","rt":429.99999999994,"correct":true,"confidence":1},{"trial_n":56,"min":85,"max":170,"target":"absent","response":"absent","rt":624.00000000006,"correct":true,"confidence":3},{"trial_n":57,"min":86,"max":169,"target":"present","response":"present","rt":265,"correct":true,"confidence":3},{"trial_n":58,"min":86,"max":169,"target":"present","response":"present","rt":512,"correct":true,"confidence":3},{"trial_n":59,"min":87,"max":168,"target":"absent","response":"absent","rt":598.00000000006,"correct":true,"confidence":1},{"trial_n":60,"min":87,"max":168,"target":"present","response":"present","rt":902.99999999994,"correct":true,"confidence":3},{"trial_n":61,"min":88,"max":167,"target":"absent","response":"present","rt":1144,"correct":false,"confidence":3},{"trial_n":62,"min":87,"max":168,"target":"absent","response":"present","rt":249,"correct":false,"confidence":3},{"trial_n":63,"min":86,"max":169,"target":"absent","response":"absent","rt":439.00000000006,"correct":true,"confidence":1},{"trial_n":64,"min":86,"max":169,"target":"present","response":"present","rt":505,"correct":true,"confidence":3},{"trial_n":65,"min":87,"max":168,"target":"present","response":"present","rt":433.99999999994,"correct":true,"confidence":3},{"trial_n":66,"min":87,"max":168,"target":"absent","response":"absent","rt":600,"correct":true,"confidence":3},{"trial_n":67,"min":88,"max":167,"target":"present","response":"present","rt":570,"correct":true,"confidence":3},{"trial_n":68,"min":88,"max":167,"target":"present","response":"present","rt":444,"correct":true,"confidence":3},{"trial_n":69,"min":89,"max":166,"target":"present","response":"present","rt":1045,"correct":true,"confidence":3},{"trial_n":70,"min":89,"max":166,"target":"absent","response":"present","rt":1432.0000000001,"correct":false,"confidence":3},{"trial_n":71,"min":41,"max":214,"target":"present","response":"absent","rt":3178,"correct":false,"confidence":-1},{"trial_n":72,"min":41,"max":214,"target":"present","response":"present","rt":488,"correct":true,"confidence":-1},{"trial_n":73,"min":41,"max":214,"target":"absent","response":"present","rt":405,"correct":false,"confidence":-1},{"trial_n":74,"min":25,"max":230,"target":"absent","response":"absent","rt":463,"correct":true,"confidence":-1},{"trial_n":75,"min":25,"max":230,"target":"present","response":"present","rt":296,"correct":true,"confidence":-1},{"trial_n":76,"min":41,"max":214,"target":"present","response":"present","rt":203,"correct":true,"confidence":-1},{"trial_n":77,"min":41,"max":214,"target":"present","response":"present","rt":260,"correct":true,"confidence":-1},{"trial_n":78,"min":57,"max":198,"target":"absent","response":"absent","rt":219,"correct":true,"confidence":-1},{"trial_n":79,"min":57,"max":198,"target":"present","response":"present","rt":118,"correct":true,"confidence":-1},{"trial_n":80,"min":73,"max":182,"target":"present","response":"present","rt":377,"correct":true,"confidence":-1},{"trial_n":81,"min":73,"max":182,"target":"present","response":"present","rt":281,"correct":true,"confidence":-1},{"trial_n":82,"min":81,"max":174,"target":"absent","response":"absent","rt":716,"correct":true,"confidence":-1},{"trial_n":83,"min":81,"max":174,"target":"absent","response":"absent","rt":490,"correct":true,"confidence":-1},{"trial_n":84,"min":89,"max":166,"target":"absent","response":"absent","rt":473.00000000012,"correct":true,"confidence":-1},{"trial_n":85,"min":89,"max":166,"target":"absent","response":"absent","rt":755,"correct":true,"confidence":-1},{"trial_n":86,"min":97,"max":158,"target":"absent","response":"present","rt":326,"correct":false,"confidence":-1},{"trial_n":87,"min":89,"max":166,"target":"absent","response":"absent","rt":536.99999999988,"correct":true,"confidence":-1},{"trial_n":88,"min":89,"max":166,"target":"present","response":"present","rt":558.99999999988,"correct":true,"confidence":-1},{"trial_n":89,"min":97,"max":158,"target":"present","response":"present","rt":548,"correct":true,"confidence":-1},{"trial_n":90,"min":97,"max":158,"target":"absent","response":"absent","rt":497,"correct":true,"confidence":-1},{"trial_n":91,"min":101,"max":154,"target":"present","response":"present","rt":1622,"correct":true,"confidence":3},{"trial_n":92,"min":101,"max":154,"target":"absent","response":"absent","rt":807,"correct":true,"confidence":3},{"trial_n":93,"min":105,"max":150,"target":"absent","response":"present","rt":642,"correct":false,"confidence":3},{"trial_n":94,"min":101,"max":154,"target":"present","response":"present","rt":1190,"correct":true,"confidence":3},{"trial_n":95,"min":101,"max":154,"target":"absent","response":"absent","rt":706,"correct":true,"confidence":3},{"trial_n":96,"min":105,"max":150,"target":"present","response":"present","rt":820,"correct":true,"confidence":3},{"trial_n":97,"min":105,"max":150,"target":"absent","response":"absent","rt":1234,"correct":true,"confidence":3},{"trial_n":98,"min":109,"max":146,"target":"absent","response":"present","rt":904.99999999988,"correct":false,"confidence":3},{"trial_n":99,"min":105,"max":150,"target":"absent","response":"present","rt":547,"correct":false,"confidence":3},{"trial_n":100,"min":101,"max":154,"target":"present","response":"absent","rt":967,"correct":false,"confidence":3},{"trial_n":101,"min":99,"max":156,"target":"present","response":"present","rt":508,"correct":true,"confidence":3},{"trial_n":102,"min":99,"max":156,"target":"absent","response":"present","rt":894.00000000012,"correct":false,"confidence":3},{"trial_n":103,"min":97,"max":158,"target":"present","response":"absent","rt":902.99999999988,"correct":false,"confidence":3},{"trial_n":104,"min":95,"max":160,"target":"present","response":"absent","rt":789,"correct":false,"confidence":3},{"trial_n":105,"min":93,"max":162,"target":"absent","response":"absent","rt":757,"correct":true,"confidence":3},{"trial_n":106,"min":93,"max":162,"target":"present","response":"present","rt":1049.9999999999,"correct":true,"confidence":3},{"trial_n":107,"min":95,"max":160,"target":"present","response":"absent","rt":717,"correct":false,"confidence":3},{"trial_n":108,"min":93,"max":162,"target":"absent","response":"present","rt":1847,"correct":false,"confidence":3},{"trial_n":109,"min":91,"max":164,"target":"present","response":"absent","rt":687,"correct":false,"confidence":3},{"trial_n":110,"min":89,"max":166,"target":"absent","response":"absent","rt":413,"correct":true,"confidence":3},{"trial_n":111,"min":89,"max":166,"target":"absent","response":"absent","rt":382.99999999988,"correct":true,"confidence":3},{"trial_n":112,"min":90,"max":165,"target":"present","response":"present","rt":365.99999999988,"correct":true,"confidence":3},{"trial_n":113,"min":90,"max":165,"target":"present","response":"absent","rt":567,"correct":false,"confidence":3},{"trial_n":114,"min":89,"max":166,"target":"present","response":"present","rt":305.99999999988,"correct":true,"confidence":3},{"trial_n":115,"min":89,"max":166,"target":"absent","response":"absent","rt":645.00000000012,"correct":true,"confidence":3},{"trial_n":116,"min":90,"max":165,"target":"present","response":"present","rt":608,"correct":true,"confidence":3},{"trial_n":117,"min":90,"max":165,"target":"absent","response":"absent","rt":622,"correct":true,"confidence":3},{"trial_n":118,"min":91,"max":164,"target":"absent","response":"present","rt":604.00000000012,"correct":false,"confidence":3},{"trial_n":119,"min":90,"max":165,"target":"present","response":"present","rt":396,"correct":true,"confidence":3},{"trial_n":120,"min":90,"max":165,"target":"absent","response":"absent","rt":560.99999999988,"correct":true,"confidence":3},{"trial_n":121,"min":91,"max":164,"target":"present","response":"absent","rt":564,"correct":false,"confidence":3},{"trial_n":122,"min":90,"max":165,"target":"present","response":"present","rt":380,"correct":true,"confidence":3},{"trial_n":123,"min":90,"max":165,"target":"present","response":"present","rt":955,"correct":true,"confidence":3},{"trial_n":124,"min":91,"max":164,"target":"absent","response":"absent","rt":487,"correct":true,"confidence":3},{"trial_n":125,"min":91,"max":164,"target":"present","response":"present","rt":421,"correct":true,"confidence":4},{"trial_n":126,"min":92,"max":163,"target":"present","response":"absent","rt":1483,"correct":false,"confidence":3},{"trial_n":127,"min":91,"max":164,"target":"absent","response":"present","rt":745,"correct":false,"confidence":3},{"trial_n":128,"min":90,"max":165,"target":"present","response":"present","rt":456,"correct":true,"confidence":3},{"trial_n":129,"min":90,"max":165,"target":"absent","response":"present","rt":560,"correct":false,"confidence":3},{"trial_n":130,"min":89,"max":166,"target":"absent","response":"present","rt":727,"correct":false,"confidence":3},{"trial_n":131,"min":88,"max":167,"target":"absent","response":"absent","rt":943,"correct":true,"confidence":3},{"trial_n":132,"min":88,"max":167,"target":"present","response":"present","rt":624,"correct":true,"confidence":3},{"trial_n":133,"min":89,"max":166,"target":"present","response":"present","rt":489.99999999988,"correct":true,"confidence":3},{"trial_n":134,"min":89,"max":166,"target":"absent","response":"present","rt":628.99999999988,"correct":false,"confidence":3},{"trial_n":135,"min":88,"max":167,"target":"present","response":"present","rt":385,"correct":true,"confidence":3},{"trial_n":136,"min":88,"max":167,"target":"absent","response":"absent","rt":462,"correct":true,"confidence":3},{"trial_n":137,"min":89,"max":166,"target":"present","response":"present","rt":544,"correct":true,"confidence":3},{"trial_n":138,"min":89,"max":166,"target":"absent","response":"present","rt":630,"correct":false,"confidence":3},{"trial_n":139,"min":88,"max":167,"target":"absent","response":"present","rt":679,"correct":false,"confidence":1},{"trial_n":140,"min":87,"max":168,"target":"present","response":"present","rt":454.00000000012,"correct":true,"confidence":3}]