[{"trial_n":1,"n_dots":4.25,"target":"right","response":"right","rt":4380,"correct":true,"confidence":-1},{"trial_n":2,"n_dots":4.25,"target":"right","response":"left","rt":1197,"correct":false,"confidence":-1},{"trial_n":3,"n_dots":4.65,"target":"right","response":"right","rt":522,"correct":true,"confidence":-1},{"trial_n":4,"n_dots":4.65,"target":"left","response":"left","rt":325,"correct":true,"confidence":-1},{"trial_n":5,"n_dots":4.25,"target":"right","response":"right","rt":349.00000000001,"correct":true,"confidence":-1},{"trial_n":6,"n_dots":4.25,"target":"left","response":"left","rt":206,"correct":true,"confidence":-1},{"trial_n":7,"n_dots":3.85,"target":"right","response":"right","rt":3833,"correct":true,"confidence":-1},{"trial_n":8,"n_dots":3.85,"target":"right","response":"left","rt":1354,"correct":false,"confidence":-1},{"trial_n":9,"n_dots":4.05,"target":"right","response":"right","rt":1838,"correct":true,"confidence":-1},{"trial_n":10,"n_dots":4.05,"target":"left","response":"left","rt":472.00000000001,"correct":true,"confidence":-1},{"trial_n":11,"n_dots":3.85,"target":"left","response":"left","rt":500,"correct":true,"confidence":-1},{"trial_n":12,"n_dots":3.85,"target":"right","response":"left","rt":541,"correct":false,"confidence":-1},{"trial_n":13,"n_dots":3.95,"target":"right","response":"left","rt":486,"correct":false,"confidence":-1},{"trial_n":14,"n_dots":4.05,"target":"left","response":"left","rt":304.99999999997,"correct":true,"confidence":-1},{"trial_n":15,"n_dots":4.05,"target":"left","response":"left","rt":799,"correct":true,"confidence":-1},{"trial_n":16,"n_dots":3.95,"target":"right","response":"right","rt":396,"correct":true,"confidence":-1},{"trial_n":17,"n_dots":3.95,"target":"right","response":"right","rt":426,"correct":true,"confidence":-1},{"trial_n":18,"n_dots":3.85,"target":"left","response":"left","rt":519,"correct":true,"confidence":-1},{"trial_n":19,"n_dots":3.85,"target":"left","response":"left","rt":340.99999999997,"correct":true,"confidence":-1},{"trial_n":20,"n_dots":3.75,"target":"left","response":"left","rt":122,"correct":true,"confidence":-1},{"trial_n":21,"n_dots":3.75,"target":"left","response":"left","rt":341.99999999997,"correct":true,"confidence":3},{"trial_n":22,"n_dots":3.65,"target":"left","response":"left","rt":381,"correct":true,"confidence":4},{"trial_n":23,"n_dots":3.65,"target":"right","response":"right","rt":358,"correct":true,"confidence":4},{"trial_n":24,"n_dots":3.55,"target":"left","response":"left","rt":485,"correct":true,"confidence":3},{"trial_n":25,"n_dots":3.55,"target":"right","response":"right","rt":233.00000000003,"correct":true,"confidence":2},{"trial_n":26,"n_dots":3.45,"target":"left","response":"left","rt":395,"correct":true,"confidence":3},{"trial_n":27,"n_dots":3.45,"target":"right","response":"right","rt":489,"correct":true,"confidence":3},{"trial_n":28,"n_dots":3.35,"target":"right","response":"right","rt":553.00000000003,"correct":true,"confidence":2},{"trial_n":29,"n_dots":3.35,"target":"right","response":"right","rt":472,"correct":true,"confidence":3},{"trial_n":30,"n_dots":3.25,"target":"right","response":"right","rt":562,"correct":true,"confidence":2},{"trial_n":31,"n_dots":3.25,"target":"left","response":"left","rt":352,"correct":true,"confidence":3},{"trial_n":32,"n_dots":3.15,"target":"right","response":"right","rt":543,"correct":true,"confidence":2},{"trial_n":33,"n_dots":3.15,"target":"left","response":"right","rt":1432,"correct":false,"confidence":4},{"trial_n":34,"n_dots":3.25,"target":"left","response":"left","rt":314,"correct":true,"confidence":5},{"trial_n":35,"n_dots":3.25,"target":"left","response":"left","rt":518,"correct":true,"confidence":4},{"trial_n":36,"n_dots":3.15,"target":"right","response":"right","rt":139,"correct":true,"confidence":4},{"trial_n":37,"n_dots":3.15,"target":"right","response":"right","rt":1291,"correct":true,"confidence":3},{"trial_n":38,"n_dots":3.05,"target":"left","response":"left","rt":405,"correct":true,"confidence":3},{"trial_n":39,"n_dots":3.05,"target":"right","response":"right","rt":375,"correct":true,"confidence":2},{"trial_n":40,"n_dots":2.95,"target":"left","response":"left","rt":512,"correct":true,"confidence":2},{"trial_n":41,"n_dots":2.95,"target":"left","response":"left","rt":716.00000000012,"correct":true,"confidence":3},{"trial_n":42,"n_dots":2.85,"target":"left","response":"left","rt":343.99999999988,"correct":true,"confidence":4},{"trial_n":43,"n_dots":2.85,"target":"left","response":"left","rt":352,"correct":true,"confidence":2},{"trial_n":44,"n_dots":2.75,"target":"left","response":"left","rt":825,"correct":true,"confidence":3},{"trial_n":45,"n_dots":2.75,"target":"right","response":"right","rt":245,"correct":true,"confidence":4},{"trial_n":46,"n_dots":2.65,"target":"left","response":"left","rt":878,"correct":true,"confidence":2},{"trial_n":47,"n_dots":2.65,"target":"left","response":"right","rt":485,"correct":false,"confidence":4},{"trial_n":48,"n_dots":2.75,"target":"right","response":"right","rt":349,"correct":true,"confidence":2},{"trial_n":49,"n_dots":2.75,"target":"left","response":"left","rt":563,"correct":true,"confidence":2},{"trial_n":50,"n_dots":2.65,"target":"right","response":"left","rt":918,"correct":false,"confidence":4},{"trial_n":51,"n_dots":2.75,"target":"right","response":"right","rt":321.00000000012,"correct":true,"confidence":4},{"trial_n":52,"n_dots":2.75,"target":"right","response":"right","rt":319.00000000012,"correct":true,"confidence":2},{"trial_n":53,"n_dots":2.65,"target":"right","response":"left","rt":805,"correct":false,"confidence":3},{"trial_n":54,"n_dots":2.75,"target":"right","response":"left","rt":280.99999999988,"correct":false,"confidence":5},{"trial_n":55,"n_dots":2.85,"target":"right","response":"right","rt":298,"correct":true,"confidence":4},{"trial_n":56,"n_dots":2.85,"target":"right","response":"right","rt":299,"correct":true,"confidence":1},{"trial_n":57,"n_dots":2.75,"target":"right","response":"left","rt":404,"correct":false,"confidence":4},{"trial_n":58,"n_dots":2.85,"target":"right","response":"left","rt":657.00000000012,"correct":false,"confidence":3},{"trial_n":59,"n_dots":2.95,"target":"left","response":"left","rt":795,"correct":true,"confidence":3},{"trial_n":60,"n_dots":2.95,"target":"left","response":"right","rt":391,"correct":false,"confidence":3},{"trial_n":61,"n_dots":3.05,"target":"right","response":"right","rt":280.00000000012,"correct":true,"confidence":3},{"trial_n":62,"n_dots":3.05,"target":"right","response":"right","rt":258,"correct":true,"confidence":3},{"trial_n":63,"n_dots":2.95,"target":"right","response":"left","rt":568.00000000012,"correct":false,"confidence":3},{"trial_n":64,"n_dots":3.05,"target":"left","response":"left","rt":494,"correct":true,"confidence":3},{"trial_n":65,"n_dots":3.05,"target":"left","response":"left","rt":591,"correct":true,"confidence":3},{"trial_n":66,"n_dots":2.95,"target":"left","response":"right","rt":26,"correct":false,"confidence":3},{"trial_n":67,"n_dots":3.05,"target":"left","response":"left","rt":279,"correct":true,"confidence":4},{"trial_n":68,"n_dots":3.05,"target":"right","response":"right","rt":179,"correct":true,"confidence":4},{"trial_n":69,"n_dots":2.95,"target":"right","response":"right","rt":564,"correct":true,"confidence":4},{"trial_n":70,"n_dots":2.95,"target":"left","response":"left","rt":312,"correct":true,"confidence":5},{"trial_n":71,"n_dots":2.85,"target":"left","response":"left","rt":433,"correct":true,"confidence":5},{"trial_n":72,"n_dots":2.85,"target":"left","response":"right","rt":227,"correct":false,"confidence":5},{"trial_n":73,"n_dots":2.95,"target":"right","response":"right","rt":1006,"correct":true,"confidence":5},{"trial_n":74,"n_dots":2.95,"target":"left","response":"left","rt":425,"correct":true,"confidence":5},{"trial_n":75,"n_dots":2.85,"target":"left","response":"right","rt":294,"correct":false,"confidence":4},{"trial_n":76,"n_dots":2.95,"target":"left","response":"left","rt":307.99999999988,"correct":true,"confidence":3},{"trial_n":77,"n_dots":2.95,"target":"right","response":"right","rt":661,"correct":true,"confidence":4},{"trial_n":78,"n_dots":2.85,"target":"left","response":"right","rt":611,"correct":false,"confidence":4},{"trial_n":79,"n_dots":2.95,"target":"left","response":"right","rt":312,"correct":false,"confidence":4},{"trial_n":80,"n_dots":3.05,"target":"right","response":"right","rt":350,"correct":true,"confidence":3},{"trial_n":81,"n_dots":3.05,"target":"right","response":"right","rt":311,"correct":true,"confidence":4},{"trial_n":82,"n_dots":2.95,"target":"left","response":"left","rt":224.00000000012,"correct":true,"confidence":5},{"trial_n":83,"n_dots":2.95,"target":"right","response":"right","rt":522.00000000012,"correct":true,"confidence":4},{"trial_n":84,"n_dots":2.85,"target":"right","response":"left","rt":549.00000000012,"correct":false,"confidence":4},{"trial_n":85,"n_dots":2.95,"target":"right","response":"right","rt":736,"correct":true,"confidence":4},{"trial_n":86,"n_dots":2.95,"target":"left","response":"left","rt":477,"correct":true,"confidence":5},{"trial_n":87,"n_dots":2.85,"target":"right","response":"right","rt":314.99999999988,"correct":true,"confidence":4},{"trial_n":88,"n_dots":2.85,"target":"right","response":"right","rt":659.99999999988,"correct":true,"confidence":4},{"trial_n":89,"n_dots":2.75,"target":"left","response":"right","rt":622,"correct":false,"confidence":4},{"trial_n":90,"n_dots":2.85,"target":"left","response":"left","rt":577,"correct":true,"confidence":4},{"trial_n":91,"n_dots":2.85,"target":"left","response":"right","rt":458,"correct":false,"confidence":4},{"trial_n":92,"n_dots":2.95,"target":"right","response":"right","rt":446,"correct":true,"confidence":4},{"trial_n":93,"n_dots":2.95,"target":"left","response":"right","rt":413,"correct":false,"confidence":4},{"trial_n":94,"n_dots":3.05,"target":"right","response":"right","rt":394.99999999988,"correct":true,"confidence":4},{"trial_n":95,"n_dots":3.05,"target":"left","response":"left","rt":334.00000000012,"correct":true,"confidence":4},{"trial_n":96,"n_dots":2.95,"target":"left","response":"left","rt":821.00000000012,"correct":true,"confidence":4},{"trial_n":97,"n_dots":2.95,"target":"right","response":"right","rt":708,"correct":true,"confidence":4},{"trial_n":98,"n_dots":2.85,"target":"right","response":"right","rt":358.00000000012,"correct":true,"confidence":4},{"trial_n":99,"n_dots":2.85,"target":"left","response":"left","rt":371,"correct":true,"confidence":4},{"trial_n":100,"n_dots":2.75,"target":"left","response":"right","rt":269,"correct":false,"confidence":5},{"trial_n":101,"n_dots":2.85,"target":"left","response":"right","rt":805.00000000012,"correct":false,"confidence":4},{"trial_n":102,"n_dots":2.95,"target":"left","response":"left","rt":328,"correct":true,"confidence":4},{"trial_n":103,"n_dots":2.95,"target":"right","response":"right","rt":111.99999999988,"correct":true,"confidence":4},{"trial_n":104,"n_dots":2.85,"target":"right","response":"right","rt":276.99999999988,"correct":true,"confidence":5},{"trial_n":105,"n_dots":2.85,"target":"left","response":"left","rt":164,"correct":true,"confidence":5},{"trial_n":106,"n_dots":2.75,"target":"left","response":"left","rt":568.00000000012,"correct":true,"confidence":4},{"trial_n":107,"n_dots":2.75,"target":"right","response":"right","rt":432,"correct":true,"confidence":4},{"trial_n":108,"n_dots":2.65,"target":"right","response":"right","rt":397,"correct":true,"confidence":3},{"trial_n":109,"n_dots":2.65,"target":"left","response":"left","rt":524,"correct":true,"confidence":3},{"trial_n":110,"n_dots":2.55,"target":"right","response":"right","rt":197,"correct":true,"confidence":4},{"trial_n":111,"n_dots":2.55,"target":"right","response":"right","rt":585,"correct":true,"confidence":4},{"trial_n":112,"n_dots":2.45,"target":"right","response":"right","rt":277.99999999988,"correct":true,"confidence":3},{"trial_n":113,"n_dots":2.45,"target":"left","response":"right","rt":528,"correct":false,"confidence":4},{"trial_n":114,"n_dots":2.55,"target":"left","response":"right","rt":508.00000000012,"correct":false,"confidence":4},{"trial_n":115,"n_dots":2.65,"target":"left","response":"right","rt":418.99999999977,"correct":false,"confidence":4},{"trial_n":116,"n_dots":2.75,"target":"right","response":"right","rt":388.99999999988,"correct":true,"confidence":3},{"trial_n":117,"n_dots":2.75,"target":"right","response":"right","rt":546,"correct":true,"confidence":4},{"trial_n":118,"n_dots":2.65,"target":"left","response":"left","rt":343.00000000012,"correct":true,"confidence":4},{"trial_n":119,"n_dots":2.65,"target":"right","response":"left","rt":456.00000000012,"correct":false,"confidence":3},{"trial_n":120,"n_dots":2.75,"target":"left","response":"left","rt":312.00000000012,"correct":true,"confidence":2}]