[{"trial_n":1,"span":8,"encoder":"86776308","distractor":"86776398","target":"present","response":"absent","rt":"3872","correct":false,"confidence":-1},{"trial_n":2,"span":6,"encoder":"619564","distractor":"619569","target":"present","response":"present","rt":"1108","correct":true,"confidence":-1},{"trial_n":3,"span":6,"encoder":"961830","distractor":"961831","target":"absent","response":"present","rt":"643","correct":false,"confidence":-1},{"trial_n":4,"span":4,"encoder":"4722","distractor":"4222","target":"absent","response":"absent","rt":"1520","correct":true,"confidence":-1},{"trial_n":5,"span":4,"encoder":"6629","distractor":"1629","target":"present","response":"present","rt":"2701","correct":true,"confidence":-1},{"trial_n":6,"span":6,"encoder":"889263","distractor":"789263","target":"absent","response":"present","rt":"643","correct":false,"confidence":-1},{"trial_n":7,"span":4,"encoder":"3943","distractor":"3993","target":"present","response":"absent","rt":"3297","correct":false,"confidence":-1},{"trial_n":8,"span":2,"encoder":"71","distractor":"77","target":"present","response":"present","rt":"1005","correct":true,"confidence":-1},{"trial_n":9,"span":2,"encoder":"76","distractor":"16","target":"present","response":"present","rt":"600","correct":true,"confidence":-1},{"trial_n":10,"span":4,"encoder":"8587","distractor":"8584","target":"present","response":"present","rt":"375","correct":true,"confidence":-1},{"trial_n":11,"span":4,"encoder":"3671","distractor":"3171","target":"absent","response":"present","rt":"466","correct":false,"confidence":-1},{"trial_n":12,"span":3,"encoder":"438","distractor":"738","target":"absent","response":"absent","rt":"393","correct":true,"confidence":-1},{"trial_n":13,"span":3,"encoder":"071","distractor":"771","target":"absent","response":"present","rt":"386.99999999999","correct":false,"confidence":-1},{"trial_n":14,"span":2,"encoder":"48","distractor":"78","target":"present","response":"present","rt":"444","correct":true,"confidence":-1},{"trial_n":15,"span":2,"encoder":"68","distractor":"69","target":"absent","response":"present","rt":"567.99999999999","correct":false,"confidence":-1},{"trial_n":16,"span":2,"encoder":"58","distractor":"50","target":"absent","response":"present","rt":"610","correct":false,"confidence":-1},{"trial_n":17,"span":2,"encoder":"05","distractor":"65","target":"present","response":"present","rt":"562.00000000001","correct":true,"confidence":-1},{"trial_n":18,"span":2,"encoder":"80","distractor":"86","target":"absent","response":"absent","rt":"1173","correct":true,"confidence":-1},{"trial_n":19,"span":3,"encoder":"999","distractor":"995","target":"absent","response":"absent","rt":"1201","correct":true,"confidence":-1},{"trial_n":20,"span":3,"encoder":"467","distractor":"567","target":"present","response":"present","rt":"541","correct":true,"confidence":-1},{"trial_n":21,"span":4,"encoder":"1133","distractor":"1113","target":"absent","response":"present","rt":"894.99999999999","correct":false,"confidence":3},{"trial_n":22,"span":3,"encoder":"386","distractor":"586","target":"present","response":"present","rt":"3629","correct":true,"confidence":3},{"trial_n":23,"span":3,"encoder":"396","distractor":"306","target":"absent","response":"present","rt":"1080","correct":false,"confidence":3},{"trial_n":24,"span":2,"encoder":"33","distractor":"39","target":"absent","response":"present","rt":"516.99999999999","correct":false,"confidence":3},{"trial_n":25,"span":2,"encoder":"68","distractor":"58","target":"present","response":"present","rt":"357","correct":true,"confidence":3},{"trial_n":26,"span":2,"encoder":"40","distractor":"10","target":"present","response":"present","rt":"3528","correct":true,"confidence":3},{"trial_n":27,"span":3,"encoder":"510","distractor":"610","target":"present","response":"present","rt":"401","correct":true,"confidence":3},{"trial_n":28,"span":3,"encoder":"238","distractor":"231","target":"present","response":"present","rt":"393","correct":true,"confidence":3},{"trial_n":29,"span":4,"encoder":"0635","distractor":"0935","target":"absent","response":"present","rt":"563","correct":false,"confidence":3},{"trial_n":30,"span":3,"encoder":"033","distractor":"043","target":"absent","response":"present","rt":"626.00000000001","correct":false,"confidence":3},{"trial_n":31,"span":2,"encoder":"88","distractor":"78","target":"present","response":"present","rt":"548","correct":true,"confidence":3},{"trial_n":32,"span":2,"encoder":"12","distractor":"13","target":"present","response":"present","rt":"676","correct":true,"confidence":3},{"trial_n":33,"span":3,"encoder":"924","distractor":"904","target":"present","response":"present","rt":"741","correct":true,"confidence":3},{"trial_n":34,"span":3,"encoder":"894","distractor":"892","target":"absent","response":"present","rt":"740","correct":false,"confidence":3},{"trial_n":35,"span":2,"encoder":"51","distractor":"55","target":"absent","response":"present","rt":"801","correct":false,"confidence":3},{"trial_n":36,"span":2,"encoder":"48","distractor":"42","target":"absent","response":"absent","rt":"1046","correct":true,"confidence":3},{"trial_n":37,"span":2,"encoder":"71","distractor":"51","target":"present","response":"present","rt":"816.00000000003","correct":true,"confidence":3},{"trial_n":38,"span":3,"encoder":"213","distractor":"218","target":"present","response":"present","rt":"695","correct":true,"confidence":3},{"trial_n":39,"span":3,"encoder":"984","distractor":"934","target":"absent","response":"present","rt":"816","correct":false,"confidence":3},{"trial_n":40,"span":2,"encoder":"27","distractor":"17","target":"absent","response":"present","rt":"842","correct":false,"confidence":1},{"trial_n":41,"span":2,"encoder":"44","distractor":"48","target":"present","response":"present","rt":"504","correct":true,"confidence":1},{"trial_n":42,"span":2,"encoder":"46","distractor":"86","target":"absent","response":"present","rt":"440","correct":false,"confidence":1},{"trial_n":43,"span":2,"encoder":"84","distractor":"24","target":"present","response":"present","rt":"956.00000000003","correct":true,"confidence":1},{"trial_n":44,"span":2,"encoder":"02","distractor":"92","target":"present","response":"absent","rt":"801","correct":false,"confidence":1},{"trial_n":45,"span":2,"encoder":"26","distractor":"66","target":"absent","response":"absent","rt":"852","correct":true,"confidence":1},{"trial_n":46,"span":2,"encoder":"11","distractor":"13","target":"present","response":"present","rt":"794","correct":true,"confidence":1},{"trial_n":47,"span":3,"encoder":"607","distractor":"604","target":"present","response":"present","rt":"994","correct":true,"confidence":1},{"trial_n":48,"span":3,"encoder":"440","distractor":"940","target":"present","response":"absent","rt":"1027","correct":false,"confidence":1},{"trial_n":49,"span":2,"encoder":"03","distractor":"05","target":"present","response":"present","rt":"961","correct":true,"confidence":1},{"trial_n":50,"span":2,"encoder":"28","distractor":"78","target":"absent","response":"absent","rt":"819.00000000003","correct":true,"confidence":1},{"trial_n":51,"span":3,"encoder":"503","distractor":"509","target":"absent","response":"present","rt":"1492","correct":false,"confidence":1},{"trial_n":52,"span":2,"encoder":"61","distractor":"69","target":"present","response":"present","rt":"367","correct":true,"confidence":1},{"trial_n":53,"span":2,"encoder":"31","distractor":"81","target":"absent","response":"absent","rt":"288","correct":true,"confidence":1},{"trial_n":54,"span":3,"encoder":"468","distractor":"568","target":"absent","response":"present","rt":"624","correct":false,"confidence":1},{"trial_n":55,"span":2,"encoder":"82","distractor":"86","target":"present","response":"present","rt":"547.99999999997","correct":true,"confidence":1},{"trial_n":56,"span":2,"encoder":"81","distractor":"85","target":"present","response":"present","rt":"560","correct":true,"confidence":1},{"trial_n":57,"span":3,"encoder":"176","distractor":"179","target":"present","response":"absent","rt":"690","correct":false,"confidence":1},{"trial_n":58,"span":2,"encoder":"03","distractor":"00","target":"absent","response":"absent","rt":"1064","correct":true,"confidence":1},{"trial_n":59,"span":2,"encoder":"96","distractor":"99","target":"absent","response":"absent","rt":"786","correct":true,"confidence":1},{"trial_n":60,"span":3,"encoder":"450","distractor":"440","target":"absent","response":"absent","rt":"703","correct":true,"confidence":1},{"trial_n":61,"span":3,"encoder":"239","distractor":"839","target":"absent","response":"present","rt":"712","correct":false,"confidence":1},{"trial_n":62,"span":2,"encoder":"95","distractor":"90","target":"absent","response":"absent","rt":"815","correct":true,"confidence":1},{"trial_n":63,"span":2,"encoder":"45","distractor":"35","target":"absent","response":"absent","rt":"865","correct":true,"confidence":1},{"trial_n":64,"span":3,"encoder":"938","distractor":"935","target":"present","response":"absent","rt":"741","correct":false,"confidence":1},{"trial_n":65,"span":2,"encoder":"72","distractor":"71","target":"present","response":"present","rt":"1105","correct":true,"confidence":1},{"trial_n":66,"span":2,"encoder":"09","distractor":"02","target":"absent","response":"present","rt":"1113","correct":false,"confidence":1},{"trial_n":67,"span":2,"encoder":"86","distractor":"36","target":"absent","response":"absent","rt":"655","correct":true,"confidence":1},{"trial_n":68,"span":2,"encoder":"31","distractor":"38","target":"present","response":"absent","rt":"958","correct":false,"confidence":1},{"trial_n":69,"span":2,"encoder":"59","distractor":"52","target":"present","response":"present","rt":"660","correct":true,"confidence":1},{"trial_n":70,"span":2,"encoder":"77","distractor":"75","target":"present","response":"absent","rt":"945.00000000003","correct":false,"confidence":1},{"trial_n":71,"span":8,"encoder":"32619027","distractor":"32615027","target":"present","response":"absent","rt":"11448","correct":false,"confidence":-1},{"trial_n":72,"span":7,"encoder":"5261731","distractor":"3261731","target":"present","response":"absent","rt":"515","correct":false,"confidence":-1},{"trial_n":73,"span":6,"encoder":"055285","distractor":"055585","target":"absent","response":"present","rt":"1122","correct":false,"confidence":-1},{"trial_n":74,"span":5,"encoder":"96868","distractor":"96862","target":"absent","response":"absent","rt":"678.00000000003","correct":true,"confidence":-1},{"trial_n":75,"span":5,"encoder":"90357","distractor":"60357","target":"present","response":"absent","rt":"704","correct":false,"confidence":-1},{"trial_n":76,"span":4,"encoder":"0629","distractor":"0639","target":"present","response":"absent","rt":"514","correct":false,"confidence":-1},{"trial_n":77,"span":3,"encoder":"100","distractor":"500","target":"present","response":"present","rt":"505","correct":true,"confidence":-1},{"trial_n":78,"span":3,"encoder":"097","distractor":"037","target":"present","response":"absent","rt":"576","correct":false,"confidence":-1},{"trial_n":79,"span":2,"encoder":"44","distractor":"04","target":"present","response":"present","rt":"554.99999999994","correct":true,"confidence":-1},{"trial_n":80,"span":2,"encoder":"54","distractor":"58","target":"absent","response":"present","rt":"827","correct":false,"confidence":-1},{"trial_n":81,"span":2,"encoder":"25","distractor":"26","target":"present","response":"absent","rt":"497","correct":false,"confidence":-1},{"trial_n":82,"span":2,"encoder":"90","distractor":"97","target":"present","response":"present","rt":"559","correct":true,"confidence":-1},{"trial_n":83,"span":2,"encoder":"32","distractor":"42","target":"present","response":"present","rt":"723","correct":true,"confidence":-1},{"trial_n":84,"span":3,"encoder":"906","distractor":"926","target":"present","response":"present","rt":"725","correct":true,"confidence":-1},{"trial_n":85,"span":3,"encoder":"179","distractor":"171","target":"absent","response":"present","rt":"679","correct":false,"confidence":-1},{"trial_n":86,"span":2,"encoder":"90","distractor":"99","target":"absent","response":"absent","rt":"625","correct":true,"confidence":-1},{"trial_n":87,"span":2,"encoder":"09","distractor":"19","target":"absent","response":"absent","rt":"632.00000000006","correct":true,"confidence":-1},{"trial_n":88,"span":3,"encoder":"122","distractor":"022","target":"present","response":"absent","rt":"817","correct":false,"confidence":-1},{"trial_n":89,"span":2,"encoder":"78","distractor":"75","target":"present","response":"present","rt":"713","correct":true,"confidence":-1},{"trial_n":90,"span":2,"encoder":"31","distractor":"34","target":"present","response":"present","rt":"694","correct":true,"confidence":-1},{"trial_n":91,"span":3,"encoder":"317","distractor":"316","target":"absent","response":"absent","rt":"410","correct":true,"confidence":1},{"trial_n":92,"span":3,"encoder":"744","distractor":"704","target":"present","response":"absent","rt":"1110","correct":false,"confidence":1},{"trial_n":93,"span":2,"encoder":"79","distractor":"74","target":"absent","response":"absent","rt":"887","correct":true,"confidence":1},{"trial_n":94,"span":2,"encoder":"17","distractor":"47","target":"present","response":"present","rt":"1271.9999999999","correct":true,"confidence":1},{"trial_n":95,"span":3,"encoder":"748","distractor":"948","target":"present","response":"absent","rt":"1280","correct":false,"confidence":1},{"trial_n":96,"span":2,"encoder":"68","distractor":"65","target":"absent","response":"present","rt":"516","correct":false,"confidence":1},{"trial_n":97,"span":2,"encoder":"03","distractor":"07","target":"absent","response":"absent","rt":"787","correct":true,"confidence":1},{"trial_n":98,"span":2,"encoder":"41","distractor":"61","target":"absent","response":"absent","rt":"616.99999999994","correct":true,"confidence":1},{"trial_n":99,"span":3,"encoder":"757","distractor":"750","target":"absent","response":"present","rt":"1116","correct":false,"confidence":1},{"trial_n":100,"span":2,"encoder":"93","distractor":"94","target":"present","response":"present","rt":"771","correct":true,"confidence":1},{"trial_n":101,"span":2,"encoder":"89","distractor":"83","target":"present","response":"absent","rt":"1442","correct":false,"confidence":1},{"trial_n":102,"span":2,"encoder":"77","distractor":"73","target":"absent","response":"absent","rt":"720","correct":true,"confidence":1},{"trial_n":103,"span":2,"encoder":"82","distractor":"81","target":"absent","response":"absent","rt":"657","correct":true,"confidence":1},{"trial_n":104,"span":3,"encoder":"317","distractor":"307","target":"absent","response":"absent","rt":"813","correct":true,"confidence":1},{"trial_n":105,"span":3,"encoder":"206","distractor":"208","target":"absent","response":"absent","rt":"1279","correct":true,"confidence":1},{"trial_n":106,"span":4,"encoder":"3976","distractor":"0976","target":"present","response":"present","rt":"1023","correct":true,"confidence":1},{"trial_n":107,"span":4,"encoder":"1700","distractor":"1701","target":"present","response":"absent","rt":"1464.9999999999","correct":false,"confidence":1},{"trial_n":108,"span":3,"encoder":"540","distractor":"530","target":"present","response":"absent","rt":"1180.9999999999","correct":false,"confidence":1},{"trial_n":109,"span":2,"encoder":"40","distractor":"43","target":"absent","response":"present","rt":"1162","correct":false,"confidence":1},{"trial_n":110,"span":2,"encoder":"78","distractor":"75","target":"present","response":"present","rt":"788","correct":true,"confidence":1},{"trial_n":111,"span":2,"encoder":"71","distractor":"31","target":"absent","response":"absent","rt":"611","correct":true,"confidence":1},{"trial_n":112,"span":3,"encoder":"328","distractor":"318","target":"absent","response":"present","rt":"891","correct":false,"confidence":1},{"trial_n":113,"span":2,"encoder":"37","distractor":"31","target":"absent","response":"absent","rt":"1215","correct":true,"confidence":1},{"trial_n":114,"span":2,"encoder":"66","distractor":"61","target":"present","response":"absent","rt":"9621","correct":false,"confidence":1},{"trial_n":115,"span":2,"encoder":"84","distractor":"94","target":"absent","response":"absent","rt":"3091.9999999999","correct":true,"confidence":1},{"trial_n":116,"span":2,"encoder":"86","distractor":"87","target":"absent","response":"present","rt":"1263","correct":false,"confidence":1},{"trial_n":117,"span":2,"encoder":"97","distractor":"94","target":"present","response":"absent","rt":"1746","correct":false,"confidence":1},{"trial_n":118,"span":2,"encoder":"54","distractor":"59","target":"absent","response":"present","rt":"538","correct":false,"confidence":1},{"trial_n":119,"span":2,"encoder":"27","distractor":"37","target":"present","response":"absent","rt":"502","correct":false,"confidence":1},{"trial_n":120,"span":2,"encoder":"44","distractor":"49","target":"absent","response":"present","rt":"411.99999999994","correct":false,"confidence":1},{"trial_n":121,"span":2,"encoder":"16","distractor":"06","target":"present","response":"present","rt":"545","correct":true,"confidence":1},{"trial_n":122,"span":2,"encoder":"66","distractor":"60","target":"present","response":"absent","rt":"813","correct":false,"confidence":1},{"trial_n":123,"span":2,"encoder":"23","distractor":"21","target":"present","response":"present","rt":"715","correct":true,"confidence":1},{"trial_n":124,"span":2,"encoder":"72","distractor":"77","target":"absent","response":"absent","rt":"241","correct":true,"confidence":1},{"trial_n":125,"span":3,"encoder":"981","distractor":"983","target":"present","response":"present","rt":"161","correct":true,"confidence":1},{"trial_n":126,"span":3,"encoder":"223","distractor":"283","target":"present","response":"absent","rt":"615.99999999994","correct":false,"confidence":1},{"trial_n":127,"span":2,"encoder":"19","distractor":"89","target":"absent","response":"present","rt":"626.00000000006","correct":false,"confidence":1},{"trial_n":128,"span":2,"encoder":"67","distractor":"61","target":"absent","response":"present","rt":"735","correct":false,"confidence":1},{"trial_n":129,"span":2,"encoder":"99","distractor":"59","target":"absent","response":"present","rt":"1367","correct":false,"confidence":1},{"trial_n":130,"span":2,"encoder":"23","distractor":"33","target":"absent","response":"absent","rt":"4459","correct":true,"confidence":1},{"trial_n":131,"span":2,"encoder":"03","distractor":"43","target":"present","response":"present","rt":"571.00000000006","correct":true,"confidence":1},{"trial_n":132,"span":3,"encoder":"258","distractor":"251","target":"present","response":"absent","rt":"420","correct":false,"confidence":1},{"trial_n":133,"span":2,"encoder":"51","distractor":"58","target":"absent","response":"absent","rt":"520","correct":true,"confidence":1},{"trial_n":134,"span":2,"encoder":"91","distractor":"01","target":"absent","response":"present","rt":"377","correct":false,"confidence":1},{"trial_n":135,"span":2,"encoder":"38","distractor":"78","target":"absent","response":"absent","rt":"372","correct":true,"confidence":1},{"trial_n":136,"span":2,"encoder":"01","distractor":"11","target":"present","response":"present","rt":"425","correct":true,"confidence":1},{"trial_n":137,"span":3,"encoder":"077","distractor":"079","target":"present","response":"absent","rt":"515","correct":false,"confidence":1},{"trial_n":138,"span":2,"encoder":"83","distractor":"85","target":"present","response":"absent","rt":"910","correct":false,"confidence":1},{"trial_n":139,"span":2,"encoder":"15","distractor":"85","target":"absent","response":"present","rt":"372.00000000006","correct":false,"confidence":1},{"trial_n":140,"span":2,"encoder":"90","distractor":"91","target":"absent","response":"absent","rt":"149","correct":true,"confidence":1}]