[{"trial_n":1,"min":25,"max":230,"target":"present","response":"absent","rt":18306.099999964,"correct":false,"confidence":-1},{"trial_n":2,"min":25,"max":230,"target":"present","response":"present","rt":1307.3000000119,"correct":true,"confidence":-1},{"trial_n":3,"min":25,"max":230,"target":"absent","response":"absent","rt":1312.3000000119,"correct":true,"confidence":-1},{"trial_n":4,"min":41,"max":214,"target":"absent","response":"absent","rt":701.5,"correct":true,"confidence":-1},{"trial_n":5,"min":41,"max":214,"target":"present","response":"present","rt":1048.5,"correct":true,"confidence":-1},{"trial_n":6,"min":57,"max":198,"target":"absent","response":"absent","rt":1096.7000000477,"correct":true,"confidence":-1},{"trial_n":7,"min":57,"max":198,"target":"absent","response":"absent","rt":984.10000002384,"correct":true,"confidence":-1},{"trial_n":8,"min":73,"max":182,"target":"absent","response":"absent","rt":659.90000003576,"correct":true,"confidence":-1},{"trial_n":9,"min":73,"max":182,"target":"present","response":"absent","rt":571.80000001192,"correct":false,"confidence":-1},{"trial_n":10,"min":57,"max":198,"target":"present","response":"present","rt":1304.6999999881,"correct":true,"confidence":-1},{"trial_n":11,"min":57,"max":198,"target":"present","response":"present","rt":621.89999997616,"correct":true,"confidence":-1},{"trial_n":12,"min":65,"max":190,"target":"present","response":"present","rt":615.60000002384,"correct":true,"confidence":-1},{"trial_n":13,"min":65,"max":190,"target":"present","response":"present","rt":640.5,"correct":true,"confidence":-1},{"trial_n":14,"min":73,"max":182,"target":"absent","response":"absent","rt":995.19999998808,"correct":true,"confidence":-1},{"trial_n":15,"min":73,"max":182,"target":"absent","response":"absent","rt":642,"correct":true,"confidence":-1},{"trial_n":16,"min":81,"max":174,"target":"present","response":"absent","rt":810.30000001192,"correct":false,"confidence":-1},{"trial_n":17,"min":73,"max":182,"target":"absent","response":"absent","rt":1118,"correct":true,"confidence":-1},{"trial_n":18,"min":73,"max":182,"target":"absent","response":"absent","rt":661.5,"correct":true,"confidence":-1},{"trial_n":19,"min":81,"max":174,"target":"present","response":"present","rt":961.80000001192,"correct":true,"confidence":-1},{"trial_n":20,"min":81,"max":174,"target":"absent","response":"absent","rt":1065.6999999881,"correct":true,"confidence":-1},{"trial_n":21,"min":85,"max":170,"target":"present","response":"absent","rt":1177.1000000238,"correct":false,"confidence":3},{"trial_n":22,"min":81,"max":174,"target":"absent","response":"absent","rt":1098.1000000238,"correct":true,"confidence":3},{"trial_n":23,"min":81,"max":174,"target":"absent","response":"absent","rt":1996.6000000238,"correct":true,"confidence":2},{"trial_n":24,"min":85,"max":170,"target":"absent","response":"absent","rt":1389.4000000358,"correct":true,"confidence":2},{"trial_n":25,"min":85,"max":170,"target":"absent","response":"present","rt":1815.1000000238,"correct":false,"confidence":2},{"trial_n":26,"min":81,"max":174,"target":"present","response":"present","rt":1127,"correct":true,"confidence":4},{"trial_n":27,"min":81,"max":174,"target":"present","response":"present","rt":1059.3999999762,"correct":true,"confidence":4},{"trial_n":28,"min":85,"max":170,"target":"present","response":"present","rt":879,"correct":true,"confidence":4},{"trial_n":29,"min":85,"max":170,"target":"present","response":"present","rt":1989.9000000358,"correct":true,"confidence":3},{"trial_n":30,"min":89,"max":166,"target":"present","response":"present","rt":821.5,"correct":true,"confidence":3},{"trial_n":31,"min":89,"max":166,"target":"absent","response":"absent","rt":1732.3000000119,"correct":true,"confidence":2},{"trial_n":32,"min":91,"max":164,"target":"present","response":"present","rt":1314.1999999881,"correct":true,"confidence":2},{"trial_n":33,"min":91,"max":164,"target":"present","response":"present","rt":806,"correct":true,"confidence":3},{"trial_n":34,"min":93,"max":162,"target":"absent","response":"absent","rt":966.10000002384,"correct":true,"confidence":3},{"trial_n":35,"min":93,"max":162,"target":"present","response":"absent","rt":935.89999997616,"correct":false,"confidence":3},{"trial_n":36,"min":91,"max":164,"target":"present","response":"present","rt":1583.8999999762,"correct":true,"confidence":2},{"trial_n":37,"min":91,"max":164,"target":"present","response":"present","rt":697.69999998808,"correct":true,"confidence":3},{"trial_n":38,"min":93,"max":162,"target":"absent","response":"present","rt":1021,"correct":false,"confidence":3},{"trial_n":39,"min":91,"max":164,"target":"present","response":"absent","rt":1179.1000000238,"correct":false,"confidence":2},{"trial_n":40,"min":89,"max":166,"target":"absent","response":"absent","rt":1945.6000000238,"correct":true,"confidence":2},{"trial_n":41,"min":89,"max":166,"target":"present","response":"absent","rt":1490.5,"correct":false,"confidence":2},{"trial_n":42,"min":88,"max":167,"target":"absent","response":"present","rt":775.40000003576,"correct":false,"confidence":3},{"trial_n":43,"min":87,"max":168,"target":"present","response":"present","rt":1426.8000000119,"correct":true,"confidence":2},{"trial_n":44,"min":87,"max":168,"target":"present","response":"present","rt":745.30000001192,"correct":true,"confidence":4},{"trial_n":45,"min":88,"max":167,"target":"absent","response":"present","rt":882.40000003576,"correct":false,"confidence":2},{"trial_n":46,"min":87,"max":168,"target":"present","response":"absent","rt":1106.1000000238,"correct":false,"confidence":2},{"trial_n":47,"min":86,"max":169,"target":"present","response":"present","rt":839.40000003576,"correct":true,"confidence":3},{"trial_n":48,"min":86,"max":169,"target":"present","response":"present","rt":758.19999998808,"correct":true,"confidence":3},{"trial_n":49,"min":87,"max":168,"target":"absent","response":"absent","rt":828.39999997616,"correct":true,"confidence":2},{"trial_n":50,"min":87,"max":168,"target":"present","response":"absent","rt":990,"correct":false,"confidence":2},{"trial_n":51,"min":86,"max":169,"target":"absent","response":"absent","rt":1595.4000000358,"correct":true,"confidence":2},{"trial_n":52,"min":86,"max":169,"target":"present","response":"absent","rt":1215.3000000119,"correct":false,"confidence":2},{"trial_n":53,"min":85,"max":170,"target":"absent","response":"absent","rt":906.19999998808,"correct":true,"confidence":4},{"trial_n":54,"min":85,"max":170,"target":"present","response":"absent","rt":779.70000004768,"correct":false,"confidence":4},{"trial_n":55,"min":84,"max":171,"target":"present","response":"present","rt":946,"correct":true,"confidence":3},{"trial_n":56,"min":84,"max":171,"target":"absent","response":"absent","rt":1228.6999999881,"correct":true,"confidence":3},{"trial_n":57,"min":85,"max":170,"target":"absent","response":"absent","rt":716.30000001192,"correct":true,"confidence":3},{"trial_n":58,"min":85,"max":170,"target":"absent","response":"absent","rt":1179.8000000119,"correct":true,"confidence":3},{"trial_n":59,"min":86,"max":169,"target":"present","response":"absent","rt":713.40000003576,"correct":false,"confidence":4},{"trial_n":60,"min":85,"max":170,"target":"absent","response":"absent","rt":786.10000002384,"correct":true,"confidence":4},{"trial_n":61,"min":85,"max":170,"target":"absent","response":"absent","rt":842.69999998808,"correct":true,"confidence":3},{"trial_n":62,"min":86,"max":169,"target":"absent","response":"absent","rt":985.69999998808,"correct":true,"confidence":3},{"trial_n":63,"min":86,"max":169,"target":"present","response":"absent","rt":677.5,"correct":false,"confidence":3},{"trial_n":64,"min":85,"max":170,"target":"absent","response":"absent","rt":869,"correct":true,"confidence":4},{"trial_n":65,"min":85,"max":170,"target":"present","response":"present","rt":1317.6999999881,"correct":true,"confidence":3},{"trial_n":66,"min":86,"max":169,"target":"absent","response":"absent","rt":964.90000003576,"correct":true,"confidence":3},{"trial_n":67,"min":86,"max":169,"target":"absent","response":"absent","rt":802.39999997616,"correct":true,"confidence":2},{"trial_n":68,"min":87,"max":168,"target":"absent","response":"absent","rt":748.19999998808,"correct":true,"confidence":2},{"trial_n":69,"min":87,"max":168,"target":"absent","response":"absent","rt":1135.8999999762,"correct":true,"confidence":2},{"trial_n":70,"min":88,"max":167,"target":"present","response":"absent","rt":741,"correct":false,"confidence":2},{"trial_n":71,"min":41,"max":214,"target":"present","response":"present","rt":3993.4000000358,"correct":true,"confidence":-1},{"trial_n":72,"min":41,"max":214,"target":"present","response":"present","rt":609.20000004768,"correct":true,"confidence":-1},{"trial_n":73,"min":57,"max":198,"target":"absent","response":"absent","rt":1005.5999999642,"correct":true,"confidence":-1},{"trial_n":74,"min":57,"max":198,"target":"absent","response":"absent","rt":858.19999998808,"correct":true,"confidence":-1},{"trial_n":75,"min":73,"max":182,"target":"present","response":"present","rt":855.40000003576,"correct":true,"confidence":-1},{"trial_n":76,"min":73,"max":182,"target":"absent","response":"absent","rt":943,"correct":true,"confidence":-1},{"trial_n":77,"min":89,"max":166,"target":"present","response":"present","rt":780.60000002384,"correct":true,"confidence":-1},{"trial_n":78,"min":89,"max":166,"target":"absent","response":"absent","rt":1015.6999999881,"correct":true,"confidence":-1},{"trial_n":79,"min":105,"max":150,"target":"absent","response":"present","rt":716.90000003576,"correct":false,"confidence":-1},{"trial_n":80,"min":89,"max":166,"target":"present","response":"absent","rt":1723.7999999523,"correct":false,"confidence":-1},{"trial_n":81,"min":81,"max":174,"target":"present","response":"present","rt":847.80000001192,"correct":true,"confidence":-1},{"trial_n":82,"min":81,"max":174,"target":"absent","response":"present","rt":819.10000002384,"correct":false,"confidence":-1},{"trial_n":83,"min":73,"max":182,"target":"present","response":"present","rt":811.39999997616,"correct":true,"confidence":-1},{"trial_n":84,"min":73,"max":182,"target":"absent","response":"absent","rt":894.89999997616,"correct":true,"confidence":-1},{"trial_n":85,"min":81,"max":174,"target":"absent","response":"present","rt":1136.3000000119,"correct":false,"confidence":-1},{"trial_n":86,"min":73,"max":182,"target":"absent","response":"absent","rt":1244.6000000238,"correct":true,"confidence":-1},{"trial_n":87,"min":73,"max":182,"target":"absent","response":"absent","rt":696.20000004768,"correct":true,"confidence":-1},{"trial_n":88,"min":81,"max":174,"target":"present","response":"present","rt":897.89999997616,"correct":true,"confidence":-1},{"trial_n":89,"min":81,"max":174,"target":"present","response":"absent","rt":1010.1000000238,"correct":false,"confidence":-1},{"trial_n":90,"min":73,"max":182,"target":"present","response":"present","rt":594.89999997616,"correct":true,"confidence":-1},{"trial_n":91,"min":73,"max":182,"target":"present","response":"present","rt":601.60000002384,"correct":true,"confidence":4},{"trial_n":92,"min":77,"max":178,"target":"present","response":"present","rt":1856.7000000477,"correct":true,"confidence":4},{"trial_n":93,"min":77,"max":178,"target":"absent","response":"absent","rt":879.30000001192,"correct":true,"confidence":4},{"trial_n":94,"min":81,"max":174,"target":"absent","response":"absent","rt":2053.5,"correct":true,"confidence":4},{"trial_n":95,"min":81,"max":174,"target":"absent","response":"present","rt":952.60000002384,"correct":false,"confidence":3},{"trial_n":96,"min":77,"max":178,"target":"present","response":"present","rt":1051.3999999762,"correct":true,"confidence":4},{"trial_n":97,"min":77,"max":178,"target":"present","response":"present","rt":762.19999998808,"correct":true,"confidence":4},{"trial_n":98,"min":81,"max":174,"target":"absent","response":"present","rt":933.80000001192,"correct":false,"confidence":4},{"trial_n":99,"min":77,"max":178,"target":"present","response":"present","rt":931.30000001192,"correct":true,"confidence":4},{"trial_n":100,"min":77,"max":178,"target":"present","response":"present","rt":850.60000002384,"correct":true,"confidence":4},{"trial_n":101,"min":79,"max":176,"target":"absent","response":"present","rt":1071.7000000477,"correct":false,"confidence":3},{"trial_n":102,"min":77,"max":178,"target":"present","response":"present","rt":846.40000003576,"correct":true,"confidence":3},{"trial_n":103,"min":77,"max":178,"target":"absent","response":"absent","rt":1579.4000000358,"correct":true,"confidence":3},{"trial_n":104,"min":79,"max":176,"target":"present","response":"present","rt":915.5,"correct":true,"confidence":3},{"trial_n":105,"min":79,"max":176,"target":"absent","response":"absent","rt":4330.6999999881,"correct":true,"confidence":2},{"trial_n":106,"min":81,"max":174,"target":"present","response":"present","rt":863.60000002384,"correct":true,"confidence":4},{"trial_n":107,"min":81,"max":174,"target":"absent","response":"absent","rt":1363.1000000238,"correct":true,"confidence":2},{"trial_n":108,"min":83,"max":172,"target":"present","response":"present","rt":1153,"correct":true,"confidence":3},{"trial_n":109,"min":83,"max":172,"target":"present","response":"absent","rt":2704.1999999881,"correct":false,"confidence":2},{"trial_n":110,"min":81,"max":174,"target":"present","response":"present","rt":690.80000001192,"correct":true,"confidence":3},{"trial_n":111,"min":81,"max":174,"target":"absent","response":"absent","rt":1385.6999999881,"correct":true,"confidence":3},{"trial_n":112,"min":82,"max":173,"target":"absent","response":"absent","rt":1913.2000000477,"correct":true,"confidence":2},{"trial_n":113,"min":82,"max":173,"target":"present","response":"present","rt":2809.6999999881,"correct":true,"confidence":3},{"trial_n":114,"min":83,"max":172,"target":"present","response":"present","rt":823.19999998808,"correct":true,"confidence":4},{"trial_n":115,"min":83,"max":172,"target":"present","response":"present","rt":736.60000002384,"correct":true,"confidence":4},{"trial_n":116,"min":84,"max":171,"target":"present","response":"present","rt":910.19999998808,"correct":true,"confidence":4},{"trial_n":117,"min":84,"max":171,"target":"absent","response":"present","rt":1060.1000000238,"correct":false,"confidence":4},{"trial_n":118,"min":83,"max":172,"target":"present","response":"present","rt":876.80000001192,"correct":true,"confidence":3},{"trial_n":119,"min":83,"max":172,"target":"absent","response":"present","rt":955.5,"correct":false,"confidence":3},{"trial_n":120,"min":82,"max":173,"target":"present","response":"present","rt":985.10000002384,"correct":true,"confidence":3},{"trial_n":121,"min":82,"max":173,"target":"absent","response":"absent","rt":1690.5999999642,"correct":true,"confidence":3},{"trial_n":122,"min":83,"max":172,"target":"absent","response":"absent","rt":1387.5,"correct":true,"confidence":2},{"trial_n":123,"min":83,"max":172,"target":"present","response":"present","rt":793.59999996424,"correct":true,"confidence":3},{"trial_n":124,"min":84,"max":171,"target":"present","response":"absent","rt":1307.6999999881,"correct":false,"confidence":1},{"trial_n":125,"min":83,"max":172,"target":"absent","response":"absent","rt":1363.9000000358,"correct":true,"confidence":2},{"trial_n":126,"min":83,"max":172,"target":"absent","response":"present","rt":1928.4000000358,"correct":false,"confidence":2},{"trial_n":127,"min":82,"max":173,"target":"present","response":"present","rt":924.69999998808,"correct":true,"confidence":3},{"trial_n":128,"min":82,"max":173,"target":"present","response":"present","rt":858.5,"correct":true,"confidence":3},{"trial_n":129,"min":83,"max":172,"target":"absent","response":"present","rt":894.5,"correct":false,"confidence":1},{"trial_n":130,"min":82,"max":173,"target":"present","response":"present","rt":1143.3000000119,"correct":true,"confidence":3},{"trial_n":131,"min":82,"max":173,"target":"present","response":"present","rt":996.59999996424,"correct":true,"confidence":3},{"trial_n":132,"min":83,"max":172,"target":"absent","response":"present","rt":1228.0999999642,"correct":false,"confidence":3},{"trial_n":133,"min":82,"max":173,"target":"absent","response":"absent","rt":977.90000003576,"correct":true,"confidence":3},{"trial_n":134,"min":82,"max":173,"target":"present","response":"present","rt":812.20000004768,"correct":true,"confidence":3},{"trial_n":135,"min":83,"max":172,"target":"absent","response":"absent","rt":1301.6000000238,"correct":true,"confidence":3},{"trial_n":136,"min":83,"max":172,"target":"absent","response":"absent","rt":1331.4000000358,"correct":true,"confidence":2},{"trial_n":137,"min":84,"max":171,"target":"present","response":"present","rt":1641.7000000477,"correct":true,"confidence":2},{"trial_n":138,"min":84,"max":171,"target":"absent","response":"present","rt":1148.4000000358,"correct":false,"confidence":2},{"trial_n":139,"min":83,"max":172,"target":"absent","response":"present","rt":1010.2999999523,"correct":false,"confidence":2},{"trial_n":140,"min":82,"max":173,"target":"absent","response":"present","rt":1223.3000000119,"correct":false,"confidence":2}]