[{"trial_n":1,"n_dots":4.25,"target":"right","response":"right","rt":91.699999999255,"correct":true,"confidence":-1},{"trial_n":2,"n_dots":4.25,"target":"left","response":"right","rt":33.300000000745,"correct":false,"confidence":-1},{"trial_n":3,"n_dots":4.65,"target":"left","response":"left","rt":317.70000000112,"correct":true,"confidence":-1},{"trial_n":4,"n_dots":4.65,"target":"left","response":"left","rt":243.89999999851,"correct":true,"confidence":-1},{"trial_n":5,"n_dots":4.25,"target":"right","response":"left","rt":513.70000000112,"correct":false,"confidence":-1},{"trial_n":6,"n_dots":4.65,"target":"left","response":"left","rt":1042.5999999996,"correct":true,"confidence":-1},{"trial_n":7,"n_dots":4.65,"target":"left","response":"left","rt":80.5,"correct":true,"confidence":-1},{"trial_n":8,"n_dots":4.45,"target":"left","response":"left","rt":133.69999999925,"correct":true,"confidence":-1},{"trial_n":9,"n_dots":4.45,"target":"left","response":"right","rt":145.70000000112,"correct":false,"confidence":-1},{"trial_n":10,"n_dots":4.65,"target":"left","response":"left","rt":122.29999999888,"correct":true,"confidence":-1},{"trial_n":11,"n_dots":4.65,"target":"right","response":"right","rt":69.5,"correct":true,"confidence":-1},{"trial_n":12,"n_dots":4.45,"target":"right","response":"right","rt":109.40000000037,"correct":true,"confidence":-1},{"trial_n":13,"n_dots":4.45,"target":"right","response":"right","rt":107.20000000112,"correct":true,"confidence":-1},{"trial_n":14,"n_dots":4.35,"target":"right","response":"right","rt":454.40000000037,"correct":true,"confidence":-1},{"trial_n":15,"n_dots":4.35,"target":"left","response":"right","rt":100.30000000075,"correct":false,"confidence":-1},{"trial_n":16,"n_dots":4.45,"target":"left","response":"left","rt":8.5,"correct":true,"confidence":-1},{"trial_n":17,"n_dots":4.45,"target":"right","response":"right","rt":260,"correct":true,"confidence":-1},{"trial_n":18,"n_dots":4.35,"target":"left","response":"left","rt":64.599999999627,"correct":true,"confidence":-1},{"trial_n":19,"n_dots":4.35,"target":"left","response":"left","rt":145.10000000149,"correct":true,"confidence":-1},{"trial_n":20,"n_dots":4.25,"target":"right","response":"right","rt":133.20000000112,"correct":true,"confidence":-1},{"trial_n":21,"n_dots":4.25,"target":"left","response":"left","rt":810.80000000075,"correct":true,"confidence":4},{"trial_n":22,"n_dots":4.15,"target":"left","response":"left","rt":644.39999999851,"correct":true,"confidence":4},{"trial_n":23,"n_dots":4.15,"target":"left","response":"left","rt":749.90000000037,"correct":true,"confidence":4},{"trial_n":24,"n_dots":4.05,"target":"right","response":"right","rt":70.5,"correct":true,"confidence":4},{"trial_n":25,"n_dots":4.05,"target":"right","response":"right","rt":448,"correct":true,"confidence":4},{"trial_n":26,"n_dots":3.95,"target":"right","response":"right","rt":252.70000000112,"correct":true,"confidence":4},{"trial_n":27,"n_dots":3.95,"target":"right","response":"right","rt":241,"correct":true,"confidence":4},{"trial_n":28,"n_dots":3.85,"target":"left","response":"left","rt":64.299999998882,"correct":true,"confidence":4},{"trial_n":29,"n_dots":3.85,"target":"right","response":"right","rt":445.90000000037,"correct":true,"confidence":4},{"trial_n":30,"n_dots":3.75,"target":"right","response":"left","rt":24.5,"correct":false,"confidence":2},{"trial_n":31,"n_dots":3.85,"target":"right","response":"right","rt":260.40000000037,"correct":true,"confidence":4},{"trial_n":32,"n_dots":3.85,"target":"right","response":"left","rt":14.10000000149,"correct":false,"confidence":2},{"trial_n":33,"n_dots":3.95,"target":"left","response":"left","rt":172.40000000037,"correct":true,"confidence":4},{"trial_n":34,"n_dots":3.95,"target":"left","response":"left","rt":122.5,"correct":true,"confidence":4},{"trial_n":35,"n_dots":3.85,"target":"left","response":"left","rt":525.80000000075,"correct":true,"confidence":2},{"trial_n":36,"n_dots":3.85,"target":"right","response":"right","rt":392.80000000075,"correct":true,"confidence":4},{"trial_n":37,"n_dots":3.75,"target":"left","response":"left","rt":449.59999999963,"correct":true,"confidence":4},{"trial_n":38,"n_dots":3.75,"target":"left","response":"left","rt":399.69999999925,"correct":true,"confidence":4},{"trial_n":39,"n_dots":3.65,"target":"right","response":"right","rt":465.5,"correct":true,"confidence":4},{"trial_n":40,"n_dots":3.65,"target":"right","response":"right","rt":330.90000000037,"correct":true,"confidence":3},{"trial_n":41,"n_dots":3.55,"target":"right","response":"right","rt":230.80000000075,"correct":true,"confidence":4},{"trial_n":42,"n_dots":3.55,"target":"right","response":"left","rt":279.59999999963,"correct":false,"confidence":2},{"trial_n":43,"n_dots":3.65,"target":"left","response":"left","rt":100.70000000112,"correct":true,"confidence":3},{"trial_n":44,"n_dots":3.65,"target":"left","response":"right","rt":89.299999998882,"correct":false,"confidence":2},{"trial_n":45,"n_dots":3.75,"target":"right","response":"right","rt":292.5,"correct":true,"confidence":4},{"trial_n":46,"n_dots":3.75,"target":"right","response":"right","rt":186.30000000075,"correct":true,"confidence":4},{"trial_n":47,"n_dots":3.65,"target":"right","response":"right","rt":475.40000000037,"correct":true,"confidence":4},{"trial_n":48,"n_dots":3.65,"target":"left","response":"left","rt":404.19999999925,"correct":true,"confidence":4},{"trial_n":49,"n_dots":3.55,"target":"left","response":"left","rt":328.90000000037,"correct":true,"confidence":4},{"trial_n":50,"n_dots":3.55,"target":"right","response":"left","rt":50.199999999255,"correct":false,"confidence":3},{"trial_n":51,"n_dots":3.65,"target":"right","response":"right","rt":280.90000000037,"correct":true,"confidence":4},{"trial_n":52,"n_dots":3.65,"target":"left","response":"left","rt":245.30000000075,"correct":true,"confidence":4},{"trial_n":53,"n_dots":3.55,"target":"left","response":"left","rt":467,"correct":true,"confidence":4},{"trial_n":54,"n_dots":3.55,"target":"right","response":"right","rt":111.30000000075,"correct":true,"confidence":3},{"trial_n":55,"n_dots":3.45,"target":"right","response":"right","rt":223.90000000037,"correct":true,"confidence":4},{"trial_n":56,"n_dots":3.45,"target":"right","response":"right","rt":661.59999999963,"correct":true,"confidence":4},{"trial_n":57,"n_dots":3.35,"target":"right","response":"left","rt":354.30000000075,"correct":false,"confidence":4},{"trial_n":58,"n_dots":3.45,"target":"left","response":"left","rt":298,"correct":true,"confidence":4},{"trial_n":59,"n_dots":3.45,"target":"left","response":"left","rt":306,"correct":true,"confidence":4},{"trial_n":60,"n_dots":3.35,"target":"left","response":"left","rt":247.39999999851,"correct":true,"confidence":4},{"trial_n":61,"n_dots":3.35,"target":"left","response":"left","rt":413.70000000112,"correct":true,"confidence":4},{"trial_n":62,"n_dots":3.25,"target":"left","response":"left","rt":357.5,"correct":true,"confidence":4},{"trial_n":63,"n_dots":3.25,"target":"left","response":"right","rt":36.200000001118,"correct":false,"confidence":4},{"trial_n":64,"n_dots":3.35,"target":"left","response":"left","rt":340.90000000037,"correct":true,"confidence":4},{"trial_n":65,"n_dots":3.35,"target":"right","response":"right","rt":329.80000000075,"correct":true,"confidence":4},{"trial_n":66,"n_dots":3.25,"target":"right","response":"left","rt":336.19999999925,"correct":false,"confidence":3},{"trial_n":67,"n_dots":3.35,"target":"left","response":"left","rt":283.19999999925,"correct":true,"confidence":4},{"trial_n":68,"n_dots":3.35,"target":"left","response":"left","rt":89.5,"correct":true,"confidence":4},{"trial_n":69,"n_dots":3.25,"target":"right","response":"right","rt":429.69999999925,"correct":true,"confidence":4},{"trial_n":70,"n_dots":3.25,"target":"left","response":"left","rt":280.69999999925,"correct":true,"confidence":2},{"trial_n":71,"n_dots":3.15,"target":"left","response":"left","rt":386,"correct":true,"confidence":4},{"trial_n":72,"n_dots":3.15,"target":"right","response":"right","rt":199.59999999963,"correct":true,"confidence":4},{"trial_n":73,"n_dots":3.05,"target":"right","response":"right","rt":321,"correct":true,"confidence":4},{"trial_n":74,"n_dots":3.05,"target":"left","response":"left","rt":408.5,"correct":true,"confidence":4},{"trial_n":75,"n_dots":2.95,"target":"right","response":"right","rt":243.69999999925,"correct":true,"confidence":4},{"trial_n":76,"n_dots":2.95,"target":"right","response":"right","rt":372,"correct":true,"confidence":4},{"trial_n":77,"n_dots":2.85,"target":"right","response":"right","rt":246.5,"correct":true,"confidence":2},{"trial_n":78,"n_dots":2.85,"target":"right","response":"right","rt":353.10000000149,"correct":true,"confidence":3},{"trial_n":79,"n_dots":2.75,"target":"left","response":"left","rt":288.30000000075,"correct":true,"confidence":4},{"trial_n":80,"n_dots":2.75,"target":"left","response":"right","rt":64.800000000745,"correct":false,"confidence":2},{"trial_n":81,"n_dots":2.85,"target":"left","response":"left","rt":237.80000000075,"correct":true,"confidence":2},{"trial_n":82,"n_dots":2.85,"target":"left","response":"left","rt":127.80000000075,"correct":true,"confidence":4},{"trial_n":83,"n_dots":2.75,"target":"left","response":"left","rt":636.5,"correct":true,"confidence":4},{"trial_n":84,"n_dots":2.75,"target":"right","response":"left","rt":405.40000000037,"correct":false,"confidence":3},{"trial_n":85,"n_dots":2.85,"target":"left","response":"right","rt":353.09999999963,"correct":false,"confidence":3},{"trial_n":86,"n_dots":2.95,"target":"right","response":"left","rt":9.3000000007451,"correct":false,"confidence":2},{"trial_n":87,"n_dots":3.05,"target":"right","response":"right","rt":215.09999999963,"correct":true,"confidence":4},{"trial_n":88,"n_dots":3.05,"target":"right","response":"right","rt":305.69999999925,"correct":true,"confidence":4},{"trial_n":89,"n_dots":2.95,"target":"left","response":"right","rt":391.19999999925,"correct":false,"confidence":3},{"trial_n":90,"n_dots":3.05,"target":"right","response":"right","rt":425.80000000075,"correct":true,"confidence":3},{"trial_n":91,"n_dots":3.05,"target":"left","response":"right","rt":454.60000000149,"correct":false,"confidence":2},{"trial_n":92,"n_dots":3.15,"target":"right","response":"right","rt":446,"correct":true,"confidence":2},{"trial_n":93,"n_dots":3.15,"target":"right","response":"right","rt":404.5,"correct":true,"confidence":4},{"trial_n":94,"n_dots":3.05,"target":"left","response":"right","rt":21.5,"correct":false,"confidence":2},{"trial_n":95,"n_dots":3.15,"target":"right","response":"right","rt":389.80000000075,"correct":true,"confidence":3},{"trial_n":96,"n_dots":3.15,"target":"left","response":"right","rt":42.400000000373,"correct":false,"confidence":1},{"trial_n":97,"n_dots":3.25,"target":"left","response":"left","rt":658.19999999925,"correct":true,"confidence":2},{"trial_n":98,"n_dots":3.25,"target":"right","response":"left","rt":119.69999999925,"correct":false,"confidence":4},{"trial_n":99,"n_dots":3.35,"target":"right","response":"left","rt":314.19999999925,"correct":false,"confidence":1},{"trial_n":100,"n_dots":3.45,"target":"right","response":"left","rt":674.90000000037,"correct":false,"confidence":4},{"trial_n":101,"n_dots":3.55,"target":"right","response":"left","rt":6.3999999985099,"correct":false,"confidence":4},{"trial_n":102,"n_dots":3.65,"target":"right","response":"right","rt":240.40000000037,"correct":true,"confidence":4},{"trial_n":103,"n_dots":3.65,"target":"right","response":"right","rt":272.5,"correct":true,"confidence":3},{"trial_n":104,"n_dots":3.55,"target":"left","response":"right","rt":237.90000000037,"correct":false,"confidence":4},{"trial_n":105,"n_dots":3.65,"target":"right","response":"right","rt":188.59999999963,"correct":true,"confidence":3},{"trial_n":106,"n_dots":3.65,"target":"left","response":"right","rt":234.90000000037,"correct":false,"confidence":3},{"trial_n":107,"n_dots":3.75,"target":"left","response":"left","rt":301.5,"correct":true,"confidence":3},{"trial_n":108,"n_dots":3.75,"target":"left","response":"left","rt":413.69999999925,"correct":true,"confidence":3},{"trial_n":109,"n_dots":3.65,"target":"right","response":"right","rt":344.89999999851,"correct":true,"confidence":4},{"trial_n":110,"n_dots":3.65,"target":"left","response":"left","rt":69.89999999851,"correct":true,"confidence":4},{"trial_n":111,"n_dots":3.55,"target":"left","response":"left","rt":15.799999998882,"correct":true,"confidence":2},{"trial_n":112,"n_dots":3.55,"target":"right","response":"right","rt":375.19999999925,"correct":true,"confidence":3},{"trial_n":113,"n_dots":3.45,"target":"right","response":"right","rt":73.799999998882,"correct":true,"confidence":4},{"trial_n":114,"n_dots":3.45,"target":"left","response":"left","rt":328.5,"correct":true,"confidence":3},{"trial_n":115,"n_dots":3.35,"target":"right","response":"left","rt":4.2000000011176,"correct":false,"confidence":3},{"trial_n":116,"n_dots":3.45,"target":"right","response":"right","rt":377.30000000075,"correct":true,"confidence":3},{"trial_n":117,"n_dots":3.45,"target":"left","response":"right","rt":40.099999999627,"correct":false,"confidence":1},{"trial_n":118,"n_dots":3.55,"target":"left","response":"left","rt":43.89999999851,"correct":true,"confidence":1},{"trial_n":119,"n_dots":3.55,"target":"right","response":"left","rt":108.19999999925,"correct":false,"confidence":1},{"trial_n":120,"n_dots":3.65,"target":"left","response":"left","rt":392.40000000037,"correct":true,"confidence":4}]