[{"trial_n":1,"span":8,"encoder":"28627983","distractor":"25627983","target":"present","response":"absent","rt":"12042.800000012","correct":false,"confidence":-1},{"trial_n":2,"span":6,"encoder":"621326","distractor":"621336","target":"present","response":"present","rt":"2831","correct":true,"confidence":-1},{"trial_n":3,"span":6,"encoder":"591475","distractor":"591476","target":"absent","response":"absent","rt":"5374.1000000238","correct":true,"confidence":-1},{"trial_n":4,"span":8,"encoder":"96250749","distractor":"16250749","target":"absent","response":"present","rt":"5250.4000000358","correct":false,"confidence":-1},{"trial_n":5,"span":6,"encoder":"696502","distractor":"696503","target":"present","response":"present","rt":"2905.7000000477","correct":true,"confidence":-1},{"trial_n":6,"span":6,"encoder":"349992","distractor":"949992","target":"absent","response":"absent","rt":"4238.6000000238","correct":true,"confidence":-1},{"trial_n":7,"span":8,"encoder":"89283484","distractor":"89283454","target":"absent","response":"present","rt":"3578.6999999881","correct":false,"confidence":-1},{"trial_n":8,"span":6,"encoder":"297684","distractor":"277684","target":"absent","response":"absent","rt":"2129.5999999642","correct":true,"confidence":-1},{"trial_n":9,"span":6,"encoder":"620046","distractor":"620076","target":"present","response":"present","rt":"2118.2999999523","correct":true,"confidence":-1},{"trial_n":10,"span":8,"encoder":"56606861","distractor":"56606961","target":"absent","response":"absent","rt":"3607.7000000477","correct":true,"confidence":-1},{"trial_n":11,"span":8,"encoder":"12446686","distractor":"72446686","target":"present","response":"present","rt":"3008.9000000358","correct":true,"confidence":-1},{"trial_n":12,"span":9,"encoder":"065461805","distractor":"045461805","target":"absent","response":"present","rt":"5079","correct":false,"confidence":-1},{"trial_n":13,"span":8,"encoder":"51906850","distractor":"51906851","target":"absent","response":"absent","rt":"2234.9000000358","correct":true,"confidence":-1},{"trial_n":14,"span":8,"encoder":"10887377","distractor":"10887387","target":"present","response":"present","rt":"4210.1999999881","correct":true,"confidence":-1},{"trial_n":15,"span":9,"encoder":"882668014","distractor":"882668514","target":"absent","response":"present","rt":"4457.0999999642","correct":false,"confidence":-1},{"trial_n":16,"span":8,"encoder":"00959958","distractor":"00959928","target":"absent","response":"absent","rt":"7092.1000000238","correct":true,"confidence":-1},{"trial_n":17,"span":8,"encoder":"53747495","distractor":"54747495","target":"present","response":"present","rt":"4892.1999999881","correct":true,"confidence":-1},{"trial_n":18,"span":9,"encoder":"089228202","distractor":"089268202","target":"absent","response":"present","rt":"2713.7999999523","correct":false,"confidence":-1},{"trial_n":19,"span":8,"encoder":"25516820","distractor":"25516822","target":"absent","response":"absent","rt":"3101","correct":true,"confidence":-1},{"trial_n":20,"span":8,"encoder":"19997053","distractor":"19947053","target":"present","response":"present","rt":"1967.0999999642","correct":true,"confidence":-1},{"trial_n":21,"span":9,"encoder":"844083055","distractor":"844083065","target":"absent","response":"absent","rt":"5108.1999999881","correct":true,"confidence":3},{"trial_n":22,"span":9,"encoder":"531847658","distractor":"531847698","target":"absent","response":"absent","rt":"2457.6999999881","correct":true,"confidence":4},{"trial_n":23,"span":10,"encoder":"1267911595","distractor":"1567911595","target":"present","response":"present","rt":"6068.3000000119","correct":true,"confidence":3},{"trial_n":24,"span":10,"encoder":"6160697425","distractor":"6160697445","target":"present","response":"present","rt":"5436.5","correct":true,"confidence":4},{"trial_n":25,"span":11,"encoder":"15811811056","distractor":"15811311056","target":"absent","response":"absent","rt":"6819.6000000238","correct":true,"confidence":3},{"trial_n":26,"span":11,"encoder":"01140667028","distractor":"01140665028","target":"absent","response":"absent","rt":"10158.900000036","correct":true,"confidence":2},{"trial_n":27,"span":12,"encoder":"828283073061","distractor":"828283073261","target":"present","response":"present","rt":"6922.9000000358","correct":true,"confidence":2},{"trial_n":28,"span":12,"encoder":"839884107308","distractor":"539884107308","target":"present","response":"present","rt":"6116.9000000358","correct":true,"confidence":2},{"trial_n":29,"span":13,"encoder":"0475053917013","distractor":"0475093917013","target":"present","response":"present","rt":"7550.0999999642","correct":true,"confidence":3},{"trial_n":30,"span":13,"encoder":"4625855852835","distractor":"4625835852835","target":"present","response":"absent","rt":"24432","correct":false,"confidence":2},{"trial_n":31,"span":12,"encoder":"304338229263","distractor":"304338229243","target":"present","response":"present","rt":"5766.6999999881","correct":true,"confidence":3},{"trial_n":32,"span":12,"encoder":"200198258032","distractor":"200190258032","target":"absent","response":"present","rt":"1947.5","correct":false,"confidence":2},{"trial_n":33,"span":11,"encoder":"39529708599","distractor":"39529708519","target":"absent","response":"absent","rt":"2493.9000000358","correct":true,"confidence":3},{"trial_n":34,"span":11,"encoder":"21690685731","distractor":"21690285731","target":"absent","response":"present","rt":"5796","correct":false,"confidence":3},{"trial_n":35,"span":10,"encoder":"4219803706","distractor":"4419803706","target":"absent","response":"present","rt":"12786.600000024","correct":false,"confidence":2},{"trial_n":36,"span":9,"encoder":"159415892","distractor":"159416892","target":"present","response":"present","rt":"5634","correct":true,"confidence":3},{"trial_n":37,"span":9,"encoder":"215284672","distractor":"215184672","target":"absent","response":"present","rt":"6202.8999999762","correct":false,"confidence":3},{"trial_n":38,"span":8,"encoder":"55374305","distractor":"55374205","target":"absent","response":"absent","rt":"195780.5","correct":true,"confidence":1},{"trial_n":39,"span":8,"encoder":"77226151","distractor":"74226151","target":"absent","response":"present","rt":"4425.6999999881","correct":false,"confidence":3},{"trial_n":40,"span":7,"encoder":"4918089","distractor":"4918689","target":"absent","response":"absent","rt":"2742","correct":true,"confidence":4},{"trial_n":41,"span":7,"encoder":"4425841","distractor":"4425846","target":"present","response":"present","rt":"4781.5","correct":true,"confidence":3},{"trial_n":42,"span":8,"encoder":"90401311","distractor":"90801311","target":"absent","response":"present","rt":"2940","correct":false,"confidence":3},{"trial_n":43,"span":7,"encoder":"5655995","distractor":"5656995","target":"present","response":"present","rt":"3381","correct":true,"confidence":4},{"trial_n":44,"span":7,"encoder":"7198009","distractor":"7198089","target":"absent","response":"absent","rt":"2270.3999999762","correct":true,"confidence":4},{"trial_n":45,"span":8,"encoder":"73520126","distractor":"83520126","target":"present","response":"present","rt":"7897.1999999881","correct":true,"confidence":4},{"trial_n":46,"span":8,"encoder":"94294028","distractor":"44294028","target":"present","response":"present","rt":"6889.3000000119","correct":true,"confidence":4},{"trial_n":47,"span":9,"encoder":"190541954","distractor":"790541954","target":"present","response":"present","rt":"4576.4000000358","correct":true,"confidence":4},{"trial_n":48,"span":9,"encoder":"309561433","distractor":"309541433","target":"present","response":"present","rt":"7396.8000000119","correct":true,"confidence":3},{"trial_n":49,"span":10,"encoder":"0686840053","distractor":"0626840053","target":"present","response":"present","rt":"5343.2999999523","correct":true,"confidence":4},{"trial_n":50,"span":10,"encoder":"0844991205","distractor":"0844991200","target":"present","response":"present","rt":"3691.3999999762","correct":true,"confidence":2},{"trial_n":51,"span":11,"encoder":"07563931789","distractor":"07563938789","target":"present","response":"present","rt":"7092.1000000238","correct":true,"confidence":3},{"trial_n":52,"span":11,"encoder":"61353525317","distractor":"61353525313","target":"absent","response":"absent","rt":"2439.5","correct":true,"confidence":5},{"trial_n":53,"span":12,"encoder":"597628065448","distractor":"597628065848","target":"absent","response":"absent","rt":"2008.4000000358","correct":true,"confidence":4},{"trial_n":54,"span":12,"encoder":"069662144761","distractor":"069672144761","target":"present","response":"present","rt":"4785","correct":true,"confidence":2},{"trial_n":55,"span":13,"encoder":"8439418550760","distractor":"8439418550765","target":"present","response":"absent","rt":"9152.5999999642","correct":false,"confidence":3},{"trial_n":56,"span":12,"encoder":"782005561301","distractor":"782005561305","target":"present","response":"absent","rt":"11493.400000036","correct":false,"confidence":3},{"trial_n":57,"span":11,"encoder":"43356217536","distractor":"43356917536","target":"absent","response":"present","rt":"5788.1000000238","correct":false,"confidence":3},{"trial_n":58,"span":10,"encoder":"4066360661","distractor":"4066360621","target":"present","response":"present","rt":"4640.6999999881","correct":true,"confidence":4},{"trial_n":59,"span":10,"encoder":"2818344124","distractor":"2418344124","target":"present","response":"present","rt":"4831.3000000119","correct":true,"confidence":4},{"trial_n":60,"span":11,"encoder":"32573242788","distractor":"32573242688","target":"absent","response":"present","rt":"6610.6999999881","correct":false,"confidence":3},{"trial_n":61,"span":10,"encoder":"2537434396","distractor":"2537734396","target":"present","response":"present","rt":"12827.400000036","correct":true,"confidence":2},{"trial_n":62,"span":10,"encoder":"8787110268","distractor":"8787110668","target":"present","response":"absent","rt":"6464.3000000119","correct":false,"confidence":3},{"trial_n":63,"span":9,"encoder":"359411660","distractor":"359411060","target":"present","response":"absent","rt":"15411.899999976","correct":false,"confidence":2},{"trial_n":64,"span":8,"encoder":"31855680","distractor":"31855686","target":"present","response":"absent","rt":"6670.6999999881","correct":false,"confidence":3},{"trial_n":65,"span":7,"encoder":"9469149","distractor":"9569149","target":"absent","response":"present","rt":"4645","correct":false,"confidence":3},{"trial_n":66,"span":6,"encoder":"540393","distractor":"540343","target":"absent","response":"absent","rt":"3231","correct":true,"confidence":5},{"trial_n":67,"span":6,"encoder":"163002","distractor":"163082","target":"present","response":"present","rt":"2513.1000000238","correct":true,"confidence":5},{"trial_n":68,"span":7,"encoder":"3028008","distractor":"3058008","target":"absent","response":"absent","rt":"3608.5","correct":true,"confidence":3},{"trial_n":69,"span":7,"encoder":"9082217","distractor":"5082217","target":"present","response":"present","rt":"3318.6999999881","correct":true,"confidence":5},{"trial_n":70,"span":8,"encoder":"23897227","distractor":"23397227","target":"absent","response":"absent","rt":"7314.3000000119","correct":true,"confidence":3},{"trial_n":71,"span":8,"encoder":"15796215","distractor":"15799215","target":"present","response":"present","rt":"5905.3999999762","correct":true,"confidence":-1},{"trial_n":72,"span":8,"encoder":"83040087","distractor":"83040987","target":"present","response":"present","rt":"2247.5","correct":true,"confidence":-1},{"trial_n":73,"span":9,"encoder":"433832735","distractor":"433132735","target":"absent","response":"absent","rt":"5831.1999999881","correct":true,"confidence":-1},{"trial_n":74,"span":9,"encoder":"723365384","distractor":"723365386","target":"absent","response":"absent","rt":"10586.400000036","correct":true,"confidence":-1},{"trial_n":75,"span":10,"encoder":"3206347569","distractor":"3206747569","target":"present","response":"absent","rt":"12492.100000024","correct":false,"confidence":-1},{"trial_n":76,"span":9,"encoder":"823105393","distractor":"823605393","target":"absent","response":"absent","rt":"4578.7000000477","correct":true,"confidence":-1},{"trial_n":77,"span":9,"encoder":"925803427","distractor":"905803427","target":"present","response":"absent","rt":"64668.300000012","correct":false,"confidence":-1},{"trial_n":78,"span":8,"encoder":"72654121","distractor":"72604121","target":"absent","response":"absent","rt":"4403","correct":true,"confidence":-1},{"trial_n":79,"span":8,"encoder":"23471366","distractor":"23471316","target":"absent","response":"absent","rt":"2048.6999999881","correct":true,"confidence":-1},{"trial_n":80,"span":9,"encoder":"146705715","distractor":"144705715","target":"present","response":"absent","rt":"12172.5","correct":false,"confidence":-1},{"trial_n":81,"span":8,"encoder":"83911258","distractor":"83911218","target":"present","response":"absent","rt":"3428.1999999881","correct":false,"confidence":-1},{"trial_n":82,"span":7,"encoder":"5604814","distractor":"0604814","target":"present","response":"absent","rt":"22484.299999952","correct":false,"confidence":-1},{"trial_n":83,"span":6,"encoder":"848740","distractor":"841740","target":"absent","response":"absent","rt":"5747.0999999642","correct":true,"confidence":-1},{"trial_n":84,"span":6,"encoder":"357212","distractor":"352212","target":"absent","response":"absent","rt":"4468.1999999881","correct":true,"confidence":-1},{"trial_n":85,"span":7,"encoder":"1953865","distractor":"1951865","target":"absent","response":"absent","rt":"4477.2000000477","correct":true,"confidence":-1},{"trial_n":86,"span":7,"encoder":"5837651","distractor":"1837651","target":"absent","response":"present","rt":"2300.6000000238","correct":false,"confidence":-1},{"trial_n":87,"span":6,"encoder":"772066","distractor":"772006","target":"present","response":"present","rt":"4910.7999999523","correct":true,"confidence":-1},{"trial_n":88,"span":6,"encoder":"411954","distractor":"414954","target":"absent","response":"absent","rt":"3894.6999999881","correct":true,"confidence":-1},{"trial_n":89,"span":7,"encoder":"3870761","distractor":"6870761","target":"present","response":"present","rt":"5500","correct":true,"confidence":-1},{"trial_n":90,"span":7,"encoder":"9190092","distractor":"0190092","target":"present","response":"present","rt":"3900.7999999523","correct":true,"confidence":-1},{"trial_n":91,"span":8,"encoder":"67098263","distractor":"67698263","target":"absent","response":"absent","rt":"4133.3999999762","correct":true,"confidence":4},{"trial_n":92,"span":8,"encoder":"62992875","distractor":"12992875","target":"absent","response":"absent","rt":"8387","correct":true,"confidence":4},{"trial_n":93,"span":9,"encoder":"278840323","distractor":"277840323","target":"present","response":"present","rt":"3962.8000000119","correct":true,"confidence":4},{"trial_n":94,"span":9,"encoder":"750244118","distractor":"350244118","target":"present","response":"present","rt":"8462","correct":true,"confidence":4},{"trial_n":95,"span":10,"encoder":"9081207020","distractor":"9681207020","target":"absent","response":"absent","rt":"10129","correct":true,"confidence":4},{"trial_n":96,"span":10,"encoder":"1042302405","distractor":"1042302408","target":"absent","response":"absent","rt":"2087.7000000477","correct":true,"confidence":3},{"trial_n":97,"span":11,"encoder":"82718955489","distractor":"82788955489","target":"absent","response":"present","rt":"1276.7999999523","correct":false,"confidence":2},{"trial_n":98,"span":10,"encoder":"1797824228","distractor":"1197824228","target":"absent","response":"absent","rt":"8972.4000000358","correct":true,"confidence":3},{"trial_n":99,"span":10,"encoder":"8833333484","distractor":"8833333784","target":"present","response":"absent","rt":"4738","correct":false,"confidence":3},{"trial_n":100,"span":9,"encoder":"192244246","distractor":"192245246","target":"absent","response":"absent","rt":"4639.1999999881","correct":true,"confidence":4},{"trial_n":101,"span":9,"encoder":"056173760","distractor":"056173730","target":"present","response":"present","rt":"18251.699999988","correct":true,"confidence":3},{"trial_n":102,"span":10,"encoder":"0347736346","distractor":"0347336346","target":"present","response":"present","rt":"2352.1999999881","correct":true,"confidence":4},{"trial_n":103,"span":10,"encoder":"3775259073","distractor":"3775259078","target":"absent","response":"absent","rt":"3676.3000000119","correct":true,"confidence":4},{"trial_n":104,"span":11,"encoder":"50041589213","distractor":"50041569213","target":"present","response":"absent","rt":"85031.899999976","correct":false,"confidence":2},{"trial_n":105,"span":10,"encoder":"4907995676","distractor":"4907995666","target":"present","response":"present","rt":"2330.7999999523","correct":true,"confidence":4},{"trial_n":106,"span":10,"encoder":"6024993649","distractor":"6044993649","target":"present","response":"present","rt":"7158.8999999762","correct":true,"confidence":3},{"trial_n":107,"span":11,"encoder":"47234283400","distractor":"47294283400","target":"present","response":"absent","rt":"9141.6999999881","correct":false,"confidence":2},{"trial_n":108,"span":10,"encoder":"6261852829","distractor":"6261859829","target":"absent","response":"present","rt":"11092.800000012","correct":false,"confidence":2},{"trial_n":109,"span":9,"encoder":"218551695","distractor":"218551625","target":"absent","response":"absent","rt":"3525.8999999762","correct":true,"confidence":4},{"trial_n":110,"span":9,"encoder":"417240693","distractor":"417240696","target":"absent","response":"absent","rt":"1997.7000000477","correct":true,"confidence":5},{"trial_n":111,"span":10,"encoder":"1837923273","distractor":"1867923273","target":"absent","response":"absent","rt":"7564.5","correct":true,"confidence":3},{"trial_n":112,"span":10,"encoder":"9455937781","distractor":"9055937781","target":"present","response":"absent","rt":"7923.3999999762","correct":false,"confidence":2},{"trial_n":113,"span":9,"encoder":"259275061","distractor":"259235061","target":"present","response":"present","rt":"6430.8000000119","correct":true,"confidence":2},{"trial_n":114,"span":9,"encoder":"982060232","distractor":"982760232","target":"absent","response":"present","rt":"8497.6999999881","correct":false,"confidence":3},{"trial_n":115,"span":8,"encoder":"17962618","distractor":"17967618","target":"absent","response":"absent","rt":"3155.7999999523","correct":true,"confidence":3},{"trial_n":116,"span":8,"encoder":"63937113","distractor":"63937133","target":"absent","response":"absent","rt":"2899.1999999881","correct":true,"confidence":4},{"trial_n":117,"span":9,"encoder":"009057576","distractor":"009053576","target":"present","response":"present","rt":"5179.8999999762","correct":true,"confidence":2},{"trial_n":118,"span":9,"encoder":"964085910","distractor":"964015910","target":"present","response":"present","rt":"3976.0999999642","correct":true,"confidence":3},{"trial_n":119,"span":10,"encoder":"9639090866","distractor":"9539090866","target":"absent","response":"present","rt":"8682.6999999881","correct":false,"confidence":2},{"trial_n":120,"span":9,"encoder":"604930535","distractor":"634930535","target":"present","response":"present","rt":"8303.3000000119","correct":true,"confidence":3},{"trial_n":121,"span":9,"encoder":"202179513","distractor":"212179513","target":"absent","response":"present","rt":"7899.6000000238","correct":false,"confidence":2},{"trial_n":122,"span":8,"encoder":"08052406","distractor":"08052407","target":"present","response":"present","rt":"2513","correct":true,"confidence":4},{"trial_n":123,"span":8,"encoder":"07334786","distractor":"07034786","target":"present","response":"present","rt":"3047.1999999881","correct":true,"confidence":4},{"trial_n":124,"span":9,"encoder":"096954668","distractor":"096954698","target":"present","response":"present","rt":"2282.7999999523","correct":true,"confidence":4},{"trial_n":125,"span":9,"encoder":"871375948","distractor":"871379948","target":"present","response":"absent","rt":"229975.5","correct":false,"confidence":2},{"trial_n":126,"span":8,"encoder":"22330617","distractor":"22339617","target":"absent","response":"absent","rt":"4148.9000000358","correct":true,"confidence":3},{"trial_n":127,"span":8,"encoder":"72418880","distractor":"72418885","target":"absent","response":"absent","rt":"2551.8000000119","correct":true,"confidence":3},{"trial_n":128,"span":9,"encoder":"970764546","distractor":"970964546","target":"present","response":"absent","rt":"5230.3000000119","correct":false,"confidence":2},{"trial_n":129,"span":8,"encoder":"77155607","distractor":"77155107","target":"present","response":"present","rt":"5330.7999999523","correct":true,"confidence":4},{"trial_n":130,"span":8,"encoder":"55340922","distractor":"55440922","target":"absent","response":"absent","rt":"3350.5","correct":true,"confidence":3},{"trial_n":131,"span":9,"encoder":"751143308","distractor":"751143348","target":"present","response":"present","rt":"4335.5","correct":true,"confidence":3},{"trial_n":132,"span":9,"encoder":"723107217","distractor":"723104217","target":"absent","response":"absent","rt":"4023.8999999762","correct":true,"confidence":2},{"trial_n":133,"span":10,"encoder":"2235206476","distractor":"2235266476","target":"present","response":"present","rt":"8738","correct":true,"confidence":2},{"trial_n":134,"span":10,"encoder":"2485131403","distractor":"2485131463","target":"present","response":"present","rt":"5961.1000000238","correct":true,"confidence":2},{"trial_n":135,"span":11,"encoder":"99943545395","distractor":"99983545395","target":"absent","response":"absent","rt":"9755.5999999642","correct":true,"confidence":2},{"trial_n":136,"span":11,"encoder":"76624926926","distractor":"76604926926","target":"absent","response":"present","rt":"6940.1000000238","correct":false,"confidence":2},{"trial_n":137,"span":10,"encoder":"1196901781","distractor":"1196201781","target":"present","response":"present","rt":"2525.6000000238","correct":true,"confidence":3},{"trial_n":138,"span":10,"encoder":"2476121181","distractor":"2476121281","target":"present","response":"present","rt":"2162.1000000238","correct":true,"confidence":3},{"trial_n":139,"span":11,"encoder":"22502039692","distractor":"22502039662","target":"absent","response":"absent","rt":"7509","correct":true,"confidence":2},{"trial_n":140,"span":11,"encoder":"94760662212","distractor":"94760662219","target":"present","response":"present","rt":"3495.8999999762","correct":true,"confidence":3}]