[{"trial_n":1,"n_dots":4.25,"target":"left","response":"left","rt":1034.7999999523,"correct":true,"confidence":-1},{"trial_n":2,"n_dots":4.25,"target":"left","response":"left","rt":922.19999998808,"correct":true,"confidence":-1},{"trial_n":3,"n_dots":3.85,"target":"left","response":"right","rt":1115.8000000119,"correct":false,"confidence":-1},{"trial_n":4,"n_dots":4.25,"target":"right","response":"left","rt":686.59999996424,"correct":false,"confidence":-1},{"trial_n":5,"n_dots":4.65,"target":"left","response":"left","rt":868.90000003576,"correct":true,"confidence":-1},{"trial_n":6,"n_dots":4.65,"target":"right","response":"left","rt":2786.1000000238,"correct":false,"confidence":-1},{"trial_n":7,"n_dots":5.05,"target":"right","response":"left","rt":1437.3999999762,"correct":false,"confidence":-1},{"trial_n":8,"n_dots":5.25,"target":"right","response":"right","rt":487.59999996424,"correct":true,"confidence":-1},{"trial_n":9,"n_dots":5.25,"target":"right","response":"right","rt":434.80000001192,"correct":true,"confidence":-1},{"trial_n":10,"n_dots":5.05,"target":"right","response":"right","rt":49.099999964237,"correct":true,"confidence":-1},{"trial_n":11,"n_dots":5.05,"target":"left","response":"left","rt":391.69999998808,"correct":true,"confidence":-1},{"trial_n":12,"n_dots":4.85,"target":"right","response":"right","rt":427.80000001192,"correct":true,"confidence":-1},{"trial_n":13,"n_dots":4.85,"target":"left","response":"left","rt":494.30000001192,"correct":true,"confidence":-1},{"trial_n":14,"n_dots":4.75,"target":"right","response":"right","rt":250.30000001192,"correct":true,"confidence":-1},{"trial_n":15,"n_dots":4.75,"target":"left","response":"right","rt":432.30000001192,"correct":false,"confidence":-1},{"trial_n":16,"n_dots":4.85,"target":"left","response":"left","rt":389.60000002384,"correct":true,"confidence":-1},{"trial_n":17,"n_dots":4.85,"target":"left","response":"left","rt":115.69999998808,"correct":true,"confidence":-1},{"trial_n":18,"n_dots":4.75,"target":"right","response":"right","rt":251.69999998808,"correct":true,"confidence":-1},{"trial_n":19,"n_dots":4.75,"target":"right","response":"right","rt":188.60000002384,"correct":true,"confidence":-1},{"trial_n":20,"n_dots":4.65,"target":"right","response":"right","rt":2063.6999999881,"correct":true,"confidence":-1},{"trial_n":21,"n_dots":4.65,"target":"right","response":"right","rt":317.5,"correct":true,"confidence":4},{"trial_n":22,"n_dots":4.55,"target":"left","response":"left","rt":437.80000001192,"correct":true,"confidence":4},{"trial_n":23,"n_dots":4.55,"target":"right","response":"right","rt":580.60000002384,"correct":true,"confidence":3},{"trial_n":24,"n_dots":4.45,"target":"left","response":"left","rt":485.80000001192,"correct":true,"confidence":3},{"trial_n":25,"n_dots":4.45,"target":"left","response":"left","rt":703.30000001192,"correct":true,"confidence":4},{"trial_n":26,"n_dots":4.35,"target":"left","response":"left","rt":545.19999998808,"correct":true,"confidence":4},{"trial_n":27,"n_dots":4.35,"target":"right","response":"right","rt":720.70000004768,"correct":true,"confidence":4},{"trial_n":28,"n_dots":4.25,"target":"right","response":"right","rt":846,"correct":true,"confidence":4},{"trial_n":29,"n_dots":4.25,"target":"left","response":"left","rt":528.5,"correct":true,"confidence":4},{"trial_n":30,"n_dots":4.15,"target":"left","response":"left","rt":784.30000001192,"correct":true,"confidence":4},{"trial_n":31,"n_dots":4.15,"target":"right","response":"right","rt":785.30000001192,"correct":true,"confidence":4},{"trial_n":32,"n_dots":4.05,"target":"left","response":"left","rt":992.80000001192,"correct":true,"confidence":4},{"trial_n":33,"n_dots":4.05,"target":"right","response":"right","rt":460.30000001192,"correct":true,"confidence":4},{"trial_n":34,"n_dots":3.95,"target":"left","response":"left","rt":796.69999998808,"correct":true,"confidence":3},{"trial_n":35,"n_dots":3.95,"target":"left","response":"left","rt":786.5,"correct":true,"confidence":3},{"trial_n":36,"n_dots":3.85,"target":"left","response":"right","rt":995.09999996424,"correct":false,"confidence":2},{"trial_n":37,"n_dots":3.95,"target":"left","response":"left","rt":718.40000003576,"correct":true,"confidence":2},{"trial_n":38,"n_dots":3.95,"target":"left","response":"left","rt":672.80000001192,"correct":true,"confidence":3},{"trial_n":39,"n_dots":3.85,"target":"left","response":"right","rt":738.90000003576,"correct":false,"confidence":2},{"trial_n":40,"n_dots":3.95,"target":"right","response":"right","rt":1154.8000000119,"correct":true,"confidence":3},{"trial_n":41,"n_dots":3.95,"target":"right","response":"right","rt":314.39999997616,"correct":true,"confidence":4},{"trial_n":42,"n_dots":3.85,"target":"right","response":"right","rt":387,"correct":true,"confidence":4},{"trial_n":43,"n_dots":3.85,"target":"right","response":"right","rt":365.10000002384,"correct":true,"confidence":4},{"trial_n":44,"n_dots":3.75,"target":"right","response":"right","rt":84.699999988079,"correct":true,"confidence":4},{"trial_n":45,"n_dots":3.75,"target":"left","response":"right","rt":268.69999998808,"correct":false,"confidence":4},{"trial_n":46,"n_dots":3.85,"target":"left","response":"left","rt":438.60000002384,"correct":true,"confidence":4},{"trial_n":47,"n_dots":3.85,"target":"right","response":"right","rt":423,"correct":true,"confidence":4},{"trial_n":48,"n_dots":3.75,"target":"right","response":"right","rt":352.90000003576,"correct":true,"confidence":4},{"trial_n":49,"n_dots":3.75,"target":"left","response":"right","rt":764.10000002384,"correct":false,"confidence":4},{"trial_n":50,"n_dots":3.85,"target":"right","response":"right","rt":319,"correct":true,"confidence":4},{"trial_n":51,"n_dots":3.85,"target":"right","response":"right","rt":65.100000023842,"correct":true,"confidence":4},{"trial_n":52,"n_dots":3.75,"target":"left","response":"left","rt":393.69999998808,"correct":true,"confidence":3},{"trial_n":53,"n_dots":3.75,"target":"right","response":"right","rt":422.69999998808,"correct":true,"confidence":3},{"trial_n":54,"n_dots":3.65,"target":"right","response":"right","rt":598,"correct":true,"confidence":3},{"trial_n":55,"n_dots":3.65,"target":"left","response":"right","rt":16.599999964237,"correct":false,"confidence":3},{"trial_n":56,"n_dots":3.75,"target":"right","response":"right","rt":1599.5,"correct":true,"confidence":4},{"trial_n":57,"n_dots":3.75,"target":"left","response":"left","rt":362.69999998808,"correct":true,"confidence":3},{"trial_n":58,"n_dots":3.65,"target":"left","response":"left","rt":456,"correct":true,"confidence":3},{"trial_n":59,"n_dots":3.65,"target":"right","response":"right","rt":713.80000001192,"correct":true,"confidence":3},{"trial_n":60,"n_dots":3.55,"target":"right","response":"right","rt":714.80000001192,"correct":true,"confidence":3},{"trial_n":61,"n_dots":3.55,"target":"right","response":"right","rt":130,"correct":true,"confidence":3},{"trial_n":62,"n_dots":3.45,"target":"right","response":"right","rt":464.39999997616,"correct":true,"confidence":3},{"trial_n":63,"n_dots":3.45,"target":"left","response":"right","rt":289.10000002384,"correct":false,"confidence":3},{"trial_n":64,"n_dots":3.55,"target":"left","response":"left","rt":567.69999998808,"correct":true,"confidence":3},{"trial_n":65,"n_dots":3.55,"target":"left","response":"left","rt":258.5,"correct":true,"confidence":3},{"trial_n":66,"n_dots":3.45,"target":"left","response":"right","rt":311.80000001192,"correct":false,"confidence":3},{"trial_n":67,"n_dots":3.55,"target":"left","response":"right","rt":268.19999998808,"correct":false,"confidence":3},{"trial_n":68,"n_dots":3.65,"target":"right","response":"right","rt":153.19999998808,"correct":true,"confidence":3},{"trial_n":69,"n_dots":3.65,"target":"left","response":"left","rt":554.10000002384,"correct":true,"confidence":3},{"trial_n":70,"n_dots":3.55,"target":"left","response":"left","rt":664.5,"correct":true,"confidence":3},{"trial_n":71,"n_dots":3.55,"target":"left","response":"left","rt":454.09999996424,"correct":true,"confidence":3},{"trial_n":72,"n_dots":3.45,"target":"right","response":"right","rt":353.09999996424,"correct":true,"confidence":3},{"trial_n":73,"n_dots":3.45,"target":"right","response":"right","rt":242.59999996424,"correct":true,"confidence":3},{"trial_n":74,"n_dots":3.35,"target":"left","response":"right","rt":145.39999997616,"correct":false,"confidence":3},{"trial_n":75,"n_dots":3.45,"target":"right","response":"right","rt":225.89999997616,"correct":true,"confidence":3},{"trial_n":76,"n_dots":3.45,"target":"left","response":"right","rt":213.40000003576,"correct":false,"confidence":3},{"trial_n":77,"n_dots":3.55,"target":"right","response":"right","rt":56.800000011921,"correct":true,"confidence":3},{"trial_n":78,"n_dots":3.55,"target":"left","response":"left","rt":678.19999998808,"correct":true,"confidence":3},{"trial_n":79,"n_dots":3.45,"target":"right","response":"right","rt":194.70000004768,"correct":true,"confidence":3},{"trial_n":80,"n_dots":3.45,"target":"right","response":"right","rt":638.19999998808,"correct":true,"confidence":3},{"trial_n":81,"n_dots":3.35,"target":"right","response":"right","rt":252.80000001192,"correct":true,"confidence":3},{"trial_n":82,"n_dots":3.35,"target":"left","response":"right","rt":1082.3999999762,"correct":false,"confidence":2},{"trial_n":83,"n_dots":3.45,"target":"right","response":"right","rt":1762.8999999762,"correct":true,"confidence":3},{"trial_n":84,"n_dots":3.45,"target":"right","response":"right","rt":156,"correct":true,"confidence":3},{"trial_n":85,"n_dots":3.35,"target":"right","response":"right","rt":782.39999997616,"correct":true,"confidence":3},{"trial_n":86,"n_dots":3.35,"target":"left","response":"right","rt":269.60000002384,"correct":false,"confidence":3},{"trial_n":87,"n_dots":3.45,"target":"left","response":"left","rt":566.60000002384,"correct":true,"confidence":2},{"trial_n":88,"n_dots":3.45,"target":"right","response":"right","rt":390.90000003576,"correct":true,"confidence":4},{"trial_n":89,"n_dots":3.35,"target":"right","response":"left","rt":585.69999998808,"correct":false,"confidence":3},{"trial_n":90,"n_dots":3.45,"target":"left","response":"right","rt":445.59999996424,"correct":false,"confidence":3},{"trial_n":91,"n_dots":3.55,"target":"right","response":"right","rt":476,"correct":true,"confidence":4},{"trial_n":92,"n_dots":3.55,"target":"left","response":"left","rt":848.70000004768,"correct":true,"confidence":4},{"trial_n":93,"n_dots":3.45,"target":"right","response":"left","rt":894.59999996424,"correct":false,"confidence":4},{"trial_n":94,"n_dots":3.55,"target":"left","response":"left","rt":1240.7999999523,"correct":true,"confidence":4},{"trial_n":95,"n_dots":3.55,"target":"left","response":"left","rt":374.89999997616,"correct":true,"confidence":4},{"trial_n":96,"n_dots":3.45,"target":"left","response":"left","rt":466,"correct":true,"confidence":4},{"trial_n":97,"n_dots":3.45,"target":"right","response":"right","rt":7339.6999999881,"correct":true,"confidence":4},{"trial_n":98,"n_dots":3.35,"target":"left","response":"right","rt":46.699999988079,"correct":false,"confidence":3},{"trial_n":99,"n_dots":3.45,"target":"right","response":"right","rt":640.69999998808,"correct":true,"confidence":4},{"trial_n":100,"n_dots":3.45,"target":"left","response":"right","rt":505.40000003576,"correct":false,"confidence":4},{"trial_n":101,"n_dots":3.55,"target":"right","response":"right","rt":132.59999996424,"correct":true,"confidence":4},{"trial_n":102,"n_dots":3.55,"target":"right","response":"right","rt":124.40000003576,"correct":true,"confidence":3},{"trial_n":103,"n_dots":3.45,"target":"right","response":"right","rt":226.39999997616,"correct":true,"confidence":3},{"trial_n":104,"n_dots":3.45,"target":"left","response":"left","rt":618.40000003576,"correct":true,"confidence":3},{"trial_n":105,"n_dots":3.35,"target":"right","response":"right","rt":113.19999998808,"correct":true,"confidence":3},{"trial_n":106,"n_dots":3.35,"target":"left","response":"right","rt":1204.4000000358,"correct":false,"confidence":3},{"trial_n":107,"n_dots":3.45,"target":"right","response":"right","rt":193.19999998808,"correct":true,"confidence":3},{"trial_n":108,"n_dots":3.45,"target":"left","response":"left","rt":404.69999998808,"correct":true,"confidence":3},{"trial_n":109,"n_dots":3.35,"target":"left","response":"right","rt":64.900000035763,"correct":false,"confidence":3},{"trial_n":110,"n_dots":3.45,"target":"left","response":"right","rt":431.20000004768,"correct":false,"confidence":3},{"trial_n":111,"n_dots":3.55,"target":"left","response":"left","rt":467.10000002384,"correct":true,"confidence":3},{"trial_n":112,"n_dots":3.55,"target":"right","response":"right","rt":756.20000004768,"correct":true,"confidence":3},{"trial_n":113,"n_dots":3.45,"target":"left","response":"left","rt":730,"correct":true,"confidence":3},{"trial_n":114,"n_dots":3.45,"target":"left","response":"right","rt":1021,"correct":false,"confidence":3},{"trial_n":115,"n_dots":3.55,"target":"left","response":"left","rt":626.60000002384,"correct":true,"confidence":3},{"trial_n":116,"n_dots":3.55,"target":"right","response":"right","rt":91.800000011921,"correct":true,"confidence":3},{"trial_n":117,"n_dots":3.45,"target":"left","response":"left","rt":332.70000004768,"correct":true,"confidence":3},{"trial_n":118,"n_dots":3.45,"target":"right","response":"right","rt":129.89999997616,"correct":true,"confidence":3},{"trial_n":119,"n_dots":3.35,"target":"right","response":"right","rt":103.10000002384,"correct":true,"confidence":4},{"trial_n":120,"n_dots":3.35,"target":"right","response":"right","rt":404,"correct":true,"confidence":3}]