[{"trial_n":1,"n_dots":4.25,"target":"left","response":"right","rt":16027.600000024,"correct":false,"confidence":-1},{"trial_n":2,"n_dots":4.25,"target":"left","response":"right","rt":1882.5999999642,"correct":false,"confidence":-1},{"trial_n":3,"n_dots":4.65,"target":"left","response":"left","rt":487.30000001192,"correct":true,"confidence":-1},{"trial_n":4,"n_dots":4.65,"target":"right","response":"right","rt":452.09999996424,"correct":true,"confidence":-1},{"trial_n":5,"n_dots":4.25,"target":"right","response":"right","rt":328.30000001192,"correct":true,"confidence":-1},{"trial_n":6,"n_dots":4.25,"target":"right","response":"left","rt":422.30000001192,"correct":false,"confidence":-1},{"trial_n":7,"n_dots":4.65,"target":"left","response":"right","rt":524,"correct":false,"confidence":-1},{"trial_n":8,"n_dots":4.85,"target":"left","response":"right","rt":336.30000001192,"correct":false,"confidence":-1},{"trial_n":9,"n_dots":5.05,"target":"right","response":"right","rt":150.10000002384,"correct":true,"confidence":-1},{"trial_n":10,"n_dots":5.05,"target":"left","response":"left","rt":411.5,"correct":true,"confidence":-1},{"trial_n":11,"n_dots":4.85,"target":"left","response":"left","rt":489.89999997616,"correct":true,"confidence":-1},{"trial_n":12,"n_dots":4.85,"target":"right","response":"right","rt":309.19999998808,"correct":true,"confidence":-1},{"trial_n":13,"n_dots":4.75,"target":"left","response":"left","rt":79.800000011921,"correct":true,"confidence":-1},{"trial_n":14,"n_dots":4.75,"target":"left","response":"left","rt":673.39999997616,"correct":true,"confidence":-1},{"trial_n":15,"n_dots":4.65,"target":"right","response":"right","rt":400,"correct":true,"confidence":-1},{"trial_n":16,"n_dots":4.65,"target":"left","response":"left","rt":446.5,"correct":true,"confidence":-1},{"trial_n":17,"n_dots":4.55,"target":"right","response":"right","rt":353.10000002384,"correct":true,"confidence":-1},{"trial_n":18,"n_dots":4.55,"target":"right","response":"right","rt":555.40000003576,"correct":true,"confidence":-1},{"trial_n":19,"n_dots":4.45,"target":"left","response":"left","rt":397.19999998808,"correct":true,"confidence":-1},{"trial_n":20,"n_dots":4.45,"target":"left","response":"left","rt":380.90000003576,"correct":true,"confidence":-1},{"trial_n":21,"n_dots":4.35,"target":"right","response":"right","rt":360.80000001192,"correct":true,"confidence":4},{"trial_n":22,"n_dots":4.35,"target":"left","response":"left","rt":1299.9000000358,"correct":true,"confidence":3},{"trial_n":23,"n_dots":4.25,"target":"left","response":"left","rt":496.10000002384,"correct":true,"confidence":3},{"trial_n":24,"n_dots":4.25,"target":"left","response":"left","rt":2066,"correct":true,"confidence":2},{"trial_n":25,"n_dots":4.15,"target":"right","response":"right","rt":771.69999998808,"correct":true,"confidence":4},{"trial_n":26,"n_dots":4.15,"target":"right","response":"right","rt":611.10000002384,"correct":true,"confidence":4},{"trial_n":27,"n_dots":4.05,"target":"left","response":"left","rt":986.80000001192,"correct":true,"confidence":3},{"trial_n":28,"n_dots":4.05,"target":"left","response":"right","rt":1249.3999999762,"correct":false,"confidence":3},{"trial_n":29,"n_dots":4.15,"target":"right","response":"right","rt":467.19999998808,"correct":true,"confidence":4},{"trial_n":30,"n_dots":4.15,"target":"right","response":"right","rt":274.89999997616,"correct":true,"confidence":4},{"trial_n":31,"n_dots":4.05,"target":"left","response":"left","rt":671.10000002384,"correct":true,"confidence":3},{"trial_n":32,"n_dots":4.05,"target":"right","response":"right","rt":269,"correct":true,"confidence":4},{"trial_n":33,"n_dots":3.95,"target":"left","response":"left","rt":770.69999998808,"correct":true,"confidence":3},{"trial_n":34,"n_dots":3.95,"target":"right","response":"right","rt":298.69999998808,"correct":true,"confidence":4},{"trial_n":35,"n_dots":3.85,"target":"right","response":"right","rt":291.5,"correct":true,"confidence":4},{"trial_n":36,"n_dots":3.85,"target":"left","response":"right","rt":423.39999997616,"correct":false,"confidence":3},{"trial_n":37,"n_dots":3.95,"target":"left","response":"left","rt":831.10000002384,"correct":true,"confidence":2},{"trial_n":38,"n_dots":3.95,"target":"left","response":"left","rt":592.89999997616,"correct":true,"confidence":2},{"trial_n":39,"n_dots":3.85,"target":"left","response":"left","rt":458.89999997616,"correct":true,"confidence":2},{"trial_n":40,"n_dots":3.85,"target":"left","response":"left","rt":454.10000002384,"correct":true,"confidence":3},{"trial_n":41,"n_dots":3.75,"target":"left","response":"left","rt":357.79999995232,"correct":true,"confidence":3},{"trial_n":42,"n_dots":3.75,"target":"left","response":"left","rt":413.10000002384,"correct":true,"confidence":3},{"trial_n":43,"n_dots":3.65,"target":"right","response":"right","rt":576.59999996424,"correct":true,"confidence":2},{"trial_n":44,"n_dots":3.65,"target":"left","response":"left","rt":477.69999998808,"correct":true,"confidence":3},{"trial_n":45,"n_dots":3.55,"target":"right","response":"left","rt":709.80000001192,"correct":false,"confidence":2},{"trial_n":46,"n_dots":3.65,"target":"left","response":"left","rt":391.59999996424,"correct":true,"confidence":3},{"trial_n":47,"n_dots":3.65,"target":"right","response":"right","rt":461.80000001192,"correct":true,"confidence":3},{"trial_n":48,"n_dots":3.55,"target":"right","response":"right","rt":390.39999997616,"correct":true,"confidence":3},{"trial_n":49,"n_dots":3.55,"target":"right","response":"right","rt":54.300000011921,"correct":true,"confidence":4},{"trial_n":50,"n_dots":3.45,"target":"left","response":"left","rt":656,"correct":true,"confidence":2},{"trial_n":51,"n_dots":3.45,"target":"left","response":"left","rt":749.30000001192,"correct":true,"confidence":2},{"trial_n":52,"n_dots":3.35,"target":"left","response":"right","rt":565.19999998808,"correct":false,"confidence":2},{"trial_n":53,"n_dots":3.45,"target":"left","response":"left","rt":469,"correct":true,"confidence":2},{"trial_n":54,"n_dots":3.45,"target":"left","response":"left","rt":338.90000003576,"correct":true,"confidence":3},{"trial_n":55,"n_dots":3.35,"target":"right","response":"right","rt":80.200000047684,"correct":true,"confidence":4},{"trial_n":56,"n_dots":3.35,"target":"left","response":"left","rt":199.39999997616,"correct":true,"confidence":2},{"trial_n":57,"n_dots":3.25,"target":"right","response":"right","rt":288.10000002384,"correct":true,"confidence":3},{"trial_n":58,"n_dots":3.25,"target":"right","response":"right","rt":737.59999996424,"correct":true,"confidence":4},{"trial_n":59,"n_dots":3.15,"target":"right","response":"right","rt":234.60000002384,"correct":true,"confidence":4},{"trial_n":60,"n_dots":3.15,"target":"left","response":"right","rt":396.5,"correct":false,"confidence":3},{"trial_n":61,"n_dots":3.25,"target":"right","response":"right","rt":300.69999998808,"correct":true,"confidence":3},{"trial_n":62,"n_dots":3.25,"target":"left","response":"right","rt":301,"correct":false,"confidence":2},{"trial_n":63,"n_dots":3.35,"target":"right","response":"right","rt":694.5,"correct":true,"confidence":2},{"trial_n":64,"n_dots":3.35,"target":"left","response":"left","rt":505.60000002384,"correct":true,"confidence":2},{"trial_n":65,"n_dots":3.25,"target":"right","response":"left","rt":710.09999996424,"correct":false,"confidence":2},{"trial_n":66,"n_dots":3.35,"target":"left","response":"left","rt":404.70000004768,"correct":true,"confidence":2},{"trial_n":67,"n_dots":3.35,"target":"right","response":"right","rt":279.30000001192,"correct":true,"confidence":3},{"trial_n":68,"n_dots":3.25,"target":"right","response":"right","rt":414.80000001192,"correct":true,"confidence":3},{"trial_n":69,"n_dots":3.25,"target":"right","response":"right","rt":331,"correct":true,"confidence":2},{"trial_n":70,"n_dots":3.15,"target":"left","response":"left","rt":515.19999998808,"correct":true,"confidence":3},{"trial_n":71,"n_dots":3.15,"target":"right","response":"right","rt":355.89999997616,"correct":true,"confidence":2},{"trial_n":72,"n_dots":3.05,"target":"right","response":"left","rt":317.60000002384,"correct":false,"confidence":2},{"trial_n":73,"n_dots":3.15,"target":"right","response":"left","rt":369.70000004768,"correct":false,"confidence":2},{"trial_n":74,"n_dots":3.25,"target":"left","response":"left","rt":494.59999996424,"correct":true,"confidence":3},{"trial_n":75,"n_dots":3.25,"target":"left","response":"left","rt":209.69999998808,"correct":true,"confidence":4},{"trial_n":76,"n_dots":3.15,"target":"left","response":"left","rt":886,"correct":true,"confidence":4},{"trial_n":77,"n_dots":3.15,"target":"right","response":"left","rt":418.90000003576,"correct":false,"confidence":3},{"trial_n":78,"n_dots":3.25,"target":"left","response":"left","rt":652.39999997616,"correct":true,"confidence":4},{"trial_n":79,"n_dots":3.25,"target":"right","response":"left","rt":227.69999998808,"correct":false,"confidence":4},{"trial_n":80,"n_dots":3.35,"target":"left","response":"left","rt":338.89999997616,"correct":true,"confidence":4},{"trial_n":81,"n_dots":3.35,"target":"left","response":"left","rt":342.5,"correct":true,"confidence":5},{"trial_n":82,"n_dots":3.25,"target":"right","response":"left","rt":323.59999996424,"correct":false,"confidence":4},{"trial_n":83,"n_dots":3.35,"target":"right","response":"left","rt":42.199999988079,"correct":false,"confidence":4},{"trial_n":84,"n_dots":3.45,"target":"left","response":"left","rt":255.5,"correct":true,"confidence":3},{"trial_n":85,"n_dots":3.45,"target":"left","response":"left","rt":321.10000002384,"correct":true,"confidence":4},{"trial_n":86,"n_dots":3.35,"target":"left","response":"left","rt":298.39999997616,"correct":true,"confidence":4},{"trial_n":87,"n_dots":3.35,"target":"right","response":"left","rt":332.80000001192,"correct":false,"confidence":4},{"trial_n":88,"n_dots":3.45,"target":"right","response":"right","rt":406.09999996424,"correct":true,"confidence":2},{"trial_n":89,"n_dots":3.45,"target":"right","response":"left","rt":307.89999997616,"correct":false,"confidence":3},{"trial_n":90,"n_dots":3.55,"target":"left","response":"left","rt":331.19999998808,"correct":true,"confidence":4},{"trial_n":91,"n_dots":3.55,"target":"right","response":"left","rt":548.39999997616,"correct":false,"confidence":3},{"trial_n":92,"n_dots":3.65,"target":"right","response":"left","rt":386.59999996424,"correct":false,"confidence":3},{"trial_n":93,"n_dots":3.75,"target":"right","response":"left","rt":293.89999997616,"correct":false,"confidence":3},{"trial_n":94,"n_dots":3.85,"target":"right","response":"left","rt":366.09999996424,"correct":false,"confidence":3},{"trial_n":95,"n_dots":3.95,"target":"left","response":"left","rt":354.60000002384,"correct":true,"confidence":4},{"trial_n":96,"n_dots":3.95,"target":"left","response":"left","rt":917.19999998808,"correct":true,"confidence":4},{"trial_n":97,"n_dots":3.85,"target":"left","response":"left","rt":297,"correct":true,"confidence":4},{"trial_n":98,"n_dots":3.85,"target":"right","response":"right","rt":694.20000004768,"correct":true,"confidence":2},{"trial_n":99,"n_dots":3.75,"target":"left","response":"left","rt":275.19999998808,"correct":true,"confidence":3},{"trial_n":100,"n_dots":3.75,"target":"right","response":"right","rt":75.399999976158,"correct":true,"confidence":3},{"trial_n":101,"n_dots":3.65,"target":"left","response":"left","rt":51.900000035763,"correct":true,"confidence":4},{"trial_n":102,"n_dots":3.65,"target":"left","response":"left","rt":322.10000002384,"correct":true,"confidence":3},{"trial_n":103,"n_dots":3.55,"target":"right","response":"right","rt":1089.6999999881,"correct":true,"confidence":3},{"trial_n":104,"n_dots":3.55,"target":"left","response":"left","rt":642,"correct":true,"confidence":4},{"trial_n":105,"n_dots":3.45,"target":"right","response":"left","rt":953.59999996424,"correct":false,"confidence":2},{"trial_n":106,"n_dots":3.55,"target":"left","response":"left","rt":208.80000001192,"correct":true,"confidence":4},{"trial_n":107,"n_dots":3.55,"target":"right","response":"left","rt":1687.3000000119,"correct":false,"confidence":2},{"trial_n":108,"n_dots":3.65,"target":"right","response":"left","rt":270.90000003576,"correct":false,"confidence":2},{"trial_n":109,"n_dots":3.75,"target":"right","response":"right","rt":202.10000002384,"correct":true,"confidence":2},{"trial_n":110,"n_dots":3.75,"target":"left","response":"left","rt":492.90000003576,"correct":true,"confidence":4},{"trial_n":111,"n_dots":3.65,"target":"right","response":"left","rt":296.30000001192,"correct":false,"confidence":4},{"trial_n":112,"n_dots":3.75,"target":"right","response":"left","rt":353.59999996424,"correct":false,"confidence":3},{"trial_n":113,"n_dots":3.85,"target":"left","response":"left","rt":384.70000004768,"correct":true,"confidence":4},{"trial_n":114,"n_dots":3.85,"target":"right","response":"right","rt":610,"correct":true,"confidence":3},{"trial_n":115,"n_dots":3.75,"target":"right","response":"left","rt":258.80000001192,"correct":false,"confidence":4},{"trial_n":116,"n_dots":3.85,"target":"right","response":"left","rt":358.59999996424,"correct":false,"confidence":3},{"trial_n":117,"n_dots":3.95,"target":"left","response":"left","rt":402.19999998808,"correct":true,"confidence":3},{"trial_n":118,"n_dots":3.95,"target":"right","response":"right","rt":263.5,"correct":true,"confidence":3},{"trial_n":119,"n_dots":3.85,"target":"right","response":"right","rt":722.80000001192,"correct":true,"confidence":2},{"trial_n":120,"n_dots":3.85,"target":"right","response":"right","rt":440.80000001192,"correct":true,"confidence":3}]