[{"trial_n":1,"min":25,"max":230,"target":"present","response":"absent","rt":6791.7000000179,"correct":false,"confidence":-1},{"trial_n":2,"min":25,"max":230,"target":"present","response":"present","rt":1479.5,"correct":true,"confidence":-1},{"trial_n":3,"min":25,"max":230,"target":"absent","response":"absent","rt":1228.400000006,"correct":true,"confidence":-1},{"trial_n":4,"min":41,"max":214,"target":"absent","response":"absent","rt":680.40000000596,"correct":true,"confidence":-1},{"trial_n":5,"min":41,"max":214,"target":"present","response":"present","rt":1034.2000000179,"correct":true,"confidence":-1},{"trial_n":6,"min":57,"max":198,"target":"absent","response":"absent","rt":813,"correct":true,"confidence":-1},{"trial_n":7,"min":57,"max":198,"target":"present","response":"present","rt":869.70000001788,"correct":true,"confidence":-1},{"trial_n":8,"min":73,"max":182,"target":"present","response":"present","rt":1194.1999999881,"correct":true,"confidence":-1},{"trial_n":9,"min":73,"max":182,"target":"present","response":"present","rt":611,"correct":true,"confidence":-1},{"trial_n":10,"min":89,"max":166,"target":"absent","response":"absent","rt":1018.900000006,"correct":true,"confidence":-1},{"trial_n":11,"min":89,"max":166,"target":"present","response":"present","rt":1259.099999994,"correct":true,"confidence":-1},{"trial_n":12,"min":97,"max":158,"target":"absent","response":"absent","rt":791.59999999404,"correct":true,"confidence":-1},{"trial_n":13,"min":97,"max":158,"target":"absent","response":"absent","rt":716.80000001192,"correct":true,"confidence":-1},{"trial_n":14,"min":105,"max":150,"target":"present","response":"absent","rt":554.69999998808,"correct":false,"confidence":-1},{"trial_n":15,"min":97,"max":158,"target":"present","response":"present","rt":727.90000000596,"correct":true,"confidence":-1},{"trial_n":16,"min":97,"max":158,"target":"present","response":"absent","rt":1202.2000000179,"correct":false,"confidence":-1},{"trial_n":17,"min":89,"max":166,"target":"absent","response":"present","rt":850.90000000596,"correct":false,"confidence":-1},{"trial_n":18,"min":81,"max":174,"target":"present","response":"present","rt":638,"correct":true,"confidence":-1},{"trial_n":19,"min":81,"max":174,"target":"present","response":"absent","rt":1629.7000000179,"correct":false,"confidence":-1},{"trial_n":20,"min":73,"max":182,"target":"present","response":"present","rt":870.09999999404,"correct":true,"confidence":-1},{"trial_n":21,"min":73,"max":182,"target":"present","response":"present","rt":1171.3000000119,"correct":true,"confidence":4},{"trial_n":22,"min":77,"max":178,"target":"present","response":"present","rt":734.40000000596,"correct":true,"confidence":5},{"trial_n":23,"min":77,"max":178,"target":"absent","response":"absent","rt":700.09999999404,"correct":true,"confidence":4},{"trial_n":24,"min":81,"max":174,"target":"absent","response":"present","rt":857.09999999404,"correct":false,"confidence":2},{"trial_n":25,"min":77,"max":178,"target":"absent","response":"absent","rt":946,"correct":true,"confidence":2},{"trial_n":26,"min":77,"max":178,"target":"absent","response":"present","rt":654.29999998212,"correct":false,"confidence":4},{"trial_n":27,"min":73,"max":182,"target":"present","response":"present","rt":707.70000001788,"correct":true,"confidence":3},{"trial_n":28,"min":73,"max":182,"target":"present","response":"absent","rt":1883,"correct":false,"confidence":2},{"trial_n":29,"min":69,"max":186,"target":"absent","response":"absent","rt":1072.099999994,"correct":true,"confidence":3},{"trial_n":30,"min":69,"max":186,"target":"absent","response":"absent","rt":1309.400000006,"correct":true,"confidence":2},{"trial_n":31,"min":71,"max":184,"target":"absent","response":"absent","rt":9342.8000000119,"correct":true,"confidence":3},{"trial_n":32,"min":71,"max":184,"target":"absent","response":"present","rt":1710,"correct":false,"confidence":4},{"trial_n":33,"min":69,"max":186,"target":"absent","response":"present","rt":1274.900000006,"correct":false,"confidence":3},{"trial_n":34,"min":67,"max":188,"target":"absent","response":"absent","rt":1277.7000000179,"correct":true,"confidence":2},{"trial_n":35,"min":67,"max":188,"target":"absent","response":"present","rt":720.80000001192,"correct":false,"confidence":4},{"trial_n":36,"min":65,"max":190,"target":"absent","response":"present","rt":973,"correct":false,"confidence":3},{"trial_n":37,"min":63,"max":192,"target":"present","response":"present","rt":641.80000001192,"correct":true,"confidence":5},{"trial_n":38,"min":63,"max":192,"target":"present","response":"present","rt":715.40000000596,"correct":true,"confidence":5},{"trial_n":39,"min":65,"max":190,"target":"absent","response":"absent","rt":712.60000002384,"correct":true,"confidence":3},{"trial_n":40,"min":65,"max":190,"target":"present","response":"present","rt":638.59999999404,"correct":true,"confidence":4},{"trial_n":41,"min":66,"max":189,"target":"absent","response":"absent","rt":1345.599999994,"correct":true,"confidence":3},{"trial_n":42,"min":66,"max":189,"target":"present","response":"present","rt":537.90000000596,"correct":true,"confidence":5},{"trial_n":43,"min":67,"max":188,"target":"absent","response":"absent","rt":730,"correct":true,"confidence":3},{"trial_n":44,"min":67,"max":188,"target":"present","response":"present","rt":576.40000000596,"correct":true,"confidence":5},{"trial_n":45,"min":68,"max":187,"target":"absent","response":"present","rt":1135.8000000119,"correct":false,"confidence":4},{"trial_n":46,"min":67,"max":188,"target":"absent","response":"absent","rt":754.69999998808,"correct":true,"confidence":3},{"trial_n":47,"min":67,"max":188,"target":"absent","response":"absent","rt":819.69999998808,"correct":true,"confidence":2},{"trial_n":48,"min":68,"max":187,"target":"present","response":"present","rt":681.20000001788,"correct":true,"confidence":5},{"trial_n":49,"min":68,"max":187,"target":"absent","response":"absent","rt":834.30000001192,"correct":true,"confidence":4},{"trial_n":50,"min":69,"max":186,"target":"present","response":"present","rt":670.5,"correct":true,"confidence":5},{"trial_n":51,"min":69,"max":186,"target":"present","response":"present","rt":899.09999999404,"correct":true,"confidence":5},{"trial_n":52,"min":70,"max":185,"target":"present","response":"present","rt":692.30000001192,"correct":true,"confidence":5},{"trial_n":53,"min":70,"max":185,"target":"present","response":"present","rt":564.79999998212,"correct":true,"confidence":5},{"trial_n":54,"min":71,"max":184,"target":"present","response":"present","rt":582.10000002384,"correct":true,"confidence":5},{"trial_n":55,"min":71,"max":184,"target":"present","response":"present","rt":577.40000000596,"correct":true,"confidence":5},{"trial_n":56,"min":72,"max":183,"target":"absent","response":"absent","rt":814.80000001192,"correct":true,"confidence":4},{"trial_n":57,"min":72,"max":183,"target":"absent","response":"absent","rt":936.40000000596,"correct":true,"confidence":3},{"trial_n":58,"min":73,"max":182,"target":"absent","response":"absent","rt":828.40000000596,"correct":true,"confidence":3},{"trial_n":59,"min":73,"max":182,"target":"present","response":"present","rt":707.09999999404,"correct":true,"confidence":5},{"trial_n":60,"min":74,"max":181,"target":"present","response":"present","rt":975.90000000596,"correct":true,"confidence":4},{"trial_n":61,"min":74,"max":181,"target":"absent","response":"absent","rt":660.90000000596,"correct":true,"confidence":3},{"trial_n":62,"min":75,"max":180,"target":"present","response":"present","rt":614.19999998808,"correct":true,"confidence":5},{"trial_n":63,"min":75,"max":180,"target":"present","response":"present","rt":1010.1999999881,"correct":true,"confidence":4},{"trial_n":64,"min":76,"max":179,"target":"present","response":"absent","rt":815.5,"correct":false,"confidence":4},{"trial_n":65,"min":75,"max":180,"target":"absent","response":"absent","rt":664.30000001192,"correct":true,"confidence":5},{"trial_n":66,"min":75,"max":180,"target":"absent","response":"absent","rt":683.5,"correct":true,"confidence":3},{"trial_n":67,"min":76,"max":179,"target":"absent","response":"absent","rt":600.09999999404,"correct":true,"confidence":4},{"trial_n":68,"min":76,"max":179,"target":"present","response":"present","rt":1058,"correct":true,"confidence":5},{"trial_n":69,"min":77,"max":178,"target":"absent","response":"absent","rt":735.60000002384,"correct":true,"confidence":4},{"trial_n":70,"min":77,"max":178,"target":"present","response":"present","rt":715.79999998212,"correct":true,"confidence":4},{"trial_n":71,"min":41,"max":214,"target":"present","response":"present","rt":872.09999999404,"correct":true,"confidence":-1},{"trial_n":72,"min":41,"max":214,"target":"present","response":"present","rt":766.90000000596,"correct":true,"confidence":-1},{"trial_n":73,"min":57,"max":198,"target":"absent","response":"absent","rt":907,"correct":true,"confidence":-1},{"trial_n":74,"min":57,"max":198,"target":"absent","response":"absent","rt":736.69999998808,"correct":true,"confidence":-1},{"trial_n":75,"min":73,"max":182,"target":"present","response":"present","rt":792.79999998212,"correct":true,"confidence":-1},{"trial_n":76,"min":73,"max":182,"target":"absent","response":"absent","rt":812.80000001192,"correct":true,"confidence":-1},{"trial_n":77,"min":89,"max":166,"target":"present","response":"present","rt":1280,"correct":true,"confidence":-1},{"trial_n":78,"min":89,"max":166,"target":"absent","response":"absent","rt":737.5,"correct":true,"confidence":-1},{"trial_n":79,"min":105,"max":150,"target":"absent","response":"present","rt":892.59999999404,"correct":false,"confidence":-1},{"trial_n":80,"min":89,"max":166,"target":"absent","response":"absent","rt":1778.3999999762,"correct":true,"confidence":-1},{"trial_n":81,"min":89,"max":166,"target":"absent","response":"absent","rt":687.09999999404,"correct":true,"confidence":-1},{"trial_n":82,"min":97,"max":158,"target":"present","response":"present","rt":1022.7000000179,"correct":true,"confidence":-1},{"trial_n":83,"min":97,"max":158,"target":"present","response":"absent","rt":1081.599999994,"correct":false,"confidence":-1},{"trial_n":84,"min":89,"max":166,"target":"absent","response":"present","rt":830.29999998212,"correct":false,"confidence":-1},{"trial_n":85,"min":81,"max":174,"target":"absent","response":"present","rt":914.19999998808,"correct":false,"confidence":-1},{"trial_n":86,"min":73,"max":182,"target":"present","response":"present","rt":765.09999999404,"correct":true,"confidence":-1},{"trial_n":87,"min":73,"max":182,"target":"present","response":"absent","rt":837.30000001192,"correct":false,"confidence":-1},{"trial_n":88,"min":65,"max":190,"target":"present","response":"present","rt":523.19999998808,"correct":true,"confidence":-1},{"trial_n":89,"min":65,"max":190,"target":"present","response":"present","rt":607.19999998808,"correct":true,"confidence":-1},{"trial_n":90,"min":73,"max":182,"target":"present","response":"present","rt":823.40000000596,"correct":true,"confidence":-1},{"trial_n":91,"min":73,"max":182,"target":"present","response":"present","rt":792.79999998212,"correct":true,"confidence":5},{"trial_n":92,"min":77,"max":178,"target":"present","response":"present","rt":780.90000000596,"correct":true,"confidence":5},{"trial_n":93,"min":77,"max":178,"target":"absent","response":"absent","rt":777.5,"correct":true,"confidence":4},{"trial_n":94,"min":81,"max":174,"target":"absent","response":"present","rt":786.09999999404,"correct":false,"confidence":3},{"trial_n":95,"min":77,"max":178,"target":"absent","response":"absent","rt":896.90000000596,"correct":true,"confidence":3},{"trial_n":96,"min":77,"max":178,"target":"present","response":"present","rt":715.39999997616,"correct":true,"confidence":5},{"trial_n":97,"min":81,"max":174,"target":"present","response":"present","rt":621.59999999404,"correct":true,"confidence":5},{"trial_n":98,"min":81,"max":174,"target":"absent","response":"present","rt":866.59999999404,"correct":false,"confidence":3},{"trial_n":99,"min":77,"max":178,"target":"absent","response":"present","rt":1940.8999999762,"correct":false,"confidence":2},{"trial_n":100,"min":73,"max":182,"target":"absent","response":"absent","rt":983.29999998212,"correct":true,"confidence":4},{"trial_n":101,"min":73,"max":182,"target":"present","response":"present","rt":699.19999998808,"correct":true,"confidence":5},{"trial_n":102,"min":75,"max":180,"target":"absent","response":"absent","rt":854.70000001788,"correct":true,"confidence":4},{"trial_n":103,"min":75,"max":180,"target":"absent","response":"absent","rt":1077.099999994,"correct":true,"confidence":5},{"trial_n":104,"min":77,"max":178,"target":"present","response":"present","rt":624.79999998212,"correct":true,"confidence":5},{"trial_n":105,"min":77,"max":178,"target":"absent","response":"present","rt":651.79999998212,"correct":false,"confidence":5},{"trial_n":106,"min":75,"max":180,"target":"present","response":"present","rt":651,"correct":true,"confidence":5},{"trial_n":107,"min":75,"max":180,"target":"present","response":"present","rt":618.59999999404,"correct":true,"confidence":5},{"trial_n":108,"min":77,"max":178,"target":"absent","response":"present","rt":736.89999997616,"correct":false,"confidence":4},{"trial_n":109,"min":75,"max":180,"target":"present","response":"present","rt":560.30000001192,"correct":true,"confidence":5},{"trial_n":110,"min":75,"max":180,"target":"absent","response":"present","rt":1346.8999999762,"correct":false,"confidence":3},{"trial_n":111,"min":74,"max":181,"target":"present","response":"present","rt":599.19999998808,"correct":true,"confidence":5},{"trial_n":112,"min":74,"max":181,"target":"present","response":"present","rt":519.29999998212,"correct":true,"confidence":5},{"trial_n":113,"min":75,"max":180,"target":"absent","response":"present","rt":835.40000000596,"correct":false,"confidence":4},{"trial_n":114,"min":74,"max":181,"target":"absent","response":"present","rt":1717.599999994,"correct":false,"confidence":2},{"trial_n":115,"min":73,"max":182,"target":"absent","response":"absent","rt":1000.1999999881,"correct":true,"confidence":4},{"trial_n":116,"min":73,"max":182,"target":"present","response":"present","rt":471.69999998808,"correct":true,"confidence":5},{"trial_n":117,"min":74,"max":181,"target":"absent","response":"present","rt":767,"correct":false,"confidence":4},{"trial_n":118,"min":73,"max":182,"target":"absent","response":"present","rt":1003.099999994,"correct":false,"confidence":4},{"trial_n":119,"min":72,"max":183,"target":"present","response":"present","rt":584.29999998212,"correct":true,"confidence":4},{"trial_n":120,"min":72,"max":183,"target":"present","response":"present","rt":646.5,"correct":true,"confidence":5},{"trial_n":121,"min":73,"max":182,"target":"present","response":"present","rt":510.5,"correct":true,"confidence":5},{"trial_n":122,"min":73,"max":182,"target":"absent","response":"absent","rt":1613.7000000179,"correct":true,"confidence":3},{"trial_n":123,"min":74,"max":181,"target":"present","response":"present","rt":550.90000000596,"correct":true,"confidence":5},{"trial_n":124,"min":74,"max":181,"target":"absent","response":"absent","rt":979.5,"correct":true,"confidence":4},{"trial_n":125,"min":75,"max":180,"target":"present","response":"present","rt":581.20000001788,"correct":true,"confidence":5},{"trial_n":126,"min":75,"max":180,"target":"present","response":"present","rt":530.59999999404,"correct":true,"confidence":5},{"trial_n":127,"min":76,"max":179,"target":"present","response":"present","rt":561.30000001192,"correct":true,"confidence":5},{"trial_n":128,"min":76,"max":179,"target":"absent","response":"present","rt":893.5,"correct":false,"confidence":5},{"trial_n":129,"min":75,"max":180,"target":"absent","response":"absent","rt":849.70000001788,"correct":true,"confidence":3},{"trial_n":130,"min":75,"max":180,"target":"present","response":"present","rt":439.5,"correct":true,"confidence":5},{"trial_n":131,"min":76,"max":179,"target":"present","response":"present","rt":518.20000001788,"correct":true,"confidence":5},{"trial_n":132,"min":76,"max":179,"target":"absent","response":"absent","rt":772.59999999404,"correct":true,"confidence":4},{"trial_n":133,"min":77,"max":178,"target":"absent","response":"present","rt":884.90000000596,"correct":false,"confidence":3},{"trial_n":134,"min":76,"max":179,"target":"present","response":"present","rt":524.10000002384,"correct":true,"confidence":5},{"trial_n":135,"min":76,"max":179,"target":"absent","response":"present","rt":787.09999999404,"correct":false,"confidence":4},{"trial_n":136,"min":75,"max":180,"target":"absent","response":"present","rt":899.20000001788,"correct":false,"confidence":5},{"trial_n":137,"min":74,"max":181,"target":"absent","response":"absent","rt":1083.3999999762,"correct":true,"confidence":3},{"trial_n":138,"min":74,"max":181,"target":"present","response":"present","rt":771.09999999404,"correct":true,"confidence":4},{"trial_n":139,"min":75,"max":180,"target":"present","response":"present","rt":738.20000001788,"correct":true,"confidence":4},{"trial_n":140,"min":75,"max":180,"target":"present","response":"present","rt":746.40000000596,"correct":true,"confidence":5}]