[{"trial_n":1,"min":25,"max":230,"target":"present","response":"absent","rt":6026.5,"correct":false,"confidence":-1},{"trial_n":2,"min":25,"max":230,"target":"present","response":"present","rt":876.5,"correct":true,"confidence":-1},{"trial_n":3,"min":25,"max":230,"target":"absent","response":"absent","rt":647.59999999963,"correct":true,"confidence":-1},{"trial_n":4,"min":41,"max":214,"target":"absent","response":"absent","rt":514.79999999888,"correct":true,"confidence":-1},{"trial_n":5,"min":41,"max":214,"target":"present","response":"present","rt":544.59999999963,"correct":true,"confidence":-1},{"trial_n":6,"min":57,"max":198,"target":"absent","response":"absent","rt":723.59999999963,"correct":true,"confidence":-1},{"trial_n":7,"min":57,"max":198,"target":"present","response":"absent","rt":617.29999999888,"correct":false,"confidence":-1},{"trial_n":8,"min":41,"max":214,"target":"present","response":"present","rt":603.5,"correct":true,"confidence":-1},{"trial_n":9,"min":41,"max":214,"target":"present","response":"present","rt":495.69999999925,"correct":true,"confidence":-1},{"trial_n":10,"min":57,"max":198,"target":"present","response":"present","rt":526.89999999851,"correct":true,"confidence":-1},{"trial_n":11,"min":57,"max":198,"target":"present","response":"present","rt":429.09999999963,"correct":true,"confidence":-1},{"trial_n":12,"min":65,"max":190,"target":"present","response":"present","rt":653.79999999888,"correct":true,"confidence":-1},{"trial_n":13,"min":65,"max":190,"target":"absent","response":"absent","rt":892.30000000075,"correct":true,"confidence":-1},{"trial_n":14,"min":73,"max":182,"target":"present","response":"present","rt":551.69999999925,"correct":true,"confidence":-1},{"trial_n":15,"min":73,"max":182,"target":"absent","response":"absent","rt":488.5,"correct":true,"confidence":-1},{"trial_n":16,"min":81,"max":174,"target":"present","response":"absent","rt":1793.4000000004,"correct":false,"confidence":-1},{"trial_n":17,"min":73,"max":182,"target":"present","response":"absent","rt":482.40000000037,"correct":false,"confidence":-1},{"trial_n":18,"min":65,"max":190,"target":"absent","response":"absent","rt":468.09999999963,"correct":true,"confidence":-1},{"trial_n":19,"min":65,"max":190,"target":"absent","response":"absent","rt":391.30000000075,"correct":true,"confidence":-1},{"trial_n":20,"min":73,"max":182,"target":"present","response":"absent","rt":401,"correct":false,"confidence":-1},{"trial_n":21,"min":69,"max":186,"target":"absent","response":"absent","rt":989.79999999888,"correct":true,"confidence":4},{"trial_n":22,"min":69,"max":186,"target":"present","response":"present","rt":776.59999999963,"correct":true,"confidence":4},{"trial_n":23,"min":73,"max":182,"target":"present","response":"present","rt":930.39999999851,"correct":true,"confidence":1},{"trial_n":24,"min":73,"max":182,"target":"absent","response":"absent","rt":1023,"correct":true,"confidence":3},{"trial_n":25,"min":77,"max":178,"target":"absent","response":"absent","rt":1556.5,"correct":true,"confidence":3},{"trial_n":26,"min":77,"max":178,"target":"absent","response":"absent","rt":984.40000000037,"correct":true,"confidence":3},{"trial_n":27,"min":81,"max":174,"target":"present","response":"present","rt":702.20000000112,"correct":true,"confidence":3},{"trial_n":28,"min":81,"max":174,"target":"present","response":"present","rt":2866.2000000011,"correct":true,"confidence":3},{"trial_n":29,"min":85,"max":170,"target":"present","response":"absent","rt":4009.4000000004,"correct":false,"confidence":3},{"trial_n":30,"min":81,"max":174,"target":"absent","response":"absent","rt":1369.8000000007,"correct":true,"confidence":1},{"trial_n":31,"min":81,"max":174,"target":"present","response":"absent","rt":1515.2999999989,"correct":false,"confidence":3},{"trial_n":32,"min":79,"max":176,"target":"absent","response":"absent","rt":1215.7000000011,"correct":true,"confidence":3},{"trial_n":33,"min":79,"max":176,"target":"present","response":"absent","rt":596.60000000149,"correct":false,"confidence":3},{"trial_n":34,"min":77,"max":178,"target":"absent","response":"absent","rt":603.69999999925,"correct":true,"confidence":1},{"trial_n":35,"min":77,"max":178,"target":"present","response":"absent","rt":369.59999999963,"correct":false,"confidence":1},{"trial_n":36,"min":75,"max":180,"target":"present","response":"present","rt":351.20000000112,"correct":true,"confidence":1},{"trial_n":37,"min":75,"max":180,"target":"absent","response":"absent","rt":983,"correct":true,"confidence":3},{"trial_n":38,"min":77,"max":178,"target":"absent","response":"absent","rt":959.19999999925,"correct":true,"confidence":3},{"trial_n":39,"min":77,"max":178,"target":"absent","response":"absent","rt":1138.7000000011,"correct":true,"confidence":3},{"trial_n":40,"min":79,"max":176,"target":"present","response":"present","rt":2047.8000000007,"correct":true,"confidence":3},{"trial_n":41,"min":79,"max":176,"target":"absent","response":"absent","rt":1021.700000003,"correct":true,"confidence":3},{"trial_n":42,"min":80,"max":175,"target":"present","response":"absent","rt":784.20000000298,"correct":false,"confidence":3},{"trial_n":43,"min":79,"max":176,"target":"present","response":"present","rt":1137,"correct":true,"confidence":2},{"trial_n":44,"min":79,"max":176,"target":"present","response":"present","rt":1022.9000000022,"correct":true,"confidence":2},{"trial_n":45,"min":80,"max":175,"target":"present","response":"present","rt":573.60000000149,"correct":true,"confidence":2},{"trial_n":46,"min":80,"max":175,"target":"absent","response":"absent","rt":902.80000000075,"correct":true,"confidence":3},{"trial_n":47,"min":81,"max":174,"target":"present","response":"present","rt":797.5,"correct":true,"confidence":3},{"trial_n":48,"min":81,"max":174,"target":"present","response":"absent","rt":1335.4000000022,"correct":false,"confidence":1},{"trial_n":49,"min":80,"max":175,"target":"absent","response":"absent","rt":1066.0999999978,"correct":true,"confidence":2},{"trial_n":50,"min":80,"max":175,"target":"absent","response":"absent","rt":1757.1000000015,"correct":true,"confidence":2},{"trial_n":51,"min":81,"max":174,"target":"present","response":"present","rt":1151.5,"correct":true,"confidence":3},{"trial_n":52,"min":81,"max":174,"target":"present","response":"present","rt":787.89999999851,"correct":true,"confidence":3},{"trial_n":53,"min":82,"max":173,"target":"absent","response":"absent","rt":998,"correct":true,"confidence":3},{"trial_n":54,"min":82,"max":173,"target":"absent","response":"absent","rt":870.69999999925,"correct":true,"confidence":3},{"trial_n":55,"min":83,"max":172,"target":"present","response":"present","rt":1522.5999999978,"correct":true,"confidence":4},{"trial_n":56,"min":83,"max":172,"target":"absent","response":"absent","rt":1141.0999999978,"correct":true,"confidence":3},{"trial_n":57,"min":84,"max":171,"target":"present","response":"present","rt":1310.5,"correct":true,"confidence":5},{"trial_n":58,"min":84,"max":171,"target":"absent","response":"present","rt":2502.8000000007,"correct":false,"confidence":4},{"trial_n":59,"min":83,"max":172,"target":"absent","response":"absent","rt":1949.5,"correct":true,"confidence":1},{"trial_n":60,"min":83,"max":172,"target":"absent","response":"absent","rt":1400.6999999993,"correct":true,"confidence":1},{"trial_n":61,"min":84,"max":171,"target":"absent","response":"absent","rt":6277.6000000015,"correct":true,"confidence":3},{"trial_n":62,"min":84,"max":171,"target":"absent","response":"absent","rt":774.19999999925,"correct":true,"confidence":2},{"trial_n":63,"min":85,"max":170,"target":"absent","response":"absent","rt":721.69999999925,"correct":true,"confidence":1},{"trial_n":64,"min":85,"max":170,"target":"present","response":"present","rt":1060.3000000007,"correct":true,"confidence":1},{"trial_n":65,"min":86,"max":169,"target":"absent","response":"present","rt":911.20000000298,"correct":false,"confidence":2},{"trial_n":66,"min":85,"max":170,"target":"absent","response":"present","rt":997.60000000149,"correct":false,"confidence":2},{"trial_n":67,"min":84,"max":171,"target":"absent","response":"absent","rt":1154.200000003,"correct":true,"confidence":2},{"trial_n":68,"min":84,"max":171,"target":"absent","response":"present","rt":1538.9000000022,"correct":false,"confidence":1},{"trial_n":69,"min":83,"max":172,"target":"present","response":"absent","rt":1053.9000000022,"correct":false,"confidence":2},{"trial_n":70,"min":82,"max":173,"target":"present","response":"present","rt":1039.3000000007,"correct":true,"confidence":3},{"trial_n":71,"min":41,"max":214,"target":"present","response":"present","rt":1143.1000000015,"correct":true,"confidence":-1},{"trial_n":72,"min":41,"max":214,"target":"present","response":"present","rt":436.39999999851,"correct":true,"confidence":-1},{"trial_n":73,"min":57,"max":198,"target":"absent","response":"absent","rt":653.60000000149,"correct":true,"confidence":-1},{"trial_n":74,"min":57,"max":198,"target":"absent","response":"absent","rt":732.5,"correct":true,"confidence":-1},{"trial_n":75,"min":73,"max":182,"target":"present","response":"present","rt":224.30000000075,"correct":true,"confidence":-1},{"trial_n":76,"min":73,"max":182,"target":"present","response":"absent","rt":1164.6999999993,"correct":false,"confidence":-1},{"trial_n":77,"min":57,"max":198,"target":"present","response":"present","rt":336.09999999776,"correct":true,"confidence":-1},{"trial_n":78,"min":57,"max":198,"target":"absent","response":"absent","rt":253,"correct":true,"confidence":-1},{"trial_n":79,"min":73,"max":182,"target":"present","response":"present","rt":399.5,"correct":true,"confidence":-1},{"trial_n":80,"min":73,"max":182,"target":"absent","response":"absent","rt":325.80000000075,"correct":true,"confidence":-1},{"trial_n":81,"min":81,"max":174,"target":"absent","response":"absent","rt":624.89999999851,"correct":true,"confidence":-1},{"trial_n":82,"min":81,"max":174,"target":"present","response":"present","rt":344,"correct":true,"confidence":-1},{"trial_n":83,"min":89,"max":166,"target":"present","response":"present","rt":333.80000000075,"correct":true,"confidence":-1},{"trial_n":84,"min":89,"max":166,"target":"absent","response":"absent","rt":505.30000000075,"correct":true,"confidence":-1},{"trial_n":85,"min":97,"max":158,"target":"present","response":"present","rt":320.39999999851,"correct":true,"confidence":-1},{"trial_n":86,"min":97,"max":158,"target":"absent","response":"present","rt":106.5,"correct":false,"confidence":-1},{"trial_n":87,"min":89,"max":166,"target":"present","response":"absent","rt":411.60000000149,"correct":false,"confidence":-1},{"trial_n":88,"min":81,"max":174,"target":"present","response":"absent","rt":515.60000000149,"correct":false,"confidence":-1},{"trial_n":89,"min":73,"max":182,"target":"present","response":"present","rt":328.30000000075,"correct":true,"confidence":-1},{"trial_n":90,"min":73,"max":182,"target":"absent","response":"absent","rt":308.89999999851,"correct":true,"confidence":-1},{"trial_n":91,"min":77,"max":178,"target":"present","response":"present","rt":307,"correct":true,"confidence":3},{"trial_n":92,"min":77,"max":178,"target":"present","response":"present","rt":404.30000000075,"correct":true,"confidence":3},{"trial_n":93,"min":81,"max":174,"target":"present","response":"absent","rt":417,"correct":false,"confidence":3},{"trial_n":94,"min":77,"max":178,"target":"absent","response":"absent","rt":458.30000000075,"correct":true,"confidence":1},{"trial_n":95,"min":77,"max":178,"target":"present","response":"present","rt":283.89999999851,"correct":true,"confidence":1},{"trial_n":96,"min":81,"max":174,"target":"present","response":"absent","rt":429.70000000298,"correct":false,"confidence":1},{"trial_n":97,"min":77,"max":178,"target":"present","response":"present","rt":351.90000000224,"correct":true,"confidence":3},{"trial_n":98,"min":77,"max":178,"target":"absent","response":"present","rt":2811.1999999993,"correct":false,"confidence":1},{"trial_n":99,"min":73,"max":182,"target":"absent","response":"absent","rt":639.39999999851,"correct":true,"confidence":1},{"trial_n":100,"min":73,"max":182,"target":"absent","response":"absent","rt":885.80000000075,"correct":true,"confidence":3},{"trial_n":101,"min":75,"max":180,"target":"absent","response":"absent","rt":615.5,"correct":true,"confidence":3},{"trial_n":102,"min":75,"max":180,"target":"present","response":"present","rt":321.19999999925,"correct":true,"confidence":3},{"trial_n":103,"min":77,"max":178,"target":"present","response":"present","rt":3088.8999999985,"correct":true,"confidence":1},{"trial_n":104,"min":77,"max":178,"target":"absent","response":"absent","rt":719,"correct":true,"confidence":3},{"trial_n":105,"min":79,"max":176,"target":"present","response":"present","rt":936.19999999925,"correct":true,"confidence":4},{"trial_n":106,"min":79,"max":176,"target":"absent","response":"absent","rt":1413.6999999993,"correct":true,"confidence":3},{"trial_n":107,"min":81,"max":174,"target":"absent","response":"present","rt":855.5,"correct":false,"confidence":1},{"trial_n":108,"min":79,"max":176,"target":"absent","response":"present","rt":1014.1000000015,"correct":false,"confidence":1},{"trial_n":109,"min":77,"max":178,"target":"present","response":"present","rt":363.09999999776,"correct":true,"confidence":1},{"trial_n":110,"min":77,"max":178,"target":"absent","response":"absent","rt":996.60000000149,"correct":true,"confidence":3},{"trial_n":111,"min":78,"max":177,"target":"present","response":"present","rt":880.09999999776,"correct":true,"confidence":1},{"trial_n":112,"min":78,"max":177,"target":"absent","response":"absent","rt":705.80000000075,"correct":true,"confidence":3},{"trial_n":113,"min":79,"max":176,"target":"present","response":"present","rt":593.19999999925,"correct":true,"confidence":1},{"trial_n":114,"min":79,"max":176,"target":"present","response":"present","rt":396.20000000298,"correct":true,"confidence":1},{"trial_n":115,"min":80,"max":175,"target":"present","response":"present","rt":87.89999999851,"correct":true,"confidence":1},{"trial_n":116,"min":80,"max":175,"target":"absent","response":"present","rt":149.39999999851,"correct":false,"confidence":1},{"trial_n":117,"min":79,"max":176,"target":"present","response":"present","rt":1917.0999999978,"correct":true,"confidence":3},{"trial_n":118,"min":79,"max":176,"target":"present","response":"absent","rt":2301,"correct":false,"confidence":3},{"trial_n":119,"min":78,"max":177,"target":"absent","response":"absent","rt":764.30000000075,"correct":true,"confidence":1},{"trial_n":120,"min":78,"max":177,"target":"absent","response":"absent","rt":1445.1000000015,"correct":true,"confidence":3},{"trial_n":121,"min":79,"max":176,"target":"present","response":"present","rt":931.80000000075,"correct":true,"confidence":3},{"trial_n":122,"min":79,"max":176,"target":"absent","response":"absent","rt":1504,"correct":true,"confidence":1},{"trial_n":123,"min":80,"max":175,"target":"absent","response":"absent","rt":691,"correct":true,"confidence":3},{"trial_n":124,"min":80,"max":175,"target":"absent","response":"present","rt":786.30000000075,"correct":false,"confidence":2},{"trial_n":125,"min":79,"max":176,"target":"absent","response":"present","rt":759.30000000075,"correct":false,"confidence":1},{"trial_n":126,"min":78,"max":177,"target":"absent","response":"present","rt":276.19999999925,"correct":false,"confidence":1},{"trial_n":127,"min":77,"max":178,"target":"present","response":"present","rt":785.30000000075,"correct":true,"confidence":3},{"trial_n":128,"min":77,"max":178,"target":"present","response":"present","rt":664.69999999925,"correct":true,"confidence":3},{"trial_n":129,"min":78,"max":177,"target":"absent","response":"present","rt":746.5,"correct":false,"confidence":3},{"trial_n":130,"min":77,"max":178,"target":"absent","response":"absent","rt":1107.9000000022,"correct":true,"confidence":3},{"trial_n":131,"min":77,"max":178,"target":"present","response":"present","rt":658.30000000075,"correct":true,"confidence":3},{"trial_n":132,"min":78,"max":177,"target":"absent","response":"present","rt":510.69999999925,"correct":false,"confidence":3},{"trial_n":133,"min":77,"max":178,"target":"absent","response":"absent","rt":602.19999999925,"correct":true,"confidence":3},{"trial_n":134,"min":77,"max":178,"target":"present","response":"present","rt":360.5,"correct":true,"confidence":3},{"trial_n":135,"min":78,"max":177,"target":"absent","response":"absent","rt":838.19999999925,"correct":true,"confidence":3},{"trial_n":136,"min":78,"max":177,"target":"present","response":"present","rt":1196.0999999978,"correct":true,"confidence":3},{"trial_n":137,"min":79,"max":176,"target":"absent","response":"absent","rt":941.30000000075,"correct":true,"confidence":1},{"trial_n":138,"min":79,"max":176,"target":"absent","response":"absent","rt":790,"correct":true,"confidence":3},{"trial_n":139,"min":80,"max":175,"target":"present","response":"present","rt":1431.1999999993,"correct":true,"confidence":3},{"trial_n":140,"min":80,"max":175,"target":"present","response":"present","rt":583.89999999851,"correct":true,"confidence":1}]