[{"trial_n":1,"span":8,"encoder":"27950732","distractor":"26950732","target":"present","response":"present","rt":"3942.099999994","correct":true,"confidence":-1},{"trial_n":2,"span":8,"encoder":"02942245","distractor":"02942745","target":"present","response":"absent","rt":"2232.2999999821","correct":false,"confidence":-1},{"trial_n":3,"span":6,"encoder":"078291","distractor":"078391","target":"absent","response":"absent","rt":"2864.6999999881","correct":true,"confidence":-1},{"trial_n":4,"span":6,"encoder":"641162","distractor":"641161","target":"absent","response":"absent","rt":"1703.099999994","correct":true,"confidence":-1},{"trial_n":5,"span":8,"encoder":"66998513","distractor":"66908513","target":"present","response":"present","rt":"2580.599999994","correct":true,"confidence":-1},{"trial_n":6,"span":8,"encoder":"90844093","distractor":"90834093","target":"absent","response":"present","rt":"2110.6999999881","correct":false,"confidence":-1},{"trial_n":7,"span":6,"encoder":"878712","distractor":"878732","target":"present","response":"present","rt":"1409.5","correct":true,"confidence":-1},{"trial_n":8,"span":6,"encoder":"967323","distractor":"067323","target":"absent","response":"present","rt":"1061.099999994","correct":false,"confidence":-1},{"trial_n":9,"span":4,"encoder":"9130","distractor":"9180","target":"absent","response":"absent","rt":"1867.6999999881","correct":true,"confidence":-1},{"trial_n":10,"span":4,"encoder":"7363","distractor":"7360","target":"absent","response":"absent","rt":"1576.400000006","correct":true,"confidence":-1},{"trial_n":11,"span":6,"encoder":"381686","distractor":"381636","target":"present","response":"present","rt":"1195.3999999762","correct":true,"confidence":-1},{"trial_n":12,"span":6,"encoder":"611376","distractor":"691376","target":"absent","response":"absent","rt":"1135.3999999762","correct":true,"confidence":-1},{"trial_n":13,"span":7,"encoder":"7888981","distractor":"7858981","target":"absent","response":"absent","rt":"1366","correct":true,"confidence":-1},{"trial_n":14,"span":7,"encoder":"9737988","distractor":"9337988","target":"absent","response":"present","rt":"1575.1999999881","correct":false,"confidence":-1},{"trial_n":15,"span":6,"encoder":"027045","distractor":"027075","target":"absent","response":"absent","rt":"1103.900000006","correct":true,"confidence":-1},{"trial_n":16,"span":6,"encoder":"306005","distractor":"306004","target":"absent","response":"absent","rt":"1804.1999999881","correct":true,"confidence":-1},{"trial_n":17,"span":7,"encoder":"9971406","distractor":"9971206","target":"present","response":"present","rt":"1686.3999999762","correct":true,"confidence":-1},{"trial_n":18,"span":7,"encoder":"1973651","distractor":"1978651","target":"absent","response":"absent","rt":"2091.2999999821","correct":true,"confidence":-1},{"trial_n":19,"span":8,"encoder":"98995453","distractor":"98995353","target":"absent","response":"absent","rt":"1747","correct":true,"confidence":-1},{"trial_n":20,"span":8,"encoder":"60454075","distractor":"60454073","target":"present","response":"present","rt":"1197.8999999762","correct":true,"confidence":-1},{"trial_n":21,"span":9,"encoder":"554685600","distractor":"554655600","target":"absent","response":"absent","rt":"5886.099999994","correct":true,"confidence":5},{"trial_n":22,"span":9,"encoder":"260457649","distractor":"260447649","target":"present","response":"absent","rt":"5284.8000000119","correct":false,"confidence":4},{"trial_n":23,"span":8,"encoder":"26093796","distractor":"23093796","target":"present","response":"present","rt":"3635.6000000238","correct":true,"confidence":4},{"trial_n":24,"span":8,"encoder":"65344997","distractor":"65344297","target":"present","response":"absent","rt":"3727.7000000179","correct":false,"confidence":3},{"trial_n":25,"span":7,"encoder":"4763994","distractor":"4773994","target":"present","response":"present","rt":"2891","correct":true,"confidence":3},{"trial_n":26,"span":7,"encoder":"9355405","distractor":"9357405","target":"present","response":"present","rt":"1444","correct":true,"confidence":4},{"trial_n":27,"span":8,"encoder":"81888236","distractor":"81888239","target":"absent","response":"absent","rt":"2249.3000000119","correct":true,"confidence":5},{"trial_n":28,"span":8,"encoder":"09714841","distractor":"09714801","target":"present","response":"absent","rt":"2431","correct":false,"confidence":2},{"trial_n":29,"span":7,"encoder":"4114545","distractor":"4114525","target":"absent","response":"absent","rt":"2051","correct":true,"confidence":5},{"trial_n":30,"span":7,"encoder":"7627173","distractor":"7627773","target":"present","response":"present","rt":"2291.900000006","correct":true,"confidence":4},{"trial_n":31,"span":8,"encoder":"09225225","distractor":"09221225","target":"present","response":"present","rt":"1935.599999994","correct":true,"confidence":5},{"trial_n":32,"span":8,"encoder":"92218442","distractor":"92213442","target":"absent","response":"absent","rt":"1867.3000000119","correct":true,"confidence":5},{"trial_n":33,"span":9,"encoder":"172787099","distractor":"171787099","target":"absent","response":"present","rt":"7245.099999994","correct":false,"confidence":3},{"trial_n":34,"span":8,"encoder":"27471011","distractor":"24471011","target":"present","response":"present","rt":"1614.400000006","correct":true,"confidence":5},{"trial_n":35,"span":8,"encoder":"82649828","distractor":"82629828","target":"absent","response":"absent","rt":"3730.1000000238","correct":true,"confidence":5},{"trial_n":36,"span":9,"encoder":"743747328","distractor":"443747328","target":"present","response":"present","rt":"2427.2000000179","correct":true,"confidence":4},{"trial_n":37,"span":9,"encoder":"848153664","distractor":"848153694","target":"absent","response":"absent","rt":"1380.7000000179","correct":true,"confidence":5},{"trial_n":38,"span":10,"encoder":"5503584116","distractor":"5533584116","target":"absent","response":"absent","rt":"16435.899999976","correct":true,"confidence":4},{"trial_n":39,"span":10,"encoder":"2536145580","distractor":"2536125580","target":"absent","response":"present","rt":"3864.8999999762","correct":false,"confidence":3},{"trial_n":40,"span":9,"encoder":"130963204","distractor":"138963204","target":"present","response":"present","rt":"2960.1000000238","correct":true,"confidence":4},{"trial_n":41,"span":9,"encoder":"330988460","distractor":"330588460","target":"present","response":"present","rt":"2195.3000000119","correct":true,"confidence":5},{"trial_n":42,"span":10,"encoder":"4105315676","distractor":"4405315676","target":"present","response":"present","rt":"1753.6999999881","correct":true,"confidence":3},{"trial_n":43,"span":10,"encoder":"3881770236","distractor":"3881770246","target":"present","response":"present","rt":"1879.900000006","correct":true,"confidence":4},{"trial_n":44,"span":11,"encoder":"35553038603","distractor":"35555038603","target":"present","response":"present","rt":"2941.1000000238","correct":true,"confidence":4},{"trial_n":45,"span":11,"encoder":"94661232171","distractor":"94661232177","target":"present","response":"present","rt":"3692.2999999821","correct":true,"confidence":4},{"trial_n":46,"span":12,"encoder":"077873814440","distractor":"007873814440","target":"present","response":"present","rt":"3291.1999999881","correct":true,"confidence":4},{"trial_n":47,"span":12,"encoder":"968002050985","distractor":"968005050985","target":"present","response":"present","rt":"2275.900000006","correct":true,"confidence":4},{"trial_n":48,"span":13,"encoder":"4195234496051","distractor":"4195234466051","target":"present","response":"present","rt":"2721.2000000179","correct":true,"confidence":4},{"trial_n":49,"span":13,"encoder":"0498918539948","distractor":"0494918539948","target":"absent","response":"absent","rt":"3928.599999994","correct":true,"confidence":4},{"trial_n":50,"span":14,"encoder":"21455320344766","distractor":"21455320644766","target":"present","response":"absent","rt":"1939.6000000238","correct":false,"confidence":2},{"trial_n":51,"span":13,"encoder":"4285624684306","distractor":"0285624684306","target":"present","response":"present","rt":"3233.400000006","correct":true,"confidence":4},{"trial_n":52,"span":13,"encoder":"8611746451296","distractor":"4611746451296","target":"present","response":"present","rt":"2668.1999999881","correct":true,"confidence":4},{"trial_n":53,"span":14,"encoder":"73773900290807","distractor":"75773900290807","target":"absent","response":"absent","rt":"3293","correct":true,"confidence":4},{"trial_n":54,"span":14,"encoder":"86450440649688","distractor":"86450940649688","target":"absent","response":"present","rt":"3493.1999999881","correct":false,"confidence":5},{"trial_n":55,"span":13,"encoder":"4426864003055","distractor":"4436864003055","target":"absent","response":"absent","rt":"3331.8999999762","correct":true,"confidence":3},{"trial_n":56,"span":13,"encoder":"7742704203948","distractor":"1742704203948","target":"absent","response":"present","rt":"2187.1999999881","correct":false,"confidence":2},{"trial_n":57,"span":12,"encoder":"594357026666","distractor":"594357029666","target":"absent","response":"absent","rt":"8151.2999999821","correct":true,"confidence":4},{"trial_n":58,"span":12,"encoder":"050705896868","distractor":"050705996868","target":"absent","response":"absent","rt":"4553.3000000119","correct":true,"confidence":3},{"trial_n":59,"span":13,"encoder":"6520181792982","distractor":"6527181792982","target":"present","response":"present","rt":"1935.7999999821","correct":true,"confidence":3},{"trial_n":60,"span":13,"encoder":"0665097443675","distractor":"0615097443675","target":"absent","response":"present","rt":"4386.2999999821","correct":false,"confidence":3},{"trial_n":61,"span":12,"encoder":"743727390836","distractor":"743737390836","target":"present","response":"present","rt":"1680.900000006","correct":true,"confidence":4},{"trial_n":62,"span":12,"encoder":"994600711297","distractor":"994600781297","target":"present","response":"present","rt":"2148.7999999821","correct":true,"confidence":5},{"trial_n":63,"span":13,"encoder":"1819864294563","distractor":"1819864294562","target":"present","response":"present","rt":"3335.8000000119","correct":true,"confidence":5},{"trial_n":64,"span":13,"encoder":"7825758530999","distractor":"7825358530999","target":"absent","response":"present","rt":"3064.1000000238","correct":false,"confidence":4},{"trial_n":65,"span":12,"encoder":"909717282780","distractor":"909717285780","target":"absent","response":"present","rt":"6249.1999999881","correct":false,"confidence":4},{"trial_n":66,"span":11,"encoder":"97137906465","distractor":"97137506465","target":"present","response":"present","rt":"2862.8000000119","correct":true,"confidence":3},{"trial_n":67,"span":11,"encoder":"63438338611","distractor":"63436338611","target":"absent","response":"present","rt":"1413.099999994","correct":false,"confidence":4},{"trial_n":68,"span":10,"encoder":"7557445961","distractor":"7557445361","target":"absent","response":"absent","rt":"1403.6999999881","correct":true,"confidence":3},{"trial_n":69,"span":10,"encoder":"8763755251","distractor":"8763755951","target":"present","response":"present","rt":"3764.099999994","correct":true,"confidence":4},{"trial_n":70,"span":11,"encoder":"88627377841","distractor":"88627374841","target":"present","response":"present","rt":"3377.400000006","correct":true,"confidence":3},{"trial_n":71,"span":8,"encoder":"05059395","distractor":"05059305","target":"present","response":"present","rt":"4240.400000006","correct":true,"confidence":-1},{"trial_n":72,"span":8,"encoder":"54665340","distractor":"54663340","target":"present","response":"absent","rt":"1812.400000006","correct":false,"confidence":-1},{"trial_n":73,"span":7,"encoder":"9712681","distractor":"9717681","target":"absent","response":"present","rt":"3961.1999999881","correct":false,"confidence":-1},{"trial_n":74,"span":6,"encoder":"240429","distractor":"740429","target":"absent","response":"present","rt":"2134.3999999762","correct":false,"confidence":-1},{"trial_n":75,"span":5,"encoder":"77539","distractor":"71539","target":"present","response":"present","rt":"2437.1999999881","correct":true,"confidence":-1},{"trial_n":76,"span":5,"encoder":"88695","distractor":"88694","target":"present","response":"present","rt":"1409.5","correct":true,"confidence":-1},{"trial_n":77,"span":6,"encoder":"032427","distractor":"032327","target":"present","response":"present","rt":"1823.900000006","correct":true,"confidence":-1},{"trial_n":78,"span":6,"encoder":"244870","distractor":"242870","target":"present","response":"present","rt":"1361.3000000119","correct":true,"confidence":-1},{"trial_n":79,"span":7,"encoder":"5143027","distractor":"5143627","target":"absent","response":"absent","rt":"4337.1999999881","correct":true,"confidence":-1},{"trial_n":80,"span":7,"encoder":"5085720","distractor":"9085720","target":"present","response":"present","rt":"2049.8000000119","correct":true,"confidence":-1},{"trial_n":81,"span":8,"encoder":"61327961","distractor":"61327901","target":"present","response":"present","rt":"1527.099999994","correct":true,"confidence":-1},{"trial_n":82,"span":8,"encoder":"59997792","distractor":"59997762","target":"absent","response":"present","rt":"2773.8000000119","correct":false,"confidence":-1},{"trial_n":83,"span":7,"encoder":"0975286","distractor":"0975246","target":"present","response":"present","rt":"3413","correct":true,"confidence":-1},{"trial_n":84,"span":7,"encoder":"2654429","distractor":"2657429","target":"present","response":"absent","rt":"2025.8000000119","correct":false,"confidence":-1},{"trial_n":85,"span":6,"encoder":"090168","distractor":"091168","target":"present","response":"present","rt":"1899","correct":true,"confidence":-1},{"trial_n":86,"span":6,"encoder":"021128","distractor":"029128","target":"present","response":"present","rt":"1543.3000000119","correct":true,"confidence":-1},{"trial_n":87,"span":7,"encoder":"8646235","distractor":"8616235","target":"present","response":"present","rt":"1230.1999999881","correct":true,"confidence":-1},{"trial_n":88,"span":7,"encoder":"1794187","distractor":"1794587","target":"present","response":"present","rt":"10997.800000012","correct":true,"confidence":-1},{"trial_n":89,"span":8,"encoder":"49419108","distractor":"49479108","target":"absent","response":"present","rt":"3081.599999994","correct":false,"confidence":-1},{"trial_n":90,"span":7,"encoder":"5076087","distractor":"5076083","target":"absent","response":"present","rt":"1528.3000000119","correct":false,"confidence":-1},{"trial_n":91,"span":6,"encoder":"849160","distractor":"849140","target":"absent","response":"absent","rt":"2038.7999999821","correct":true,"confidence":5},{"trial_n":92,"span":6,"encoder":"455592","distractor":"455392","target":"present","response":"present","rt":"2488.099999994","correct":true,"confidence":5},{"trial_n":93,"span":7,"encoder":"9681150","distractor":"9685150","target":"absent","response":"absent","rt":"2608.900000006","correct":true,"confidence":4},{"trial_n":94,"span":7,"encoder":"3441112","distractor":"3441110","target":"present","response":"present","rt":"2159.5","correct":true,"confidence":5},{"trial_n":95,"span":8,"encoder":"19241748","distractor":"19241448","target":"present","response":"present","rt":"3255.900000006","correct":true,"confidence":3},{"trial_n":96,"span":8,"encoder":"11317267","distractor":"11317297","target":"present","response":"present","rt":"2631.7000000179","correct":true,"confidence":4},{"trial_n":97,"span":9,"encoder":"097939346","distractor":"097939316","target":"present","response":"present","rt":"2617.8000000119","correct":true,"confidence":5},{"trial_n":98,"span":9,"encoder":"738406047","distractor":"738476047","target":"absent","response":"present","rt":"6337.2999999821","correct":false,"confidence":3},{"trial_n":99,"span":8,"encoder":"15358484","distractor":"15318484","target":"absent","response":"present","rt":"6063.400000006","correct":false,"confidence":4},{"trial_n":100,"span":7,"encoder":"2233805","distractor":"2733805","target":"absent","response":"absent","rt":"1912.8999999762","correct":true,"confidence":5},{"trial_n":101,"span":7,"encoder":"8717668","distractor":"3717668","target":"absent","response":"absent","rt":"2386","correct":true,"confidence":5},{"trial_n":102,"span":8,"encoder":"29191982","distractor":"29191981","target":"absent","response":"absent","rt":"1655.7999999821","correct":true,"confidence":5},{"trial_n":103,"span":8,"encoder":"34719142","distractor":"34719242","target":"absent","response":"absent","rt":"4273.5","correct":true,"confidence":2},{"trial_n":104,"span":9,"encoder":"157350669","distractor":"157350666","target":"absent","response":"absent","rt":"1963","correct":true,"confidence":5},{"trial_n":105,"span":9,"encoder":"857010678","distractor":"877010678","target":"absent","response":"present","rt":"3382.8999999762","correct":false,"confidence":3},{"trial_n":106,"span":8,"encoder":"02454634","distractor":"08454634","target":"absent","response":"absent","rt":"3442.5","correct":true,"confidence":5},{"trial_n":107,"span":8,"encoder":"56416113","distractor":"56476113","target":"present","response":"present","rt":"6357.2000000179","correct":true,"confidence":4},{"trial_n":108,"span":9,"encoder":"696135113","distractor":"696135103","target":"absent","response":"absent","rt":"1672.3000000119","correct":true,"confidence":5},{"trial_n":109,"span":9,"encoder":"907439928","distractor":"207439928","target":"absent","response":"absent","rt":"5035.1999999881","correct":true,"confidence":4},{"trial_n":110,"span":10,"encoder":"9522695513","distractor":"9552695513","target":"absent","response":"absent","rt":"4021.1999999881","correct":true,"confidence":3},{"trial_n":111,"span":10,"encoder":"4219684861","distractor":"9219684861","target":"absent","response":"absent","rt":"3623.400000006","correct":true,"confidence":4},{"trial_n":112,"span":11,"encoder":"80590550518","distractor":"80590550018","target":"present","response":"absent","rt":"2421.400000006","correct":false,"confidence":3},{"trial_n":113,"span":10,"encoder":"3651162711","distractor":"3651162719","target":"present","response":"absent","rt":"6858.599999994","correct":false,"confidence":2},{"trial_n":114,"span":9,"encoder":"164645501","distractor":"164640501","target":"absent","response":"absent","rt":"5181","correct":true,"confidence":3},{"trial_n":115,"span":9,"encoder":"737300744","distractor":"737300144","target":"present","response":"present","rt":"3317.599999994","correct":true,"confidence":5},{"trial_n":116,"span":10,"encoder":"5740665693","distractor":"5740665993","target":"absent","response":"absent","rt":"9234.8000000119","correct":true,"confidence":2},{"trial_n":117,"span":10,"encoder":"6255339471","distractor":"6255339472","target":"absent","response":"absent","rt":"1633.099999994","correct":true,"confidence":5},{"trial_n":118,"span":11,"encoder":"67363930733","distractor":"67367930733","target":"present","response":"present","rt":"6751.7000000179","correct":true,"confidence":3},{"trial_n":119,"span":11,"encoder":"43941643283","distractor":"43741643283","target":"present","response":"absent","rt":"5435.599999994","correct":false,"confidence":2},{"trial_n":120,"span":10,"encoder":"0483261818","distractor":"1483261818","target":"present","response":"absent","rt":"9077.6999999881","correct":false,"confidence":4},{"trial_n":121,"span":9,"encoder":"507244644","distractor":"507243644","target":"absent","response":"absent","rt":"1810.8999999762","correct":true,"confidence":5},{"trial_n":122,"span":9,"encoder":"058899466","distractor":"258899466","target":"present","response":"present","rt":"4095.3000000119","correct":true,"confidence":4},{"trial_n":123,"span":10,"encoder":"5602714754","distractor":"5602744754","target":"absent","response":"present","rt":"5477.7000000179","correct":false,"confidence":3},{"trial_n":124,"span":9,"encoder":"737911842","distractor":"717911842","target":"present","response":"present","rt":"7899.599999994","correct":true,"confidence":4},{"trial_n":125,"span":9,"encoder":"175921362","distractor":"175961362","target":"absent","response":"present","rt":"4708.2000000179","correct":false,"confidence":2},{"trial_n":126,"span":8,"encoder":"65068447","distractor":"65068444","target":"present","response":"present","rt":"5896.5","correct":true,"confidence":2},{"trial_n":127,"span":8,"encoder":"30629989","distractor":"30679989","target":"absent","response":"absent","rt":"3418.7999999821","correct":true,"confidence":4},{"trial_n":128,"span":9,"encoder":"511324005","distractor":"561324005","target":"present","response":"absent","rt":"5912.5","correct":false,"confidence":5},{"trial_n":129,"span":8,"encoder":"35117678","distractor":"35117674","target":"absent","response":"absent","rt":"4177.6999999881","correct":true,"confidence":5},{"trial_n":130,"span":8,"encoder":"91004341","distractor":"91004344","target":"absent","response":"absent","rt":"2648.8000000119","correct":true,"confidence":5},{"trial_n":131,"span":9,"encoder":"652079661","distractor":"652079651","target":"present","response":"present","rt":"2673.3000000119","correct":true,"confidence":4},{"trial_n":132,"span":9,"encoder":"554912419","distractor":"554952419","target":"absent","response":"present","rt":"6931.5","correct":false,"confidence":3},{"trial_n":133,"span":8,"encoder":"54432570","distractor":"54430570","target":"absent","response":"absent","rt":"3265.2999999821","correct":true,"confidence":4},{"trial_n":134,"span":8,"encoder":"71910948","distractor":"71610948","target":"absent","response":"absent","rt":"2863.599999994","correct":true,"confidence":4},{"trial_n":135,"span":9,"encoder":"201156881","distractor":"202156881","target":"present","response":"present","rt":"2377.1000000238","correct":true,"confidence":4},{"trial_n":136,"span":9,"encoder":"956837522","distractor":"156837522","target":"present","response":"present","rt":"3067.3000000119","correct":true,"confidence":5},{"trial_n":137,"span":10,"encoder":"9075983843","distractor":"9025983843","target":"present","response":"present","rt":"2480","correct":true,"confidence":4},{"trial_n":138,"span":10,"encoder":"6750893976","distractor":"6750893926","target":"present","response":"present","rt":"1951.599999994","correct":true,"confidence":5},{"trial_n":139,"span":11,"encoder":"59499802029","distractor":"59499892029","target":"absent","response":"present","rt":"11946.099999994","correct":false,"confidence":3},{"trial_n":140,"span":10,"encoder":"1581918408","distractor":"1581918508","target":"present","response":"present","rt":"2360.7000000179","correct":true,"confidence":5}]