[{"trial_n":1,"min":25,"max":230,"target":"present","response":"absent","rt":5591.4000000358,"correct":false,"confidence":-1},{"trial_n":2,"min":25,"max":230,"target":"present","response":"present","rt":1726,"correct":true,"confidence":-1},{"trial_n":3,"min":25,"max":230,"target":"absent","response":"absent","rt":1005.2999999523,"correct":true,"confidence":-1},{"trial_n":4,"min":41,"max":214,"target":"absent","response":"absent","rt":2990.8000000119,"correct":true,"confidence":-1},{"trial_n":5,"min":41,"max":214,"target":"present","response":"absent","rt":2128.1000000238,"correct":false,"confidence":-1},{"trial_n":6,"min":25,"max":230,"target":"absent","response":"present","rt":975.10000002384,"correct":false,"confidence":-1},{"trial_n":7,"min":9,"max":246,"target":"absent","response":"absent","rt":1769.3000000119,"correct":true,"confidence":-1},{"trial_n":8,"min":9,"max":246,"target":"present","response":"present","rt":1243.1000000238,"correct":true,"confidence":-1},{"trial_n":9,"min":25,"max":230,"target":"absent","response":"absent","rt":870.30000001192,"correct":true,"confidence":-1},{"trial_n":10,"min":25,"max":230,"target":"present","response":"present","rt":934.39999997616,"correct":true,"confidence":-1},{"trial_n":11,"min":33,"max":222,"target":"present","response":"present","rt":1479.5,"correct":true,"confidence":-1},{"trial_n":12,"min":33,"max":222,"target":"absent","response":"absent","rt":916.19999998808,"correct":true,"confidence":-1},{"trial_n":13,"min":41,"max":214,"target":"absent","response":"absent","rt":643.39999997616,"correct":true,"confidence":-1},{"trial_n":14,"min":41,"max":214,"target":"present","response":"present","rt":833.80000001192,"correct":true,"confidence":-1},{"trial_n":15,"min":49,"max":206,"target":"present","response":"present","rt":1191,"correct":true,"confidence":-1},{"trial_n":16,"min":49,"max":206,"target":"present","response":"present","rt":952.30000001192,"correct":true,"confidence":-1},{"trial_n":17,"min":57,"max":198,"target":"absent","response":"absent","rt":899.29999995232,"correct":true,"confidence":-1},{"trial_n":18,"min":57,"max":198,"target":"absent","response":"absent","rt":2699.4000000358,"correct":true,"confidence":-1},{"trial_n":19,"min":65,"max":190,"target":"absent","response":"present","rt":940.59999996424,"correct":false,"confidence":-1},{"trial_n":20,"min":57,"max":198,"target":"absent","response":"present","rt":1491.5,"correct":false,"confidence":-1},{"trial_n":21,"min":53,"max":202,"target":"present","response":"present","rt":1311.6000000238,"correct":true,"confidence":3},{"trial_n":22,"min":53,"max":202,"target":"absent","response":"present","rt":1122.1999999881,"correct":false,"confidence":3},{"trial_n":23,"min":49,"max":206,"target":"present","response":"present","rt":790,"correct":true,"confidence":4},{"trial_n":24,"min":49,"max":206,"target":"present","response":"present","rt":971.30000001192,"correct":true,"confidence":5},{"trial_n":25,"min":53,"max":202,"target":"absent","response":"absent","rt":1001.8999999762,"correct":true,"confidence":2},{"trial_n":26,"min":53,"max":202,"target":"absent","response":"absent","rt":1502.3000000119,"correct":true,"confidence":3},{"trial_n":27,"min":57,"max":198,"target":"absent","response":"present","rt":1177.8000000119,"correct":false,"confidence":2},{"trial_n":28,"min":53,"max":202,"target":"present","response":"present","rt":1758,"correct":true,"confidence":4},{"trial_n":29,"min":53,"max":202,"target":"absent","response":"present","rt":1097.8000000119,"correct":false,"confidence":4},{"trial_n":30,"min":49,"max":206,"target":"absent","response":"absent","rt":1816.2000000477,"correct":true,"confidence":2},{"trial_n":31,"min":49,"max":206,"target":"present","response":"present","rt":1164,"correct":true,"confidence":4},{"trial_n":32,"min":51,"max":204,"target":"present","response":"present","rt":852.80000001192,"correct":true,"confidence":4},{"trial_n":33,"min":51,"max":204,"target":"present","response":"present","rt":1241.9000000358,"correct":true,"confidence":4},{"trial_n":34,"min":53,"max":202,"target":"present","response":"present","rt":990.40000003576,"correct":true,"confidence":4},{"trial_n":35,"min":53,"max":202,"target":"present","response":"present","rt":996.09999996424,"correct":true,"confidence":4},{"trial_n":36,"min":55,"max":200,"target":"absent","response":"present","rt":1810.5,"correct":false,"confidence":4},{"trial_n":37,"min":53,"max":202,"target":"present","response":"present","rt":1063.4000000358,"correct":true,"confidence":4},{"trial_n":38,"min":53,"max":202,"target":"absent","response":"present","rt":1194.3999999762,"correct":false,"confidence":4},{"trial_n":39,"min":51,"max":204,"target":"absent","response":"present","rt":1061.8000000119,"correct":false,"confidence":4},{"trial_n":40,"min":49,"max":206,"target":"present","response":"present","rt":1055.3999999762,"correct":true,"confidence":5},{"trial_n":41,"min":49,"max":206,"target":"absent","response":"absent","rt":1745.1999999881,"correct":true,"confidence":3},{"trial_n":42,"min":50,"max":205,"target":"present","response":"present","rt":1170.9000000358,"correct":true,"confidence":4},{"trial_n":43,"min":50,"max":205,"target":"absent","response":"absent","rt":1389.1999999881,"correct":true,"confidence":3},{"trial_n":44,"min":51,"max":204,"target":"present","response":"present","rt":1041.6999999881,"correct":true,"confidence":4},{"trial_n":45,"min":51,"max":204,"target":"absent","response":"present","rt":1078.5,"correct":false,"confidence":4},{"trial_n":46,"min":50,"max":205,"target":"absent","response":"absent","rt":1666.1999999881,"correct":true,"confidence":3},{"trial_n":47,"min":50,"max":205,"target":"present","response":"present","rt":1040.9000000358,"correct":true,"confidence":4},{"trial_n":48,"min":51,"max":204,"target":"present","response":"present","rt":1080.8999999762,"correct":true,"confidence":4},{"trial_n":49,"min":51,"max":204,"target":"present","response":"present","rt":924.40000003576,"correct":true,"confidence":4},{"trial_n":50,"min":52,"max":203,"target":"present","response":"present","rt":770.69999998808,"correct":true,"confidence":4},{"trial_n":51,"min":52,"max":203,"target":"present","response":"present","rt":771,"correct":true,"confidence":4},{"trial_n":52,"min":53,"max":202,"target":"present","response":"present","rt":931.30000001192,"correct":true,"confidence":4},{"trial_n":53,"min":53,"max":202,"target":"absent","response":"present","rt":1485.3000000119,"correct":false,"confidence":4},{"trial_n":54,"min":52,"max":203,"target":"absent","response":"present","rt":877.90000003576,"correct":false,"confidence":4},{"trial_n":55,"min":51,"max":204,"target":"absent","response":"present","rt":3570.3000000119,"correct":false,"confidence":4},{"trial_n":56,"min":50,"max":205,"target":"absent","response":"present","rt":1074.6999999881,"correct":false,"confidence":4},{"trial_n":57,"min":49,"max":206,"target":"absent","response":"present","rt":791,"correct":false,"confidence":3},{"trial_n":58,"min":48,"max":207,"target":"absent","response":"absent","rt":2368.9000000358,"correct":true,"confidence":2},{"trial_n":59,"min":48,"max":207,"target":"present","response":"present","rt":842.09999996424,"correct":true,"confidence":5},{"trial_n":60,"min":49,"max":206,"target":"absent","response":"absent","rt":1349.2000000477,"correct":true,"confidence":3},{"trial_n":61,"min":49,"max":206,"target":"present","response":"present","rt":727.70000004768,"correct":true,"confidence":4},{"trial_n":62,"min":50,"max":205,"target":"present","response":"present","rt":1424.7999999523,"correct":true,"confidence":4},{"trial_n":63,"min":50,"max":205,"target":"present","response":"present","rt":1187.5,"correct":true,"confidence":4},{"trial_n":64,"min":51,"max":204,"target":"present","response":"present","rt":1122.7000000477,"correct":true,"confidence":4},{"trial_n":65,"min":51,"max":204,"target":"present","response":"present","rt":1197.7999999523,"correct":true,"confidence":4},{"trial_n":66,"min":52,"max":203,"target":"absent","response":"present","rt":1033.3999999762,"correct":false,"confidence":4},{"trial_n":67,"min":51,"max":204,"target":"present","response":"present","rt":1199.3000000119,"correct":true,"confidence":4},{"trial_n":68,"min":51,"max":204,"target":"present","response":"present","rt":7946.6999999881,"correct":true,"confidence":1},{"trial_n":69,"min":52,"max":203,"target":"absent","response":"absent","rt":3273.8999999762,"correct":true,"confidence":2},{"trial_n":70,"min":52,"max":203,"target":"absent","response":"absent","rt":1067.5,"correct":true,"confidence":4},{"trial_n":71,"min":41,"max":214,"target":"present","response":"present","rt":2067.8999999762,"correct":true,"confidence":-1},{"trial_n":72,"min":41,"max":214,"target":"present","response":"present","rt":685.79999995232,"correct":true,"confidence":-1},{"trial_n":73,"min":57,"max":198,"target":"absent","response":"absent","rt":880.39999997616,"correct":true,"confidence":-1},{"trial_n":74,"min":57,"max":198,"target":"absent","response":"absent","rt":1636.3000000119,"correct":true,"confidence":-1},{"trial_n":75,"min":73,"max":182,"target":"present","response":"present","rt":1317.6999999881,"correct":true,"confidence":-1},{"trial_n":76,"min":73,"max":182,"target":"present","response":"present","rt":1002,"correct":true,"confidence":-1},{"trial_n":77,"min":89,"max":166,"target":"present","response":"present","rt":1512.6999999881,"correct":true,"confidence":-1},{"trial_n":78,"min":89,"max":166,"target":"absent","response":"present","rt":771.69999998808,"correct":false,"confidence":-1},{"trial_n":79,"min":73,"max":182,"target":"absent","response":"absent","rt":1010.8000000119,"correct":true,"confidence":-1},{"trial_n":80,"min":73,"max":182,"target":"absent","response":"absent","rt":890.19999998808,"correct":true,"confidence":-1},{"trial_n":81,"min":81,"max":174,"target":"present","response":"present","rt":994.60000002384,"correct":true,"confidence":-1},{"trial_n":82,"min":81,"max":174,"target":"present","response":"present","rt":705.29999995232,"correct":true,"confidence":-1},{"trial_n":83,"min":89,"max":166,"target":"absent","response":"present","rt":664.10000002384,"correct":false,"confidence":-1},{"trial_n":84,"min":81,"max":174,"target":"present","response":"present","rt":1507.5,"correct":true,"confidence":-1},{"trial_n":85,"min":81,"max":174,"target":"present","response":"present","rt":773.80000001192,"correct":true,"confidence":-1},{"trial_n":86,"min":89,"max":166,"target":"present","response":"present","rt":2576.1999999881,"correct":true,"confidence":-1},{"trial_n":87,"min":89,"max":166,"target":"present","response":"present","rt":621.29999995232,"correct":true,"confidence":-1},{"trial_n":88,"min":97,"max":158,"target":"absent","response":"present","rt":591.80000001192,"correct":false,"confidence":-1},{"trial_n":89,"min":89,"max":166,"target":"absent","response":"present","rt":1073.6999999881,"correct":false,"confidence":-1},{"trial_n":90,"min":81,"max":174,"target":"present","response":"absent","rt":1185.5,"correct":false,"confidence":-1},{"trial_n":91,"min":77,"max":178,"target":"present","response":"present","rt":2379.6000000238,"correct":true,"confidence":3},{"trial_n":92,"min":77,"max":178,"target":"absent","response":"absent","rt":1210.1999999881,"correct":true,"confidence":3},{"trial_n":93,"min":81,"max":174,"target":"absent","response":"absent","rt":970.89999997616,"correct":true,"confidence":3},{"trial_n":94,"min":81,"max":174,"target":"present","response":"present","rt":1005.8000000119,"correct":true,"confidence":2},{"trial_n":95,"min":85,"max":170,"target":"present","response":"present","rt":828.10000002384,"correct":true,"confidence":4},{"trial_n":96,"min":85,"max":170,"target":"absent","response":"absent","rt":920.89999997616,"correct":true,"confidence":4},{"trial_n":97,"min":89,"max":166,"target":"present","response":"absent","rt":1022.7999999523,"correct":false,"confidence":4},{"trial_n":98,"min":85,"max":170,"target":"present","response":"present","rt":820.90000003576,"correct":true,"confidence":3},{"trial_n":99,"min":85,"max":170,"target":"present","response":"present","rt":927.60000002384,"correct":true,"confidence":3},{"trial_n":100,"min":89,"max":166,"target":"present","response":"present","rt":1000.2000000477,"correct":true,"confidence":3},{"trial_n":101,"min":89,"max":166,"target":"absent","response":"present","rt":901.19999998808,"correct":false,"confidence":3},{"trial_n":102,"min":87,"max":168,"target":"present","response":"absent","rt":1345.6999999881,"correct":false,"confidence":3},{"trial_n":103,"min":85,"max":170,"target":"present","response":"absent","rt":1034.9000000358,"correct":false,"confidence":3},{"trial_n":104,"min":83,"max":172,"target":"absent","response":"absent","rt":2167.2000000477,"correct":true,"confidence":3},{"trial_n":105,"min":83,"max":172,"target":"present","response":"present","rt":1729.6999999881,"correct":true,"confidence":3},{"trial_n":106,"min":85,"max":170,"target":"absent","response":"present","rt":895.10000002384,"correct":false,"confidence":3},{"trial_n":107,"min":83,"max":172,"target":"present","response":"present","rt":816.5,"correct":true,"confidence":3},{"trial_n":108,"min":83,"max":172,"target":"present","response":"present","rt":1389.6000000238,"correct":true,"confidence":3},{"trial_n":109,"min":85,"max":170,"target":"present","response":"absent","rt":909.80000001192,"correct":false,"confidence":3},{"trial_n":110,"min":83,"max":172,"target":"absent","response":"present","rt":1013.7999999523,"correct":false,"confidence":1},{"trial_n":111,"min":82,"max":173,"target":"absent","response":"present","rt":805.39999997616,"correct":false,"confidence":1},{"trial_n":112,"min":81,"max":174,"target":"present","response":"present","rt":1334.5,"correct":true,"confidence":3},{"trial_n":113,"min":81,"max":174,"target":"absent","response":"absent","rt":977.60000002384,"correct":true,"confidence":3},{"trial_n":114,"min":82,"max":173,"target":"absent","response":"absent","rt":833.69999998808,"correct":true,"confidence":3},{"trial_n":115,"min":82,"max":173,"target":"absent","response":"absent","rt":1446.4000000358,"correct":true,"confidence":3},{"trial_n":116,"min":83,"max":172,"target":"present","response":"present","rt":1237,"correct":true,"confidence":3},{"trial_n":117,"min":83,"max":172,"target":"absent","response":"present","rt":759.60000002384,"correct":false,"confidence":3},{"trial_n":118,"min":82,"max":173,"target":"present","response":"present","rt":944.40000003576,"correct":true,"confidence":4},{"trial_n":119,"min":82,"max":173,"target":"absent","response":"present","rt":805.60000002384,"correct":false,"confidence":3},{"trial_n":120,"min":81,"max":174,"target":"present","response":"present","rt":992,"correct":true,"confidence":3},{"trial_n":121,"min":81,"max":174,"target":"present","response":"present","rt":679,"correct":true,"confidence":3},{"trial_n":122,"min":82,"max":173,"target":"absent","response":"present","rt":827.19999998808,"correct":false,"confidence":3},{"trial_n":123,"min":81,"max":174,"target":"absent","response":"present","rt":1310.5,"correct":false,"confidence":3},{"trial_n":124,"min":80,"max":175,"target":"absent","response":"absent","rt":904,"correct":true,"confidence":4},{"trial_n":125,"min":80,"max":175,"target":"absent","response":"present","rt":1116.6999999881,"correct":false,"confidence":3},{"trial_n":126,"min":79,"max":176,"target":"present","response":"absent","rt":1062.8000000119,"correct":false,"confidence":3},{"trial_n":127,"min":78,"max":177,"target":"absent","response":"absent","rt":996.30000001192,"correct":true,"confidence":3},{"trial_n":128,"min":78,"max":177,"target":"absent","response":"present","rt":1387.8999999762,"correct":false,"confidence":3},{"trial_n":129,"min":77,"max":178,"target":"absent","response":"present","rt":799.79999995232,"correct":false,"confidence":3},{"trial_n":130,"min":76,"max":179,"target":"present","response":"present","rt":930.19999998808,"correct":true,"confidence":2},{"trial_n":131,"min":76,"max":179,"target":"present","response":"present","rt":753.69999998808,"correct":true,"confidence":4},{"trial_n":132,"min":77,"max":178,"target":"absent","response":"absent","rt":1115.0999999642,"correct":true,"confidence":4},{"trial_n":133,"min":77,"max":178,"target":"absent","response":"absent","rt":1697.6999999881,"correct":true,"confidence":3},{"trial_n":134,"min":78,"max":177,"target":"present","response":"absent","rt":1414.3000000119,"correct":false,"confidence":3},{"trial_n":135,"min":77,"max":178,"target":"absent","response":"absent","rt":997.30000001192,"correct":true,"confidence":3},{"trial_n":136,"min":77,"max":178,"target":"present","response":"absent","rt":835.30000001192,"correct":false,"confidence":3},{"trial_n":137,"min":76,"max":179,"target":"absent","response":"absent","rt":864,"correct":true,"confidence":3},{"trial_n":138,"min":76,"max":179,"target":"absent","response":"absent","rt":1516.1999999881,"correct":true,"confidence":3},{"trial_n":139,"min":77,"max":178,"target":"present","response":"absent","rt":1075.1999999881,"correct":false,"confidence":3},{"trial_n":140,"min":76,"max":179,"target":"absent","response":"absent","rt":1441.6000000238,"correct":true,"confidence":3}]