[{"trial_n":1,"n_dots":4.25,"target":"left","response":"left","rt":12549.800000012,"correct":true,"confidence":-1},{"trial_n":2,"n_dots":4.25,"target":"left","response":"left","rt":9145,"correct":true,"confidence":-1},{"trial_n":3,"n_dots":3.85,"target":"right","response":"right","rt":1095.3000000119,"correct":true,"confidence":-1},{"trial_n":4,"n_dots":3.85,"target":"left","response":"right","rt":1736.5,"correct":false,"confidence":-1},{"trial_n":5,"n_dots":4.25,"target":"right","response":"right","rt":1536.8000000119,"correct":true,"confidence":-1},{"trial_n":6,"n_dots":4.25,"target":"left","response":"left","rt":895.09999999404,"correct":true,"confidence":-1},{"trial_n":7,"n_dots":3.85,"target":"right","response":"right","rt":805.5,"correct":true,"confidence":-1},{"trial_n":8,"n_dots":3.85,"target":"right","response":"right","rt":740.5,"correct":true,"confidence":-1},{"trial_n":9,"n_dots":3.65,"target":"left","response":"left","rt":823.5,"correct":true,"confidence":-1},{"trial_n":10,"n_dots":3.65,"target":"right","response":"right","rt":819.09999999404,"correct":true,"confidence":-1},{"trial_n":11,"n_dots":3.45,"target":"left","response":"left","rt":825,"correct":true,"confidence":-1},{"trial_n":12,"n_dots":3.45,"target":"right","response":"right","rt":641.80000001192,"correct":true,"confidence":-1},{"trial_n":13,"n_dots":3.35,"target":"left","response":"left","rt":1210.900000006,"correct":true,"confidence":-1},{"trial_n":14,"n_dots":3.35,"target":"left","response":"right","rt":1887.400000006,"correct":false,"confidence":-1},{"trial_n":15,"n_dots":3.45,"target":"left","response":"left","rt":3126.8000000119,"correct":true,"confidence":-1},{"trial_n":16,"n_dots":3.45,"target":"right","response":"right","rt":9672,"correct":true,"confidence":-1},{"trial_n":17,"n_dots":3.35,"target":"right","response":"right","rt":683.70000001788,"correct":true,"confidence":-1},{"trial_n":18,"n_dots":3.35,"target":"right","response":"right","rt":559.40000000596,"correct":true,"confidence":-1},{"trial_n":19,"n_dots":3.25,"target":"right","response":"right","rt":512,"correct":true,"confidence":-1},{"trial_n":20,"n_dots":3.25,"target":"left","response":"left","rt":620,"correct":true,"confidence":-1},{"trial_n":21,"n_dots":3.15,"target":"left","response":"left","rt":1110.5,"correct":true,"confidence":4},{"trial_n":22,"n_dots":3.15,"target":"left","response":"left","rt":775.80000001192,"correct":true,"confidence":4},{"trial_n":23,"n_dots":3.05,"target":"left","response":"left","rt":798.29999998212,"correct":true,"confidence":3},{"trial_n":24,"n_dots":3.05,"target":"left","response":"left","rt":1825,"correct":true,"confidence":3},{"trial_n":25,"n_dots":2.95,"target":"left","response":"left","rt":1519.3000000119,"correct":true,"confidence":2},{"trial_n":26,"n_dots":2.95,"target":"left","response":"right","rt":1172,"correct":false,"confidence":2},{"trial_n":27,"n_dots":3.05,"target":"left","response":"left","rt":935.30000001192,"correct":true,"confidence":3},{"trial_n":28,"n_dots":3.05,"target":"left","response":"left","rt":758.29999998212,"correct":true,"confidence":4},{"trial_n":29,"n_dots":2.95,"target":"right","response":"right","rt":3503.400000006,"correct":true,"confidence":2},{"trial_n":30,"n_dots":2.95,"target":"right","response":"right","rt":787.80000001192,"correct":true,"confidence":3},{"trial_n":31,"n_dots":2.85,"target":"left","response":"left","rt":1012.5,"correct":true,"confidence":2},{"trial_n":32,"n_dots":2.85,"target":"right","response":"right","rt":857.59999999404,"correct":true,"confidence":3},{"trial_n":33,"n_dots":2.75,"target":"right","response":"left","rt":683.19999998808,"correct":false,"confidence":4},{"trial_n":34,"n_dots":2.85,"target":"right","response":"right","rt":1582.099999994,"correct":true,"confidence":3},{"trial_n":35,"n_dots":2.85,"target":"right","response":"right","rt":1113.8000000119,"correct":true,"confidence":4},{"trial_n":36,"n_dots":2.75,"target":"right","response":"right","rt":3974.400000006,"correct":true,"confidence":3},{"trial_n":37,"n_dots":2.75,"target":"left","response":"right","rt":1108.7999999821,"correct":false,"confidence":3},{"trial_n":38,"n_dots":2.85,"target":"right","response":"left","rt":952,"correct":false,"confidence":4},{"trial_n":39,"n_dots":2.95,"target":"right","response":"right","rt":704,"correct":true,"confidence":4},{"trial_n":40,"n_dots":2.95,"target":"right","response":"right","rt":703.19999998808,"correct":true,"confidence":5},{"trial_n":41,"n_dots":2.85,"target":"left","response":"left","rt":698.29999998212,"correct":true,"confidence":3},{"trial_n":42,"n_dots":2.85,"target":"left","response":"left","rt":1514.7999999821,"correct":true,"confidence":3},{"trial_n":43,"n_dots":2.75,"target":"right","response":"right","rt":627.20000001788,"correct":true,"confidence":4},{"trial_n":44,"n_dots":2.75,"target":"left","response":"left","rt":684,"correct":true,"confidence":3},{"trial_n":45,"n_dots":2.65,"target":"right","response":"right","rt":613,"correct":true,"confidence":5},{"trial_n":46,"n_dots":2.65,"target":"right","response":"left","rt":1354.900000006,"correct":false,"confidence":3},{"trial_n":47,"n_dots":2.75,"target":"right","response":"right","rt":456,"correct":true,"confidence":4},{"trial_n":48,"n_dots":2.75,"target":"left","response":"left","rt":1226.6999999881,"correct":true,"confidence":2},{"trial_n":49,"n_dots":2.65,"target":"left","response":"right","rt":872.59999999404,"correct":false,"confidence":3},{"trial_n":50,"n_dots":2.75,"target":"right","response":"right","rt":1034.400000006,"correct":true,"confidence":3},{"trial_n":51,"n_dots":2.75,"target":"right","response":"left","rt":807.09999999404,"correct":false,"confidence":3},{"trial_n":52,"n_dots":2.85,"target":"right","response":"right","rt":510.29999998212,"correct":true,"confidence":5},{"trial_n":53,"n_dots":2.85,"target":"left","response":"left","rt":663.5,"correct":true,"confidence":4},{"trial_n":54,"n_dots":2.75,"target":"right","response":"right","rt":596.59999999404,"correct":true,"confidence":4},{"trial_n":55,"n_dots":2.75,"target":"left","response":"left","rt":779.40000000596,"correct":true,"confidence":4},{"trial_n":56,"n_dots":2.65,"target":"right","response":"right","rt":656.30000001192,"correct":true,"confidence":3},{"trial_n":57,"n_dots":2.65,"target":"left","response":"left","rt":1043.6999999881,"correct":true,"confidence":2},{"trial_n":58,"n_dots":2.55,"target":"right","response":"left","rt":1718,"correct":false,"confidence":3},{"trial_n":59,"n_dots":2.65,"target":"left","response":"left","rt":681.80000001192,"correct":true,"confidence":4},{"trial_n":60,"n_dots":2.65,"target":"left","response":"left","rt":1554.8000000119,"correct":true,"confidence":3},{"trial_n":61,"n_dots":2.55,"target":"left","response":"left","rt":780.40000000596,"correct":true,"confidence":3},{"trial_n":62,"n_dots":2.55,"target":"left","response":"right","rt":595.29999998212,"correct":false,"confidence":3},{"trial_n":63,"n_dots":2.65,"target":"left","response":"left","rt":874.19999998808,"correct":true,"confidence":4},{"trial_n":64,"n_dots":2.65,"target":"right","response":"left","rt":886.30000001192,"correct":false,"confidence":4},{"trial_n":65,"n_dots":2.75,"target":"right","response":"right","rt":604.59999999404,"correct":true,"confidence":3},{"trial_n":66,"n_dots":2.75,"target":"left","response":"left","rt":537.5,"correct":true,"confidence":5},{"trial_n":67,"n_dots":2.65,"target":"right","response":"left","rt":1125,"correct":false,"confidence":3},{"trial_n":68,"n_dots":2.75,"target":"left","response":"left","rt":651.09999999404,"correct":true,"confidence":4},{"trial_n":69,"n_dots":2.75,"target":"right","response":"left","rt":2862.7999999821,"correct":false,"confidence":3},{"trial_n":70,"n_dots":2.85,"target":"right","response":"right","rt":671.20000001788,"correct":true,"confidence":4},{"trial_n":71,"n_dots":2.85,"target":"right","response":"right","rt":649.90000000596,"correct":true,"confidence":3},{"trial_n":72,"n_dots":2.75,"target":"right","response":"left","rt":1697.8999999762,"correct":false,"confidence":3},{"trial_n":73,"n_dots":2.85,"target":"right","response":"left","rt":999.09999999404,"correct":false,"confidence":4},{"trial_n":74,"n_dots":2.95,"target":"left","response":"left","rt":876.89999997616,"correct":true,"confidence":3},{"trial_n":75,"n_dots":2.95,"target":"right","response":"right","rt":1378.8000000119,"correct":true,"confidence":4},{"trial_n":76,"n_dots":2.85,"target":"right","response":"left","rt":661.30000001192,"correct":false,"confidence":4},{"trial_n":77,"n_dots":2.95,"target":"right","response":"left","rt":1357.900000006,"correct":false,"confidence":4},{"trial_n":78,"n_dots":3.05,"target":"left","response":"left","rt":785,"correct":true,"confidence":4},{"trial_n":79,"n_dots":3.05,"target":"right","response":"left","rt":1214.7999999821,"correct":false,"confidence":4},{"trial_n":80,"n_dots":3.15,"target":"right","response":"right","rt":833.29999998212,"correct":true,"confidence":4},{"trial_n":81,"n_dots":3.15,"target":"left","response":"left","rt":2148.6999999881,"correct":true,"confidence":3},{"trial_n":82,"n_dots":3.05,"target":"left","response":"left","rt":652.69999998808,"correct":true,"confidence":3},{"trial_n":83,"n_dots":3.05,"target":"right","response":"left","rt":971.09999999404,"correct":false,"confidence":4},{"trial_n":84,"n_dots":3.15,"target":"left","response":"left","rt":678.20000001788,"correct":true,"confidence":2},{"trial_n":85,"n_dots":3.15,"target":"left","response":"left","rt":582.69999998808,"correct":true,"confidence":3},{"trial_n":86,"n_dots":3.05,"target":"left","response":"left","rt":846.19999998808,"correct":true,"confidence":3},{"trial_n":87,"n_dots":3.05,"target":"right","response":"right","rt":1034.099999994,"correct":true,"confidence":2},{"trial_n":88,"n_dots":2.95,"target":"right","response":"left","rt":584.29999998212,"correct":false,"confidence":3},{"trial_n":89,"n_dots":3.05,"target":"right","response":"right","rt":627.70000001788,"correct":true,"confidence":4},{"trial_n":90,"n_dots":3.05,"target":"left","response":"left","rt":965.40000000596,"correct":true,"confidence":3},{"trial_n":91,"n_dots":2.95,"target":"right","response":"right","rt":895.59999999404,"correct":true,"confidence":3},{"trial_n":92,"n_dots":2.95,"target":"left","response":"left","rt":576.30000001192,"correct":true,"confidence":5},{"trial_n":93,"n_dots":2.85,"target":"left","response":"left","rt":754.90000000596,"correct":true,"confidence":3},{"trial_n":94,"n_dots":2.85,"target":"right","response":"right","rt":1017.2000000179,"correct":true,"confidence":3},{"trial_n":95,"n_dots":2.75,"target":"right","response":"right","rt":871.09999999404,"correct":true,"confidence":4},{"trial_n":96,"n_dots":2.75,"target":"right","response":"left","rt":1122.599999994,"correct":false,"confidence":4},{"trial_n":97,"n_dots":2.85,"target":"left","response":"left","rt":623.59999999404,"correct":true,"confidence":5},{"trial_n":98,"n_dots":2.85,"target":"right","response":"left","rt":609.70000001788,"correct":false,"confidence":4},{"trial_n":99,"n_dots":2.95,"target":"right","response":"right","rt":655.80000001192,"correct":true,"confidence":4},{"trial_n":100,"n_dots":2.95,"target":"right","response":"left","rt":1337.3000000119,"correct":false,"confidence":3},{"trial_n":101,"n_dots":3.05,"target":"right","response":"right","rt":556.79999998212,"correct":true,"confidence":4},{"trial_n":102,"n_dots":3.05,"target":"left","response":"left","rt":536.30000001192,"correct":true,"confidence":5},{"trial_n":103,"n_dots":2.95,"target":"left","response":"left","rt":683.90000000596,"correct":true,"confidence":4},{"trial_n":104,"n_dots":2.95,"target":"right","response":"left","rt":745.59999999404,"correct":false,"confidence":4},{"trial_n":105,"n_dots":3.05,"target":"left","response":"left","rt":568.69999998808,"correct":true,"confidence":5},{"trial_n":106,"n_dots":3.05,"target":"right","response":"left","rt":2851.099999994,"correct":false,"confidence":3},{"trial_n":107,"n_dots":3.15,"target":"left","response":"left","rt":2031.400000006,"correct":true,"confidence":3},{"trial_n":108,"n_dots":3.15,"target":"left","response":"left","rt":691.79999998212,"correct":true,"confidence":4},{"trial_n":109,"n_dots":3.05,"target":"left","response":"left","rt":782.70000001788,"correct":true,"confidence":5},{"trial_n":110,"n_dots":3.05,"target":"left","response":"left","rt":671.70000001788,"correct":true,"confidence":3},{"trial_n":111,"n_dots":2.95,"target":"right","response":"left","rt":742.80000001192,"correct":false,"confidence":4},{"trial_n":112,"n_dots":3.05,"target":"left","response":"left","rt":606.5,"correct":true,"confidence":5},{"trial_n":113,"n_dots":3.05,"target":"left","response":"left","rt":626.90000000596,"correct":true,"confidence":3},{"trial_n":114,"n_dots":2.95,"target":"left","response":"left","rt":582.09999999404,"correct":true,"confidence":4},{"trial_n":115,"n_dots":2.95,"target":"right","response":"left","rt":671.10000002384,"correct":false,"confidence":3},{"trial_n":116,"n_dots":3.05,"target":"left","response":"left","rt":1309.5,"correct":true,"confidence":3},{"trial_n":117,"n_dots":3.05,"target":"right","response":"right","rt":628.39999997616,"correct":true,"confidence":4},{"trial_n":118,"n_dots":2.95,"target":"left","response":"left","rt":653.69999998808,"correct":true,"confidence":2},{"trial_n":119,"n_dots":2.95,"target":"left","response":"left","rt":521.5,"correct":true,"confidence":3},{"trial_n":120,"n_dots":2.85,"target":"left","response":"left","rt":533.09999999404,"correct":true,"confidence":3}]