[{"trial_n":1,"span":8,"encoder":"27937058","distractor":"27931058","target":"present","response":"present","rt":"6956.6999998093","correct":true,"confidence":-1},{"trial_n":2,"span":8,"encoder":"85349584","distractor":"84349584","target":"present","response":"present","rt":"1435.7000002861","correct":true,"confidence":-1},{"trial_n":3,"span":10,"encoder":"3469205342","distractor":"3469205542","target":"absent","response":"present","rt":"1289.1999998093","correct":false,"confidence":-1},{"trial_n":4,"span":8,"encoder":"26009633","distractor":"56009633","target":"absent","response":"present","rt":"1523.8999996185","correct":false,"confidence":-1},{"trial_n":5,"span":6,"encoder":"877263","distractor":"577263","target":"present","response":"present","rt":"1358.0999999046","correct":true,"confidence":-1},{"trial_n":6,"span":6,"encoder":"500014","distractor":"700014","target":"present","response":"present","rt":"1750.0999999046","correct":true,"confidence":-1},{"trial_n":7,"span":8,"encoder":"51798686","distractor":"51708686","target":"present","response":"present","rt":"1009.2999997139","correct":true,"confidence":-1},{"trial_n":8,"span":8,"encoder":"03482235","distractor":"03982235","target":"present","response":"present","rt":"1466.9000000954","correct":true,"confidence":-1},{"trial_n":9,"span":10,"encoder":"9923329554","distractor":"9923029554","target":"present","response":"present","rt":"1494.4000000954","correct":true,"confidence":-1},{"trial_n":10,"span":10,"encoder":"3413311788","distractor":"3414311788","target":"present","response":"present","rt":"1028.5","correct":true,"confidence":-1},{"trial_n":11,"span":12,"encoder":"590749259920","distractor":"590749209920","target":"present","response":"present","rt":"1557.1000003815","correct":true,"confidence":-1},{"trial_n":12,"span":12,"encoder":"910917113215","distractor":"910917113211","target":"absent","response":"absent","rt":"7395.8000001907","correct":true,"confidence":-1},{"trial_n":13,"span":13,"encoder":"9707053571674","distractor":"9707053571678","target":"absent","response":"absent","rt":"1454.2000002861","correct":true,"confidence":-1},{"trial_n":14,"span":13,"encoder":"7650558921194","distractor":"7650558921494","target":"absent","response":"present","rt":"2637.4000000954","correct":false,"confidence":-1},{"trial_n":15,"span":12,"encoder":"796341070050","distractor":"796341070054","target":"absent","response":"absent","rt":"1740.1999998093","correct":true,"confidence":-1},{"trial_n":16,"span":12,"encoder":"817614140024","distractor":"917614140024","target":"absent","response":"present","rt":"1479.6999998093","correct":false,"confidence":-1},{"trial_n":17,"span":11,"encoder":"21058291271","distractor":"21058291276","target":"absent","response":"absent","rt":"1505","correct":true,"confidence":-1},{"trial_n":18,"span":11,"encoder":"98869574932","distractor":"98869574938","target":"present","response":"present","rt":"1404.0999999046","correct":true,"confidence":-1},{"trial_n":19,"span":12,"encoder":"025881928561","distractor":"025881928568","target":"present","response":"present","rt":"3076.1999998093","correct":true,"confidence":-1},{"trial_n":20,"span":12,"encoder":"833997085136","distractor":"836997085136","target":"present","response":"present","rt":"1181.5","correct":true,"confidence":-1},{"trial_n":21,"span":13,"encoder":"4032470644234","distractor":"4037470644234","target":"present","response":"present","rt":"13492.300000191","correct":true,"confidence":3},{"trial_n":22,"span":13,"encoder":"7677447991672","distractor":"7677347991672","target":"present","response":"present","rt":"1528.5999999046","correct":true,"confidence":4},{"trial_n":23,"span":14,"encoder":"68225515277017","distractor":"68255515277017","target":"present","response":"present","rt":"2844.8000001907","correct":true,"confidence":4},{"trial_n":24,"span":14,"encoder":"25862775138119","distractor":"25862775038119","target":"absent","response":"present","rt":"2864","correct":false,"confidence":3},{"trial_n":25,"span":13,"encoder":"7872597829593","distractor":"7802597829593","target":"present","response":"absent","rt":"2932.5999999046","correct":false,"confidence":3},{"trial_n":26,"span":12,"encoder":"103276650502","distractor":"103276650602","target":"absent","response":"absent","rt":"3921.5999999046","correct":true,"confidence":3},{"trial_n":27,"span":12,"encoder":"863373609201","distractor":"863373602201","target":"present","response":"present","rt":"3507.1000003815","correct":true,"confidence":2},{"trial_n":28,"span":13,"encoder":"1667694335290","distractor":"1667698335290","target":"present","response":"present","rt":"5648.5999999046","correct":true,"confidence":3},{"trial_n":29,"span":13,"encoder":"5443772851650","distractor":"5443772851550","target":"present","response":"present","rt":"3919.5","correct":true,"confidence":2},{"trial_n":30,"span":14,"encoder":"17732954190012","distractor":"17772954190012","target":"absent","response":"absent","rt":"5380.2999997139","correct":true,"confidence":3},{"trial_n":31,"span":14,"encoder":"34146547846047","distractor":"34146547896047","target":"present","response":"present","rt":"1762.7000002861","correct":true,"confidence":5},{"trial_n":32,"span":15,"encoder":"981047832561234","distractor":"981047832961234","target":"absent","response":"present","rt":"2384.5","correct":false,"confidence":4},{"trial_n":33,"span":14,"encoder":"49023162438380","distractor":"49023162438980","target":"absent","response":"absent","rt":"4203.7000002861","correct":true,"confidence":4},{"trial_n":34,"span":14,"encoder":"28744468301881","distractor":"28744466301881","target":"present","response":"present","rt":"3218","correct":true,"confidence":3},{"trial_n":35,"span":15,"encoder":"053635137776138","distractor":"056635137776138","target":"absent","response":"absent","rt":"3212.8000001907","correct":true,"confidence":3},{"trial_n":36,"span":15,"encoder":"570040630233285","distractor":"570040630293285","target":"absent","response":"absent","rt":"3943.1999998093","correct":true,"confidence":5},{"trial_n":37,"span":16,"encoder":"8949686297408828","distractor":"8949686297488828","target":"present","response":"present","rt":"4140.5999999046","correct":true,"confidence":2},{"trial_n":38,"span":16,"encoder":"7591017884810589","distractor":"7591017887810589","target":"absent","response":"present","rt":"3509","correct":false,"confidence":4},{"trial_n":39,"span":15,"encoder":"572063421330209","distractor":"572023421330209","target":"absent","response":"present","rt":"1953.7999997139","correct":false,"confidence":3},{"trial_n":40,"span":14,"encoder":"48702138044755","distractor":"48102138044755","target":"present","response":"absent","rt":"1868.8000001907","correct":false,"confidence":2},{"trial_n":41,"span":13,"encoder":"2959474328656","distractor":"2951474328656","target":"present","response":"present","rt":"3435","correct":true,"confidence":4},{"trial_n":42,"span":13,"encoder":"9596225000354","distractor":"9596245000354","target":"present","response":"absent","rt":"2284.8000001907","correct":false,"confidence":3},{"trial_n":43,"span":12,"encoder":"942353111793","distractor":"942253111793","target":"present","response":"present","rt":"32380.100000381","correct":true,"confidence":4},{"trial_n":44,"span":12,"encoder":"018960532535","distractor":"018960532575","target":"present","response":"present","rt":"2108.5999999046","correct":true,"confidence":3},{"trial_n":45,"span":13,"encoder":"5041631137450","distractor":"5041631637450","target":"present","response":"present","rt":"2803.3000001907","correct":true,"confidence":2},{"trial_n":46,"span":13,"encoder":"4035297423938","distractor":"4035397423938","target":"absent","response":"present","rt":"1961.9000000954","correct":false,"confidence":3},{"trial_n":47,"span":12,"encoder":"445531677753","distractor":"445501677753","target":"present","response":"present","rt":"4393.1999998093","correct":true,"confidence":3},{"trial_n":48,"span":12,"encoder":"982508783434","distractor":"982504783434","target":"absent","response":"absent","rt":"2662.6999998093","correct":true,"confidence":3},{"trial_n":49,"span":13,"encoder":"2013921362411","distractor":"2013921362491","target":"absent","response":"absent","rt":"2864.1999998093","correct":true,"confidence":5},{"trial_n":50,"span":13,"encoder":"5154228346825","distractor":"7154228346825","target":"absent","response":"present","rt":"1357.8000001907","correct":false,"confidence":3},{"trial_n":51,"span":12,"encoder":"981900607191","distractor":"981900603191","target":"absent","response":"present","rt":"4251.3000001907","correct":false,"confidence":4},{"trial_n":52,"span":11,"encoder":"31129669302","distractor":"33129669302","target":"absent","response":"absent","rt":"10656.599999905","correct":true,"confidence":4},{"trial_n":53,"span":11,"encoder":"26847458805","distractor":"26547458805","target":"present","response":"present","rt":"7249.8000001907","correct":true,"confidence":3},{"trial_n":54,"span":12,"encoder":"532422658182","distractor":"532722658182","target":"absent","response":"present","rt":"1415.4000000954","correct":false,"confidence":4},{"trial_n":55,"span":11,"encoder":"17544361391","distractor":"17544365391","target":"present","response":"present","rt":"2370.4000000954","correct":true,"confidence":2},{"trial_n":56,"span":11,"encoder":"01968469224","distractor":"01968464224","target":"absent","response":"absent","rt":"1702.2999997139","correct":true,"confidence":5},{"trial_n":57,"span":12,"encoder":"891319339036","distractor":"891319339035","target":"present","response":"present","rt":"3638.6999998093","correct":true,"confidence":3},{"trial_n":58,"span":12,"encoder":"111630203405","distractor":"101630203405","target":"absent","response":"absent","rt":"2437.5","correct":true,"confidence":5},{"trial_n":59,"span":13,"encoder":"9701763447000","distractor":"9701767447000","target":"absent","response":"present","rt":"1850.4000000954","correct":false,"confidence":1},{"trial_n":60,"span":12,"encoder":"973949775329","distractor":"973999775329","target":"absent","response":"absent","rt":"2208.5","correct":true,"confidence":5},{"trial_n":61,"span":12,"encoder":"457950620483","distractor":"457950680483","target":"present","response":"present","rt":"2632.3000001907","correct":true,"confidence":3},{"trial_n":62,"span":13,"encoder":"4077488908438","distractor":"4047488908438","target":"present","response":"present","rt":"2513.3000001907","correct":true,"confidence":4},{"trial_n":63,"span":13,"encoder":"8888305192827","distractor":"8838305192827","target":"present","response":"present","rt":"2216.5","correct":true,"confidence":4},{"trial_n":64,"span":14,"encoder":"54886053090091","distractor":"54886053190091","target":"absent","response":"present","rt":"2946","correct":false,"confidence":3},{"trial_n":65,"span":13,"encoder":"8893892604510","distractor":"8873892604510","target":"absent","response":"present","rt":"2405.3000001907","correct":false,"confidence":3},{"trial_n":66,"span":12,"encoder":"939765998269","distractor":"539765998269","target":"absent","response":"present","rt":"2523.6999998093","correct":false,"confidence":2},{"trial_n":67,"span":11,"encoder":"29889230983","distractor":"29889235983","target":"present","response":"present","rt":"4453.1000003815","correct":true,"confidence":2},{"trial_n":68,"span":11,"encoder":"86629065751","distractor":"86679065751","target":"absent","response":"absent","rt":"2863.0999999046","correct":true,"confidence":3},{"trial_n":69,"span":12,"encoder":"371508693096","distractor":"377508693096","target":"absent","response":"absent","rt":"2070.6999998093","correct":true,"confidence":5},{"trial_n":70,"span":12,"encoder":"048147959334","distractor":"048647959334","target":"absent","response":"present","rt":"1887.5","correct":false,"confidence":4},{"trial_n":71,"span":8,"encoder":"70845234","distractor":"70848234","target":"present","response":"present","rt":"7046","correct":true,"confidence":-1},{"trial_n":72,"span":8,"encoder":"75178108","distractor":"75178101","target":"present","response":"present","rt":"4650.1000003815","correct":true,"confidence":-1},{"trial_n":73,"span":9,"encoder":"556645044","distractor":"556645024","target":"absent","response":"absent","rt":"3227","correct":true,"confidence":-1},{"trial_n":74,"span":9,"encoder":"342620830","distractor":"342630830","target":"absent","response":"absent","rt":"3878.7000002861","correct":true,"confidence":-1},{"trial_n":75,"span":10,"encoder":"1152136496","distractor":"1152176496","target":"present","response":"present","rt":"2872.3000001907","correct":true,"confidence":-1},{"trial_n":76,"span":10,"encoder":"2804889593","distractor":"2814889593","target":"absent","response":"present","rt":"4532.6999998093","correct":false,"confidence":-1},{"trial_n":77,"span":9,"encoder":"437042844","distractor":"497042844","target":"present","response":"absent","rt":"6495.9000000954","correct":false,"confidence":-1},{"trial_n":78,"span":8,"encoder":"63971652","distractor":"63981652","target":"present","response":"present","rt":"3438.3000001907","correct":true,"confidence":-1},{"trial_n":79,"span":8,"encoder":"34577547","distractor":"34577541","target":"present","response":"present","rt":"4027.9000000954","correct":true,"confidence":-1},{"trial_n":80,"span":9,"encoder":"048433560","distractor":"048433660","target":"absent","response":"absent","rt":"5288.0999999046","correct":true,"confidence":-1},{"trial_n":81,"span":9,"encoder":"983676671","distractor":"983076671","target":"present","response":"present","rt":"4151.2000002861","correct":true,"confidence":-1},{"trial_n":82,"span":10,"encoder":"9332222200","distractor":"9332022200","target":"present","response":"present","rt":"19612.099999905","correct":true,"confidence":-1},{"trial_n":83,"span":10,"encoder":"0950639042","distractor":"0950639092","target":"absent","response":"present","rt":"27795.599999905","correct":false,"confidence":-1},{"trial_n":84,"span":9,"encoder":"742834843","distractor":"742634843","target":"absent","response":"absent","rt":"8250.1999998093","correct":true,"confidence":-1},{"trial_n":85,"span":9,"encoder":"079322171","distractor":"079352171","target":"absent","response":"absent","rt":"2277.8000001907","correct":true,"confidence":-1},{"trial_n":86,"span":10,"encoder":"5177039265","distractor":"5197039265","target":"absent","response":"absent","rt":"2789","correct":true,"confidence":-1},{"trial_n":87,"span":10,"encoder":"9210007949","distractor":"9210087949","target":"present","response":"present","rt":"3513.5","correct":true,"confidence":-1},{"trial_n":88,"span":11,"encoder":"39235762612","distractor":"09235762612","target":"present","response":"present","rt":"2997","correct":true,"confidence":-1},{"trial_n":89,"span":11,"encoder":"78768233872","distractor":"78768231872","target":"absent","response":"absent","rt":"2429.0999999046","correct":true,"confidence":-1},{"trial_n":90,"span":12,"encoder":"416343291597","distractor":"416363291597","target":"absent","response":"absent","rt":"21992.900000095","correct":true,"confidence":-1},{"trial_n":91,"span":12,"encoder":"889581791320","distractor":"889581791322","target":"absent","response":"absent","rt":"3768.7999997139","correct":true,"confidence":5},{"trial_n":92,"span":13,"encoder":"0814622211802","distractor":"0814622411802","target":"present","response":"present","rt":"2950.9000000954","correct":true,"confidence":5},{"trial_n":93,"span":13,"encoder":"1082987952391","distractor":"1086987952391","target":"absent","response":"absent","rt":"5238.5999999046","correct":true,"confidence":3},{"trial_n":94,"span":14,"encoder":"73973438017259","distractor":"72973438017259","target":"present","response":"absent","rt":"4616.2000002861","correct":false,"confidence":2},{"trial_n":95,"span":13,"encoder":"4411940305638","distractor":"4411940305648","target":"present","response":"absent","rt":"13289.299999714","correct":false,"confidence":3},{"trial_n":96,"span":12,"encoder":"765746133361","distractor":"765746133364","target":"absent","response":"absent","rt":"3279.4000000954","correct":true,"confidence":4},{"trial_n":97,"span":12,"encoder":"273243247964","distractor":"273243247969","target":"present","response":"present","rt":"1740.0999999046","correct":true,"confidence":5},{"trial_n":98,"span":13,"encoder":"3200902911193","distractor":"3200900911193","target":"present","response":"present","rt":"3979.6999998093","correct":true,"confidence":3},{"trial_n":99,"span":13,"encoder":"2062037791661","distractor":"2062737791661","target":"present","response":"absent","rt":"5471","correct":false,"confidence":2},{"trial_n":100,"span":12,"encoder":"432266462523","distractor":"432236462523","target":"absent","response":"absent","rt":"2826.1000003815","correct":true,"confidence":5},{"trial_n":101,"span":12,"encoder":"302025444273","distractor":"302025424273","target":"present","response":"absent","rt":"7040.7000002861","correct":false,"confidence":3},{"trial_n":102,"span":11,"encoder":"00254243978","distractor":"00254243928","target":"present","response":"present","rt":"8123.3000001907","correct":true,"confidence":1},{"trial_n":103,"span":11,"encoder":"01424083793","distractor":"01424023793","target":"present","response":"present","rt":"9304.1999998093","correct":true,"confidence":4},{"trial_n":104,"span":12,"encoder":"197521030357","distractor":"597521030357","target":"present","response":"present","rt":"4779.5","correct":true,"confidence":1},{"trial_n":105,"span":12,"encoder":"699050310799","distractor":"699050210799","target":"absent","response":"absent","rt":"4920.4000000954","correct":true,"confidence":3},{"trial_n":106,"span":13,"encoder":"2244951764995","distractor":"2247951764995","target":"absent","response":"absent","rt":"4695.7999997139","correct":true,"confidence":2},{"trial_n":107,"span":13,"encoder":"8378692952979","distractor":"8378652952979","target":"absent","response":"absent","rt":"6100.8000001907","correct":true,"confidence":3},{"trial_n":108,"span":14,"encoder":"83040463298021","distractor":"83042463298021","target":"absent","response":"present","rt":"12290","correct":false,"confidence":3},{"trial_n":109,"span":13,"encoder":"2547398821567","distractor":"2547398824567","target":"present","response":"absent","rt":"6996.4000000954","correct":false,"confidence":2},{"trial_n":110,"span":12,"encoder":"069863138994","distractor":"063863138994","target":"absent","response":"absent","rt":"8342.1999998093","correct":true,"confidence":3},{"trial_n":111,"span":12,"encoder":"107153630037","distractor":"107153630047","target":"absent","response":"absent","rt":"4767.6000003815","correct":true,"confidence":3},{"trial_n":112,"span":13,"encoder":"4378246824343","distractor":"4378240824343","target":"present","response":"present","rt":"12072.400000095","correct":true,"confidence":3},{"trial_n":113,"span":13,"encoder":"8397109841889","distractor":"8397109811889","target":"present","response":"present","rt":"5762.7999997139","correct":true,"confidence":5},{"trial_n":114,"span":14,"encoder":"65760028079133","distractor":"65060028079133","target":"present","response":"absent","rt":"6637.6999998093","correct":false,"confidence":3},{"trial_n":115,"span":13,"encoder":"1694402988581","distractor":"1694402987581","target":"absent","response":"absent","rt":"2285.4000000954","correct":true,"confidence":5},{"trial_n":116,"span":13,"encoder":"9780126327077","distractor":"9780126327777","target":"absent","response":"absent","rt":"1799.9000000954","correct":true,"confidence":5},{"trial_n":117,"span":14,"encoder":"35485213310655","distractor":"35485213318655","target":"present","response":"present","rt":"9529.5999999046","correct":true,"confidence":1},{"trial_n":118,"span":14,"encoder":"10766602971025","distractor":"10766602971022","target":"present","response":"present","rt":"3975.1999998093","correct":true,"confidence":4},{"trial_n":119,"span":15,"encoder":"850887343473494","distractor":"650887343473494","target":"absent","response":"absent","rt":"8418","correct":true,"confidence":4},{"trial_n":120,"span":15,"encoder":"442453624630368","distractor":"442453624630369","target":"present","response":"present","rt":"2218.6000003815","correct":true,"confidence":5},{"trial_n":121,"span":16,"encoder":"6749306795856977","distractor":"6749306495856977","target":"present","response":"absent","rt":"7303.0999999046","correct":false,"confidence":2},{"trial_n":122,"span":15,"encoder":"737278779034683","distractor":"737278789034683","target":"present","response":"present","rt":"5973.7000002861","correct":true,"confidence":3},{"trial_n":123,"span":15,"encoder":"191245679631250","distractor":"191245679631950","target":"absent","response":"present","rt":"7278.5999999046","correct":false,"confidence":3},{"trial_n":124,"span":14,"encoder":"46298951514294","distractor":"46298551514294","target":"absent","response":"absent","rt":"3902.1999998093","correct":true,"confidence":5},{"trial_n":125,"span":14,"encoder":"56091034466053","distractor":"50091034466053","target":"absent","response":"absent","rt":"2788.0999999046","correct":true,"confidence":5},{"trial_n":126,"span":15,"encoder":"806999651669977","distractor":"806199651669977","target":"present","response":"present","rt":"3333.5","correct":true,"confidence":5},{"trial_n":127,"span":15,"encoder":"685611899020179","distractor":"885611899020179","target":"absent","response":"absent","rt":"7227.5999999046","correct":true,"confidence":4},{"trial_n":128,"span":16,"encoder":"8254188428749241","distractor":"8254188428709241","target":"present","response":"absent","rt":"12408.300000191","correct":false,"confidence":3},{"trial_n":129,"span":15,"encoder":"197844966392174","distractor":"197844966992174","target":"present","response":"absent","rt":"49497.099999905","correct":false,"confidence":3},{"trial_n":130,"span":14,"encoder":"25739489735556","distractor":"25739889735556","target":"absent","response":"absent","rt":"4336.6000003815","correct":true,"confidence":5},{"trial_n":131,"span":14,"encoder":"00697272207692","distractor":"00697272607692","target":"absent","response":"absent","rt":"5395.4000000954","correct":true,"confidence":4},{"trial_n":132,"span":15,"encoder":"050271310652245","distractor":"050271310652247","target":"present","response":"present","rt":"2422.5","correct":true,"confidence":5},{"trial_n":133,"span":15,"encoder":"996956319730362","distractor":"996456319730362","target":"present","response":"present","rt":"7309.8000001907","correct":true,"confidence":1},{"trial_n":134,"span":16,"encoder":"4177606666323587","distractor":"4177606666323987","target":"present","response":"present","rt":"34088.100000381","correct":true,"confidence":1},{"trial_n":135,"span":16,"encoder":"5302545972488584","distractor":"5302525972488584","target":"present","response":"absent","rt":"15195.800000191","correct":false,"confidence":3},{"trial_n":136,"span":15,"encoder":"624908910446743","distractor":"624908916446743","target":"absent","response":"absent","rt":"4610.1999998093","correct":true,"confidence":3},{"trial_n":137,"span":15,"encoder":"975379625271351","distractor":"975379625251351","target":"absent","response":"absent","rt":"5073.5999999046","correct":true,"confidence":2},{"trial_n":138,"span":16,"encoder":"7449070151391641","distractor":"7449090151391641","target":"absent","response":"present","rt":"7329.5999999046","correct":false,"confidence":4},{"trial_n":139,"span":15,"encoder":"038624758470404","distractor":"038724758470404","target":"absent","response":"present","rt":"11088","correct":false,"confidence":3},{"trial_n":140,"span":14,"encoder":"95329665232580","distractor":"95329765232580","target":"absent","response":"absent","rt":"4888.5999999046","correct":true,"confidence":3}]