[{"trial_n":1,"min":25,"max":230,"target":"present","response":"present","rt":4088.5999999046,"correct":true,"confidence":-1},{"trial_n":2,"min":25,"max":230,"target":"present","response":"present","rt":836.20000004768,"correct":true,"confidence":-1},{"trial_n":3,"min":41,"max":214,"target":"absent","response":"present","rt":571.5,"correct":false,"confidence":-1},{"trial_n":4,"min":25,"max":230,"target":"absent","response":"absent","rt":1379.4000000954,"correct":true,"confidence":-1},{"trial_n":5,"min":25,"max":230,"target":"present","response":"present","rt":875.5,"correct":true,"confidence":-1},{"trial_n":6,"min":41,"max":214,"target":"present","response":"present","rt":788.29999995232,"correct":true,"confidence":-1},{"trial_n":7,"min":41,"max":214,"target":"absent","response":"absent","rt":837.40000009537,"correct":true,"confidence":-1},{"trial_n":8,"min":57,"max":198,"target":"absent","response":"absent","rt":776.5,"correct":true,"confidence":-1},{"trial_n":9,"min":57,"max":198,"target":"absent","response":"absent","rt":592.29999995232,"correct":true,"confidence":-1},{"trial_n":10,"min":73,"max":182,"target":"absent","response":"absent","rt":474.29999995232,"correct":true,"confidence":-1},{"trial_n":11,"min":73,"max":182,"target":"present","response":"absent","rt":590.90000009537,"correct":false,"confidence":-1},{"trial_n":12,"min":65,"max":190,"target":"present","response":"present","rt":591.39999985695,"correct":true,"confidence":-1},{"trial_n":13,"min":65,"max":190,"target":"absent","response":"absent","rt":658.20000004768,"correct":true,"confidence":-1},{"trial_n":14,"min":73,"max":182,"target":"present","response":"absent","rt":754.70000004768,"correct":false,"confidence":-1},{"trial_n":15,"min":65,"max":190,"target":"present","response":"present","rt":883.40000009537,"correct":true,"confidence":-1},{"trial_n":16,"min":65,"max":190,"target":"absent","response":"absent","rt":704.60000014305,"correct":true,"confidence":-1},{"trial_n":17,"min":73,"max":182,"target":"present","response":"absent","rt":827,"correct":false,"confidence":-1},{"trial_n":18,"min":65,"max":190,"target":"present","response":"present","rt":843.40000009537,"correct":true,"confidence":-1},{"trial_n":19,"min":65,"max":190,"target":"present","response":"present","rt":2404.2999999523,"correct":true,"confidence":-1},{"trial_n":20,"min":73,"max":182,"target":"absent","response":"absent","rt":773.09999990463,"correct":true,"confidence":-1},{"trial_n":21,"min":73,"max":182,"target":"absent","response":"present","rt":1134.5,"correct":false,"confidence":3},{"trial_n":22,"min":69,"max":186,"target":"absent","response":"absent","rt":787,"correct":true,"confidence":3},{"trial_n":23,"min":69,"max":186,"target":"absent","response":"absent","rt":809.70000004768,"correct":true,"confidence":4},{"trial_n":24,"min":73,"max":182,"target":"absent","response":"present","rt":671.90000009537,"correct":false,"confidence":4},{"trial_n":25,"min":69,"max":186,"target":"absent","response":"present","rt":899.70000004768,"correct":false,"confidence":4},{"trial_n":26,"min":65,"max":190,"target":"present","response":"present","rt":669.79999995232,"correct":true,"confidence":2},{"trial_n":27,"min":65,"max":190,"target":"absent","response":"present","rt":837.90000009537,"correct":false,"confidence":3},{"trial_n":28,"min":61,"max":194,"target":"present","response":"present","rt":680.60000014305,"correct":true,"confidence":4},{"trial_n":29,"min":61,"max":194,"target":"present","response":"present","rt":1388.8999998569,"correct":true,"confidence":5},{"trial_n":30,"min":65,"max":190,"target":"present","response":"present","rt":789.5,"correct":true,"confidence":5},{"trial_n":31,"min":65,"max":190,"target":"absent","response":"present","rt":627.90000009537,"correct":false,"confidence":3},{"trial_n":32,"min":63,"max":192,"target":"absent","response":"present","rt":696.39999985695,"correct":false,"confidence":4},{"trial_n":33,"min":61,"max":194,"target":"absent","response":"present","rt":1322.6000001431,"correct":false,"confidence":4},{"trial_n":34,"min":59,"max":196,"target":"present","response":"present","rt":2421.1000001431,"correct":true,"confidence":3},{"trial_n":35,"min":59,"max":196,"target":"absent","response":"present","rt":2255.3999998569,"correct":false,"confidence":4},{"trial_n":36,"min":57,"max":198,"target":"present","response":"present","rt":1484.2000000477,"correct":true,"confidence":5},{"trial_n":37,"min":57,"max":198,"target":"present","response":"present","rt":834.40000009537,"correct":true,"confidence":5},{"trial_n":38,"min":59,"max":196,"target":"absent","response":"present","rt":920.79999995232,"correct":false,"confidence":5},{"trial_n":39,"min":57,"max":198,"target":"present","response":"present","rt":650,"correct":true,"confidence":5},{"trial_n":40,"min":57,"max":198,"target":"present","response":"present","rt":612.29999995232,"correct":true,"confidence":5},{"trial_n":41,"min":58,"max":197,"target":"present","response":"present","rt":898.20000004768,"correct":true,"confidence":5},{"trial_n":42,"min":58,"max":197,"target":"absent","response":"present","rt":731.39999985695,"correct":false,"confidence":4},{"trial_n":43,"min":57,"max":198,"target":"absent","response":"absent","rt":779.90000009537,"correct":true,"confidence":3},{"trial_n":44,"min":57,"max":198,"target":"present","response":"present","rt":620.09999990463,"correct":true,"confidence":5},{"trial_n":45,"min":58,"max":197,"target":"present","response":"present","rt":1097.2999999523,"correct":true,"confidence":5},{"trial_n":46,"min":58,"max":197,"target":"present","response":"present","rt":724.79999995232,"correct":true,"confidence":5},{"trial_n":47,"min":59,"max":196,"target":"absent","response":"absent","rt":2129.8999998569,"correct":true,"confidence":4},{"trial_n":48,"min":59,"max":196,"target":"present","response":"present","rt":839.09999990463,"correct":true,"confidence":5},{"trial_n":49,"min":60,"max":195,"target":"absent","response":"present","rt":1529.5,"correct":false,"confidence":4},{"trial_n":50,"min":59,"max":196,"target":"present","response":"present","rt":713.20000004768,"correct":true,"confidence":5},{"trial_n":51,"min":59,"max":196,"target":"absent","response":"present","rt":774.89999985695,"correct":false,"confidence":4},{"trial_n":52,"min":58,"max":197,"target":"absent","response":"absent","rt":876.79999995232,"correct":true,"confidence":3},{"trial_n":53,"min":58,"max":197,"target":"absent","response":"present","rt":919.5,"correct":false,"confidence":2},{"trial_n":54,"min":57,"max":198,"target":"absent","response":"present","rt":1644.7999999523,"correct":false,"confidence":3},{"trial_n":55,"min":56,"max":199,"target":"absent","response":"absent","rt":752,"correct":true,"confidence":4},{"trial_n":56,"min":56,"max":199,"target":"present","response":"present","rt":2197.1000001431,"correct":true,"confidence":5},{"trial_n":57,"min":57,"max":198,"target":"present","response":"present","rt":766.39999985695,"correct":true,"confidence":5},{"trial_n":58,"min":57,"max":198,"target":"present","response":"present","rt":1920.7000000477,"correct":true,"confidence":5},{"trial_n":59,"min":58,"max":197,"target":"present","response":"absent","rt":17341.299999952,"correct":false,"confidence":3},{"trial_n":60,"min":57,"max":198,"target":"present","response":"present","rt":727.70000004768,"correct":true,"confidence":5},{"trial_n":61,"min":57,"max":198,"target":"absent","response":"present","rt":662,"correct":false,"confidence":4},{"trial_n":62,"min":56,"max":199,"target":"present","response":"present","rt":694.09999990463,"correct":true,"confidence":5},{"trial_n":63,"min":56,"max":199,"target":"present","response":"present","rt":755.5,"correct":true,"confidence":5},{"trial_n":64,"min":57,"max":198,"target":"present","response":"present","rt":686.20000004768,"correct":true,"confidence":5},{"trial_n":65,"min":57,"max":198,"target":"absent","response":"present","rt":3639.7000000477,"correct":false,"confidence":4},{"trial_n":66,"min":56,"max":199,"target":"present","response":"present","rt":1434.5,"correct":true,"confidence":3},{"trial_n":67,"min":56,"max":199,"target":"absent","response":"absent","rt":787.5,"correct":true,"confidence":4},{"trial_n":68,"min":57,"max":198,"target":"absent","response":"present","rt":945.90000009537,"correct":false,"confidence":3},{"trial_n":69,"min":56,"max":199,"target":"absent","response":"present","rt":1046.9000000954,"correct":false,"confidence":2},{"trial_n":70,"min":55,"max":200,"target":"present","response":"present","rt":659.79999995232,"correct":true,"confidence":5},{"trial_n":71,"min":41,"max":214,"target":"present","response":"present","rt":3294.6999998093,"correct":true,"confidence":-1},{"trial_n":72,"min":41,"max":214,"target":"present","response":"present","rt":516.5,"correct":true,"confidence":-1},{"trial_n":73,"min":57,"max":198,"target":"absent","response":"absent","rt":969.59999990463,"correct":true,"confidence":-1},{"trial_n":74,"min":57,"max":198,"target":"absent","response":"absent","rt":1103.2000000477,"correct":true,"confidence":-1},{"trial_n":75,"min":73,"max":182,"target":"present","response":"present","rt":981.79999995232,"correct":true,"confidence":-1},{"trial_n":76,"min":73,"max":182,"target":"present","response":"present","rt":729,"correct":true,"confidence":-1},{"trial_n":77,"min":89,"max":166,"target":"absent","response":"absent","rt":1261.2999999523,"correct":true,"confidence":-1},{"trial_n":78,"min":89,"max":166,"target":"present","response":"absent","rt":1339.9000000954,"correct":false,"confidence":-1},{"trial_n":79,"min":73,"max":182,"target":"absent","response":"absent","rt":2240.0999999046,"correct":true,"confidence":-1},{"trial_n":80,"min":73,"max":182,"target":"present","response":"present","rt":628.29999995232,"correct":true,"confidence":-1},{"trial_n":81,"min":81,"max":174,"target":"absent","response":"absent","rt":7372.2999999523,"correct":true,"confidence":-1},{"trial_n":82,"min":81,"max":174,"target":"present","response":"present","rt":2007.0999999046,"correct":true,"confidence":-1},{"trial_n":83,"min":89,"max":166,"target":"present","response":"present","rt":947.20000004768,"correct":true,"confidence":-1},{"trial_n":84,"min":89,"max":166,"target":"absent","response":"present","rt":734.29999995232,"correct":false,"confidence":-1},{"trial_n":85,"min":81,"max":174,"target":"absent","response":"absent","rt":729.70000004768,"correct":true,"confidence":-1},{"trial_n":86,"min":81,"max":174,"target":"absent","response":"absent","rt":1128.4000000954,"correct":true,"confidence":-1},{"trial_n":87,"min":89,"max":166,"target":"present","response":"absent","rt":746.29999995232,"correct":false,"confidence":-1},{"trial_n":88,"min":81,"max":174,"target":"present","response":"present","rt":645.29999995232,"correct":true,"confidence":-1},{"trial_n":89,"min":81,"max":174,"target":"present","response":"present","rt":711.79999995232,"correct":true,"confidence":-1},{"trial_n":90,"min":89,"max":166,"target":"present","response":"present","rt":2236.3999998569,"correct":true,"confidence":-1},{"trial_n":91,"min":89,"max":166,"target":"present","response":"present","rt":893.59999990463,"correct":true,"confidence":3},{"trial_n":92,"min":93,"max":162,"target":"present","response":"absent","rt":1031.3999998569,"correct":false,"confidence":4},{"trial_n":93,"min":89,"max":166,"target":"absent","response":"present","rt":722.60000014305,"correct":false,"confidence":3},{"trial_n":94,"min":85,"max":170,"target":"absent","response":"absent","rt":943.70000004768,"correct":true,"confidence":1},{"trial_n":95,"min":85,"max":170,"target":"present","response":"absent","rt":1061,"correct":false,"confidence":3},{"trial_n":96,"min":81,"max":174,"target":"present","response":"present","rt":1848.4000000954,"correct":true,"confidence":4},{"trial_n":97,"min":81,"max":174,"target":"present","response":"present","rt":1531.1000001431,"correct":true,"confidence":4},{"trial_n":98,"min":85,"max":170,"target":"absent","response":"present","rt":863.70000004768,"correct":false,"confidence":3},{"trial_n":99,"min":81,"max":174,"target":"absent","response":"present","rt":549.5,"correct":false,"confidence":4},{"trial_n":100,"min":77,"max":178,"target":"present","response":"present","rt":686.90000009537,"correct":true,"confidence":5},{"trial_n":101,"min":77,"max":178,"target":"absent","response":"present","rt":748.90000009537,"correct":false,"confidence":3},{"trial_n":102,"min":75,"max":180,"target":"present","response":"absent","rt":702.39999985695,"correct":false,"confidence":4},{"trial_n":103,"min":73,"max":182,"target":"present","response":"present","rt":786.29999995232,"correct":true,"confidence":4},{"trial_n":104,"min":73,"max":182,"target":"present","response":"present","rt":673.39999985695,"correct":true,"confidence":5},{"trial_n":105,"min":75,"max":180,"target":"present","response":"present","rt":722,"correct":true,"confidence":3},{"trial_n":106,"min":75,"max":180,"target":"absent","response":"absent","rt":1492.3999998569,"correct":true,"confidence":4},{"trial_n":107,"min":77,"max":178,"target":"absent","response":"absent","rt":1693.5,"correct":true,"confidence":4},{"trial_n":108,"min":77,"max":178,"target":"absent","response":"present","rt":1173.7999999523,"correct":false,"confidence":4},{"trial_n":109,"min":75,"max":180,"target":"absent","response":"present","rt":2241.2999999523,"correct":false,"confidence":5},{"trial_n":110,"min":73,"max":182,"target":"absent","response":"absent","rt":937.90000009537,"correct":true,"confidence":3},{"trial_n":111,"min":73,"max":182,"target":"absent","response":"present","rt":766.90000009537,"correct":false,"confidence":4},{"trial_n":112,"min":72,"max":183,"target":"present","response":"present","rt":866.60000014305,"correct":true,"confidence":4},{"trial_n":113,"min":72,"max":183,"target":"present","response":"present","rt":661.59999990463,"correct":true,"confidence":3},{"trial_n":114,"min":73,"max":182,"target":"present","response":"present","rt":616.5,"correct":true,"confidence":4},{"trial_n":115,"min":73,"max":182,"target":"absent","response":"absent","rt":747.10000014305,"correct":true,"confidence":4},{"trial_n":116,"min":74,"max":181,"target":"present","response":"present","rt":4156.4000000954,"correct":true,"confidence":4},{"trial_n":117,"min":74,"max":181,"target":"present","response":"present","rt":609.29999995232,"correct":true,"confidence":3},{"trial_n":118,"min":75,"max":180,"target":"present","response":"present","rt":727,"correct":true,"confidence":4},{"trial_n":119,"min":75,"max":180,"target":"present","response":"absent","rt":741.5,"correct":false,"confidence":4},{"trial_n":120,"min":74,"max":181,"target":"absent","response":"present","rt":708.90000009537,"correct":false,"confidence":3},{"trial_n":121,"min":73,"max":182,"target":"absent","response":"absent","rt":703.60000014305,"correct":true,"confidence":4},{"trial_n":122,"min":73,"max":182,"target":"present","response":"present","rt":755.59999990463,"correct":true,"confidence":3},{"trial_n":123,"min":74,"max":181,"target":"absent","response":"absent","rt":1005.2000000477,"correct":true,"confidence":4},{"trial_n":124,"min":74,"max":181,"target":"absent","response":"absent","rt":776.80000019073,"correct":true,"confidence":3},{"trial_n":125,"min":75,"max":180,"target":"absent","response":"absent","rt":1339.7999999523,"correct":true,"confidence":4},{"trial_n":126,"min":75,"max":180,"target":"present","response":"present","rt":1859.7999999523,"correct":true,"confidence":5},{"trial_n":127,"min":76,"max":179,"target":"absent","response":"absent","rt":795,"correct":true,"confidence":5},{"trial_n":128,"min":76,"max":179,"target":"absent","response":"present","rt":816,"correct":false,"confidence":4},{"trial_n":129,"min":75,"max":180,"target":"absent","response":"absent","rt":1571.4000000954,"correct":true,"confidence":3},{"trial_n":130,"min":75,"max":180,"target":"absent","response":"absent","rt":703.5,"correct":true,"confidence":4},{"trial_n":131,"min":76,"max":179,"target":"absent","response":"absent","rt":919.89999985695,"correct":true,"confidence":4},{"trial_n":132,"min":76,"max":179,"target":"absent","response":"absent","rt":895.5,"correct":true,"confidence":5},{"trial_n":133,"min":77,"max":178,"target":"present","response":"present","rt":641.59999990463,"correct":true,"confidence":3},{"trial_n":134,"min":77,"max":178,"target":"present","response":"present","rt":926.90000009537,"correct":true,"confidence":4},{"trial_n":135,"min":78,"max":177,"target":"present","response":"present","rt":645.59999990463,"correct":true,"confidence":3},{"trial_n":136,"min":78,"max":177,"target":"absent","response":"absent","rt":1453,"correct":true,"confidence":4},{"trial_n":137,"min":79,"max":176,"target":"absent","response":"absent","rt":1039.7000000477,"correct":true,"confidence":3},{"trial_n":138,"min":79,"max":176,"target":"present","response":"present","rt":1064.5,"correct":true,"confidence":4},{"trial_n":139,"min":80,"max":175,"target":"present","response":"absent","rt":709.59999990463,"correct":false,"confidence":3},{"trial_n":140,"min":79,"max":176,"target":"absent","response":"absent","rt":2470.1999998093,"correct":true,"confidence":4}]