[{"trial_n":1,"span":8,"encoder":"05700356","distractor":"55700356","target":"present","response":"present","rt":"2425","correct":true,"confidence":-1},{"trial_n":2,"span":8,"encoder":"17097267","distractor":"13097267","target":"present","response":"present","rt":"1020.9000000954","correct":true,"confidence":-1},{"trial_n":3,"span":10,"encoder":"0133702499","distractor":"0133702497","target":"absent","response":"absent","rt":"1682","correct":true,"confidence":-1},{"trial_n":4,"span":10,"encoder":"2520546792","distractor":"2520946792","target":"absent","response":"present","rt":"1724.2999999523","correct":false,"confidence":-1},{"trial_n":5,"span":8,"encoder":"38737121","distractor":"38737161","target":"present","response":"present","rt":"1201.8999998569","correct":true,"confidence":-1},{"trial_n":6,"span":8,"encoder":"72982723","distractor":"72989723","target":"present","response":"present","rt":"908.19999980927","correct":true,"confidence":-1},{"trial_n":7,"span":10,"encoder":"4208947674","distractor":"4204947674","target":"present","response":"present","rt":"1163.2999999523","correct":true,"confidence":-1},{"trial_n":8,"span":10,"encoder":"7229607473","distractor":"7229697473","target":"present","response":"present","rt":"1166.1000001431","correct":true,"confidence":-1},{"trial_n":9,"span":12,"encoder":"792043040851","distractor":"794043040851","target":"absent","response":"present","rt":"1120.3999998569","correct":false,"confidence":-1},{"trial_n":10,"span":10,"encoder":"8108647231","distractor":"8158647231","target":"present","response":"present","rt":"1698.2000000477","correct":true,"confidence":-1},{"trial_n":11,"span":10,"encoder":"8331417051","distractor":"8331417551","target":"absent","response":"absent","rt":"2175.1999998093","correct":true,"confidence":-1},{"trial_n":12,"span":11,"encoder":"87326416147","distractor":"87326416148","target":"present","response":"present","rt":"1347.7999999523","correct":true,"confidence":-1},{"trial_n":13,"span":11,"encoder":"93522291434","distractor":"93622291434","target":"present","response":"absent","rt":"1292.0999999046","correct":false,"confidence":-1},{"trial_n":14,"span":10,"encoder":"3715841159","distractor":"3715841151","target":"absent","response":"present","rt":"1978.1999998093","correct":false,"confidence":-1},{"trial_n":15,"span":9,"encoder":"053910710","distractor":"057910710","target":"present","response":"present","rt":"1235.9000000954","correct":true,"confidence":-1},{"trial_n":16,"span":9,"encoder":"261340383","distractor":"261340380","target":"present","response":"present","rt":"1373.6000001431","correct":true,"confidence":-1},{"trial_n":17,"span":10,"encoder":"0954457687","distractor":"0954457627","target":"absent","response":"present","rt":"1032.1000001431","correct":false,"confidence":-1},{"trial_n":18,"span":9,"encoder":"030780811","distractor":"030780815","target":"absent","response":"absent","rt":"1760.0999999046","correct":true,"confidence":-1},{"trial_n":19,"span":9,"encoder":"227714883","distractor":"227714823","target":"present","response":"present","rt":"1231.2000000477","correct":true,"confidence":-1},{"trial_n":20,"span":10,"encoder":"2157051757","distractor":"2157051957","target":"absent","response":"present","rt":"1579.2999999523","correct":false,"confidence":-1},{"trial_n":21,"span":9,"encoder":"565186472","distractor":"563186472","target":"absent","response":"present","rt":"1039.7999999523","correct":false,"confidence":4},{"trial_n":22,"span":8,"encoder":"33263073","distractor":"33261073","target":"present","response":"present","rt":"1093.7000000477","correct":true,"confidence":4},{"trial_n":23,"span":8,"encoder":"73332813","distractor":"73337813","target":"present","response":"present","rt":"996.79999995232","correct":true,"confidence":3},{"trial_n":24,"span":9,"encoder":"475655203","distractor":"475455203","target":"absent","response":"present","rt":"1037.1999998093","correct":false,"confidence":4},{"trial_n":25,"span":8,"encoder":"95719997","distractor":"93719997","target":"absent","response":"present","rt":"1255.3999998569","correct":false,"confidence":5},{"trial_n":26,"span":7,"encoder":"9177693","distractor":"9177623","target":"absent","response":"absent","rt":"1532.3999998569","correct":true,"confidence":3},{"trial_n":27,"span":7,"encoder":"1607190","distractor":"5607190","target":"absent","response":"present","rt":"1062","correct":false,"confidence":2},{"trial_n":28,"span":6,"encoder":"085864","distractor":"085364","target":"present","response":"present","rt":"1233.6999998093","correct":true,"confidence":4},{"trial_n":29,"span":6,"encoder":"615969","distractor":"685969","target":"absent","response":"absent","rt":"1695.5999999046","correct":true,"confidence":4},{"trial_n":30,"span":7,"encoder":"2149504","distractor":"0149504","target":"present","response":"present","rt":"2051","correct":true,"confidence":4},{"trial_n":31,"span":7,"encoder":"0082873","distractor":"0083873","target":"present","response":"present","rt":"1499.5","correct":true,"confidence":4},{"trial_n":32,"span":8,"encoder":"72980148","distractor":"72930148","target":"absent","response":"present","rt":"1114","correct":false,"confidence":4},{"trial_n":33,"span":7,"encoder":"3191139","distractor":"5191139","target":"absent","response":"present","rt":"3532.0999999046","correct":false,"confidence":4},{"trial_n":34,"span":6,"encoder":"750364","distractor":"750334","target":"absent","response":"absent","rt":"1740.2999999523","correct":true,"confidence":3},{"trial_n":35,"span":6,"encoder":"038649","distractor":"038641","target":"present","response":"present","rt":"1548.0999999046","correct":true,"confidence":5},{"trial_n":36,"span":7,"encoder":"7667459","distractor":"7607459","target":"absent","response":"present","rt":"1196.6000001431","correct":false,"confidence":4},{"trial_n":37,"span":6,"encoder":"314017","distractor":"304017","target":"absent","response":"present","rt":"987.59999990463","correct":false,"confidence":4},{"trial_n":38,"span":5,"encoder":"12411","distractor":"16411","target":"absent","response":"present","rt":"1151","correct":false,"confidence":5},{"trial_n":39,"span":4,"encoder":"7155","distractor":"7185","target":"present","response":"present","rt":"1358.8999998569","correct":true,"confidence":5},{"trial_n":40,"span":4,"encoder":"7551","distractor":"7553","target":"present","response":"present","rt":"938.09999990463","correct":true,"confidence":5},{"trial_n":41,"span":5,"encoder":"33596","distractor":"33526","target":"present","response":"present","rt":"1657.6000001431","correct":true,"confidence":4},{"trial_n":42,"span":5,"encoder":"77183","distractor":"77383","target":"present","response":"present","rt":"1026.5","correct":true,"confidence":5},{"trial_n":43,"span":6,"encoder":"024402","distractor":"024405","target":"present","response":"present","rt":"1054.3999998569","correct":true,"confidence":5},{"trial_n":44,"span":6,"encoder":"771915","distractor":"771965","target":"present","response":"present","rt":"952.5","correct":true,"confidence":5},{"trial_n":45,"span":7,"encoder":"4364884","distractor":"4314884","target":"absent","response":"present","rt":"1825.0999999046","correct":false,"confidence":3},{"trial_n":46,"span":6,"encoder":"686076","distractor":"686476","target":"present","response":"present","rt":"1046.8999998569","correct":true,"confidence":4},{"trial_n":47,"span":6,"encoder":"491754","distractor":"431754","target":"present","response":"present","rt":"999.29999995232","correct":true,"confidence":4},{"trial_n":48,"span":7,"encoder":"1695646","distractor":"1095646","target":"absent","response":"present","rt":"1042.6999998093","correct":false,"confidence":4},{"trial_n":49,"span":6,"encoder":"461209","distractor":"461309","target":"present","response":"present","rt":"975.29999995232","correct":true,"confidence":5},{"trial_n":50,"span":6,"encoder":"621626","distractor":"621646","target":"absent","response":"absent","rt":"2019.0999999046","correct":true,"confidence":4},{"trial_n":51,"span":7,"encoder":"9342547","distractor":"3342547","target":"absent","response":"absent","rt":"1682.8999998569","correct":true,"confidence":4},{"trial_n":52,"span":7,"encoder":"2600895","distractor":"4600895","target":"absent","response":"present","rt":"2937.1999998093","correct":false,"confidence":4},{"trial_n":53,"span":6,"encoder":"402658","distractor":"402618","target":"present","response":"present","rt":"1188.5999999046","correct":true,"confidence":5},{"trial_n":54,"span":6,"encoder":"934992","distractor":"934492","target":"present","response":"present","rt":"1483.7000000477","correct":true,"confidence":4},{"trial_n":55,"span":7,"encoder":"9836755","distractor":"9836752","target":"present","response":"present","rt":"2296","correct":true,"confidence":4},{"trial_n":56,"span":7,"encoder":"9066474","distractor":"9062474","target":"present","response":"present","rt":"1652.5","correct":true,"confidence":4},{"trial_n":57,"span":8,"encoder":"79595915","distractor":"79595925","target":"absent","response":"absent","rt":"1393.8999998569","correct":true,"confidence":4},{"trial_n":58,"span":8,"encoder":"16243041","distractor":"16293041","target":"absent","response":"present","rt":"1050.0999999046","correct":false,"confidence":4},{"trial_n":59,"span":7,"encoder":"8853574","distractor":"8853774","target":"present","response":"present","rt":"1112.0999999046","correct":true,"confidence":5},{"trial_n":60,"span":7,"encoder":"9128923","distractor":"6128923","target":"absent","response":"present","rt":"1546.1000001431","correct":false,"confidence":4},{"trial_n":61,"span":6,"encoder":"191417","distractor":"191419","target":"absent","response":"absent","rt":"1689.7000000477","correct":true,"confidence":5},{"trial_n":62,"span":6,"encoder":"313290","distractor":"313210","target":"absent","response":"absent","rt":"3938.5","correct":true,"confidence":4},{"trial_n":63,"span":7,"encoder":"2818045","distractor":"1818045","target":"present","response":"present","rt":"1257.0999999046","correct":true,"confidence":4},{"trial_n":64,"span":7,"encoder":"9200029","distractor":"9200019","target":"present","response":"present","rt":"1140.7999999523","correct":true,"confidence":4},{"trial_n":65,"span":8,"encoder":"82141240","distractor":"83141240","target":"present","response":"present","rt":"1503.5999999046","correct":true,"confidence":3},{"trial_n":66,"span":8,"encoder":"76049186","distractor":"78049186","target":"absent","response":"present","rt":"1407.2000000477","correct":false,"confidence":2},{"trial_n":67,"span":7,"encoder":"1283934","distractor":"1263934","target":"present","response":"present","rt":"2015.1999998093","correct":true,"confidence":3},{"trial_n":68,"span":7,"encoder":"8216674","distractor":"7216674","target":"absent","response":"present","rt":"1226.8999998569","correct":false,"confidence":2},{"trial_n":69,"span":6,"encoder":"663588","distractor":"693588","target":"absent","response":"present","rt":"3078.8999998569","correct":false,"confidence":4},{"trial_n":70,"span":5,"encoder":"33655","distractor":"33658","target":"absent","response":"present","rt":"1180.0999999046","correct":false,"confidence":4},{"trial_n":71,"span":8,"encoder":"27073693","distractor":"27074693","target":"present","response":"absent","rt":"1925.2000000477","correct":false,"confidence":-1},{"trial_n":72,"span":7,"encoder":"3117100","distractor":"3117600","target":"present","response":"present","rt":"1025.2999999523","correct":true,"confidence":-1},{"trial_n":73,"span":7,"encoder":"8024613","distractor":"8024213","target":"absent","response":"absent","rt":"1193.7000000477","correct":true,"confidence":-1},{"trial_n":74,"span":8,"encoder":"28202009","distractor":"28902009","target":"absent","response":"present","rt":"886.09999990463","correct":false,"confidence":-1},{"trial_n":75,"span":7,"encoder":"5419850","distractor":"5469850","target":"present","response":"absent","rt":"754","correct":false,"confidence":-1},{"trial_n":76,"span":6,"encoder":"274623","distractor":"274223","target":"present","response":"present","rt":"901","correct":true,"confidence":-1},{"trial_n":77,"span":6,"encoder":"308567","distractor":"808567","target":"present","response":"present","rt":"728.79999995232","correct":true,"confidence":-1},{"trial_n":78,"span":7,"encoder":"6674619","distractor":"6674615","target":"absent","response":"absent","rt":"1344.6999998093","correct":true,"confidence":-1},{"trial_n":79,"span":7,"encoder":"4994339","distractor":"7994339","target":"present","response":"absent","rt":"1035.6999998093","correct":false,"confidence":-1},{"trial_n":80,"span":6,"encoder":"295378","distractor":"195378","target":"absent","response":"present","rt":"858.5","correct":false,"confidence":-1},{"trial_n":81,"span":5,"encoder":"13136","distractor":"18136","target":"absent","response":"absent","rt":"1337.7999999523","correct":true,"confidence":-1},{"trial_n":82,"span":5,"encoder":"99501","distractor":"99601","target":"present","response":"absent","rt":"1175.2999999523","correct":false,"confidence":-1},{"trial_n":83,"span":4,"encoder":"4246","distractor":"4946","target":"absent","response":"absent","rt":"863.20000004768","correct":true,"confidence":-1},{"trial_n":84,"span":4,"encoder":"3440","distractor":"3441","target":"absent","response":"absent","rt":"926.39999985695","correct":true,"confidence":-1},{"trial_n":85,"span":5,"encoder":"74464","distractor":"74434","target":"present","response":"present","rt":"1921.0999999046","correct":true,"confidence":-1},{"trial_n":86,"span":5,"encoder":"81310","distractor":"81390","target":"present","response":"present","rt":"1752.9000000954","correct":true,"confidence":-1},{"trial_n":87,"span":6,"encoder":"918191","distractor":"908191","target":"absent","response":"absent","rt":"879.29999995232","correct":true,"confidence":-1},{"trial_n":88,"span":6,"encoder":"496240","distractor":"496241","target":"absent","response":"absent","rt":"683.29999995232","correct":true,"confidence":-1},{"trial_n":89,"span":7,"encoder":"1894603","distractor":"1892603","target":"absent","response":"absent","rt":"921.40000009537","correct":true,"confidence":-1},{"trial_n":90,"span":7,"encoder":"1633178","distractor":"1636178","target":"absent","response":"absent","rt":"941.29999995232","correct":true,"confidence":-1},{"trial_n":91,"span":8,"encoder":"80233192","distractor":"80283192","target":"present","response":"absent","rt":"973.29999995232","correct":false,"confidence":4},{"trial_n":92,"span":7,"encoder":"5720091","distractor":"5720081","target":"absent","response":"absent","rt":"1164.6000001431","correct":true,"confidence":5},{"trial_n":93,"span":7,"encoder":"5167915","distractor":"5167615","target":"absent","response":"absent","rt":"966.5","correct":true,"confidence":3},{"trial_n":94,"span":8,"encoder":"47192753","distractor":"47162753","target":"present","response":"absent","rt":"798.39999985695","correct":false,"confidence":4},{"trial_n":95,"span":7,"encoder":"0515792","distractor":"0515492","target":"absent","response":"absent","rt":"1171.5999999046","correct":true,"confidence":3},{"trial_n":96,"span":7,"encoder":"8870883","distractor":"9870883","target":"present","response":"absent","rt":"1109","correct":false,"confidence":4},{"trial_n":97,"span":6,"encoder":"625580","distractor":"625380","target":"present","response":"absent","rt":"1437.9000000954","correct":false,"confidence":4},{"trial_n":98,"span":5,"encoder":"06596","distractor":"01596","target":"present","response":"present","rt":"1534.0999999046","correct":true,"confidence":3},{"trial_n":99,"span":5,"encoder":"69758","distractor":"69754","target":"absent","response":"absent","rt":"1162","correct":true,"confidence":5},{"trial_n":100,"span":6,"encoder":"076931","distractor":"026931","target":"absent","response":"absent","rt":"1198.1999998093","correct":true,"confidence":5},{"trial_n":101,"span":6,"encoder":"220124","distractor":"220194","target":"present","response":"present","rt":"1997.2999999523","correct":true,"confidence":3},{"trial_n":102,"span":7,"encoder":"0763605","distractor":"0763505","target":"present","response":"present","rt":"1794.7000000477","correct":true,"confidence":2},{"trial_n":103,"span":7,"encoder":"2946762","distractor":"8946762","target":"absent","response":"present","rt":"940.70000004768","correct":false,"confidence":2},{"trial_n":104,"span":6,"encoder":"528441","distractor":"328441","target":"present","response":"present","rt":"1473.5","correct":true,"confidence":4},{"trial_n":105,"span":6,"encoder":"245711","distractor":"245111","target":"present","response":"absent","rt":"2626","correct":false,"confidence":4},{"trial_n":106,"span":5,"encoder":"38466","distractor":"88466","target":"absent","response":"present","rt":"10173.299999952","correct":false,"confidence":2},{"trial_n":107,"span":4,"encoder":"3278","distractor":"3228","target":"absent","response":"absent","rt":"16908.700000048","correct":true,"confidence":3},{"trial_n":108,"span":4,"encoder":"6925","distractor":"6525","target":"present","response":"present","rt":"2804.5","correct":true,"confidence":4},{"trial_n":109,"span":5,"encoder":"87835","distractor":"87825","target":"absent","response":"absent","rt":"1178.3999998569","correct":true,"confidence":4},{"trial_n":110,"span":5,"encoder":"14531","distractor":"74531","target":"present","response":"absent","rt":"1292.5999999046","correct":false,"confidence":4},{"trial_n":111,"span":4,"encoder":"2457","distractor":"2057","target":"absent","response":"absent","rt":"1008.7999999523","correct":true,"confidence":5},{"trial_n":112,"span":4,"encoder":"4921","distractor":"4521","target":"absent","response":"absent","rt":"1074.6000001431","correct":true,"confidence":4},{"trial_n":113,"span":5,"encoder":"11742","distractor":"51742","target":"present","response":"present","rt":"3217","correct":true,"confidence":2},{"trial_n":114,"span":5,"encoder":"60673","distractor":"60675","target":"present","response":"present","rt":"1069.8999998569","correct":true,"confidence":4},{"trial_n":115,"span":6,"encoder":"150402","distractor":"250402","target":"absent","response":"absent","rt":"1021.7999999523","correct":true,"confidence":4},{"trial_n":116,"span":6,"encoder":"316881","distractor":"310881","target":"present","response":"present","rt":"1931.7999999523","correct":true,"confidence":4},{"trial_n":117,"span":7,"encoder":"4338235","distractor":"4338215","target":"present","response":"present","rt":"1518.5","correct":true,"confidence":4},{"trial_n":118,"span":7,"encoder":"9810140","distractor":"9816140","target":"present","response":"present","rt":"2001.9000000954","correct":true,"confidence":3},{"trial_n":119,"span":8,"encoder":"99573060","distractor":"99578060","target":"absent","response":"absent","rt":"946.89999985695","correct":true,"confidence":4},{"trial_n":120,"span":8,"encoder":"74455600","distractor":"74455500","target":"present","response":"present","rt":"777.39999985695","correct":true,"confidence":1},{"trial_n":121,"span":9,"encoder":"579244095","distractor":"579240095","target":"present","response":"present","rt":"2143.2999999523","correct":true,"confidence":4},{"trial_n":122,"span":9,"encoder":"817298856","distractor":"817298876","target":"absent","response":"absent","rt":"1510.5999999046","correct":true,"confidence":4},{"trial_n":123,"span":10,"encoder":"2376760986","distractor":"2379760986","target":"absent","response":"absent","rt":"1849.4000000954","correct":true,"confidence":3},{"trial_n":124,"span":10,"encoder":"1118965300","distractor":"1118969300","target":"absent","response":"absent","rt":"1297.6999998093","correct":true,"confidence":4},{"trial_n":125,"span":11,"encoder":"49461134416","distractor":"46461134416","target":"present","response":"absent","rt":"1457.0999999046","correct":false,"confidence":3},{"trial_n":126,"span":10,"encoder":"0065830734","distractor":"7065830734","target":"present","response":"present","rt":"1754.7000000477","correct":true,"confidence":2},{"trial_n":127,"span":10,"encoder":"8929505037","distractor":"8929505039","target":"absent","response":"absent","rt":"1094.7000000477","correct":true,"confidence":4},{"trial_n":128,"span":11,"encoder":"02425479126","distractor":"02425479125","target":"present","response":"present","rt":"1149.8999998569","correct":true,"confidence":5},{"trial_n":129,"span":11,"encoder":"56272304817","distractor":"56272504817","target":"absent","response":"present","rt":"1124.8999998569","correct":false,"confidence":4},{"trial_n":130,"span":10,"encoder":"6783361348","distractor":"6788361348","target":"present","response":"absent","rt":"1121.2999999523","correct":false,"confidence":3},{"trial_n":131,"span":9,"encoder":"589805699","distractor":"539805699","target":"absent","response":"present","rt":"1308.4000000954","correct":false,"confidence":3},{"trial_n":132,"span":8,"encoder":"54765435","distractor":"54765437","target":"present","response":"present","rt":"1410.7000000477","correct":true,"confidence":4},{"trial_n":133,"span":8,"encoder":"23191009","distractor":"25191009","target":"present","response":"absent","rt":"1161.0999999046","correct":false,"confidence":4},{"trial_n":134,"span":7,"encoder":"4053045","distractor":"4053047","target":"absent","response":"absent","rt":"17617.799999952","correct":true,"confidence":4},{"trial_n":135,"span":7,"encoder":"7804605","distractor":"7804625","target":"absent","response":"absent","rt":"1928","correct":true,"confidence":4},{"trial_n":136,"span":8,"encoder":"56261584","distractor":"50261584","target":"present","response":"present","rt":"969.20000004768","correct":true,"confidence":5},{"trial_n":137,"span":8,"encoder":"33942838","distractor":"33982838","target":"absent","response":"absent","rt":"1332.8000001907","correct":true,"confidence":3},{"trial_n":138,"span":9,"encoder":"103145561","distractor":"103155561","target":"present","response":"absent","rt":"1123.7999999523","correct":false,"confidence":4},{"trial_n":139,"span":8,"encoder":"93896341","distractor":"93896141","target":"present","response":"present","rt":"1894.0999999046","correct":true,"confidence":3},{"trial_n":140,"span":8,"encoder":"91564451","distractor":"91564411","target":"absent","response":"absent","rt":"1367.6000001431","correct":true,"confidence":4}]