[{"trial_n":1,"n_dots":4.25,"target":"left","response":"left","rt":6872.7999997139,"correct":true,"confidence":-1},{"trial_n":2,"n_dots":4.25,"target":"left","response":"left","rt":956.5,"correct":true,"confidence":-1},{"trial_n":3,"n_dots":3.85,"target":"right","response":"right","rt":585.40000009537,"correct":true,"confidence":-1},{"trial_n":4,"n_dots":3.85,"target":"left","response":"left","rt":358,"correct":true,"confidence":-1},{"trial_n":5,"n_dots":3.45,"target":"left","response":"right","rt":381.30000019073,"correct":false,"confidence":-1},{"trial_n":6,"n_dots":3.85,"target":"right","response":"right","rt":287.59999990463,"correct":true,"confidence":-1},{"trial_n":7,"n_dots":3.85,"target":"right","response":"left","rt":1024.9000000954,"correct":false,"confidence":-1},{"trial_n":8,"n_dots":4.05,"target":"right","response":"right","rt":1152.9000000954,"correct":true,"confidence":-1},{"trial_n":9,"n_dots":4.05,"target":"left","response":"left","rt":501.2000002861,"correct":true,"confidence":-1},{"trial_n":10,"n_dots":3.85,"target":"left","response":"right","rt":161.90000009537,"correct":false,"confidence":-1},{"trial_n":11,"n_dots":4.05,"target":"left","response":"left","rt":63.400000095367,"correct":true,"confidence":-1},{"trial_n":12,"n_dots":4.05,"target":"left","response":"left","rt":380.59999990463,"correct":true,"confidence":-1},{"trial_n":13,"n_dots":3.95,"target":"right","response":"right","rt":42,"correct":true,"confidence":-1},{"trial_n":14,"n_dots":3.95,"target":"right","response":"right","rt":1664.6000003815,"correct":true,"confidence":-1},{"trial_n":15,"n_dots":3.85,"target":"right","response":"right","rt":136.2999997139,"correct":true,"confidence":-1},{"trial_n":16,"n_dots":3.85,"target":"left","response":"left","rt":218.7000002861,"correct":true,"confidence":-1},{"trial_n":17,"n_dots":3.75,"target":"right","response":"right","rt":25.099999904633,"correct":true,"confidence":-1},{"trial_n":18,"n_dots":3.75,"target":"left","response":"left","rt":817.60000038147,"correct":true,"confidence":-1},{"trial_n":19,"n_dots":3.65,"target":"right","response":"right","rt":489.90000009537,"correct":true,"confidence":-1},{"trial_n":20,"n_dots":3.65,"target":"right","response":"right","rt":1589,"correct":true,"confidence":-1},{"trial_n":21,"n_dots":3.55,"target":"right","response":"right","rt":124.7000002861,"correct":true,"confidence":4},{"trial_n":22,"n_dots":3.55,"target":"left","response":"left","rt":442.80000019073,"correct":true,"confidence":3},{"trial_n":23,"n_dots":3.45,"target":"right","response":"right","rt":466.7999997139,"correct":true,"confidence":4},{"trial_n":24,"n_dots":3.45,"target":"right","response":"right","rt":630,"correct":true,"confidence":5},{"trial_n":25,"n_dots":3.35,"target":"right","response":"right","rt":544.09999990463,"correct":true,"confidence":4},{"trial_n":26,"n_dots":3.35,"target":"right","response":"right","rt":490.89999961853,"correct":true,"confidence":3},{"trial_n":27,"n_dots":3.25,"target":"left","response":"right","rt":952,"correct":false,"confidence":2},{"trial_n":28,"n_dots":3.35,"target":"left","response":"left","rt":347.2000002861,"correct":true,"confidence":3},{"trial_n":29,"n_dots":3.35,"target":"left","response":"left","rt":806.19999980927,"correct":true,"confidence":4},{"trial_n":30,"n_dots":3.25,"target":"right","response":"left","rt":26411,"correct":false,"confidence":2},{"trial_n":31,"n_dots":3.35,"target":"right","response":"right","rt":1481.9000000954,"correct":true,"confidence":3},{"trial_n":32,"n_dots":3.35,"target":"left","response":"left","rt":398.90000009537,"correct":true,"confidence":4},{"trial_n":33,"n_dots":3.25,"target":"left","response":"right","rt":700.89999961853,"correct":false,"confidence":3},{"trial_n":34,"n_dots":3.35,"target":"left","response":"left","rt":368.69999980927,"correct":true,"confidence":5},{"trial_n":35,"n_dots":3.35,"target":"right","response":"right","rt":417.69999980927,"correct":true,"confidence":4},{"trial_n":36,"n_dots":3.25,"target":"right","response":"left","rt":44.699999809265,"correct":false,"confidence":3},{"trial_n":37,"n_dots":3.35,"target":"right","response":"right","rt":1030.9000000954,"correct":true,"confidence":3},{"trial_n":38,"n_dots":3.35,"target":"left","response":"right","rt":665,"correct":false,"confidence":3},{"trial_n":39,"n_dots":3.45,"target":"right","response":"left","rt":73821.300000191,"correct":false,"confidence":1},{"trial_n":40,"n_dots":3.55,"target":"left","response":"left","rt":1012.3000001907,"correct":true,"confidence":3},{"trial_n":41,"n_dots":3.55,"target":"left","response":"right","rt":1136.3000001907,"correct":false,"confidence":3},{"trial_n":42,"n_dots":3.65,"target":"left","response":"left","rt":762.09999990463,"correct":true,"confidence":3},{"trial_n":43,"n_dots":3.65,"target":"right","response":"right","rt":666.40000009537,"correct":true,"confidence":4},{"trial_n":44,"n_dots":3.55,"target":"right","response":"right","rt":1087.0999999046,"correct":true,"confidence":3},{"trial_n":45,"n_dots":3.55,"target":"right","response":"right","rt":602.30000019073,"correct":true,"confidence":3},{"trial_n":46,"n_dots":3.45,"target":"left","response":"left","rt":385.40000009537,"correct":true,"confidence":4},{"trial_n":47,"n_dots":3.45,"target":"left","response":"left","rt":726.69999980927,"correct":true,"confidence":4},{"trial_n":48,"n_dots":3.35,"target":"right","response":"right","rt":873.40000009537,"correct":true,"confidence":3},{"trial_n":49,"n_dots":3.35,"target":"right","response":"left","rt":676.69999980927,"correct":false,"confidence":2},{"trial_n":50,"n_dots":3.45,"target":"right","response":"right","rt":21489.5,"correct":true,"confidence":3},{"trial_n":51,"n_dots":3.45,"target":"right","response":"left","rt":1241.2999997139,"correct":false,"confidence":3},{"trial_n":52,"n_dots":3.55,"target":"right","response":"right","rt":1735.6999998093,"correct":true,"confidence":3},{"trial_n":53,"n_dots":3.55,"target":"right","response":"right","rt":1589.6999998093,"correct":true,"confidence":3},{"trial_n":54,"n_dots":3.45,"target":"right","response":"right","rt":961.7000002861,"correct":true,"confidence":3},{"trial_n":55,"n_dots":3.45,"target":"left","response":"left","rt":620.69999980927,"correct":true,"confidence":3},{"trial_n":56,"n_dots":3.35,"target":"left","response":"left","rt":437.09999990463,"correct":true,"confidence":4},{"trial_n":57,"n_dots":3.35,"target":"right","response":"right","rt":571.7999997139,"correct":true,"confidence":4},{"trial_n":58,"n_dots":3.25,"target":"left","response":"left","rt":829.69999980927,"correct":true,"confidence":3},{"trial_n":59,"n_dots":3.25,"target":"left","response":"left","rt":1117.5,"correct":true,"confidence":4},{"trial_n":60,"n_dots":3.15,"target":"right","response":"right","rt":1901.2999997139,"correct":true,"confidence":4},{"trial_n":61,"n_dots":3.15,"target":"left","response":"left","rt":485.09999990463,"correct":true,"confidence":3},{"trial_n":62,"n_dots":3.05,"target":"right","response":"right","rt":731.69999980927,"correct":true,"confidence":4},{"trial_n":63,"n_dots":3.05,"target":"right","response":"left","rt":914.60000038147,"correct":false,"confidence":5},{"trial_n":64,"n_dots":3.15,"target":"right","response":"right","rt":446.5,"correct":true,"confidence":5},{"trial_n":65,"n_dots":3.15,"target":"right","response":"right","rt":611.90000009537,"correct":true,"confidence":4},{"trial_n":66,"n_dots":3.05,"target":"right","response":"right","rt":607.80000019073,"correct":true,"confidence":5},{"trial_n":67,"n_dots":3.05,"target":"left","response":"right","rt":739.69999980927,"correct":false,"confidence":4},{"trial_n":68,"n_dots":3.15,"target":"right","response":"left","rt":902.59999990463,"correct":false,"confidence":3},{"trial_n":69,"n_dots":3.25,"target":"right","response":"right","rt":855.40000009537,"correct":true,"confidence":4},{"trial_n":70,"n_dots":3.25,"target":"right","response":"right","rt":929,"correct":true,"confidence":3},{"trial_n":71,"n_dots":3.15,"target":"right","response":"right","rt":914.59999990463,"correct":true,"confidence":4},{"trial_n":72,"n_dots":3.15,"target":"left","response":"left","rt":1019.5,"correct":true,"confidence":3},{"trial_n":73,"n_dots":3.05,"target":"left","response":"right","rt":948.5,"correct":false,"confidence":3},{"trial_n":74,"n_dots":3.15,"target":"left","response":"left","rt":832.19999980927,"correct":true,"confidence":3},{"trial_n":75,"n_dots":3.15,"target":"right","response":"right","rt":624,"correct":true,"confidence":4},{"trial_n":76,"n_dots":3.05,"target":"left","response":"left","rt":797,"correct":true,"confidence":3},{"trial_n":77,"n_dots":3.05,"target":"right","response":"right","rt":619.19999980927,"correct":true,"confidence":4},{"trial_n":78,"n_dots":2.95,"target":"right","response":"left","rt":687.40000009537,"correct":false,"confidence":4},{"trial_n":79,"n_dots":3.05,"target":"left","response":"right","rt":601.09999990463,"correct":false,"confidence":3},{"trial_n":80,"n_dots":3.15,"target":"right","response":"right","rt":671.2999997139,"correct":true,"confidence":4},{"trial_n":81,"n_dots":3.15,"target":"right","response":"right","rt":167.09999990463,"correct":true,"confidence":4},{"trial_n":82,"n_dots":3.05,"target":"left","response":"left","rt":134.59999990463,"correct":true,"confidence":4},{"trial_n":83,"n_dots":3.05,"target":"left","response":"left","rt":576.40000009537,"correct":true,"confidence":4},{"trial_n":84,"n_dots":2.95,"target":"left","response":"left","rt":677.10000038147,"correct":true,"confidence":4},{"trial_n":85,"n_dots":2.95,"target":"right","response":"right","rt":526.69999980927,"correct":true,"confidence":4},{"trial_n":86,"n_dots":2.85,"target":"left","response":"left","rt":501.40000009537,"correct":true,"confidence":4},{"trial_n":87,"n_dots":2.85,"target":"left","response":"left","rt":733.90000009537,"correct":true,"confidence":3},{"trial_n":88,"n_dots":2.75,"target":"left","response":"right","rt":560,"correct":false,"confidence":4},{"trial_n":89,"n_dots":2.85,"target":"right","response":"right","rt":545.89999961853,"correct":true,"confidence":4},{"trial_n":90,"n_dots":2.85,"target":"left","response":"left","rt":611.09999990463,"correct":true,"confidence":4},{"trial_n":91,"n_dots":2.75,"target":"left","response":"right","rt":571.30000019073,"correct":false,"confidence":4},{"trial_n":92,"n_dots":2.85,"target":"right","response":"left","rt":712.59999990463,"correct":false,"confidence":4},{"trial_n":93,"n_dots":2.95,"target":"right","response":"right","rt":429.69999980927,"correct":true,"confidence":4},{"trial_n":94,"n_dots":2.95,"target":"left","response":"left","rt":1324,"correct":true,"confidence":2},{"trial_n":95,"n_dots":2.85,"target":"left","response":"left","rt":1191.7000002861,"correct":true,"confidence":3},{"trial_n":96,"n_dots":2.85,"target":"right","response":"right","rt":1176.7999997139,"correct":true,"confidence":5},{"trial_n":97,"n_dots":2.75,"target":"left","response":"left","rt":1561,"correct":true,"confidence":3},{"trial_n":98,"n_dots":2.75,"target":"left","response":"right","rt":1263.2000002861,"correct":false,"confidence":3},{"trial_n":99,"n_dots":2.85,"target":"left","response":"left","rt":581.09999990463,"correct":true,"confidence":3},{"trial_n":100,"n_dots":2.85,"target":"right","response":"right","rt":632.2000002861,"correct":true,"confidence":4},{"trial_n":101,"n_dots":2.75,"target":"right","response":"right","rt":369.40000009537,"correct":true,"confidence":4},{"trial_n":102,"n_dots":2.75,"target":"left","response":"left","rt":273.7000002861,"correct":true,"confidence":3},{"trial_n":103,"n_dots":2.65,"target":"left","response":"left","rt":417.5,"correct":true,"confidence":2},{"trial_n":104,"n_dots":2.65,"target":"left","response":"right","rt":417.5,"correct":false,"confidence":4},{"trial_n":105,"n_dots":2.75,"target":"left","response":"left","rt":527.30000019073,"correct":true,"confidence":3},{"trial_n":106,"n_dots":2.75,"target":"right","response":"right","rt":879.69999980927,"correct":true,"confidence":3},{"trial_n":107,"n_dots":2.65,"target":"right","response":"right","rt":5052.3999996185,"correct":true,"confidence":3},{"trial_n":108,"n_dots":2.65,"target":"left","response":"right","rt":564.40000009537,"correct":false,"confidence":4},{"trial_n":109,"n_dots":2.75,"target":"left","response":"right","rt":1304.0999999046,"correct":false,"confidence":4},{"trial_n":110,"n_dots":2.85,"target":"left","response":"left","rt":1730.7000002861,"correct":true,"confidence":5},{"trial_n":111,"n_dots":2.85,"target":"right","response":"left","rt":2058.7000002861,"correct":false,"confidence":4},{"trial_n":112,"n_dots":2.95,"target":"left","response":"left","rt":722.69999980927,"correct":true,"confidence":3},{"trial_n":113,"n_dots":2.95,"target":"left","response":"left","rt":36927.5,"correct":true,"confidence":1},{"trial_n":114,"n_dots":2.85,"target":"left","response":"left","rt":533.09999990463,"correct":true,"confidence":3},{"trial_n":115,"n_dots":2.85,"target":"left","response":"right","rt":751.2999997139,"correct":false,"confidence":4},{"trial_n":116,"n_dots":2.95,"target":"left","response":"left","rt":497.2000002861,"correct":true,"confidence":3},{"trial_n":117,"n_dots":2.95,"target":"right","response":"right","rt":6978.9000000954,"correct":true,"confidence":3},{"trial_n":118,"n_dots":2.85,"target":"left","response":"left","rt":502.39999961853,"correct":true,"confidence":3},{"trial_n":119,"n_dots":2.85,"target":"right","response":"right","rt":319.80000019073,"correct":true,"confidence":3},{"trial_n":120,"n_dots":2.75,"target":"right","response":"right","rt":396.5,"correct":true,"confidence":4}]