[{"trial_n":1,"span":8,"encoder":"09236629","distractor":"09236529","target":"present","response":"present","rt":"5034","correct":true,"confidence":-1},{"trial_n":2,"span":8,"encoder":"09348188","distractor":"09388188","target":"present","response":"present","rt":"2356","correct":true,"confidence":-1},{"trial_n":3,"span":10,"encoder":"9170959933","distractor":"9170951933","target":"absent","response":"absent","rt":"4148","correct":true,"confidence":-1},{"trial_n":4,"span":10,"encoder":"7313871338","distractor":"7313471338","target":"absent","response":"present","rt":"1594","correct":false,"confidence":-1},{"trial_n":5,"span":8,"encoder":"33102230","distractor":"33502230","target":"present","response":"present","rt":"1339","correct":true,"confidence":-1},{"trial_n":6,"span":8,"encoder":"27351859","distractor":"27351850","target":"absent","response":"absent","rt":"1344","correct":true,"confidence":-1},{"trial_n":7,"span":10,"encoder":"9380968453","distractor":"9380968483","target":"present","response":"absent","rt":"1508","correct":false,"confidence":-1},{"trial_n":8,"span":8,"encoder":"28093347","distractor":"28093343","target":"present","response":"present","rt":"918","correct":true,"confidence":-1},{"trial_n":9,"span":8,"encoder":"09457988","distractor":"09459988","target":"absent","response":"present","rt":"1323","correct":false,"confidence":-1},{"trial_n":10,"span":6,"encoder":"033101","distractor":"033103","target":"present","response":"present","rt":"1042","correct":true,"confidence":-1},{"trial_n":11,"span":6,"encoder":"692223","distractor":"692283","target":"absent","response":"absent","rt":"2618","correct":true,"confidence":-1},{"trial_n":12,"span":7,"encoder":"5050352","distractor":"5020352","target":"present","response":"present","rt":"1734","correct":true,"confidence":-1},{"trial_n":13,"span":7,"encoder":"3748696","distractor":"3748896","target":"absent","response":"present","rt":"1091","correct":false,"confidence":-1},{"trial_n":14,"span":6,"encoder":"513488","distractor":"513888","target":"present","response":"present","rt":"1209","correct":true,"confidence":-1},{"trial_n":15,"span":6,"encoder":"850102","distractor":"830102","target":"present","response":"present","rt":"1695","correct":true,"confidence":-1},{"trial_n":16,"span":7,"encoder":"3091126","distractor":"3191126","target":"absent","response":"present","rt":"2155","correct":false,"confidence":-1},{"trial_n":17,"span":6,"encoder":"738277","distractor":"738297","target":"absent","response":"absent","rt":"1421","correct":true,"confidence":-1},{"trial_n":18,"span":6,"encoder":"920427","distractor":"920487","target":"present","response":"absent","rt":"1735","correct":false,"confidence":-1},{"trial_n":19,"span":5,"encoder":"14367","distractor":"14467","target":"absent","response":"absent","rt":"1540","correct":true,"confidence":-1},{"trial_n":20,"span":5,"encoder":"39406","distractor":"39806","target":"absent","response":"absent","rt":"1743","correct":true,"confidence":-1},{"trial_n":21,"span":6,"encoder":"216571","distractor":"216871","target":"absent","response":"absent","rt":"2037","correct":true,"confidence":3},{"trial_n":22,"span":6,"encoder":"864766","distractor":"864706","target":"absent","response":"absent","rt":"1803","correct":true,"confidence":5},{"trial_n":23,"span":7,"encoder":"5942082","distractor":"5942062","target":"present","response":"present","rt":"2640","correct":true,"confidence":2},{"trial_n":24,"span":7,"encoder":"3146143","distractor":"3146743","target":"absent","response":"absent","rt":"2629","correct":true,"confidence":4},{"trial_n":25,"span":8,"encoder":"11695299","distractor":"11095299","target":"present","response":"absent","rt":"1383","correct":false,"confidence":5},{"trial_n":26,"span":7,"encoder":"5215919","distractor":"5295919","target":"present","response":"absent","rt":"3726","correct":false,"confidence":3},{"trial_n":27,"span":6,"encoder":"113601","distractor":"113701","target":"absent","response":"absent","rt":"1714","correct":true,"confidence":4},{"trial_n":28,"span":6,"encoder":"818679","distractor":"718679","target":"absent","response":"present","rt":"4772","correct":false,"confidence":3},{"trial_n":29,"span":5,"encoder":"17704","distractor":"17304","target":"absent","response":"absent","rt":"1521.9999999999","correct":true,"confidence":5},{"trial_n":30,"span":5,"encoder":"52805","distractor":"52405","target":"present","response":"present","rt":"2028","correct":true,"confidence":3},{"trial_n":31,"span":6,"encoder":"141686","distractor":"131686","target":"present","response":"present","rt":"1965","correct":true,"confidence":4},{"trial_n":32,"span":6,"encoder":"154454","distractor":"159454","target":"absent","response":"absent","rt":"4490","correct":true,"confidence":1},{"trial_n":33,"span":7,"encoder":"1437493","distractor":"1437443","target":"absent","response":"absent","rt":"1327","correct":true,"confidence":5},{"trial_n":34,"span":7,"encoder":"7859813","distractor":"7859814","target":"present","response":"present","rt":"4838","correct":true,"confidence":3},{"trial_n":35,"span":8,"encoder":"90838241","distractor":"90838291","target":"absent","response":"absent","rt":"1253","correct":true,"confidence":5},{"trial_n":36,"span":8,"encoder":"40328537","distractor":"40328137","target":"absent","response":"present","rt":"5327","correct":false,"confidence":3},{"trial_n":37,"span":7,"encoder":"4022961","distractor":"4026961","target":"absent","response":"present","rt":"2050","correct":false,"confidence":4},{"trial_n":38,"span":6,"encoder":"576565","distractor":"546565","target":"present","response":"present","rt":"1427","correct":true,"confidence":5},{"trial_n":39,"span":6,"encoder":"224262","distractor":"224269","target":"present","response":"present","rt":"7664","correct":true,"confidence":4},{"trial_n":40,"span":7,"encoder":"7303848","distractor":"7303048","target":"present","response":"present","rt":"2045.0000000001","correct":true,"confidence":4},{"trial_n":41,"span":7,"encoder":"7181461","distractor":"7181469","target":"present","response":"present","rt":"1963.0000000001","correct":true,"confidence":3},{"trial_n":42,"span":8,"encoder":"42058067","distractor":"42558067","target":"present","response":"present","rt":"2588","correct":true,"confidence":2},{"trial_n":43,"span":8,"encoder":"41955972","distractor":"21955972","target":"absent","response":"present","rt":"2445","correct":false,"confidence":3},{"trial_n":44,"span":7,"encoder":"7621109","distractor":"7641109","target":"present","response":"present","rt":"1398","correct":true,"confidence":4},{"trial_n":45,"span":7,"encoder":"2596479","distractor":"2596499","target":"present","response":"present","rt":"2163","correct":true,"confidence":4},{"trial_n":46,"span":8,"encoder":"71602248","distractor":"11602248","target":"present","response":"absent","rt":"2089","correct":false,"confidence":2},{"trial_n":47,"span":7,"encoder":"6584203","distractor":"4584203","target":"present","response":"absent","rt":"5914","correct":false,"confidence":1},{"trial_n":48,"span":6,"encoder":"379552","distractor":"309552","target":"absent","response":"present","rt":"1741.9999999999","correct":false,"confidence":5},{"trial_n":49,"span":5,"encoder":"28779","distractor":"28773","target":"present","response":"present","rt":"2239","correct":true,"confidence":5},{"trial_n":50,"span":5,"encoder":"46026","distractor":"46056","target":"present","response":"present","rt":"1376.9999999999","correct":true,"confidence":5},{"trial_n":51,"span":6,"encoder":"238105","distractor":"238505","target":"present","response":"present","rt":"2704","correct":true,"confidence":5},{"trial_n":52,"span":6,"encoder":"600298","distractor":"200298","target":"present","response":"present","rt":"1738","correct":true,"confidence":5},{"trial_n":53,"span":7,"encoder":"5889467","distractor":"5884467","target":"present","response":"present","rt":"2079.0000000001","correct":true,"confidence":5},{"trial_n":54,"span":7,"encoder":"6843409","distractor":"6243409","target":"absent","response":"absent","rt":"3612","correct":true,"confidence":2},{"trial_n":55,"span":8,"encoder":"43714626","distractor":"45714626","target":"absent","response":"absent","rt":"1826","correct":true,"confidence":3},{"trial_n":56,"span":8,"encoder":"08461725","distractor":"08465725","target":"absent","response":"absent","rt":"1543","correct":true,"confidence":3},{"trial_n":57,"span":9,"encoder":"935738104","distractor":"930738104","target":"absent","response":"present","rt":"1711","correct":false,"confidence":2},{"trial_n":58,"span":8,"encoder":"24348823","distractor":"29348823","target":"absent","response":"present","rt":"1502","correct":false,"confidence":3},{"trial_n":59,"span":7,"encoder":"8652628","distractor":"8682628","target":"absent","response":"present","rt":"3361","correct":false,"confidence":3},{"trial_n":60,"span":6,"encoder":"539932","distractor":"039932","target":"present","response":"present","rt":"1252","correct":true,"confidence":4},{"trial_n":61,"span":6,"encoder":"800292","distractor":"800212","target":"present","response":"present","rt":"999","correct":true,"confidence":5},{"trial_n":62,"span":7,"encoder":"3232633","distractor":"3432633","target":"absent","response":"absent","rt":"3739.9999999999","correct":true,"confidence":4},{"trial_n":63,"span":7,"encoder":"9594508","distractor":"9599508","target":"absent","response":"present","rt":"3683","correct":false,"confidence":3},{"trial_n":64,"span":6,"encoder":"873101","distractor":"373101","target":"present","response":"present","rt":"1196","correct":true,"confidence":4},{"trial_n":65,"span":6,"encoder":"112101","distractor":"115101","target":"present","response":"present","rt":"1054.0000000001","correct":true,"confidence":5},{"trial_n":66,"span":7,"encoder":"8585869","distractor":"8285869","target":"absent","response":"absent","rt":"2371","correct":true,"confidence":5},{"trial_n":67,"span":7,"encoder":"8660307","distractor":"8640307","target":"absent","response":"absent","rt":"2013","correct":true,"confidence":5},{"trial_n":68,"span":8,"encoder":"54631631","distractor":"54631731","target":"absent","response":"present","rt":"1708","correct":false,"confidence":3},{"trial_n":69,"span":7,"encoder":"0815556","distractor":"0715556","target":"present","response":"present","rt":"1603","correct":true,"confidence":4},{"trial_n":70,"span":7,"encoder":"1368679","distractor":"6368679","target":"present","response":"present","rt":"5030","correct":true,"confidence":2},{"trial_n":71,"span":8,"encoder":"58805823","distractor":"08805823","target":"present","response":"present","rt":"2935","correct":true,"confidence":-1},{"trial_n":72,"span":8,"encoder":"62990273","distractor":"62998273","target":"present","response":"absent","rt":"4509","correct":false,"confidence":-1},{"trial_n":73,"span":7,"encoder":"6285464","distractor":"6295464","target":"absent","response":"present","rt":"2259","correct":false,"confidence":-1},{"trial_n":74,"span":6,"encoder":"536836","distractor":"536846","target":"absent","response":"absent","rt":"1596.9999999999","correct":true,"confidence":-1},{"trial_n":75,"span":6,"encoder":"823214","distractor":"023214","target":"present","response":"present","rt":"2880","correct":true,"confidence":-1},{"trial_n":76,"span":7,"encoder":"7715089","distractor":"1715089","target":"present","response":"present","rt":"5139","correct":true,"confidence":-1},{"trial_n":77,"span":7,"encoder":"4548409","distractor":"4548479","target":"present","response":"present","rt":"1054","correct":true,"confidence":-1},{"trial_n":78,"span":8,"encoder":"65135402","distractor":"65132402","target":"absent","response":"absent","rt":"4057","correct":true,"confidence":-1},{"trial_n":79,"span":8,"encoder":"10168045","distractor":"10168245","target":"present","response":"absent","rt":"6020","correct":false,"confidence":-1},{"trial_n":80,"span":7,"encoder":"4465717","distractor":"4461717","target":"absent","response":"present","rt":"2915.0000000001","correct":false,"confidence":-1},{"trial_n":81,"span":6,"encoder":"365859","distractor":"345859","target":"present","response":"present","rt":"3118","correct":true,"confidence":-1},{"trial_n":82,"span":6,"encoder":"378642","distractor":"378622","target":"present","response":"present","rt":"2913","correct":true,"confidence":-1},{"trial_n":83,"span":7,"encoder":"8849757","distractor":"8849727","target":"present","response":"present","rt":"3996","correct":true,"confidence":-1},{"trial_n":84,"span":7,"encoder":"7262007","distractor":"2262007","target":"present","response":"present","rt":"2956","correct":true,"confidence":-1},{"trial_n":85,"span":8,"encoder":"83337112","distractor":"83330112","target":"absent","response":"absent","rt":"4575","correct":true,"confidence":-1},{"trial_n":86,"span":8,"encoder":"81112078","distractor":"81912078","target":"absent","response":"absent","rt":"2188.9999999999","correct":true,"confidence":-1},{"trial_n":87,"span":9,"encoder":"099612658","distractor":"699612658","target":"present","response":"present","rt":"5285","correct":true,"confidence":-1},{"trial_n":88,"span":9,"encoder":"224323605","distractor":"224323665","target":"present","response":"present","rt":"2991","correct":true,"confidence":-1},{"trial_n":89,"span":10,"encoder":"3884450873","distractor":"3884452873","target":"absent","response":"absent","rt":"1506","correct":true,"confidence":-1},{"trial_n":90,"span":10,"encoder":"3119156429","distractor":"3118156429","target":"absent","response":"absent","rt":"1370","correct":true,"confidence":-1},{"trial_n":91,"span":11,"encoder":"77155091336","distractor":"77153091336","target":"absent","response":"absent","rt":"4740","correct":true,"confidence":2},{"trial_n":92,"span":11,"encoder":"73747223669","distractor":"73747293669","target":"present","response":"absent","rt":"5972","correct":false,"confidence":3},{"trial_n":93,"span":10,"encoder":"3178562658","distractor":"3978562658","target":"absent","response":"absent","rt":"9588","correct":true,"confidence":1},{"trial_n":94,"span":10,"encoder":"7809918896","distractor":"7805918896","target":"absent","response":"absent","rt":"2139","correct":true,"confidence":5},{"trial_n":95,"span":11,"encoder":"12754930059","distractor":"12754930055","target":"absent","response":"absent","rt":"1612","correct":true,"confidence":5},{"trial_n":96,"span":11,"encoder":"44336449639","distractor":"44336443639","target":"present","response":"absent","rt":"7919.9999999999","correct":false,"confidence":3},{"trial_n":97,"span":10,"encoder":"9211612586","distractor":"9211642586","target":"absent","response":"absent","rt":"5480","correct":true,"confidence":2},{"trial_n":98,"span":10,"encoder":"7267744758","distractor":"2267744758","target":"absent","response":"absent","rt":"3415.9999999999","correct":true,"confidence":3},{"trial_n":99,"span":11,"encoder":"00123843202","distractor":"00143843202","target":"absent","response":"absent","rt":"3750","correct":true,"confidence":4},{"trial_n":100,"span":11,"encoder":"59346408858","distractor":"99346408858","target":"absent","response":"absent","rt":"5855","correct":true,"confidence":3},{"trial_n":101,"span":12,"encoder":"582414641985","distractor":"582415641985","target":"absent","response":"present","rt":"5793","correct":false,"confidence":1},{"trial_n":102,"span":11,"encoder":"17826173230","distractor":"17826113230","target":"absent","response":"absent","rt":"2537","correct":true,"confidence":3},{"trial_n":103,"span":11,"encoder":"47350803279","distractor":"57350803279","target":"present","response":"present","rt":"4034","correct":true,"confidence":2},{"trial_n":104,"span":12,"encoder":"977686696039","distractor":"977686696034","target":"present","response":"present","rt":"7053.0000000001","correct":true,"confidence":3},{"trial_n":105,"span":12,"encoder":"230970647436","distractor":"238970647436","target":"present","response":"present","rt":"6083.9999999999","correct":true,"confidence":2},{"trial_n":106,"span":13,"encoder":"3021550450147","distractor":"3041550450147","target":"absent","response":"absent","rt":"6395","correct":true,"confidence":2},{"trial_n":107,"span":13,"encoder":"2076869936966","distractor":"2076869936906","target":"absent","response":"absent","rt":"2434","correct":true,"confidence":4},{"trial_n":108,"span":14,"encoder":"62245916095905","distractor":"62145916095905","target":"absent","response":"absent","rt":"5530","correct":true,"confidence":3},{"trial_n":109,"span":14,"encoder":"56907054777664","distractor":"56907054977664","target":"present","response":"present","rt":"1757","correct":true,"confidence":4},{"trial_n":110,"span":15,"encoder":"632580624998246","distractor":"632580624995246","target":"absent","response":"absent","rt":"8865","correct":true,"confidence":1},{"trial_n":111,"span":15,"encoder":"400196300311758","distractor":"400196300311753","target":"present","response":"absent","rt":"7447","correct":false,"confidence":2},{"trial_n":112,"span":14,"encoder":"10140963611965","distractor":"10140963611165","target":"present","response":"present","rt":"3414.9999999998","correct":true,"confidence":2},{"trial_n":113,"span":14,"encoder":"61076045544170","distractor":"31076045544170","target":"absent","response":"absent","rt":"5320","correct":true,"confidence":2},{"trial_n":114,"span":15,"encoder":"815101478577252","distractor":"815101498577252","target":"present","response":"present","rt":"6140.0000000002","correct":true,"confidence":3},{"trial_n":115,"span":15,"encoder":"982200118324147","distractor":"987200118324147","target":"present","response":"absent","rt":"5363","correct":false,"confidence":2},{"trial_n":116,"span":14,"encoder":"41412655490056","distractor":"41452655490056","target":"present","response":"present","rt":"11460","correct":true,"confidence":3},{"trial_n":117,"span":14,"encoder":"48573529674661","distractor":"48573529674691","target":"absent","response":"absent","rt":"5318","correct":true,"confidence":1},{"trial_n":118,"span":15,"encoder":"899738792741001","distractor":"899138792741001","target":"present","response":"present","rt":"8331","correct":true,"confidence":2},{"trial_n":119,"span":15,"encoder":"587567187329655","distractor":"587767187329655","target":"present","response":"present","rt":"9153.0000000002","correct":true,"confidence":2},{"trial_n":120,"span":16,"encoder":"8322189781962487","distractor":"8322183781962487","target":"present","response":"present","rt":"6924","correct":true,"confidence":2},{"trial_n":121,"span":16,"encoder":"2618228079241989","distractor":"8618228079241989","target":"present","response":"absent","rt":"4092","correct":false,"confidence":3},{"trial_n":122,"span":15,"encoder":"511635811346677","distractor":"711635811346677","target":"absent","response":"absent","rt":"8125","correct":true,"confidence":3},{"trial_n":123,"span":15,"encoder":"861808228403453","distractor":"961808228403453","target":"present","response":"present","rt":"1233.0000000002","correct":true,"confidence":4},{"trial_n":124,"span":16,"encoder":"6607358915755364","distractor":"6607358916755364","target":"present","response":"absent","rt":"12913","correct":false,"confidence":1},{"trial_n":125,"span":15,"encoder":"269240644566441","distractor":"269280644566441","target":"absent","response":"absent","rt":"10511","correct":true,"confidence":1},{"trial_n":126,"span":15,"encoder":"751838128550377","distractor":"755838128550377","target":"present","response":"present","rt":"2999","correct":true,"confidence":2},{"trial_n":127,"span":16,"encoder":"0685128338978667","distractor":"0685128838978667","target":"present","response":"present","rt":"8431","correct":true,"confidence":2},{"trial_n":128,"span":16,"encoder":"5537744143156765","distractor":"5537744143156715","target":"present","response":"present","rt":"1589","correct":true,"confidence":5},{"trial_n":129,"span":17,"encoder":"32912926537937226","distractor":"32512926537937226","target":"absent","response":"absent","rt":"5120","correct":true,"confidence":1},{"trial_n":130,"span":17,"encoder":"76295581046845094","distractor":"66295581046845094","target":"absent","response":"absent","rt":"5647","correct":true,"confidence":2},{"trial_n":131,"span":18,"encoder":"490820839344147694","distractor":"490824839344147694","target":"present","response":"present","rt":"7432","correct":true,"confidence":2},{"trial_n":132,"span":18,"encoder":"858934069401395216","distractor":"858934064401395216","target":"absent","response":"absent","rt":"5470","correct":true,"confidence":2},{"trial_n":133,"span":19,"encoder":"9567985245350965806","distractor":"9567985245350965804","target":"absent","response":"absent","rt":"1609","correct":true,"confidence":5},{"trial_n":134,"span":19,"encoder":"4845087744710792467","distractor":"4895087744710792467","target":"absent","response":"present","rt":"10492","correct":false,"confidence":1},{"trial_n":135,"span":18,"encoder":"889280683545305990","distractor":"889281683545305990","target":"absent","response":"absent","rt":"4166","correct":true,"confidence":2},{"trial_n":136,"span":18,"encoder":"152572320422022671","distractor":"152572320452022671","target":"present","response":"present","rt":"10254","correct":true,"confidence":1},{"trial_n":137,"span":19,"encoder":"8675224720152747514","distractor":"8672224720152747514","target":"absent","response":"absent","rt":"9617","correct":true,"confidence":2},{"trial_n":138,"span":19,"encoder":"1861641872523388501","distractor":"1861641872123388501","target":"absent","response":"absent","rt":"8250","correct":true,"confidence":2},{"trial_n":139,"span":20,"encoder":"77992694204951357522","distractor":"77992690204951357522","target":"present","response":"present","rt":"9070.9999999998","correct":true,"confidence":2},{"trial_n":140,"span":20,"encoder":"86753111608836603444","distractor":"86753191608836603444","target":"present","response":"present","rt":"2790","correct":true,"confidence":3}]