[{"trial_n":1,"min":25,"max":230,"target":"present","response":"present","rt":6443.599999994,"correct":true,"confidence":-1},{"trial_n":2,"min":25,"max":230,"target":"present","response":"present","rt":1483.299999997,"correct":true,"confidence":-1},{"trial_n":3,"min":41,"max":214,"target":"absent","response":"absent","rt":1254.299999997,"correct":true,"confidence":-1},{"trial_n":4,"min":41,"max":214,"target":"absent","response":"absent","rt":757.5,"correct":true,"confidence":-1},{"trial_n":5,"min":57,"max":198,"target":"present","response":"present","rt":365.59999999404,"correct":true,"confidence":-1},{"trial_n":6,"min":57,"max":198,"target":"absent","response":"absent","rt":342.5,"correct":true,"confidence":-1},{"trial_n":7,"min":73,"max":182,"target":"absent","response":"absent","rt":284.59999999404,"correct":true,"confidence":-1},{"trial_n":8,"min":73,"max":182,"target":"absent","response":"absent","rt":250.29999999702,"correct":true,"confidence":-1},{"trial_n":9,"min":89,"max":166,"target":"present","response":"present","rt":388.40000000596,"correct":true,"confidence":-1},{"trial_n":10,"min":89,"max":166,"target":"present","response":"absent","rt":354.30000001192,"correct":false,"confidence":-1},{"trial_n":11,"min":81,"max":174,"target":"absent","response":"present","rt":390.69999998808,"correct":false,"confidence":-1},{"trial_n":12,"min":73,"max":182,"target":"present","response":"present","rt":428.5,"correct":true,"confidence":-1},{"trial_n":13,"min":73,"max":182,"target":"present","response":"present","rt":655.59999999404,"correct":true,"confidence":-1},{"trial_n":14,"min":81,"max":174,"target":"absent","response":"absent","rt":376.40000000596,"correct":true,"confidence":-1},{"trial_n":15,"min":81,"max":174,"target":"present","response":"present","rt":301.79999999702,"correct":true,"confidence":-1},{"trial_n":16,"min":89,"max":166,"target":"present","response":"present","rt":470.89999999106,"correct":true,"confidence":-1},{"trial_n":17,"min":89,"max":166,"target":"present","response":"present","rt":324.89999999106,"correct":true,"confidence":-1},{"trial_n":18,"min":97,"max":158,"target":"absent","response":"absent","rt":835,"correct":true,"confidence":-1},{"trial_n":19,"min":97,"max":158,"target":"absent","response":"absent","rt":500.39999999106,"correct":true,"confidence":-1},{"trial_n":20,"min":105,"max":150,"target":"absent","response":"absent","rt":377.79999999702,"correct":true,"confidence":-1},{"trial_n":21,"min":105,"max":150,"target":"present","response":"absent","rt":347.5,"correct":false,"confidence":2},{"trial_n":22,"min":101,"max":154,"target":"present","response":"absent","rt":897.29999999702,"correct":false,"confidence":4},{"trial_n":23,"min":97,"max":158,"target":"present","response":"present","rt":1157.099999994,"correct":true,"confidence":2},{"trial_n":24,"min":97,"max":158,"target":"present","response":"absent","rt":1288.5,"correct":false,"confidence":4},{"trial_n":25,"min":93,"max":162,"target":"present","response":"absent","rt":560.29999999702,"correct":false,"confidence":5},{"trial_n":26,"min":89,"max":166,"target":"absent","response":"absent","rt":513.40000000596,"correct":true,"confidence":5},{"trial_n":27,"min":89,"max":166,"target":"present","response":"present","rt":331.70000000298,"correct":true,"confidence":5},{"trial_n":28,"min":93,"max":162,"target":"present","response":"present","rt":343.59999999404,"correct":true,"confidence":5},{"trial_n":29,"min":93,"max":162,"target":"absent","response":"absent","rt":332.20000000298,"correct":true,"confidence":3},{"trial_n":30,"min":97,"max":158,"target":"absent","response":"absent","rt":287,"correct":true,"confidence":5},{"trial_n":31,"min":97,"max":158,"target":"present","response":"present","rt":250.29999999702,"correct":true,"confidence":5},{"trial_n":32,"min":99,"max":156,"target":"present","response":"present","rt":318.5,"correct":true,"confidence":5},{"trial_n":33,"min":99,"max":156,"target":"present","response":"absent","rt":287,"correct":false,"confidence":5},{"trial_n":34,"min":97,"max":158,"target":"absent","response":"absent","rt":940.19999998808,"correct":true,"confidence":3},{"trial_n":35,"min":97,"max":158,"target":"absent","response":"present","rt":367,"correct":false,"confidence":5},{"trial_n":36,"min":95,"max":160,"target":"absent","response":"absent","rt":316.39999999106,"correct":true,"confidence":4},{"trial_n":37,"min":95,"max":160,"target":"absent","response":"absent","rt":372.09999999404,"correct":true,"confidence":3},{"trial_n":38,"min":97,"max":158,"target":"present","response":"absent","rt":692.29999999702,"correct":false,"confidence":4},{"trial_n":39,"min":95,"max":160,"target":"absent","response":"absent","rt":260.10000000894,"correct":true,"confidence":5},{"trial_n":40,"min":95,"max":160,"target":"absent","response":"absent","rt":237.70000000298,"correct":true,"confidence":5},{"trial_n":41,"min":96,"max":159,"target":"absent","response":"absent","rt":296.59999999404,"correct":true,"confidence":1},{"trial_n":42,"min":96,"max":159,"target":"present","response":"absent","rt":1583.599999994,"correct":false,"confidence":2},{"trial_n":43,"min":95,"max":160,"target":"absent","response":"absent","rt":290.5,"correct":true,"confidence":4},{"trial_n":44,"min":95,"max":160,"target":"present","response":"present","rt":609.79999999702,"correct":true,"confidence":5},{"trial_n":45,"min":96,"max":159,"target":"absent","response":"absent","rt":257.79999999702,"correct":true,"confidence":4},{"trial_n":46,"min":96,"max":159,"target":"absent","response":"absent","rt":268.5,"correct":true,"confidence":4},{"trial_n":47,"min":97,"max":158,"target":"present","response":"absent","rt":270.29999999702,"correct":false,"confidence":5},{"trial_n":48,"min":96,"max":159,"target":"present","response":"present","rt":563.5,"correct":true,"confidence":1},{"trial_n":49,"min":96,"max":159,"target":"present","response":"absent","rt":359.09999999404,"correct":false,"confidence":5},{"trial_n":50,"min":95,"max":160,"target":"absent","response":"absent","rt":600.10000000894,"correct":true,"confidence":5},{"trial_n":51,"min":95,"max":160,"target":"absent","response":"absent","rt":336.29999999702,"correct":true,"confidence":5},{"trial_n":52,"min":96,"max":159,"target":"absent","response":"absent","rt":441.39999999106,"correct":true,"confidence":4},{"trial_n":53,"min":96,"max":159,"target":"present","response":"absent","rt":821.09999999404,"correct":false,"confidence":4},{"trial_n":54,"min":95,"max":160,"target":"absent","response":"present","rt":354.59999999404,"correct":false,"confidence":5},{"trial_n":55,"min":94,"max":161,"target":"present","response":"absent","rt":321.10000000894,"correct":false,"confidence":4},{"trial_n":56,"min":93,"max":162,"target":"absent","response":"absent","rt":399.90000000596,"correct":true,"confidence":5},{"trial_n":57,"min":93,"max":162,"target":"present","response":"present","rt":359.79999999702,"correct":true,"confidence":4},{"trial_n":58,"min":94,"max":161,"target":"absent","response":"absent","rt":365.70000000298,"correct":true,"confidence":5},{"trial_n":59,"min":94,"max":161,"target":"absent","response":"absent","rt":406.59999999404,"correct":true,"confidence":4},{"trial_n":60,"min":95,"max":160,"target":"present","response":"absent","rt":2032,"correct":false,"confidence":3},{"trial_n":61,"min":94,"max":161,"target":"present","response":"present","rt":761.20000000298,"correct":true,"confidence":4},{"trial_n":62,"min":94,"max":161,"target":"present","response":"absent","rt":455,"correct":false,"confidence":5},{"trial_n":63,"min":93,"max":162,"target":"present","response":"absent","rt":643.80000001192,"correct":false,"confidence":3},{"trial_n":64,"min":92,"max":163,"target":"absent","response":"absent","rt":758.90000000596,"correct":true,"confidence":3},{"trial_n":65,"min":92,"max":163,"target":"absent","response":"present","rt":342.60000000894,"correct":false,"confidence":5},{"trial_n":66,"min":91,"max":164,"target":"present","response":"present","rt":470.90000000596,"correct":true,"confidence":5},{"trial_n":67,"min":91,"max":164,"target":"present","response":"absent","rt":768.70000000298,"correct":false,"confidence":3},{"trial_n":68,"min":90,"max":165,"target":"absent","response":"absent","rt":447.19999998808,"correct":true,"confidence":4},{"trial_n":69,"min":90,"max":165,"target":"present","response":"absent","rt":486,"correct":false,"confidence":4},{"trial_n":70,"min":89,"max":166,"target":"absent","response":"absent","rt":410.89999999106,"correct":true,"confidence":4},{"trial_n":71,"min":41,"max":214,"target":"present","response":"present","rt":3308.099999994,"correct":true,"confidence":-1},{"trial_n":72,"min":41,"max":214,"target":"present","response":"present","rt":651.79999999702,"correct":true,"confidence":-1},{"trial_n":73,"min":57,"max":198,"target":"absent","response":"absent","rt":453.79999999702,"correct":true,"confidence":-1},{"trial_n":74,"min":57,"max":198,"target":"absent","response":"absent","rt":339.5,"correct":true,"confidence":-1},{"trial_n":75,"min":73,"max":182,"target":"present","response":"present","rt":355.59999999404,"correct":true,"confidence":-1},{"trial_n":76,"min":73,"max":182,"target":"absent","response":"absent","rt":661.70000000298,"correct":true,"confidence":-1},{"trial_n":77,"min":89,"max":166,"target":"absent","response":"absent","rt":560.59999999404,"correct":true,"confidence":-1},{"trial_n":78,"min":89,"max":166,"target":"present","response":"absent","rt":470.29999999702,"correct":false,"confidence":-1},{"trial_n":79,"min":73,"max":182,"target":"absent","response":"absent","rt":352.79999999702,"correct":true,"confidence":-1},{"trial_n":80,"min":73,"max":182,"target":"absent","response":"present","rt":448.30000001192,"correct":false,"confidence":-1},{"trial_n":81,"min":65,"max":190,"target":"present","response":"present","rt":285.70000000298,"correct":true,"confidence":-1},{"trial_n":82,"min":65,"max":190,"target":"present","response":"present","rt":639.70000000298,"correct":true,"confidence":-1},{"trial_n":83,"min":73,"max":182,"target":"absent","response":"absent","rt":411.5,"correct":true,"confidence":-1},{"trial_n":84,"min":73,"max":182,"target":"present","response":"present","rt":1024,"correct":true,"confidence":-1},{"trial_n":85,"min":81,"max":174,"target":"absent","response":"present","rt":429.40000000596,"correct":false,"confidence":-1},{"trial_n":86,"min":73,"max":182,"target":"present","response":"present","rt":666.60000000894,"correct":true,"confidence":-1},{"trial_n":87,"min":73,"max":182,"target":"present","response":"present","rt":288.90000000596,"correct":true,"confidence":-1},{"trial_n":88,"min":81,"max":174,"target":"present","response":"present","rt":301.19999998808,"correct":true,"confidence":-1},{"trial_n":89,"min":81,"max":174,"target":"absent","response":"absent","rt":337.39999999106,"correct":true,"confidence":-1},{"trial_n":90,"min":89,"max":166,"target":"absent","response":"absent","rt":390.20000000298,"correct":true,"confidence":-1},{"trial_n":91,"min":89,"max":166,"target":"present","response":"present","rt":283.09999999404,"correct":true,"confidence":3},{"trial_n":92,"min":93,"max":162,"target":"absent","response":"present","rt":459,"correct":false,"confidence":2},{"trial_n":93,"min":89,"max":166,"target":"absent","response":"present","rt":306.70000000298,"correct":false,"confidence":4},{"trial_n":94,"min":85,"max":170,"target":"absent","response":"present","rt":468.09999999404,"correct":false,"confidence":1},{"trial_n":95,"min":81,"max":174,"target":"absent","response":"absent","rt":239.79999999702,"correct":true,"confidence":5},{"trial_n":96,"min":81,"max":174,"target":"present","response":"present","rt":352.09999999404,"correct":true,"confidence":4},{"trial_n":97,"min":85,"max":170,"target":"present","response":"present","rt":264.79999999702,"correct":true,"confidence":5},{"trial_n":98,"min":85,"max":170,"target":"present","response":"present","rt":353.39999999106,"correct":true,"confidence":5},{"trial_n":99,"min":89,"max":166,"target":"present","response":"present","rt":331.90000000596,"correct":true,"confidence":4},{"trial_n":100,"min":89,"max":166,"target":"absent","response":"absent","rt":342.19999998808,"correct":true,"confidence":3},{"trial_n":101,"min":91,"max":164,"target":"present","response":"present","rt":315.90000000596,"correct":true,"confidence":2},{"trial_n":102,"min":91,"max":164,"target":"absent","response":"present","rt":496.79999999702,"correct":false,"confidence":4},{"trial_n":103,"min":89,"max":166,"target":"present","response":"present","rt":158.90000000596,"correct":true,"confidence":5},{"trial_n":104,"min":89,"max":166,"target":"absent","response":"absent","rt":903.60000000894,"correct":true,"confidence":1},{"trial_n":105,"min":91,"max":164,"target":"absent","response":"absent","rt":251.79999999702,"correct":true,"confidence":2},{"trial_n":106,"min":91,"max":164,"target":"present","response":"present","rt":293.09999999404,"correct":true,"confidence":4},{"trial_n":107,"min":93,"max":162,"target":"absent","response":"absent","rt":1629.700000003,"correct":true,"confidence":2},{"trial_n":108,"min":93,"max":162,"target":"absent","response":"present","rt":899.70000000298,"correct":false,"confidence":1},{"trial_n":109,"min":91,"max":164,"target":"present","response":"absent","rt":1912.8999999911,"correct":false,"confidence":2},{"trial_n":110,"min":89,"max":166,"target":"absent","response":"absent","rt":598.20000000298,"correct":true,"confidence":1},{"trial_n":111,"min":89,"max":166,"target":"present","response":"present","rt":324,"correct":true,"confidence":4},{"trial_n":112,"min":90,"max":165,"target":"present","response":"present","rt":277.79999999702,"correct":true,"confidence":4},{"trial_n":113,"min":90,"max":165,"target":"present","response":"present","rt":261.09999999404,"correct":true,"confidence":5},{"trial_n":114,"min":91,"max":164,"target":"present","response":"present","rt":289.09999999404,"correct":true,"confidence":5},{"trial_n":115,"min":91,"max":164,"target":"present","response":"absent","rt":329.20000000298,"correct":false,"confidence":1},{"trial_n":116,"min":90,"max":165,"target":"absent","response":"absent","rt":349,"correct":true,"confidence":2},{"trial_n":117,"min":90,"max":165,"target":"present","response":"present","rt":427.20000000298,"correct":true,"confidence":5},{"trial_n":118,"min":91,"max":164,"target":"present","response":"absent","rt":1674.299999997,"correct":false,"confidence":1},{"trial_n":119,"min":90,"max":165,"target":"present","response":"present","rt":41.09999999404,"correct":true,"confidence":4},{"trial_n":120,"min":90,"max":165,"target":"present","response":"present","rt":343.5,"correct":true,"confidence":5},{"trial_n":121,"min":91,"max":164,"target":"present","response":"present","rt":220.30000001192,"correct":true,"confidence":5},{"trial_n":122,"min":91,"max":164,"target":"absent","response":"present","rt":299.40000000596,"correct":false,"confidence":2},{"trial_n":123,"min":90,"max":165,"target":"absent","response":"present","rt":325.20000000298,"correct":false,"confidence":4},{"trial_n":124,"min":89,"max":166,"target":"present","response":"absent","rt":169.70000000298,"correct":false,"confidence":1},{"trial_n":125,"min":88,"max":167,"target":"absent","response":"present","rt":317.09999999404,"correct":false,"confidence":5},{"trial_n":126,"min":87,"max":168,"target":"present","response":"present","rt":416.90000000596,"correct":true,"confidence":4},{"trial_n":127,"min":87,"max":168,"target":"present","response":"absent","rt":1137.099999994,"correct":false,"confidence":3},{"trial_n":128,"min":86,"max":169,"target":"absent","response":"present","rt":461.70000000298,"correct":false,"confidence":4},{"trial_n":129,"min":85,"max":170,"target":"absent","response":"absent","rt":396.5,"correct":true,"confidence":5},{"trial_n":130,"min":85,"max":170,"target":"absent","response":"absent","rt":758.90000000596,"correct":true,"confidence":2},{"trial_n":131,"min":86,"max":169,"target":"absent","response":"absent","rt":360.29999999702,"correct":true,"confidence":3},{"trial_n":132,"min":86,"max":169,"target":"absent","response":"present","rt":496.79999999702,"correct":false,"confidence":4},{"trial_n":133,"min":85,"max":170,"target":"present","response":"present","rt":380,"correct":true,"confidence":5},{"trial_n":134,"min":85,"max":170,"target":"absent","response":"present","rt":544.40000000596,"correct":false,"confidence":4},{"trial_n":135,"min":84,"max":171,"target":"present","response":"absent","rt":501.79999999702,"correct":false,"confidence":4},{"trial_n":136,"min":83,"max":172,"target":"present","response":"absent","rt":320.5,"correct":false,"confidence":5},{"trial_n":137,"min":82,"max":173,"target":"present","response":"absent","rt":422,"correct":false,"confidence":4},{"trial_n":138,"min":81,"max":174,"target":"absent","response":"present","rt":396.10000000894,"correct":false,"confidence":3},{"trial_n":139,"min":80,"max":175,"target":"absent","response":"absent","rt":500.29999999702,"correct":true,"confidence":4},{"trial_n":140,"min":80,"max":175,"target":"absent","response":"present","rt":574.5,"correct":false,"confidence":1}]