[{"trial_n":1,"n_dots":4.25,"target":"left","response":"right","rt":5251,"correct":false,"confidence":-1},{"trial_n":2,"n_dots":4.25,"target":"left","response":"left","rt":747,"correct":true,"confidence":-1},{"trial_n":3,"n_dots":4.25,"target":"left","response":"left","rt":471,"correct":true,"confidence":-1},{"trial_n":4,"n_dots":3.85,"target":"right","response":"right","rt":434,"correct":true,"confidence":-1},{"trial_n":5,"n_dots":3.85,"target":"left","response":"left","rt":333,"correct":true,"confidence":-1},{"trial_n":6,"n_dots":3.45,"target":"right","response":"right","rt":598,"correct":true,"confidence":-1},{"trial_n":7,"n_dots":3.45,"target":"left","response":"left","rt":370,"correct":true,"confidence":-1},{"trial_n":8,"n_dots":3.25,"target":"left","response":"left","rt":0.99999999998545,"correct":true,"confidence":-1},{"trial_n":9,"n_dots":3.25,"target":"left","response":"left","rt":674,"correct":true,"confidence":-1},{"trial_n":10,"n_dots":3.05,"target":"right","response":"right","rt":1330,"correct":true,"confidence":-1},{"trial_n":11,"n_dots":3.05,"target":"right","response":"right","rt":665,"correct":true,"confidence":-1},{"trial_n":12,"n_dots":2.85,"target":"right","response":"left","rt":390,"correct":false,"confidence":-1},{"trial_n":13,"n_dots":2.95,"target":"left","response":"left","rt":474,"correct":true,"confidence":-1},{"trial_n":14,"n_dots":2.95,"target":"right","response":"left","rt":375,"correct":false,"confidence":-1},{"trial_n":15,"n_dots":3.05,"target":"right","response":"right","rt":597.00000000001,"correct":true,"confidence":-1},{"trial_n":16,"n_dots":3.05,"target":"right","response":"left","rt":351,"correct":false,"confidence":-1},{"trial_n":17,"n_dots":3.15,"target":"left","response":"left","rt":340.00000000001,"correct":true,"confidence":-1},{"trial_n":18,"n_dots":3.15,"target":"left","response":"right","rt":736,"correct":false,"confidence":-1},{"trial_n":19,"n_dots":3.25,"target":"left","response":"right","rt":598,"correct":false,"confidence":-1},{"trial_n":20,"n_dots":3.35,"target":"right","response":"right","rt":571,"correct":true,"confidence":-1},{"trial_n":21,"n_dots":3.35,"target":"left","response":"right","rt":585.00000000003,"correct":false,"confidence":2},{"trial_n":22,"n_dots":3.45,"target":"right","response":"right","rt":361,"correct":true,"confidence":3},{"trial_n":23,"n_dots":3.45,"target":"left","response":"left","rt":695,"correct":true,"confidence":3},{"trial_n":24,"n_dots":3.35,"target":"right","response":"right","rt":399,"correct":true,"confidence":4},{"trial_n":25,"n_dots":3.35,"target":"right","response":"left","rt":976.99999999997,"correct":false,"confidence":2},{"trial_n":26,"n_dots":3.45,"target":"left","response":"left","rt":890.99999999997,"correct":true,"confidence":2},{"trial_n":27,"n_dots":3.45,"target":"left","response":"right","rt":425,"correct":false,"confidence":3},{"trial_n":28,"n_dots":3.55,"target":"right","response":"right","rt":348,"correct":true,"confidence":4},{"trial_n":29,"n_dots":3.55,"target":"left","response":"left","rt":558,"correct":true,"confidence":3},{"trial_n":30,"n_dots":3.45,"target":"right","response":"right","rt":329,"correct":true,"confidence":4},{"trial_n":31,"n_dots":3.45,"target":"left","response":"left","rt":705,"correct":true,"confidence":2},{"trial_n":32,"n_dots":3.35,"target":"right","response":"right","rt":382,"correct":true,"confidence":3},{"trial_n":33,"n_dots":3.35,"target":"left","response":"left","rt":551,"correct":true,"confidence":2},{"trial_n":34,"n_dots":3.25,"target":"right","response":"right","rt":819,"correct":true,"confidence":2},{"trial_n":35,"n_dots":3.25,"target":"right","response":"right","rt":383,"correct":true,"confidence":3},{"trial_n":36,"n_dots":3.15,"target":"left","response":"right","rt":515.00000000003,"correct":false,"confidence":3},{"trial_n":37,"n_dots":3.25,"target":"left","response":"left","rt":300,"correct":true,"confidence":3},{"trial_n":38,"n_dots":3.25,"target":"right","response":"right","rt":182,"correct":true,"confidence":4},{"trial_n":39,"n_dots":3.15,"target":"right","response":"right","rt":409,"correct":true,"confidence":4},{"trial_n":40,"n_dots":3.15,"target":"left","response":"left","rt":145,"correct":true,"confidence":4},{"trial_n":41,"n_dots":3.05,"target":"right","response":"right","rt":1380,"correct":true,"confidence":4},{"trial_n":42,"n_dots":3.05,"target":"right","response":"left","rt":564,"correct":false,"confidence":3},{"trial_n":43,"n_dots":3.15,"target":"left","response":"left","rt":347,"correct":true,"confidence":2},{"trial_n":44,"n_dots":3.15,"target":"right","response":"right","rt":729,"correct":true,"confidence":4},{"trial_n":45,"n_dots":3.05,"target":"left","response":"left","rt":375,"correct":true,"confidence":4},{"trial_n":46,"n_dots":3.05,"target":"right","response":"right","rt":359,"correct":true,"confidence":4},{"trial_n":47,"n_dots":2.95,"target":"right","response":"right","rt":270,"correct":true,"confidence":4},{"trial_n":48,"n_dots":2.95,"target":"left","response":"left","rt":290.99999999994,"correct":true,"confidence":4},{"trial_n":49,"n_dots":2.85,"target":"left","response":"left","rt":334,"correct":true,"confidence":3},{"trial_n":50,"n_dots":2.85,"target":"right","response":"right","rt":129,"correct":true,"confidence":3},{"trial_n":51,"n_dots":2.75,"target":"right","response":"right","rt":707,"correct":true,"confidence":3},{"trial_n":52,"n_dots":2.75,"target":"left","response":"left","rt":393.99999999994,"correct":true,"confidence":3},{"trial_n":53,"n_dots":2.65,"target":"left","response":"left","rt":423,"correct":true,"confidence":3},{"trial_n":54,"n_dots":2.65,"target":"right","response":"right","rt":395,"correct":true,"confidence":4},{"trial_n":55,"n_dots":2.55,"target":"right","response":"left","rt":343,"correct":false,"confidence":2},{"trial_n":56,"n_dots":2.65,"target":"right","response":"left","rt":366,"correct":false,"confidence":2},{"trial_n":57,"n_dots":2.75,"target":"right","response":"left","rt":319,"correct":false,"confidence":4},{"trial_n":58,"n_dots":2.85,"target":"right","response":"right","rt":306.99999999994,"correct":true,"confidence":4},{"trial_n":59,"n_dots":2.85,"target":"right","response":"right","rt":338,"correct":true,"confidence":4},{"trial_n":60,"n_dots":2.75,"target":"right","response":"right","rt":860,"correct":true,"confidence":2},{"trial_n":61,"n_dots":2.75,"target":"right","response":"right","rt":626.00000000006,"correct":true,"confidence":4},{"trial_n":62,"n_dots":2.65,"target":"right","response":"right","rt":772.99999999994,"correct":true,"confidence":2},{"trial_n":63,"n_dots":2.65,"target":"left","response":"left","rt":487,"correct":true,"confidence":3},{"trial_n":64,"n_dots":2.55,"target":"right","response":"right","rt":274,"correct":true,"confidence":4},{"trial_n":65,"n_dots":2.55,"target":"right","response":"right","rt":492.99999999994,"correct":true,"confidence":4},{"trial_n":66,"n_dots":2.45,"target":"left","response":"left","rt":369,"correct":true,"confidence":3},{"trial_n":67,"n_dots":2.45,"target":"right","response":"right","rt":581.99999999994,"correct":true,"confidence":4},{"trial_n":68,"n_dots":2.35,"target":"left","response":"left","rt":257,"correct":true,"confidence":4},{"trial_n":69,"n_dots":2.35,"target":"left","response":"left","rt":392,"correct":true,"confidence":4},{"trial_n":70,"n_dots":2.25,"target":"right","response":"right","rt":289,"correct":true,"confidence":4},{"trial_n":71,"n_dots":2.25,"target":"right","response":"right","rt":315,"correct":true,"confidence":4},{"trial_n":72,"n_dots":2.15,"target":"left","response":"left","rt":395,"correct":true,"confidence":3},{"trial_n":73,"n_dots":2.15,"target":"left","response":"left","rt":303.99999999994,"correct":true,"confidence":4},{"trial_n":74,"n_dots":2.05,"target":"left","response":"left","rt":375,"correct":true,"confidence":2},{"trial_n":75,"n_dots":2.05,"target":"left","response":"left","rt":303.99999999994,"correct":true,"confidence":4},{"trial_n":76,"n_dots":1.95,"target":"right","response":"left","rt":91,"correct":false,"confidence":5},{"trial_n":77,"n_dots":2.05,"target":"left","response":"right","rt":949.99999999994,"correct":false,"confidence":2},{"trial_n":78,"n_dots":2.15,"target":"left","response":"left","rt":344,"correct":true,"confidence":3},{"trial_n":79,"n_dots":2.15,"target":"left","response":"left","rt":338,"correct":true,"confidence":3},{"trial_n":80,"n_dots":2.05,"target":"right","response":"left","rt":436,"correct":false,"confidence":4},{"trial_n":81,"n_dots":2.15,"target":"right","response":"right","rt":959,"correct":true,"confidence":4},{"trial_n":82,"n_dots":2.15,"target":"right","response":"right","rt":391,"correct":true,"confidence":4},{"trial_n":83,"n_dots":2.05,"target":"right","response":"left","rt":330,"correct":false,"confidence":4},{"trial_n":84,"n_dots":2.15,"target":"right","response":"left","rt":375,"correct":false,"confidence":4},{"trial_n":85,"n_dots":2.25,"target":"right","response":"right","rt":1091,"correct":true,"confidence":2},{"trial_n":86,"n_dots":2.25,"target":"right","response":"left","rt":375,"correct":false,"confidence":4},{"trial_n":87,"n_dots":2.35,"target":"left","response":"left","rt":366,"correct":true,"confidence":4},{"trial_n":88,"n_dots":2.35,"target":"left","response":"left","rt":376,"correct":true,"confidence":3},{"trial_n":89,"n_dots":2.25,"target":"right","response":"left","rt":454,"correct":false,"confidence":2},{"trial_n":90,"n_dots":2.35,"target":"left","response":"left","rt":700.00000000006,"correct":true,"confidence":4},{"trial_n":91,"n_dots":2.35,"target":"left","response":"left","rt":605,"correct":true,"confidence":4},{"trial_n":92,"n_dots":2.25,"target":"left","response":"left","rt":538,"correct":true,"confidence":3},{"trial_n":93,"n_dots":2.25,"target":"right","response":"right","rt":1435,"correct":true,"confidence":1},{"trial_n":94,"n_dots":2.15,"target":"right","response":"left","rt":542.00000000006,"correct":false,"confidence":3},{"trial_n":95,"n_dots":2.25,"target":"right","response":"left","rt":410,"correct":false,"confidence":3},{"trial_n":96,"n_dots":2.35,"target":"left","response":"right","rt":333.00000000006,"correct":false,"confidence":2},{"trial_n":97,"n_dots":2.45,"target":"right","response":"left","rt":520.00000000006,"correct":false,"confidence":4},{"trial_n":98,"n_dots":2.55,"target":"left","response":"right","rt":389,"correct":false,"confidence":3},{"trial_n":99,"n_dots":2.65,"target":"left","response":"left","rt":390,"correct":true,"confidence":2},{"trial_n":100,"n_dots":2.65,"target":"right","response":"right","rt":56.000000000058,"correct":true,"confidence":4},{"trial_n":101,"n_dots":2.55,"target":"left","response":"right","rt":364.99999999994,"correct":false,"confidence":3},{"trial_n":102,"n_dots":2.65,"target":"left","response":"left","rt":348,"correct":true,"confidence":2},{"trial_n":103,"n_dots":2.65,"target":"right","response":"right","rt":283,"correct":true,"confidence":3},{"trial_n":104,"n_dots":2.55,"target":"right","response":"right","rt":319.00000000006,"correct":true,"confidence":4},{"trial_n":105,"n_dots":2.55,"target":"left","response":"left","rt":989,"correct":true,"confidence":1},{"trial_n":106,"n_dots":2.45,"target":"left","response":"right","rt":428,"correct":false,"confidence":3},{"trial_n":107,"n_dots":2.55,"target":"left","response":"left","rt":436,"correct":true,"confidence":2},{"trial_n":108,"n_dots":2.55,"target":"left","response":"right","rt":388,"correct":false,"confidence":3},{"trial_n":109,"n_dots":2.65,"target":"left","response":"left","rt":386,"correct":true,"confidence":3},{"trial_n":110,"n_dots":2.65,"target":"left","response":"left","rt":461.99999999988,"correct":true,"confidence":4},{"trial_n":111,"n_dots":2.55,"target":"right","response":"right","rt":394,"correct":true,"confidence":4},{"trial_n":112,"n_dots":2.55,"target":"right","response":"right","rt":266,"correct":true,"confidence":4},{"trial_n":113,"n_dots":2.45,"target":"right","response":"right","rt":470,"correct":true,"confidence":3},{"trial_n":114,"n_dots":2.45,"target":"left","response":"left","rt":358.00000000012,"correct":true,"confidence":3},{"trial_n":115,"n_dots":2.35,"target":"left","response":"left","rt":1183,"correct":true,"confidence":1},{"trial_n":116,"n_dots":2.35,"target":"left","response":"left","rt":422,"correct":true,"confidence":3},{"trial_n":117,"n_dots":2.25,"target":"left","response":"right","rt":323,"correct":false,"confidence":4},{"trial_n":118,"n_dots":2.35,"target":"left","response":"right","rt":401,"correct":false,"confidence":3},{"trial_n":119,"n_dots":2.45,"target":"left","response":"left","rt":177,"correct":true,"confidence":3},{"trial_n":120,"n_dots":2.45,"target":"right","response":"right","rt":677,"correct":true,"confidence":2}]