[{"trial_n":1,"n_dots":4.25,"target":"right","response":"right","rt":2591,"correct":true,"confidence":-1},{"trial_n":2,"n_dots":4.25,"target":"left","response":"left","rt":605,"correct":true,"confidence":-1},{"trial_n":3,"n_dots":3.85,"target":"left","response":"right","rt":1478,"correct":false,"confidence":-1},{"trial_n":4,"n_dots":4.25,"target":"left","response":"left","rt":839.09999990463,"correct":true,"confidence":-1},{"trial_n":5,"n_dots":4.25,"target":"left","response":"right","rt":928.5,"correct":false,"confidence":-1},{"trial_n":6,"n_dots":4.65,"target":"left","response":"left","rt":916.5,"correct":true,"confidence":-1},{"trial_n":7,"n_dots":4.65,"target":"left","response":"left","rt":107.10000014305,"correct":true,"confidence":-1},{"trial_n":8,"n_dots":4.45,"target":"left","response":"left","rt":940.90000009537,"correct":true,"confidence":-1},{"trial_n":9,"n_dots":4.45,"target":"left","response":"left","rt":640.40000009537,"correct":true,"confidence":-1},{"trial_n":10,"n_dots":4.25,"target":"left","response":"left","rt":883.30000019073,"correct":true,"confidence":-1},{"trial_n":11,"n_dots":4.25,"target":"right","response":"right","rt":448.5,"correct":true,"confidence":-1},{"trial_n":12,"n_dots":4.05,"target":"right","response":"right","rt":833.59999990463,"correct":true,"confidence":-1},{"trial_n":13,"n_dots":4.05,"target":"left","response":"right","rt":268.39999985695,"correct":false,"confidence":-1},{"trial_n":14,"n_dots":4.15,"target":"left","response":"left","rt":317.60000014305,"correct":true,"confidence":-1},{"trial_n":15,"n_dots":4.15,"target":"right","response":"right","rt":395.89999985695,"correct":true,"confidence":-1},{"trial_n":16,"n_dots":4.05,"target":"right","response":"right","rt":845.39999985695,"correct":true,"confidence":-1},{"trial_n":17,"n_dots":4.05,"target":"left","response":"right","rt":862.70000004768,"correct":false,"confidence":-1},{"trial_n":18,"n_dots":4.15,"target":"right","response":"right","rt":288.70000004768,"correct":true,"confidence":-1},{"trial_n":19,"n_dots":4.15,"target":"right","response":"right","rt":821.5,"correct":true,"confidence":-1},{"trial_n":20,"n_dots":4.05,"target":"right","response":"right","rt":911.29999995232,"correct":true,"confidence":-1},{"trial_n":21,"n_dots":4.05,"target":"left","response":"left","rt":300.70000004768,"correct":true,"confidence":3},{"trial_n":22,"n_dots":3.95,"target":"left","response":"left","rt":1723,"correct":true,"confidence":4},{"trial_n":23,"n_dots":3.95,"target":"right","response":"right","rt":631.5,"correct":true,"confidence":3},{"trial_n":24,"n_dots":3.85,"target":"right","response":"right","rt":530.90000009537,"correct":true,"confidence":4},{"trial_n":25,"n_dots":3.85,"target":"left","response":"left","rt":636.29999995232,"correct":true,"confidence":3},{"trial_n":26,"n_dots":3.75,"target":"right","response":"right","rt":768,"correct":true,"confidence":4},{"trial_n":27,"n_dots":3.75,"target":"right","response":"right","rt":847.10000014305,"correct":true,"confidence":5},{"trial_n":28,"n_dots":3.65,"target":"left","response":"left","rt":703.59999990463,"correct":true,"confidence":3},{"trial_n":29,"n_dots":3.65,"target":"left","response":"left","rt":781.70000004768,"correct":true,"confidence":3},{"trial_n":30,"n_dots":3.55,"target":"right","response":"left","rt":947,"correct":false,"confidence":3},{"trial_n":31,"n_dots":3.65,"target":"right","response":"right","rt":36.5,"correct":true,"confidence":4},{"trial_n":32,"n_dots":3.65,"target":"left","response":"left","rt":710.19999980927,"correct":true,"confidence":4},{"trial_n":33,"n_dots":3.55,"target":"right","response":"right","rt":485.29999995232,"correct":true,"confidence":4},{"trial_n":34,"n_dots":3.55,"target":"left","response":"left","rt":746.80000019073,"correct":true,"confidence":3},{"trial_n":35,"n_dots":3.45,"target":"right","response":"left","rt":659.39999985695,"correct":false,"confidence":5},{"trial_n":36,"n_dots":3.55,"target":"left","response":"left","rt":851.79999995232,"correct":true,"confidence":3},{"trial_n":37,"n_dots":3.55,"target":"left","response":"left","rt":830.60000014305,"correct":true,"confidence":4},{"trial_n":38,"n_dots":3.45,"target":"left","response":"left","rt":976.29999995232,"correct":true,"confidence":4},{"trial_n":39,"n_dots":3.45,"target":"right","response":"right","rt":730.20000004768,"correct":true,"confidence":4},{"trial_n":40,"n_dots":3.35,"target":"left","response":"left","rt":954.70000004768,"correct":true,"confidence":3},{"trial_n":41,"n_dots":3.35,"target":"right","response":"right","rt":832.60000014305,"correct":true,"confidence":1},{"trial_n":42,"n_dots":3.25,"target":"left","response":"left","rt":605.09999990463,"correct":true,"confidence":3},{"trial_n":43,"n_dots":3.25,"target":"left","response":"left","rt":421,"correct":true,"confidence":3},{"trial_n":44,"n_dots":3.15,"target":"left","response":"left","rt":388.30000019073,"correct":true,"confidence":3},{"trial_n":45,"n_dots":3.15,"target":"right","response":"right","rt":1409.5,"correct":true,"confidence":4},{"trial_n":46,"n_dots":3.05,"target":"left","response":"left","rt":687.5,"correct":true,"confidence":3},{"trial_n":47,"n_dots":3.05,"target":"right","response":"left","rt":818.19999980927,"correct":false,"confidence":3},{"trial_n":48,"n_dots":3.15,"target":"right","response":"left","rt":2901.2999999523,"correct":false,"confidence":3},{"trial_n":49,"n_dots":3.25,"target":"left","response":"left","rt":101.29999995232,"correct":true,"confidence":3},{"trial_n":50,"n_dots":3.25,"target":"left","response":"right","rt":43.399999856949,"correct":false,"confidence":4},{"trial_n":51,"n_dots":3.35,"target":"left","response":"right","rt":25.799999952316,"correct":false,"confidence":5},{"trial_n":52,"n_dots":3.45,"target":"left","response":"left","rt":361.60000014305,"correct":true,"confidence":3},{"trial_n":53,"n_dots":3.45,"target":"left","response":"right","rt":114.89999985695,"correct":false,"confidence":2},{"trial_n":54,"n_dots":3.55,"target":"right","response":"right","rt":819.40000009537,"correct":true,"confidence":2},{"trial_n":55,"n_dots":3.55,"target":"left","response":"right","rt":756.09999990463,"correct":false,"confidence":3},{"trial_n":56,"n_dots":3.65,"target":"right","response":"right","rt":637.79999995232,"correct":true,"confidence":2},{"trial_n":57,"n_dots":3.65,"target":"right","response":"right","rt":952.59999990463,"correct":true,"confidence":3},{"trial_n":58,"n_dots":3.55,"target":"right","response":"right","rt":716.39999985695,"correct":true,"confidence":2},{"trial_n":59,"n_dots":3.55,"target":"left","response":"left","rt":631.39999985695,"correct":true,"confidence":4},{"trial_n":60,"n_dots":3.45,"target":"right","response":"left","rt":2757.5999999046,"correct":false,"confidence":3},{"trial_n":61,"n_dots":3.55,"target":"right","response":"right","rt":449.29999995232,"correct":true,"confidence":1},{"trial_n":62,"n_dots":3.55,"target":"right","response":"left","rt":469.20000004768,"correct":false,"confidence":4},{"trial_n":63,"n_dots":3.65,"target":"right","response":"right","rt":12.5,"correct":true,"confidence":4},{"trial_n":64,"n_dots":3.65,"target":"right","response":"right","rt":16,"correct":true,"confidence":3},{"trial_n":65,"n_dots":3.55,"target":"right","response":"right","rt":243.60000014305,"correct":true,"confidence":3},{"trial_n":66,"n_dots":3.55,"target":"right","response":"right","rt":289.79999995232,"correct":true,"confidence":4},{"trial_n":67,"n_dots":3.45,"target":"right","response":"right","rt":638.40000009537,"correct":true,"confidence":4},{"trial_n":68,"n_dots":3.45,"target":"left","response":"left","rt":49.599999904633,"correct":true,"confidence":3},{"trial_n":69,"n_dots":3.35,"target":"right","response":"right","rt":1.0999999046326,"correct":true,"confidence":1},{"trial_n":70,"n_dots":3.35,"target":"left","response":"left","rt":1754.7000000477,"correct":true,"confidence":3},{"trial_n":71,"n_dots":3.25,"target":"right","response":"right","rt":1709.7999999523,"correct":true,"confidence":4},{"trial_n":72,"n_dots":3.25,"target":"left","response":"right","rt":712.5,"correct":false,"confidence":3},{"trial_n":73,"n_dots":3.35,"target":"left","response":"right","rt":1091.5,"correct":false,"confidence":4},{"trial_n":74,"n_dots":3.45,"target":"left","response":"left","rt":476.20000004768,"correct":true,"confidence":3},{"trial_n":75,"n_dots":3.45,"target":"left","response":"left","rt":1696.7999999523,"correct":true,"confidence":3},{"trial_n":76,"n_dots":3.35,"target":"right","response":"right","rt":806.79999995232,"correct":true,"confidence":4},{"trial_n":77,"n_dots":3.35,"target":"left","response":"right","rt":2058.7000000477,"correct":false,"confidence":4},{"trial_n":78,"n_dots":3.45,"target":"right","response":"right","rt":657.20000004768,"correct":true,"confidence":5},{"trial_n":79,"n_dots":3.45,"target":"right","response":"right","rt":69.299999952316,"correct":true,"confidence":3},{"trial_n":80,"n_dots":3.35,"target":"left","response":"right","rt":422.90000009537,"correct":false,"confidence":2},{"trial_n":81,"n_dots":3.45,"target":"right","response":"right","rt":279.29999995232,"correct":true,"confidence":3},{"trial_n":82,"n_dots":3.45,"target":"right","response":"right","rt":195.5,"correct":true,"confidence":3},{"trial_n":83,"n_dots":3.35,"target":"left","response":"left","rt":996.60000014305,"correct":true,"confidence":3},{"trial_n":84,"n_dots":3.35,"target":"left","response":"left","rt":623.29999995232,"correct":true,"confidence":4},{"trial_n":85,"n_dots":3.25,"target":"left","response":"left","rt":274.40000009537,"correct":true,"confidence":3},{"trial_n":86,"n_dots":3.25,"target":"left","response":"left","rt":394.10000014305,"correct":true,"confidence":3},{"trial_n":87,"n_dots":3.15,"target":"right","response":"right","rt":875.89999985695,"correct":true,"confidence":4},{"trial_n":88,"n_dots":3.15,"target":"left","response":"right","rt":996.5,"correct":false,"confidence":3},{"trial_n":89,"n_dots":3.25,"target":"right","response":"right","rt":196.09999990463,"correct":true,"confidence":4},{"trial_n":90,"n_dots":3.25,"target":"right","response":"right","rt":437.40000009537,"correct":true,"confidence":3},{"trial_n":91,"n_dots":3.15,"target":"left","response":"right","rt":670.29999995232,"correct":false,"confidence":2},{"trial_n":92,"n_dots":3.25,"target":"left","response":"right","rt":3152.2999999523,"correct":false,"confidence":3},{"trial_n":93,"n_dots":3.35,"target":"right","response":"right","rt":839,"correct":true,"confidence":4},{"trial_n":94,"n_dots":3.35,"target":"right","response":"right","rt":948.29999995232,"correct":true,"confidence":3},{"trial_n":95,"n_dots":3.25,"target":"left","response":"right","rt":942.20000004768,"correct":false,"confidence":4},{"trial_n":96,"n_dots":3.35,"target":"right","response":"right","rt":76.599999904633,"correct":true,"confidence":3},{"trial_n":97,"n_dots":3.35,"target":"right","response":"right","rt":265.40000009537,"correct":true,"confidence":4},{"trial_n":98,"n_dots":3.25,"target":"left","response":"right","rt":790.60000014305,"correct":false,"confidence":3},{"trial_n":99,"n_dots":3.35,"target":"right","response":"right","rt":642.80000019073,"correct":true,"confidence":2},{"trial_n":100,"n_dots":3.35,"target":"right","response":"right","rt":216.20000004768,"correct":true,"confidence":3},{"trial_n":101,"n_dots":3.25,"target":"right","response":"right","rt":1213.5,"correct":true,"confidence":3},{"trial_n":102,"n_dots":3.25,"target":"right","response":"right","rt":16.900000095367,"correct":true,"confidence":4},{"trial_n":103,"n_dots":3.15,"target":"left","response":"left","rt":195.20000004768,"correct":true,"confidence":3},{"trial_n":104,"n_dots":3.15,"target":"right","response":"right","rt":206.5,"correct":true,"confidence":4},{"trial_n":105,"n_dots":3.05,"target":"right","response":"right","rt":629.89999985695,"correct":true,"confidence":4},{"trial_n":106,"n_dots":3.05,"target":"left","response":"right","rt":545.89999985695,"correct":false,"confidence":4},{"trial_n":107,"n_dots":3.15,"target":"right","response":"left","rt":1038.2000000477,"correct":false,"confidence":3},{"trial_n":108,"n_dots":3.25,"target":"left","response":"right","rt":150.5,"correct":false,"confidence":4},{"trial_n":109,"n_dots":3.35,"target":"right","response":"right","rt":363.20000004768,"correct":true,"confidence":4},{"trial_n":110,"n_dots":3.35,"target":"right","response":"right","rt":274.59999990463,"correct":true,"confidence":4},{"trial_n":111,"n_dots":3.25,"target":"right","response":"right","rt":760.60000014305,"correct":true,"confidence":4},{"trial_n":112,"n_dots":3.25,"target":"left","response":"left","rt":871.39999985695,"correct":true,"confidence":3},{"trial_n":113,"n_dots":3.15,"target":"right","response":"right","rt":230.90000009537,"correct":true,"confidence":5},{"trial_n":114,"n_dots":3.15,"target":"left","response":"left","rt":421.20000004768,"correct":true,"confidence":4},{"trial_n":115,"n_dots":3.05,"target":"left","response":"right","rt":493.5,"correct":false,"confidence":2},{"trial_n":116,"n_dots":3.15,"target":"right","response":"left","rt":750,"correct":false,"confidence":3},{"trial_n":117,"n_dots":3.25,"target":"left","response":"right","rt":597.09999990463,"correct":false,"confidence":4},{"trial_n":118,"n_dots":3.35,"target":"left","response":"left","rt":82.900000095367,"correct":true,"confidence":3},{"trial_n":119,"n_dots":3.35,"target":"right","response":"left","rt":690.29999995232,"correct":false,"confidence":4},{"trial_n":120,"n_dots":3.45,"target":"left","response":"left","rt":1013.2999999523,"correct":true,"confidence":3}]