[{"trial_n":1,"min":25,"max":230,"target":"present","response":"absent","rt":5833.4000000954,"correct":false,"confidence":-1},{"trial_n":2,"min":25,"max":230,"target":"present","response":"present","rt":483.40000009537,"correct":true,"confidence":-1},{"trial_n":3,"min":25,"max":230,"target":"absent","response":"absent","rt":562.59999990463,"correct":true,"confidence":-1},{"trial_n":4,"min":41,"max":214,"target":"absent","response":"absent","rt":232.39999961853,"correct":true,"confidence":-1},{"trial_n":5,"min":41,"max":214,"target":"present","response":"present","rt":162.30000019073,"correct":true,"confidence":-1},{"trial_n":6,"min":57,"max":198,"target":"present","response":"present","rt":392.5,"correct":true,"confidence":-1},{"trial_n":7,"min":57,"max":198,"target":"absent","response":"absent","rt":301.90000009537,"correct":true,"confidence":-1},{"trial_n":8,"min":73,"max":182,"target":"absent","response":"absent","rt":210.80000019073,"correct":true,"confidence":-1},{"trial_n":9,"min":73,"max":182,"target":"absent","response":"absent","rt":115.09999990463,"correct":true,"confidence":-1},{"trial_n":10,"min":89,"max":166,"target":"absent","response":"absent","rt":111.5,"correct":true,"confidence":-1},{"trial_n":11,"min":89,"max":166,"target":"absent","response":"absent","rt":237,"correct":true,"confidence":-1},{"trial_n":12,"min":97,"max":158,"target":"absent","response":"absent","rt":78.099999904633,"correct":true,"confidence":-1},{"trial_n":13,"min":97,"max":158,"target":"present","response":"absent","rt":91.39999961853,"correct":false,"confidence":-1},{"trial_n":14,"min":89,"max":166,"target":"absent","response":"absent","rt":425.30000019073,"correct":true,"confidence":-1},{"trial_n":15,"min":89,"max":166,"target":"present","response":"absent","rt":220.10000038147,"correct":false,"confidence":-1},{"trial_n":16,"min":81,"max":174,"target":"absent","response":"absent","rt":392.09999990463,"correct":true,"confidence":-1},{"trial_n":17,"min":81,"max":174,"target":"absent","response":"absent","rt":395.09999990463,"correct":true,"confidence":-1},{"trial_n":18,"min":89,"max":166,"target":"present","response":"present","rt":422,"correct":true,"confidence":-1},{"trial_n":19,"min":89,"max":166,"target":"absent","response":"present","rt":486.80000019073,"correct":false,"confidence":-1},{"trial_n":20,"min":81,"max":174,"target":"present","response":"absent","rt":186,"correct":false,"confidence":-1},{"trial_n":21,"min":77,"max":178,"target":"absent","response":"absent","rt":1027.2000002861,"correct":true,"confidence":3},{"trial_n":22,"min":77,"max":178,"target":"present","response":"present","rt":1400.2999997139,"correct":true,"confidence":3},{"trial_n":23,"min":81,"max":174,"target":"absent","response":"absent","rt":421.09999990463,"correct":true,"confidence":3},{"trial_n":24,"min":81,"max":174,"target":"absent","response":"absent","rt":482.2999997139,"correct":true,"confidence":3},{"trial_n":25,"min":85,"max":170,"target":"absent","response":"absent","rt":523.2000002861,"correct":true,"confidence":3},{"trial_n":26,"min":85,"max":170,"target":"absent","response":"absent","rt":367.5,"correct":true,"confidence":3},{"trial_n":27,"min":89,"max":166,"target":"present","response":"present","rt":452.5,"correct":true,"confidence":3},{"trial_n":28,"min":89,"max":166,"target":"present","response":"present","rt":316.7000002861,"correct":true,"confidence":3},{"trial_n":29,"min":93,"max":162,"target":"absent","response":"absent","rt":505,"correct":true,"confidence":3},{"trial_n":30,"min":93,"max":162,"target":"absent","response":"absent","rt":394.80000019073,"correct":true,"confidence":3},{"trial_n":31,"min":95,"max":160,"target":"absent","response":"absent","rt":560.39999961853,"correct":true,"confidence":3},{"trial_n":32,"min":95,"max":160,"target":"present","response":"absent","rt":264.80000019073,"correct":false,"confidence":3},{"trial_n":33,"min":93,"max":162,"target":"absent","response":"absent","rt":167.09999990463,"correct":true,"confidence":3},{"trial_n":34,"min":93,"max":162,"target":"present","response":"absent","rt":796.30000019073,"correct":false,"confidence":3},{"trial_n":35,"min":91,"max":164,"target":"absent","response":"absent","rt":410.39999961853,"correct":true,"confidence":3},{"trial_n":36,"min":91,"max":164,"target":"present","response":"present","rt":503.90000009537,"correct":true,"confidence":3},{"trial_n":37,"min":93,"max":162,"target":"absent","response":"present","rt":266.19999980927,"correct":false,"confidence":3},{"trial_n":38,"min":91,"max":164,"target":"present","response":"present","rt":268.19999980927,"correct":true,"confidence":3},{"trial_n":39,"min":91,"max":164,"target":"absent","response":"absent","rt":406.89999961853,"correct":true,"confidence":3},{"trial_n":40,"min":93,"max":162,"target":"present","response":"absent","rt":168.2000002861,"correct":false,"confidence":3},{"trial_n":41,"min":92,"max":163,"target":"absent","response":"absent","rt":430.09999990463,"correct":true,"confidence":3},{"trial_n":42,"min":92,"max":163,"target":"present","response":"present","rt":231.2999997139,"correct":true,"confidence":3},{"trial_n":43,"min":93,"max":162,"target":"present","response":"present","rt":338.7000002861,"correct":true,"confidence":3},{"trial_n":44,"min":93,"max":162,"target":"present","response":"present","rt":524.09999990463,"correct":true,"confidence":3},{"trial_n":45,"min":94,"max":161,"target":"present","response":"present","rt":367.7999997139,"correct":true,"confidence":3},{"trial_n":46,"min":94,"max":161,"target":"present","response":"present","rt":271.60000038147,"correct":true,"confidence":3},{"trial_n":47,"min":95,"max":160,"target":"present","response":"absent","rt":1465.8000001907,"correct":false,"confidence":3},{"trial_n":48,"min":94,"max":161,"target":"absent","response":"absent","rt":467,"correct":true,"confidence":3},{"trial_n":49,"min":94,"max":161,"target":"present","response":"present","rt":383.40000009537,"correct":true,"confidence":3},{"trial_n":50,"min":95,"max":160,"target":"absent","response":"absent","rt":93.39999961853,"correct":true,"confidence":3},{"trial_n":51,"min":95,"max":160,"target":"present","response":"absent","rt":774.60000038147,"correct":false,"confidence":3},{"trial_n":52,"min":94,"max":161,"target":"absent","response":"absent","rt":448.40000009537,"correct":true,"confidence":3},{"trial_n":53,"min":94,"max":161,"target":"present","response":"present","rt":254.30000019073,"correct":true,"confidence":3},{"trial_n":54,"min":95,"max":160,"target":"absent","response":"present","rt":239.7000002861,"correct":false,"confidence":3},{"trial_n":55,"min":94,"max":161,"target":"absent","response":"present","rt":960.09999990463,"correct":false,"confidence":2},{"trial_n":56,"min":93,"max":162,"target":"present","response":"present","rt":311.40000009537,"correct":true,"confidence":2},{"trial_n":57,"min":93,"max":162,"target":"present","response":"absent","rt":354.90000009537,"correct":false,"confidence":2},{"trial_n":58,"min":92,"max":163,"target":"present","response":"absent","rt":182.90000009537,"correct":false,"confidence":2},{"trial_n":59,"min":91,"max":164,"target":"absent","response":"absent","rt":185,"correct":true,"confidence":5},{"trial_n":60,"min":91,"max":164,"target":"present","response":"absent","rt":352.7000002861,"correct":false,"confidence":4},{"trial_n":61,"min":90,"max":165,"target":"absent","response":"absent","rt":451.59999990463,"correct":true,"confidence":3},{"trial_n":62,"min":90,"max":165,"target":"present","response":"absent","rt":208.59999990463,"correct":false,"confidence":1},{"trial_n":63,"min":89,"max":166,"target":"absent","response":"absent","rt":656.40000009537,"correct":true,"confidence":3},{"trial_n":64,"min":89,"max":166,"target":"present","response":"absent","rt":283.39999961853,"correct":false,"confidence":3},{"trial_n":65,"min":88,"max":167,"target":"present","response":"present","rt":758.59999990463,"correct":true,"confidence":4},{"trial_n":66,"min":88,"max":167,"target":"present","response":"present","rt":524.89999961853,"correct":true,"confidence":4},{"trial_n":67,"min":89,"max":166,"target":"present","response":"present","rt":379.7999997139,"correct":true,"confidence":4},{"trial_n":68,"min":89,"max":166,"target":"present","response":"absent","rt":669.19999980927,"correct":false,"confidence":3},{"trial_n":69,"min":88,"max":167,"target":"absent","response":"absent","rt":175.30000019073,"correct":true,"confidence":3},{"trial_n":70,"min":88,"max":167,"target":"present","response":"present","rt":590.69999980927,"correct":true,"confidence":4},{"trial_n":71,"min":41,"max":214,"target":"present","response":"present","rt":3938.5,"correct":true,"confidence":-1},{"trial_n":72,"min":41,"max":214,"target":"present","response":"present","rt":539.5,"correct":true,"confidence":-1},{"trial_n":73,"min":57,"max":198,"target":"absent","response":"absent","rt":475.69999980927,"correct":true,"confidence":-1},{"trial_n":74,"min":57,"max":198,"target":"absent","response":"absent","rt":461.90000009537,"correct":true,"confidence":-1},{"trial_n":75,"min":73,"max":182,"target":"present","response":"absent","rt":385.09999990463,"correct":false,"confidence":-1},{"trial_n":76,"min":57,"max":198,"target":"present","response":"present","rt":330,"correct":true,"confidence":-1},{"trial_n":77,"min":57,"max":198,"target":"present","response":"present","rt":394.5,"correct":true,"confidence":-1},{"trial_n":78,"min":73,"max":182,"target":"present","response":"present","rt":315.59999990463,"correct":true,"confidence":-1},{"trial_n":79,"min":73,"max":182,"target":"absent","response":"absent","rt":401.89999961853,"correct":true,"confidence":-1},{"trial_n":80,"min":89,"max":166,"target":"absent","response":"absent","rt":358.10000038147,"correct":true,"confidence":-1},{"trial_n":81,"min":89,"max":166,"target":"present","response":"absent","rt":379.40000009537,"correct":false,"confidence":-1},{"trial_n":82,"min":81,"max":174,"target":"present","response":"absent","rt":198.2999997139,"correct":false,"confidence":-1},{"trial_n":83,"min":73,"max":182,"target":"absent","response":"present","rt":316.5,"correct":false,"confidence":-1},{"trial_n":84,"min":65,"max":190,"target":"absent","response":"present","rt":318.90000009537,"correct":false,"confidence":-1},{"trial_n":85,"min":57,"max":198,"target":"present","response":"present","rt":290.7000002861,"correct":true,"confidence":-1},{"trial_n":86,"min":57,"max":198,"target":"present","response":"present","rt":325.2000002861,"correct":true,"confidence":-1},{"trial_n":87,"min":65,"max":190,"target":"present","response":"present","rt":544.5,"correct":true,"confidence":-1},{"trial_n":88,"min":65,"max":190,"target":"present","response":"present","rt":374.5,"correct":true,"confidence":-1},{"trial_n":89,"min":73,"max":182,"target":"present","response":"present","rt":408.90000009537,"correct":true,"confidence":-1},{"trial_n":90,"min":73,"max":182,"target":"present","response":"present","rt":362.2000002861,"correct":true,"confidence":-1},{"trial_n":91,"min":77,"max":178,"target":"present","response":"absent","rt":572.5,"correct":false,"confidence":3},{"trial_n":92,"min":73,"max":182,"target":"absent","response":"absent","rt":704.40000009537,"correct":true,"confidence":5},{"trial_n":93,"min":73,"max":182,"target":"absent","response":"absent","rt":563.5,"correct":true,"confidence":5},{"trial_n":94,"min":77,"max":178,"target":"present","response":"present","rt":462.80000019073,"correct":true,"confidence":4},{"trial_n":95,"min":77,"max":178,"target":"present","response":"present","rt":1152.5,"correct":true,"confidence":3},{"trial_n":96,"min":81,"max":174,"target":"absent","response":"present","rt":18695.699999809,"correct":false,"confidence":3},{"trial_n":97,"min":77,"max":178,"target":"present","response":"present","rt":466.7999997139,"correct":true,"confidence":3},{"trial_n":98,"min":77,"max":178,"target":"absent","response":"absent","rt":408,"correct":true,"confidence":3},{"trial_n":99,"min":81,"max":174,"target":"absent","response":"absent","rt":277.5,"correct":true,"confidence":3},{"trial_n":100,"min":81,"max":174,"target":"present","response":"absent","rt":457.40000009537,"correct":false,"confidence":3},{"trial_n":101,"min":79,"max":176,"target":"absent","response":"present","rt":569.5,"correct":false,"confidence":3},{"trial_n":102,"min":77,"max":178,"target":"absent","response":"present","rt":820.09999990463,"correct":false,"confidence":2},{"trial_n":103,"min":75,"max":180,"target":"present","response":"present","rt":449.30000019073,"correct":true,"confidence":3},{"trial_n":104,"min":75,"max":180,"target":"present","response":"present","rt":184,"correct":true,"confidence":3},{"trial_n":105,"min":77,"max":178,"target":"present","response":"present","rt":415.80000019073,"correct":true,"confidence":4},{"trial_n":106,"min":77,"max":178,"target":"absent","response":"present","rt":486.80000019073,"correct":false,"confidence":2},{"trial_n":107,"min":75,"max":180,"target":"absent","response":"absent","rt":439.7000002861,"correct":true,"confidence":3},{"trial_n":108,"min":75,"max":180,"target":"absent","response":"absent","rt":475.80000019073,"correct":true,"confidence":3},{"trial_n":109,"min":77,"max":178,"target":"present","response":"absent","rt":618.80000019073,"correct":false,"confidence":3},{"trial_n":110,"min":75,"max":180,"target":"absent","response":"present","rt":466.2000002861,"correct":false,"confidence":3},{"trial_n":111,"min":74,"max":181,"target":"absent","response":"absent","rt":695.7999997139,"correct":true,"confidence":3},{"trial_n":112,"min":74,"max":181,"target":"present","response":"present","rt":216.19999980927,"correct":true,"confidence":3},{"trial_n":113,"min":75,"max":180,"target":"absent","response":"present","rt":428.80000019073,"correct":false,"confidence":3},{"trial_n":114,"min":74,"max":181,"target":"present","response":"present","rt":1846.3000001907,"correct":true,"confidence":3},{"trial_n":115,"min":74,"max":181,"target":"present","response":"present","rt":246.40000009537,"correct":true,"confidence":3},{"trial_n":116,"min":75,"max":180,"target":"present","response":"present","rt":495.59999990463,"correct":true,"confidence":3},{"trial_n":117,"min":75,"max":180,"target":"absent","response":"absent","rt":501.90000009537,"correct":true,"confidence":3},{"trial_n":118,"min":76,"max":179,"target":"absent","response":"absent","rt":652.2999997139,"correct":true,"confidence":3},{"trial_n":119,"min":76,"max":179,"target":"present","response":"present","rt":514.89999961853,"correct":true,"confidence":3},{"trial_n":120,"min":77,"max":178,"target":"absent","response":"absent","rt":517.40000009537,"correct":true,"confidence":3},{"trial_n":121,"min":77,"max":178,"target":"absent","response":"absent","rt":650.2000002861,"correct":true,"confidence":3},{"trial_n":122,"min":78,"max":177,"target":"absent","response":"absent","rt":411.60000038147,"correct":true,"confidence":5},{"trial_n":123,"min":78,"max":177,"target":"absent","response":"absent","rt":991.40000009537,"correct":true,"confidence":5},{"trial_n":124,"min":79,"max":176,"target":"absent","response":"absent","rt":443.90000009537,"correct":true,"confidence":5},{"trial_n":125,"min":79,"max":176,"target":"absent","response":"absent","rt":507.09999990463,"correct":true,"confidence":4},{"trial_n":126,"min":80,"max":175,"target":"present","response":"present","rt":986.69999980927,"correct":true,"confidence":4},{"trial_n":127,"min":80,"max":175,"target":"absent","response":"present","rt":680.69999980927,"correct":false,"confidence":1},{"trial_n":128,"min":79,"max":176,"target":"absent","response":"absent","rt":771,"correct":true,"confidence":1},{"trial_n":129,"min":79,"max":176,"target":"present","response":"present","rt":919.7999997139,"correct":true,"confidence":1},{"trial_n":130,"min":80,"max":175,"target":"present","response":"present","rt":518.09999990463,"correct":true,"confidence":3},{"trial_n":131,"min":80,"max":175,"target":"absent","response":"absent","rt":1149.6999998093,"correct":true,"confidence":5},{"trial_n":132,"min":81,"max":174,"target":"absent","response":"absent","rt":469,"correct":true,"confidence":5},{"trial_n":133,"min":81,"max":174,"target":"present","response":"absent","rt":281,"correct":false,"confidence":5},{"trial_n":134,"min":80,"max":175,"target":"present","response":"absent","rt":323,"correct":false,"confidence":1},{"trial_n":135,"min":79,"max":176,"target":"present","response":"present","rt":842.7000002861,"correct":true,"confidence":2},{"trial_n":136,"min":79,"max":176,"target":"absent","response":"absent","rt":1111.8999996185,"correct":true,"confidence":5},{"trial_n":137,"min":80,"max":175,"target":"present","response":"absent","rt":1973.0999999046,"correct":false,"confidence":1},{"trial_n":138,"min":79,"max":176,"target":"absent","response":"absent","rt":1157.5999999046,"correct":true,"confidence":4},{"trial_n":139,"min":79,"max":176,"target":"present","response":"present","rt":1831.2999997139,"correct":true,"confidence":4},{"trial_n":140,"min":80,"max":175,"target":"absent","response":"absent","rt":681.60000038147,"correct":true,"confidence":5}]