[{"trial_n":1,"min":25,"max":230,"target":"present","response":"present","rt":4357.5999999996,"correct":true,"confidence":-1},{"trial_n":2,"min":25,"max":230,"target":"present","response":"present","rt":703.30000000075,"correct":true,"confidence":-1},{"trial_n":3,"min":41,"max":214,"target":"absent","response":"absent","rt":1306,"correct":true,"confidence":-1},{"trial_n":4,"min":41,"max":214,"target":"absent","response":"absent","rt":592.59999999963,"correct":true,"confidence":-1},{"trial_n":5,"min":57,"max":198,"target":"present","response":"present","rt":1355.7999999989,"correct":true,"confidence":-1},{"trial_n":6,"min":57,"max":198,"target":"present","response":"present","rt":582.69999999925,"correct":true,"confidence":-1},{"trial_n":7,"min":73,"max":182,"target":"present","response":"present","rt":1209.9000000004,"correct":true,"confidence":-1},{"trial_n":8,"min":73,"max":182,"target":"present","response":"present","rt":555.90000000037,"correct":true,"confidence":-1},{"trial_n":9,"min":89,"max":166,"target":"present","response":"absent","rt":1055.9000000004,"correct":false,"confidence":-1},{"trial_n":10,"min":73,"max":182,"target":"absent","response":"absent","rt":652.30000000075,"correct":true,"confidence":-1},{"trial_n":11,"min":73,"max":182,"target":"present","response":"present","rt":1009.4000000004,"correct":true,"confidence":-1},{"trial_n":12,"min":81,"max":174,"target":"absent","response":"present","rt":798.09999999963,"correct":false,"confidence":-1},{"trial_n":13,"min":73,"max":182,"target":"absent","response":"absent","rt":1182.2000000011,"correct":true,"confidence":-1},{"trial_n":14,"min":73,"max":182,"target":"present","response":"present","rt":969.39999999851,"correct":true,"confidence":-1},{"trial_n":15,"min":81,"max":174,"target":"absent","response":"absent","rt":887.40000000037,"correct":true,"confidence":-1},{"trial_n":16,"min":81,"max":174,"target":"present","response":"present","rt":1091.7000000011,"correct":true,"confidence":-1},{"trial_n":17,"min":89,"max":166,"target":"present","response":"present","rt":976.59999999963,"correct":true,"confidence":-1},{"trial_n":18,"min":89,"max":166,"target":"absent","response":"absent","rt":1191.7999999989,"correct":true,"confidence":-1},{"trial_n":19,"min":97,"max":158,"target":"absent","response":"absent","rt":567.59999999963,"correct":true,"confidence":-1},{"trial_n":20,"min":97,"max":158,"target":"present","response":"present","rt":849,"correct":true,"confidence":-1},{"trial_n":21,"min":101,"max":154,"target":"present","response":"absent","rt":2306.0999999996,"correct":false,"confidence":4},{"trial_n":22,"min":97,"max":158,"target":"present","response":"present","rt":2424.9000000004,"correct":true,"confidence":3},{"trial_n":23,"min":97,"max":158,"target":"absent","response":"absent","rt":1857.7999999989,"correct":true,"confidence":4},{"trial_n":24,"min":101,"max":154,"target":"present","response":"absent","rt":2017.0999999996,"correct":false,"confidence":4},{"trial_n":25,"min":97,"max":158,"target":"present","response":"absent","rt":3161.5999999996,"correct":false,"confidence":4},{"trial_n":26,"min":93,"max":162,"target":"absent","response":"present","rt":2247.9000000004,"correct":false,"confidence":2},{"trial_n":27,"min":89,"max":166,"target":"present","response":"present","rt":1265.4000000004,"correct":true,"confidence":4},{"trial_n":28,"min":89,"max":166,"target":"present","response":"absent","rt":2152.4000000004,"correct":false,"confidence":4},{"trial_n":29,"min":85,"max":170,"target":"present","response":"present","rt":962.19999999925,"correct":true,"confidence":5},{"trial_n":30,"min":85,"max":170,"target":"absent","response":"absent","rt":2042.2999999989,"correct":true,"confidence":4},{"trial_n":31,"min":87,"max":168,"target":"absent","response":"absent","rt":1070,"correct":true,"confidence":1},{"trial_n":32,"min":87,"max":168,"target":"present","response":"present","rt":978.09999999963,"correct":true,"confidence":5},{"trial_n":33,"min":89,"max":166,"target":"absent","response":"absent","rt":1209,"correct":true,"confidence":3},{"trial_n":34,"min":89,"max":166,"target":"present","response":"absent","rt":1073,"correct":false,"confidence":4},{"trial_n":35,"min":87,"max":168,"target":"absent","response":"absent","rt":1101.8999999985,"correct":true,"confidence":3},{"trial_n":36,"min":87,"max":168,"target":"present","response":"present","rt":1095,"correct":true,"confidence":5},{"trial_n":37,"min":89,"max":166,"target":"absent","response":"absent","rt":1411.5999999996,"correct":true,"confidence":4},{"trial_n":38,"min":89,"max":166,"target":"present","response":"absent","rt":1004.0999999996,"correct":false,"confidence":4},{"trial_n":39,"min":87,"max":168,"target":"absent","response":"absent","rt":1193.5999999996,"correct":true,"confidence":4},{"trial_n":40,"min":87,"max":168,"target":"present","response":"absent","rt":2018,"correct":false,"confidence":3},{"trial_n":41,"min":86,"max":169,"target":"present","response":"present","rt":1063.2000000011,"correct":true,"confidence":5},{"trial_n":42,"min":86,"max":169,"target":"present","response":"present","rt":1133.5999999996,"correct":true,"confidence":5},{"trial_n":43,"min":87,"max":168,"target":"absent","response":"present","rt":1120.6000000015,"correct":false,"confidence":4},{"trial_n":44,"min":86,"max":169,"target":"absent","response":"present","rt":960,"correct":false,"confidence":4},{"trial_n":45,"min":85,"max":170,"target":"present","response":"absent","rt":1550.4000000004,"correct":false,"confidence":5},{"trial_n":46,"min":84,"max":171,"target":"absent","response":"present","rt":957.70000000112,"correct":false,"confidence":2},{"trial_n":47,"min":83,"max":172,"target":"present","response":"absent","rt":1034.5999999996,"correct":false,"confidence":5},{"trial_n":48,"min":82,"max":173,"target":"absent","response":"present","rt":1489,"correct":false,"confidence":4},{"trial_n":49,"min":81,"max":174,"target":"present","response":"present","rt":1183.2999999989,"correct":true,"confidence":5},{"trial_n":50,"min":81,"max":174,"target":"absent","response":"present","rt":1383.7999999989,"correct":false,"confidence":4},{"trial_n":51,"min":80,"max":175,"target":"absent","response":"present","rt":2164.1999999993,"correct":false,"confidence":5},{"trial_n":52,"min":79,"max":176,"target":"present","response":"present","rt":807.19999999925,"correct":true,"confidence":5},{"trial_n":53,"min":79,"max":176,"target":"absent","response":"present","rt":1243,"correct":false,"confidence":3},{"trial_n":54,"min":78,"max":177,"target":"absent","response":"present","rt":1657.3999999985,"correct":false,"confidence":4},{"trial_n":55,"min":77,"max":178,"target":"absent","response":"absent","rt":1514.3999999985,"correct":true,"confidence":4},{"trial_n":56,"min":77,"max":178,"target":"absent","response":"present","rt":1005.9000000004,"correct":false,"confidence":3},{"trial_n":57,"min":76,"max":179,"target":"present","response":"present","rt":879.59999999963,"correct":true,"confidence":5},{"trial_n":58,"min":76,"max":179,"target":"absent","response":"present","rt":2422,"correct":false,"confidence":2},{"trial_n":59,"min":75,"max":180,"target":"absent","response":"absent","rt":1214.8000000007,"correct":true,"confidence":4},{"trial_n":60,"min":75,"max":180,"target":"present","response":"present","rt":1501.2999999989,"correct":true,"confidence":5},{"trial_n":61,"min":76,"max":179,"target":"absent","response":"present","rt":1000.2999999989,"correct":false,"confidence":4},{"trial_n":62,"min":75,"max":180,"target":"present","response":"present","rt":946.39999999851,"correct":true,"confidence":5},{"trial_n":63,"min":75,"max":180,"target":"present","response":"present","rt":769.79999999888,"correct":true,"confidence":5},{"trial_n":64,"min":76,"max":179,"target":"absent","response":"present","rt":825.5,"correct":false,"confidence":2},{"trial_n":65,"min":75,"max":180,"target":"absent","response":"absent","rt":1278.7999999989,"correct":true,"confidence":4},{"trial_n":66,"min":75,"max":180,"target":"absent","response":"absent","rt":1427.4000000004,"correct":true,"confidence":2},{"trial_n":67,"min":76,"max":179,"target":"absent","response":"absent","rt":2200.8000000007,"correct":true,"confidence":5},{"trial_n":68,"min":76,"max":179,"target":"present","response":"present","rt":747.19999999925,"correct":true,"confidence":5},{"trial_n":69,"min":77,"max":178,"target":"present","response":"present","rt":951.09999999963,"correct":true,"confidence":5},{"trial_n":70,"min":77,"max":178,"target":"absent","response":"present","rt":1146.5,"correct":false,"confidence":5},{"trial_n":71,"min":41,"max":214,"target":"present","response":"present","rt":2909.9000000004,"correct":true,"confidence":-1},{"trial_n":72,"min":41,"max":214,"target":"present","response":"present","rt":2.7999999988824,"correct":true,"confidence":-1},{"trial_n":73,"min":57,"max":198,"target":"absent","response":"absent","rt":225.80000000075,"correct":true,"confidence":-1},{"trial_n":74,"min":57,"max":198,"target":"absent","response":"absent","rt":201,"correct":true,"confidence":-1},{"trial_n":75,"min":73,"max":182,"target":"present","response":"present","rt":921.10000000149,"correct":true,"confidence":-1},{"trial_n":76,"min":73,"max":182,"target":"present","response":"present","rt":486.79999999888,"correct":true,"confidence":-1},{"trial_n":77,"min":89,"max":166,"target":"absent","response":"absent","rt":355.59999999963,"correct":true,"confidence":-1},{"trial_n":78,"min":89,"max":166,"target":"absent","response":"absent","rt":430.89999999851,"correct":true,"confidence":-1},{"trial_n":79,"min":105,"max":150,"target":"present","response":"present","rt":354,"correct":true,"confidence":-1},{"trial_n":80,"min":105,"max":150,"target":"absent","response":"present","rt":387.40000000037,"correct":false,"confidence":-1},{"trial_n":81,"min":97,"max":158,"target":"present","response":"present","rt":416.29999999888,"correct":true,"confidence":-1},{"trial_n":82,"min":97,"max":158,"target":"present","response":"present","rt":207.90000000037,"correct":true,"confidence":-1},{"trial_n":83,"min":105,"max":150,"target":"absent","response":"absent","rt":224.40000000037,"correct":true,"confidence":-1},{"trial_n":84,"min":105,"max":150,"target":"absent","response":"absent","rt":92.099999999627,"correct":true,"confidence":-1},{"trial_n":85,"min":113,"max":142,"target":"absent","response":"absent","rt":190.40000000037,"correct":true,"confidence":-1},{"trial_n":86,"min":113,"max":142,"target":"present","response":"absent","rt":155.09999999963,"correct":false,"confidence":-1},{"trial_n":87,"min":105,"max":150,"target":"absent","response":"absent","rt":116.09999999963,"correct":true,"confidence":-1},{"trial_n":88,"min":105,"max":150,"target":"absent","response":"present","rt":203,"correct":false,"confidence":-1},{"trial_n":89,"min":97,"max":158,"target":"absent","response":"present","rt":561.40000000037,"correct":false,"confidence":-1},{"trial_n":90,"min":89,"max":166,"target":"present","response":"absent","rt":205.40000000037,"correct":false,"confidence":-1},{"trial_n":91,"min":85,"max":170,"target":"absent","response":"absent","rt":1011.7000000011,"correct":true,"confidence":4},{"trial_n":92,"min":85,"max":170,"target":"present","response":"present","rt":618.29999999888,"correct":true,"confidence":1},{"trial_n":93,"min":89,"max":166,"target":"absent","response":"present","rt":1389,"correct":false,"confidence":1},{"trial_n":94,"min":85,"max":170,"target":"present","response":"present","rt":177.79999999888,"correct":true,"confidence":5},{"trial_n":95,"min":85,"max":170,"target":"absent","response":"absent","rt":487.79999999888,"correct":true,"confidence":4},{"trial_n":96,"min":89,"max":166,"target":"present","response":"present","rt":226.80000000075,"correct":true,"confidence":4},{"trial_n":97,"min":89,"max":166,"target":"absent","response":"absent","rt":476.5,"correct":true,"confidence":5},{"trial_n":98,"min":93,"max":162,"target":"absent","response":"absent","rt":400.69999999925,"correct":true,"confidence":4},{"trial_n":99,"min":93,"max":162,"target":"absent","response":"absent","rt":457.70000000112,"correct":true,"confidence":5},{"trial_n":100,"min":97,"max":158,"target":"absent","response":"absent","rt":814.39999999851,"correct":true,"confidence":4},{"trial_n":101,"min":97,"max":158,"target":"absent","response":"absent","rt":471.40000000037,"correct":true,"confidence":2},{"trial_n":102,"min":99,"max":156,"target":"present","response":"present","rt":398.09999999963,"correct":true,"confidence":2},{"trial_n":103,"min":99,"max":156,"target":"present","response":"present","rt":359.5,"correct":true,"confidence":4},{"trial_n":104,"min":101,"max":154,"target":"absent","response":"absent","rt":900.90000000037,"correct":true,"confidence":3},{"trial_n":105,"min":101,"max":154,"target":"absent","response":"present","rt":83157.1,"correct":false,"confidence":3},{"trial_n":106,"min":99,"max":156,"target":"absent","response":"absent","rt":355.70000000112,"correct":true,"confidence":3},{"trial_n":107,"min":99,"max":156,"target":"absent","response":"absent","rt":531.90000000037,"correct":true,"confidence":1},{"trial_n":108,"min":101,"max":154,"target":"absent","response":"absent","rt":1906.6999999993,"correct":true,"confidence":2},{"trial_n":109,"min":101,"max":154,"target":"present","response":"present","rt":853.79999999888,"correct":true,"confidence":1},{"trial_n":110,"min":103,"max":152,"target":"present","response":"absent","rt":394.40000000037,"correct":false,"confidence":2},{"trial_n":111,"min":102,"max":153,"target":"present","response":"absent","rt":607.59999999963,"correct":false,"confidence":1},{"trial_n":112,"min":101,"max":154,"target":"present","response":"absent","rt":353.80000000075,"correct":false,"confidence":1},{"trial_n":113,"min":100,"max":155,"target":"present","response":"present","rt":592.80000000075,"correct":true,"confidence":1},{"trial_n":114,"min":100,"max":155,"target":"present","response":"present","rt":449.20000000112,"correct":true,"confidence":2},{"trial_n":115,"min":101,"max":154,"target":"present","response":"absent","rt":379.29999999888,"correct":false,"confidence":2},{"trial_n":116,"min":100,"max":155,"target":"absent","response":"present","rt":364.79999999888,"correct":false,"confidence":1},{"trial_n":117,"min":99,"max":156,"target":"absent","response":"absent","rt":421.19999999925,"correct":true,"confidence":1},{"trial_n":118,"min":99,"max":156,"target":"present","response":"absent","rt":350.19999999925,"correct":false,"confidence":1},{"trial_n":119,"min":98,"max":157,"target":"absent","response":"present","rt":427.09999999963,"correct":false,"confidence":1},{"trial_n":120,"min":97,"max":158,"target":"absent","response":"present","rt":392.5,"correct":false,"confidence":1},{"trial_n":121,"min":96,"max":159,"target":"present","response":"absent","rt":391,"correct":false,"confidence":1},{"trial_n":122,"min":95,"max":160,"target":"present","response":"absent","rt":1009.5999999996,"correct":false,"confidence":1},{"trial_n":123,"min":94,"max":161,"target":"present","response":"absent","rt":1125.9000000004,"correct":false,"confidence":2},{"trial_n":124,"min":93,"max":162,"target":"present","response":"absent","rt":551.90000000037,"correct":false,"confidence":3},{"trial_n":125,"min":92,"max":163,"target":"present","response":"present","rt":455.09999999963,"correct":true,"confidence":5},{"trial_n":126,"min":92,"max":163,"target":"present","response":"present","rt":456.5,"correct":true,"confidence":5},{"trial_n":127,"min":93,"max":162,"target":"present","response":"present","rt":476.59999999963,"correct":true,"confidence":5},{"trial_n":128,"min":93,"max":162,"target":"absent","response":"absent","rt":823.5,"correct":true,"confidence":1},{"trial_n":129,"min":94,"max":161,"target":"present","response":"absent","rt":421.40000000037,"correct":false,"confidence":3},{"trial_n":130,"min":93,"max":162,"target":"present","response":"present","rt":301.5,"correct":true,"confidence":4},{"trial_n":131,"min":93,"max":162,"target":"present","response":"present","rt":357.5,"correct":true,"confidence":4},{"trial_n":132,"min":94,"max":161,"target":"present","response":"present","rt":592.69999999925,"correct":true,"confidence":4},{"trial_n":133,"min":94,"max":161,"target":"absent","response":"absent","rt":355.69999999925,"correct":true,"confidence":1},{"trial_n":134,"min":95,"max":160,"target":"absent","response":"absent","rt":843.89999999851,"correct":true,"confidence":3},{"trial_n":135,"min":95,"max":160,"target":"absent","response":"present","rt":620.69999999925,"correct":false,"confidence":1},{"trial_n":136,"min":94,"max":161,"target":"present","response":"present","rt":294.79999999888,"correct":true,"confidence":2},{"trial_n":137,"min":94,"max":161,"target":"present","response":"present","rt":327.59999999963,"correct":true,"confidence":4},{"trial_n":138,"min":95,"max":160,"target":"absent","response":"absent","rt":164.59999999963,"correct":true,"confidence":5},{"trial_n":139,"min":95,"max":160,"target":"absent","response":"present","rt":343.40000000037,"correct":false,"confidence":3},{"trial_n":140,"min":94,"max":161,"target":"present","response":"present","rt":283.5,"correct":true,"confidence":4}]