[{"trial_n":1,"span":8,"encoder":"74845815","distractor":"64845815","target":"present","response":"present","rt":"5518.1999999997","correct":true,"confidence":-1},{"trial_n":2,"span":8,"encoder":"86028342","distractor":"86928342","target":"present","response":"present","rt":"2391.8999999999","correct":true,"confidence":-1},{"trial_n":3,"span":10,"encoder":"9505240486","distractor":"9505240481","target":"absent","response":"absent","rt":"2345.1000000001","correct":true,"confidence":-1},{"trial_n":4,"span":10,"encoder":"5950395931","distractor":"9950395931","target":"absent","response":"absent","rt":"4386.7000000002","correct":true,"confidence":-1},{"trial_n":5,"span":12,"encoder":"011887502337","distractor":"011887508337","target":"present","response":"present","rt":"3629.7000000002","correct":true,"confidence":-1},{"trial_n":6,"span":12,"encoder":"377454354266","distractor":"377484354266","target":"present","response":"absent","rt":"4431.7999999998","correct":false,"confidence":-1},{"trial_n":7,"span":10,"encoder":"9533055024","distractor":"9573055024","target":"present","response":"present","rt":"75073","correct":true,"confidence":-1},{"trial_n":8,"span":10,"encoder":"2421634913","distractor":"2421034913","target":"absent","response":"present","rt":"2286.2999999998","correct":false,"confidence":-1},{"trial_n":9,"span":8,"encoder":"67488263","distractor":"67480263","target":"absent","response":"absent","rt":"3064.4000000004","correct":true,"confidence":-1},{"trial_n":10,"span":8,"encoder":"94935411","distractor":"94905411","target":"absent","response":"absent","rt":"3458.5999999996","correct":true,"confidence":-1},{"trial_n":11,"span":10,"encoder":"7142260545","distractor":"7162260545","target":"absent","response":"absent","rt":"2091.1000000006","correct":true,"confidence":-1},{"trial_n":12,"span":10,"encoder":"3574004148","distractor":"3074004148","target":"present","response":"present","rt":"1921.0999999996","correct":true,"confidence":-1},{"trial_n":13,"span":11,"encoder":"69392730899","distractor":"69302730899","target":"absent","response":"present","rt":"2859.7999999998","correct":false,"confidence":-1},{"trial_n":14,"span":10,"encoder":"3145522037","distractor":"3145522087","target":"present","response":"present","rt":"12558.4","correct":true,"confidence":-1},{"trial_n":15,"span":10,"encoder":"3052948171","distractor":"3052648171","target":"absent","response":"present","rt":"1524.2999999998","correct":false,"confidence":-1},{"trial_n":16,"span":9,"encoder":"119577785","distractor":"119277785","target":"present","response":"absent","rt":"2853.7000000002","correct":false,"confidence":-1},{"trial_n":17,"span":8,"encoder":"37005216","distractor":"37005218","target":"present","response":"present","rt":"1817.2000000002","correct":true,"confidence":-1},{"trial_n":18,"span":8,"encoder":"97167097","distractor":"97167098","target":"present","response":"present","rt":"1014.0999999996","correct":true,"confidence":-1},{"trial_n":19,"span":9,"encoder":"906396204","distractor":"906396254","target":"absent","response":"absent","rt":"3892.0999999996","correct":true,"confidence":-1},{"trial_n":20,"span":9,"encoder":"854631270","distractor":"854636270","target":"present","response":"present","rt":"3734.8000000007","correct":true,"confidence":-1},{"trial_n":21,"span":10,"encoder":"7864330302","distractor":"7864330342","target":"present","response":"present","rt":"2334","correct":true,"confidence":4},{"trial_n":22,"span":10,"encoder":"1736053940","distractor":"1836053940","target":"absent","response":"present","rt":"2559.4000000004","correct":false,"confidence":2},{"trial_n":23,"span":9,"encoder":"081411601","distractor":"081413601","target":"present","response":"present","rt":"1857.4000000004","correct":true,"confidence":3},{"trial_n":24,"span":9,"encoder":"315843089","distractor":"315873089","target":"present","response":"present","rt":"2156.2999999998","correct":true,"confidence":4},{"trial_n":25,"span":10,"encoder":"7825338059","distractor":"7125338059","target":"absent","response":"present","rt":"4448.2999999998","correct":false,"confidence":4},{"trial_n":26,"span":9,"encoder":"318266342","distractor":"318466342","target":"absent","response":"present","rt":"2815.1999999993","correct":false,"confidence":2},{"trial_n":27,"span":8,"encoder":"28101295","distractor":"28101292","target":"present","response":"absent","rt":"3415.2000000002","correct":false,"confidence":4},{"trial_n":28,"span":7,"encoder":"0039986","distractor":"0036986","target":"present","response":"present","rt":"3460.5999999996","correct":true,"confidence":4},{"trial_n":29,"span":7,"encoder":"7147600","distractor":"7177600","target":"present","response":"absent","rt":"2184.8000000007","correct":false,"confidence":3},{"trial_n":30,"span":6,"encoder":"676188","distractor":"670188","target":"present","response":"present","rt":"2363.0999999996","correct":true,"confidence":4},{"trial_n":31,"span":6,"encoder":"309595","distractor":"309195","target":"present","response":"present","rt":"1555.2999999998","correct":true,"confidence":4},{"trial_n":32,"span":7,"encoder":"6081104","distractor":"6081108","target":"absent","response":"absent","rt":"1965.7999999998","correct":true,"confidence":5},{"trial_n":33,"span":7,"encoder":"5791543","distractor":"5771543","target":"absent","response":"present","rt":"2167.2999999998","correct":false,"confidence":3},{"trial_n":34,"span":6,"encoder":"222399","distractor":"222299","target":"present","response":"present","rt":"1978.7999999998","correct":true,"confidence":5},{"trial_n":35,"span":6,"encoder":"526216","distractor":"126216","target":"absent","response":"present","rt":"1994.5","correct":false,"confidence":5},{"trial_n":36,"span":5,"encoder":"40616","distractor":"30616","target":"present","response":"present","rt":"1743.2000000002","correct":true,"confidence":5},{"trial_n":37,"span":5,"encoder":"07044","distractor":"17044","target":"present","response":"absent","rt":"1115.7000000002","correct":false,"confidence":3},{"trial_n":38,"span":4,"encoder":"9740","distractor":"9340","target":"absent","response":"absent","rt":"2542.5999999996","correct":true,"confidence":5},{"trial_n":39,"span":4,"encoder":"8468","distractor":"8268","target":"absent","response":"absent","rt":"2114.7000000002","correct":true,"confidence":5},{"trial_n":40,"span":5,"encoder":"33174","distractor":"33124","target":"present","response":"present","rt":"1963.4000000004","correct":true,"confidence":5},{"trial_n":41,"span":5,"encoder":"45342","distractor":"44342","target":"absent","response":"present","rt":"1450.7999999998","correct":false,"confidence":4},{"trial_n":42,"span":4,"encoder":"5639","distractor":"5839","target":"absent","response":"absent","rt":"2010.7999999998","correct":true,"confidence":5},{"trial_n":43,"span":4,"encoder":"3836","distractor":"3876","target":"present","response":"present","rt":"1499.2999999998","correct":true,"confidence":3},{"trial_n":44,"span":5,"encoder":"50325","distractor":"59325","target":"present","response":"present","rt":"1647.5","correct":true,"confidence":5},{"trial_n":45,"span":5,"encoder":"38637","distractor":"38638","target":"absent","response":"absent","rt":"1489.3999999994","correct":true,"confidence":5},{"trial_n":46,"span":6,"encoder":"133045","distractor":"103045","target":"present","response":"present","rt":"1992.7000000002","correct":true,"confidence":5},{"trial_n":47,"span":6,"encoder":"069475","distractor":"063475","target":"absent","response":"absent","rt":"5445.7999999998","correct":true,"confidence":4},{"trial_n":48,"span":7,"encoder":"8571530","distractor":"8591530","target":"present","response":"absent","rt":"1695","correct":false,"confidence":4},{"trial_n":49,"span":6,"encoder":"355469","distractor":"055469","target":"present","response":"present","rt":"1441.7999999998","correct":true,"confidence":4},{"trial_n":50,"span":6,"encoder":"911554","distractor":"911524","target":"absent","response":"absent","rt":"2285.0999999996","correct":true,"confidence":5},{"trial_n":51,"span":7,"encoder":"7263583","distractor":"7263588","target":"present","response":"present","rt":"14499.9","correct":true,"confidence":3},{"trial_n":52,"span":7,"encoder":"3041070","distractor":"5041070","target":"present","response":"absent","rt":"2663","correct":false,"confidence":2},{"trial_n":53,"span":6,"encoder":"102206","distractor":"107206","target":"absent","response":"absent","rt":"2740.7000000002","correct":true,"confidence":5},{"trial_n":54,"span":6,"encoder":"876748","distractor":"176748","target":"absent","response":"absent","rt":"2230.4000000004","correct":true,"confidence":5},{"trial_n":55,"span":7,"encoder":"8916849","distractor":"8716849","target":"present","response":"present","rt":"2522","correct":true,"confidence":2},{"trial_n":56,"span":7,"encoder":"2266209","distractor":"2266229","target":"absent","response":"absent","rt":"2142.2000000002","correct":true,"confidence":5},{"trial_n":57,"span":8,"encoder":"39114505","distractor":"39114305","target":"present","response":"absent","rt":"2637.5","correct":false,"confidence":2},{"trial_n":58,"span":7,"encoder":"5283420","distractor":"5283920","target":"absent","response":"absent","rt":"3635.5999999996","correct":true,"confidence":2},{"trial_n":59,"span":7,"encoder":"6710261","distractor":"8710261","target":"absent","response":"absent","rt":"7178.2999999998","correct":true,"confidence":1},{"trial_n":60,"span":8,"encoder":"64348693","distractor":"24348693","target":"absent","response":"present","rt":"4126","correct":false,"confidence":3},{"trial_n":61,"span":7,"encoder":"9550971","distractor":"9550171","target":"absent","response":"present","rt":"3220.2000000002","correct":false,"confidence":3},{"trial_n":62,"span":6,"encoder":"903674","distractor":"503674","target":"absent","response":"absent","rt":"1549.5","correct":true,"confidence":5},{"trial_n":63,"span":6,"encoder":"983003","distractor":"980003","target":"absent","response":"absent","rt":"2843.7000000002","correct":true,"confidence":5},{"trial_n":64,"span":7,"encoder":"1983692","distractor":"2983692","target":"present","response":"present","rt":"2305.4000000004","correct":true,"confidence":3},{"trial_n":65,"span":7,"encoder":"5065703","distractor":"7065703","target":"present","response":"absent","rt":"3207.5999999996","correct":false,"confidence":4},{"trial_n":66,"span":6,"encoder":"557913","distractor":"551913","target":"absent","response":"absent","rt":"1718.5999999996","correct":true,"confidence":5},{"trial_n":67,"span":6,"encoder":"228023","distractor":"228123","target":"absent","response":"absent","rt":"1743.3000000007","correct":true,"confidence":5},{"trial_n":68,"span":7,"encoder":"4108677","distractor":"4128677","target":"present","response":"present","rt":"1863.8000000007","correct":true,"confidence":5},{"trial_n":69,"span":7,"encoder":"5149854","distractor":"5149954","target":"absent","response":"absent","rt":"2807.3999999994","correct":true,"confidence":4},{"trial_n":70,"span":8,"encoder":"40768814","distractor":"44768814","target":"present","response":"absent","rt":"2061.2000000002","correct":false,"confidence":4},{"trial_n":71,"span":8,"encoder":"69970728","distractor":"69970748","target":"present","response":"present","rt":"4498.3999999994","correct":true,"confidence":-1},{"trial_n":72,"span":8,"encoder":"59243510","distractor":"59244510","target":"present","response":"absent","rt":"425913","correct":false,"confidence":-1},{"trial_n":73,"span":7,"encoder":"5864302","distractor":"5804302","target":"absent","response":"present","rt":"9678","correct":false,"confidence":-1},{"trial_n":74,"span":6,"encoder":"177605","distractor":"197605","target":"absent","response":"absent","rt":"3158.7999999998","correct":true,"confidence":-1},{"trial_n":75,"span":6,"encoder":"299561","distractor":"299566","target":"present","response":"absent","rt":"2781.3999999994","correct":false,"confidence":-1},{"trial_n":76,"span":5,"encoder":"75212","distractor":"75242","target":"present","response":"present","rt":"1460.2999999998","correct":true,"confidence":-1},{"trial_n":77,"span":5,"encoder":"40994","distractor":"40984","target":"present","response":"absent","rt":"1600.7999999998","correct":false,"confidence":-1},{"trial_n":78,"span":4,"encoder":"0771","distractor":"4771","target":"present","response":"present","rt":"1838.8000000007","correct":true,"confidence":-1},{"trial_n":79,"span":4,"encoder":"5017","distractor":"6017","target":"absent","response":"absent","rt":"1632.0999999996","correct":true,"confidence":-1},{"trial_n":80,"span":5,"encoder":"93245","distractor":"93247","target":"absent","response":"absent","rt":"2272.4000000004","correct":true,"confidence":-1},{"trial_n":81,"span":5,"encoder":"62600","distractor":"62900","target":"present","response":"present","rt":"1506.3000000007","correct":true,"confidence":-1},{"trial_n":82,"span":6,"encoder":"294636","distractor":"294606","target":"absent","response":"absent","rt":"1774.0999999996","correct":true,"confidence":-1},{"trial_n":83,"span":6,"encoder":"730487","distractor":"730437","target":"present","response":"absent","rt":"1070.0999999996","correct":false,"confidence":-1},{"trial_n":84,"span":5,"encoder":"43402","distractor":"43408","target":"present","response":"present","rt":"1162.1000000006","correct":true,"confidence":-1},{"trial_n":85,"span":5,"encoder":"24581","distractor":"24583","target":"absent","response":"absent","rt":"1394.5","correct":true,"confidence":-1},{"trial_n":86,"span":6,"encoder":"348933","distractor":"348973","target":"absent","response":"absent","rt":"769.70000000019","correct":true,"confidence":-1},{"trial_n":87,"span":6,"encoder":"058945","distractor":"058942","target":"present","response":"absent","rt":"396.79999999981","correct":false,"confidence":-1},{"trial_n":88,"span":5,"encoder":"94223","distractor":"64223","target":"present","response":"present","rt":"681.5","correct":true,"confidence":-1},{"trial_n":89,"span":5,"encoder":"37648","distractor":"37848","target":"present","response":"absent","rt":"895.79999999981","correct":false,"confidence":-1},{"trial_n":90,"span":4,"encoder":"6518","distractor":"6118","target":"present","response":"absent","rt":"463","correct":false,"confidence":-1},{"trial_n":91,"span":3,"encoder":"938","distractor":"238","target":"absent","response":"absent","rt":"2089","correct":true,"confidence":5},{"trial_n":92,"span":3,"encoder":"642","distractor":"142","target":"present","response":"present","rt":"1775.7999999998","correct":true,"confidence":5},{"trial_n":93,"span":4,"encoder":"1155","distractor":"1755","target":"present","response":"present","rt":"1079.7999999998","correct":true,"confidence":5},{"trial_n":94,"span":4,"encoder":"4043","distractor":"8043","target":"present","response":"present","rt":"1357.8999999994","correct":true,"confidence":5},{"trial_n":95,"span":5,"encoder":"56960","distractor":"56965","target":"present","response":"present","rt":"2264.7999999998","correct":true,"confidence":5},{"trial_n":96,"span":5,"encoder":"64595","distractor":"64591","target":"absent","response":"present","rt":"1404.4000000004","correct":false,"confidence":3},{"trial_n":97,"span":4,"encoder":"8083","distractor":"8063","target":"absent","response":"absent","rt":"1860.2000000002","correct":true,"confidence":4},{"trial_n":98,"span":4,"encoder":"6606","distractor":"5606","target":"present","response":"present","rt":"1851.6000000006","correct":true,"confidence":4},{"trial_n":99,"span":5,"encoder":"22960","distractor":"12960","target":"present","response":"present","rt":"1763.4000000004","correct":true,"confidence":5},{"trial_n":100,"span":5,"encoder":"04661","distractor":"04651","target":"absent","response":"absent","rt":"2032.2999999998","correct":true,"confidence":5},{"trial_n":101,"span":6,"encoder":"195598","distractor":"195198","target":"absent","response":"absent","rt":"3046.7999999998","correct":true,"confidence":5},{"trial_n":102,"span":6,"encoder":"811200","distractor":"814200","target":"present","response":"absent","rt":"1113.9000000004","correct":false,"confidence":2},{"trial_n":103,"span":5,"encoder":"55384","distractor":"55984","target":"absent","response":"absent","rt":"2039.1000000006","correct":true,"confidence":4},{"trial_n":104,"span":5,"encoder":"95370","distractor":"92370","target":"present","response":"present","rt":"1659.1000000006","correct":true,"confidence":4},{"trial_n":105,"span":6,"encoder":"301261","distractor":"311261","target":"present","response":"present","rt":"1568.1000000006","correct":true,"confidence":5},{"trial_n":106,"span":6,"encoder":"698300","distractor":"698100","target":"absent","response":"absent","rt":"2320.7999999998","correct":true,"confidence":4},{"trial_n":107,"span":7,"encoder":"3861880","distractor":"3861889","target":"present","response":"present","rt":"1529.2999999998","correct":true,"confidence":5},{"trial_n":108,"span":7,"encoder":"0166712","distractor":"0166012","target":"absent","response":"absent","rt":"1347","correct":true,"confidence":2},{"trial_n":109,"span":8,"encoder":"66044985","distractor":"66044984","target":"present","response":"absent","rt":"895.10000000056","correct":false,"confidence":3},{"trial_n":110,"span":7,"encoder":"8509254","distractor":"8009254","target":"present","response":"present","rt":"1088.7000000002","correct":true,"confidence":4},{"trial_n":111,"span":7,"encoder":"1996483","distractor":"1596483","target":"present","response":"present","rt":"2483.7000000002","correct":true,"confidence":4},{"trial_n":112,"span":8,"encoder":"63368558","distractor":"68368558","target":"absent","response":"present","rt":"4840.7000000002","correct":false,"confidence":1},{"trial_n":113,"span":7,"encoder":"6150992","distractor":"6550992","target":"present","response":"present","rt":"1292.8999999994","correct":true,"confidence":1},{"trial_n":114,"span":7,"encoder":"6445342","distractor":"6445340","target":"absent","response":"absent","rt":"3313.9000000004","correct":true,"confidence":2},{"trial_n":115,"span":8,"encoder":"97834325","distractor":"97833325","target":"absent","response":"present","rt":"657.5","correct":false,"confidence":1},{"trial_n":116,"span":7,"encoder":"9497357","distractor":"9497397","target":"present","response":"absent","rt":"895.09999999963","correct":false,"confidence":3},{"trial_n":117,"span":6,"encoder":"117897","distractor":"147897","target":"present","response":"absent","rt":"890.70000000019","correct":false,"confidence":4},{"trial_n":118,"span":5,"encoder":"72861","distractor":"76861","target":"absent","response":"present","rt":"1146.7999999998","correct":false,"confidence":3},{"trial_n":119,"span":4,"encoder":"7071","distractor":"8071","target":"absent","response":"absent","rt":"927.5","correct":true,"confidence":3},{"trial_n":120,"span":4,"encoder":"0930","distractor":"0630","target":"present","response":"present","rt":"1138.7000000002","correct":true,"confidence":5},{"trial_n":121,"span":5,"encoder":"61113","distractor":"61114","target":"absent","response":"absent","rt":"1722.2999999998","correct":true,"confidence":5},{"trial_n":122,"span":5,"encoder":"87270","distractor":"97270","target":"absent","response":"present","rt":"2283.3999999994","correct":false,"confidence":5},{"trial_n":123,"span":4,"encoder":"3580","distractor":"4580","target":"present","response":"absent","rt":"1617","correct":false,"confidence":4},{"trial_n":124,"span":3,"encoder":"145","distractor":"445","target":"absent","response":"absent","rt":"1991.5","correct":true,"confidence":5},{"trial_n":125,"span":3,"encoder":"302","distractor":"307","target":"present","response":"present","rt":"1336.8999999994","correct":true,"confidence":4},{"trial_n":126,"span":4,"encoder":"2817","distractor":"8817","target":"present","response":"present","rt":"1688.5","correct":true,"confidence":5},{"trial_n":127,"span":4,"encoder":"1648","distractor":"1448","target":"present","response":"present","rt":"1710.2999999998","correct":true,"confidence":4},{"trial_n":128,"span":5,"encoder":"49483","distractor":"49453","target":"absent","response":"absent","rt":"1955.2000000002","correct":true,"confidence":5},{"trial_n":129,"span":5,"encoder":"32209","distractor":"33209","target":"absent","response":"absent","rt":"2024.0999999996","correct":true,"confidence":5},{"trial_n":130,"span":6,"encoder":"599430","distractor":"599434","target":"absent","response":"absent","rt":"1640.5","correct":true,"confidence":4},{"trial_n":131,"span":6,"encoder":"068755","distractor":"168755","target":"absent","response":"absent","rt":"2041.9000000004","correct":true,"confidence":4},{"trial_n":132,"span":7,"encoder":"9600578","distractor":"9600508","target":"absent","response":"absent","rt":"1439.2000000002","correct":true,"confidence":4},{"trial_n":133,"span":7,"encoder":"5298662","distractor":"3298662","target":"absent","response":"absent","rt":"2215.5","correct":true,"confidence":4},{"trial_n":134,"span":8,"encoder":"07389495","distractor":"37389495","target":"absent","response":"present","rt":"1723.8999999994","correct":false,"confidence":1},{"trial_n":135,"span":7,"encoder":"8327295","distractor":"8322295","target":"absent","response":"absent","rt":"4105.2999999998","correct":true,"confidence":4},{"trial_n":136,"span":7,"encoder":"2365993","distractor":"2365983","target":"present","response":"present","rt":"1546.2999999998","correct":true,"confidence":5},{"trial_n":137,"span":8,"encoder":"54974952","distractor":"54974942","target":"absent","response":"absent","rt":"1204.3000000007","correct":true,"confidence":4},{"trial_n":138,"span":8,"encoder":"52031401","distractor":"57031401","target":"present","response":"present","rt":"1768.3999999994","correct":true,"confidence":3},{"trial_n":139,"span":9,"encoder":"431202093","distractor":"431202073","target":"absent","response":"present","rt":"1237.7999999998","correct":false,"confidence":3},{"trial_n":140,"span":8,"encoder":"49927875","distractor":"49927879","target":"absent","response":"absent","rt":"1599.7999999998","correct":true,"confidence":4}]