[{"trial_n":1,"n_dots":4.25,"target":"right","response":"left","rt":4036.9000000004,"correct":false,"confidence":-1},{"trial_n":2,"n_dots":4.25,"target":"right","response":"right","rt":737.80000000075,"correct":true,"confidence":-1},{"trial_n":3,"n_dots":4.25,"target":"right","response":"right","rt":374.09999999963,"correct":true,"confidence":-1},{"trial_n":4,"n_dots":3.85,"target":"right","response":"left","rt":845.69999999925,"correct":false,"confidence":-1},{"trial_n":5,"n_dots":4.25,"target":"right","response":"right","rt":304.59999999963,"correct":true,"confidence":-1},{"trial_n":6,"n_dots":4.25,"target":"left","response":"right","rt":187.5,"correct":false,"confidence":-1},{"trial_n":7,"n_dots":4.65,"target":"left","response":"left","rt":598.20000000112,"correct":true,"confidence":-1},{"trial_n":8,"n_dots":4.65,"target":"left","response":"left","rt":239.40000000037,"correct":true,"confidence":-1},{"trial_n":9,"n_dots":4.45,"target":"left","response":"left","rt":477.09999999963,"correct":true,"confidence":-1},{"trial_n":10,"n_dots":4.45,"target":"left","response":"left","rt":19.099999999627,"correct":true,"confidence":-1},{"trial_n":11,"n_dots":4.25,"target":"left","response":"left","rt":2139.6999999993,"correct":true,"confidence":-1},{"trial_n":12,"n_dots":4.25,"target":"right","response":"left","rt":727.09999999963,"correct":false,"confidence":-1},{"trial_n":13,"n_dots":4.35,"target":"left","response":"left","rt":397.09999999963,"correct":true,"confidence":-1},{"trial_n":14,"n_dots":4.35,"target":"right","response":"right","rt":651.09999999963,"correct":true,"confidence":-1},{"trial_n":15,"n_dots":4.25,"target":"left","response":"left","rt":388.10000000149,"correct":true,"confidence":-1},{"trial_n":16,"n_dots":4.25,"target":"left","response":"right","rt":336.09999999963,"correct":false,"confidence":-1},{"trial_n":17,"n_dots":4.35,"target":"right","response":"left","rt":769.40000000037,"correct":false,"confidence":-1},{"trial_n":18,"n_dots":4.45,"target":"left","response":"left","rt":104,"correct":true,"confidence":-1},{"trial_n":19,"n_dots":4.45,"target":"right","response":"left","rt":1450.5,"correct":false,"confidence":-1},{"trial_n":20,"n_dots":4.55,"target":"left","response":"left","rt":115.59999999963,"correct":true,"confidence":-1},{"trial_n":21,"n_dots":4.55,"target":"left","response":"left","rt":1951.3000000007,"correct":true,"confidence":3},{"trial_n":22,"n_dots":4.45,"target":"right","response":"right","rt":254.09999999963,"correct":true,"confidence":5},{"trial_n":23,"n_dots":4.45,"target":"left","response":"left","rt":172.10000000149,"correct":true,"confidence":4},{"trial_n":24,"n_dots":4.35,"target":"left","response":"left","rt":135.80000000075,"correct":true,"confidence":4},{"trial_n":25,"n_dots":4.35,"target":"right","response":"right","rt":493.80000000075,"correct":true,"confidence":4},{"trial_n":26,"n_dots":4.25,"target":"right","response":"right","rt":212.40000000037,"correct":true,"confidence":1},{"trial_n":27,"n_dots":4.25,"target":"left","response":"left","rt":372.70000000112,"correct":true,"confidence":4},{"trial_n":28,"n_dots":4.15,"target":"left","response":"left","rt":555.69999999925,"correct":true,"confidence":1},{"trial_n":29,"n_dots":4.15,"target":"right","response":"right","rt":776.30000000075,"correct":true,"confidence":1},{"trial_n":30,"n_dots":4.05,"target":"right","response":"right","rt":310.10000000149,"correct":true,"confidence":1},{"trial_n":31,"n_dots":4.05,"target":"left","response":"right","rt":70289.5,"correct":false,"confidence":4},{"trial_n":32,"n_dots":4.15,"target":"right","response":"right","rt":617.59999999963,"correct":true,"confidence":3},{"trial_n":33,"n_dots":4.15,"target":"left","response":"left","rt":176.59999999963,"correct":true,"confidence":4},{"trial_n":34,"n_dots":4.05,"target":"left","response":"left","rt":147.59999999963,"correct":true,"confidence":5},{"trial_n":35,"n_dots":4.05,"target":"right","response":"right","rt":389.59999999963,"correct":true,"confidence":4},{"trial_n":36,"n_dots":3.95,"target":"left","response":"left","rt":552.70000000112,"correct":true,"confidence":3},{"trial_n":37,"n_dots":3.95,"target":"right","response":"right","rt":443.39999999851,"correct":true,"confidence":4},{"trial_n":38,"n_dots":3.85,"target":"left","response":"left","rt":346.5,"correct":true,"confidence":3},{"trial_n":39,"n_dots":3.85,"target":"right","response":"right","rt":363.5,"correct":true,"confidence":4},{"trial_n":40,"n_dots":3.75,"target":"right","response":"right","rt":634,"correct":true,"confidence":4},{"trial_n":41,"n_dots":3.75,"target":"left","response":"left","rt":826.09999999963,"correct":true,"confidence":3},{"trial_n":42,"n_dots":3.65,"target":"right","response":"right","rt":349.59999999963,"correct":true,"confidence":3},{"trial_n":43,"n_dots":3.65,"target":"right","response":"left","rt":244.30000000075,"correct":false,"confidence":4},{"trial_n":44,"n_dots":3.75,"target":"left","response":"left","rt":287.19999999925,"correct":true,"confidence":3},{"trial_n":45,"n_dots":3.75,"target":"right","response":"left","rt":206.19999999925,"correct":false,"confidence":4},{"trial_n":46,"n_dots":3.85,"target":"left","response":"left","rt":142.10000000149,"correct":true,"confidence":4},{"trial_n":47,"n_dots":3.85,"target":"right","response":"right","rt":286.29999999888,"correct":true,"confidence":4},{"trial_n":48,"n_dots":3.75,"target":"left","response":"left","rt":1.1999999992549,"correct":true,"confidence":3},{"trial_n":49,"n_dots":3.75,"target":"left","response":"right","rt":5033.6000000015,"correct":false,"confidence":4},{"trial_n":50,"n_dots":3.85,"target":"left","response":"left","rt":381.90000000037,"correct":true,"confidence":3},{"trial_n":51,"n_dots":3.85,"target":"left","response":"left","rt":302.40000000037,"correct":true,"confidence":3},{"trial_n":52,"n_dots":3.75,"target":"left","response":"left","rt":229.59999999963,"correct":true,"confidence":4},{"trial_n":53,"n_dots":3.75,"target":"left","response":"left","rt":452.09999999963,"correct":true,"confidence":4},{"trial_n":54,"n_dots":3.65,"target":"right","response":"right","rt":600.80000000075,"correct":true,"confidence":5},{"trial_n":55,"n_dots":3.65,"target":"right","response":"right","rt":158.30000000075,"correct":true,"confidence":4},{"trial_n":56,"n_dots":3.55,"target":"left","response":"left","rt":342.40000000037,"correct":true,"confidence":4},{"trial_n":57,"n_dots":3.55,"target":"right","response":"right","rt":456.69999999925,"correct":true,"confidence":5},{"trial_n":58,"n_dots":3.45,"target":"right","response":"left","rt":934.39999999851,"correct":false,"confidence":3},{"trial_n":59,"n_dots":3.55,"target":"left","response":"left","rt":261.39999999851,"correct":true,"confidence":4},{"trial_n":60,"n_dots":3.55,"target":"right","response":"left","rt":55050.1,"correct":false,"confidence":3},{"trial_n":61,"n_dots":3.65,"target":"right","response":"right","rt":374,"correct":true,"confidence":5},{"trial_n":62,"n_dots":3.65,"target":"right","response":"right","rt":892,"correct":true,"confidence":4},{"trial_n":63,"n_dots":3.55,"target":"right","response":"left","rt":68.599999999627,"correct":false,"confidence":3},{"trial_n":64,"n_dots":3.65,"target":"left","response":"left","rt":481.19999999925,"correct":true,"confidence":3},{"trial_n":65,"n_dots":3.65,"target":"right","response":"right","rt":782.90000000037,"correct":true,"confidence":3},{"trial_n":66,"n_dots":3.55,"target":"left","response":"left","rt":258.79999999888,"correct":true,"confidence":5},{"trial_n":67,"n_dots":3.55,"target":"right","response":"left","rt":911.59999999963,"correct":false,"confidence":3},{"trial_n":68,"n_dots":3.65,"target":"right","response":"left","rt":453.20000000112,"correct":false,"confidence":2},{"trial_n":69,"n_dots":3.75,"target":"right","response":"right","rt":1468.2999999989,"correct":true,"confidence":5},{"trial_n":70,"n_dots":3.75,"target":"left","response":"right","rt":675.40000000037,"correct":false,"confidence":4},{"trial_n":71,"n_dots":3.85,"target":"right","response":"right","rt":752.59999999963,"correct":true,"confidence":5},{"trial_n":72,"n_dots":3.85,"target":"left","response":"left","rt":347.30000000075,"correct":true,"confidence":2},{"trial_n":73,"n_dots":3.75,"target":"right","response":"right","rt":326.40000000037,"correct":true,"confidence":4},{"trial_n":74,"n_dots":3.75,"target":"left","response":"right","rt":842.39999999851,"correct":false,"confidence":3},{"trial_n":75,"n_dots":3.85,"target":"right","response":"right","rt":139.40000000037,"correct":true,"confidence":4},{"trial_n":76,"n_dots":3.85,"target":"left","response":"right","rt":797.90000000037,"correct":false,"confidence":3},{"trial_n":77,"n_dots":3.95,"target":"right","response":"right","rt":573.79999999888,"correct":true,"confidence":5},{"trial_n":78,"n_dots":3.95,"target":"left","response":"left","rt":71.799999998882,"correct":true,"confidence":2},{"trial_n":79,"n_dots":3.85,"target":"left","response":"left","rt":66.900000000373,"correct":true,"confidence":3},{"trial_n":80,"n_dots":3.85,"target":"left","response":"left","rt":63.5,"correct":true,"confidence":4},{"trial_n":81,"n_dots":3.75,"target":"left","response":"left","rt":899.90000000037,"correct":true,"confidence":3},{"trial_n":82,"n_dots":3.75,"target":"right","response":"right","rt":659.59999999963,"correct":true,"confidence":5},{"trial_n":83,"n_dots":3.65,"target":"left","response":"left","rt":370.09999999963,"correct":true,"confidence":5},{"trial_n":84,"n_dots":3.65,"target":"left","response":"left","rt":133.80000000075,"correct":true,"confidence":3},{"trial_n":85,"n_dots":3.55,"target":"left","response":"left","rt":12.900000000373,"correct":true,"confidence":5},{"trial_n":86,"n_dots":3.55,"target":"right","response":"right","rt":899.19999999925,"correct":true,"confidence":2},{"trial_n":87,"n_dots":3.45,"target":"right","response":"right","rt":518.59999999963,"correct":true,"confidence":4},{"trial_n":88,"n_dots":3.45,"target":"right","response":"left","rt":70.900000000373,"correct":false,"confidence":5},{"trial_n":89,"n_dots":3.55,"target":"left","response":"left","rt":652.09999999963,"correct":true,"confidence":3},{"trial_n":90,"n_dots":3.55,"target":"left","response":"left","rt":329.5,"correct":true,"confidence":3},{"trial_n":91,"n_dots":3.45,"target":"left","response":"left","rt":12.60000000149,"correct":true,"confidence":3},{"trial_n":92,"n_dots":3.45,"target":"right","response":"left","rt":51.5,"correct":false,"confidence":4},{"trial_n":93,"n_dots":3.55,"target":"left","response":"right","rt":361.90000000037,"correct":false,"confidence":1},{"trial_n":94,"n_dots":3.65,"target":"right","response":"left","rt":602.5,"correct":false,"confidence":3},{"trial_n":95,"n_dots":3.75,"target":"right","response":"right","rt":912.09999999963,"correct":true,"confidence":4},{"trial_n":96,"n_dots":3.75,"target":"left","response":"left","rt":428.79999999888,"correct":true,"confidence":5},{"trial_n":97,"n_dots":3.65,"target":"right","response":"right","rt":338.5,"correct":true,"confidence":4},{"trial_n":98,"n_dots":3.65,"target":"left","response":"left","rt":419.5,"correct":true,"confidence":5},{"trial_n":99,"n_dots":3.55,"target":"left","response":"left","rt":351.20000000112,"correct":true,"confidence":5},{"trial_n":100,"n_dots":3.55,"target":"right","response":"left","rt":2421.5,"correct":false,"confidence":5},{"trial_n":101,"n_dots":3.65,"target":"right","response":"left","rt":2130.1999999993,"correct":false,"confidence":5},{"trial_n":102,"n_dots":3.75,"target":"right","response":"left","rt":113.59999999963,"correct":false,"confidence":4},{"trial_n":103,"n_dots":3.85,"target":"left","response":"left","rt":115.90000000037,"correct":true,"confidence":1},{"trial_n":104,"n_dots":3.85,"target":"left","response":"left","rt":3856.7999999989,"correct":true,"confidence":2},{"trial_n":105,"n_dots":3.75,"target":"left","response":"left","rt":0.59999999962747,"correct":true,"confidence":3},{"trial_n":106,"n_dots":3.75,"target":"right","response":"left","rt":945,"correct":false,"confidence":4},{"trial_n":107,"n_dots":3.85,"target":"right","response":"right","rt":417.79999999888,"correct":true,"confidence":3},{"trial_n":108,"n_dots":3.85,"target":"left","response":"right","rt":470.59999999963,"correct":false,"confidence":5},{"trial_n":109,"n_dots":3.95,"target":"right","response":"right","rt":733.69999999925,"correct":true,"confidence":5},{"trial_n":110,"n_dots":3.95,"target":"right","response":"right","rt":479.19999999925,"correct":true,"confidence":2},{"trial_n":111,"n_dots":3.85,"target":"right","response":"right","rt":1714.8000000007,"correct":true,"confidence":5},{"trial_n":112,"n_dots":3.85,"target":"left","response":"left","rt":364.79999999888,"correct":true,"confidence":5},{"trial_n":113,"n_dots":3.75,"target":"right","response":"right","rt":394.40000000037,"correct":true,"confidence":3},{"trial_n":114,"n_dots":3.75,"target":"left","response":"left","rt":600.5,"correct":true,"confidence":4},{"trial_n":115,"n_dots":3.65,"target":"right","response":"right","rt":591.19999999925,"correct":true,"confidence":5},{"trial_n":116,"n_dots":3.65,"target":"left","response":"left","rt":349.10000000149,"correct":true,"confidence":5},{"trial_n":117,"n_dots":3.55,"target":"right","response":"right","rt":296.89999999851,"correct":true,"confidence":5},{"trial_n":118,"n_dots":3.55,"target":"right","response":"right","rt":41.800000000745,"correct":true,"confidence":4},{"trial_n":119,"n_dots":3.45,"target":"left","response":"left","rt":618.29999999888,"correct":true,"confidence":3},{"trial_n":120,"n_dots":3.45,"target":"right","response":"right","rt":1675.6999999993,"correct":true,"confidence":5}]