[{"trial_n":1,"n_dots":4.25,"target":"right","response":"left","rt":9381,"correct":false,"confidence":-1},{"trial_n":2,"n_dots":4.25,"target":"left","response":"left","rt":1690,"correct":true,"confidence":-1},{"trial_n":3,"n_dots":4.25,"target":"left","response":"left","rt":441,"correct":true,"confidence":-1},{"trial_n":4,"n_dots":3.85,"target":"left","response":"left","rt":296.5,"correct":true,"confidence":-1},{"trial_n":5,"n_dots":3.85,"target":"right","response":"right","rt":1138.099999994,"correct":true,"confidence":-1},{"trial_n":6,"n_dots":3.45,"target":"left","response":"left","rt":300.5,"correct":true,"confidence":-1},{"trial_n":7,"n_dots":3.45,"target":"right","response":"left","rt":544.90000000596,"correct":false,"confidence":-1},{"trial_n":8,"n_dots":3.65,"target":"right","response":"left","rt":308.20000001788,"correct":false,"confidence":-1},{"trial_n":9,"n_dots":3.85,"target":"right","response":"right","rt":268.40000000596,"correct":true,"confidence":-1},{"trial_n":10,"n_dots":3.85,"target":"left","response":"left","rt":64.800000011921,"correct":true,"confidence":-1},{"trial_n":11,"n_dots":3.65,"target":"right","response":"right","rt":468.39999997616,"correct":true,"confidence":-1},{"trial_n":12,"n_dots":3.65,"target":"left","response":"left","rt":766.69999998808,"correct":true,"confidence":-1},{"trial_n":13,"n_dots":3.55,"target":"left","response":"left","rt":343.70000001788,"correct":true,"confidence":-1},{"trial_n":14,"n_dots":3.55,"target":"right","response":"left","rt":397.19999998808,"correct":false,"confidence":-1},{"trial_n":15,"n_dots":3.65,"target":"right","response":"left","rt":279.39999997616,"correct":false,"confidence":-1},{"trial_n":16,"n_dots":3.75,"target":"left","response":"left","rt":285.90000000596,"correct":true,"confidence":-1},{"trial_n":17,"n_dots":3.75,"target":"left","response":"left","rt":193,"correct":true,"confidence":-1},{"trial_n":18,"n_dots":3.65,"target":"right","response":"right","rt":272.40000000596,"correct":true,"confidence":-1},{"trial_n":19,"n_dots":3.65,"target":"left","response":"left","rt":231.19999998808,"correct":true,"confidence":-1},{"trial_n":20,"n_dots":3.55,"target":"left","response":"right","rt":379.80000001192,"correct":false,"confidence":-1},{"trial_n":21,"n_dots":3.65,"target":"right","response":"left","rt":944.20000001788,"correct":false,"confidence":1},{"trial_n":22,"n_dots":3.75,"target":"left","response":"left","rt":164.80000001192,"correct":true,"confidence":5},{"trial_n":23,"n_dots":3.75,"target":"right","response":"right","rt":808.09999999404,"correct":true,"confidence":3},{"trial_n":24,"n_dots":3.65,"target":"right","response":"left","rt":250.09999999404,"correct":false,"confidence":4},{"trial_n":25,"n_dots":3.75,"target":"right","response":"right","rt":915.69999998808,"correct":true,"confidence":3},{"trial_n":26,"n_dots":3.75,"target":"left","response":"left","rt":284,"correct":true,"confidence":5},{"trial_n":27,"n_dots":3.65,"target":"left","response":"left","rt":293.20000001788,"correct":true,"confidence":5},{"trial_n":28,"n_dots":3.65,"target":"left","response":"left","rt":1073.099999994,"correct":true,"confidence":3},{"trial_n":29,"n_dots":3.55,"target":"left","response":"left","rt":256.30000001192,"correct":true,"confidence":4},{"trial_n":30,"n_dots":3.55,"target":"left","response":"left","rt":526.79999998212,"correct":true,"confidence":5},{"trial_n":31,"n_dots":3.45,"target":"right","response":"right","rt":428.79999998212,"correct":true,"confidence":3},{"trial_n":32,"n_dots":3.45,"target":"left","response":"left","rt":528.5,"correct":true,"confidence":4},{"trial_n":33,"n_dots":3.35,"target":"left","response":"left","rt":261.30000001192,"correct":true,"confidence":5},{"trial_n":34,"n_dots":3.35,"target":"left","response":"left","rt":232.09999999404,"correct":true,"confidence":4},{"trial_n":35,"n_dots":3.25,"target":"right","response":"left","rt":820.30000001192,"correct":false,"confidence":3},{"trial_n":36,"n_dots":3.35,"target":"right","response":"right","rt":447.59999999404,"correct":true,"confidence":4},{"trial_n":37,"n_dots":3.35,"target":"right","response":"right","rt":255.29999998212,"correct":true,"confidence":3},{"trial_n":38,"n_dots":3.25,"target":"left","response":"left","rt":258,"correct":true,"confidence":4},{"trial_n":39,"n_dots":3.25,"target":"left","response":"right","rt":78,"correct":false,"confidence":4},{"trial_n":40,"n_dots":3.35,"target":"left","response":"left","rt":337,"correct":true,"confidence":4},{"trial_n":41,"n_dots":3.35,"target":"right","response":"left","rt":442.79999998212,"correct":false,"confidence":3},{"trial_n":42,"n_dots":3.45,"target":"right","response":"left","rt":390,"correct":false,"confidence":3},{"trial_n":43,"n_dots":3.55,"target":"left","response":"left","rt":213.90000000596,"correct":true,"confidence":4},{"trial_n":44,"n_dots":3.55,"target":"right","response":"left","rt":272.80000001192,"correct":false,"confidence":4},{"trial_n":45,"n_dots":3.65,"target":"left","response":"left","rt":237.40000000596,"correct":true,"confidence":4},{"trial_n":46,"n_dots":3.65,"target":"right","response":"right","rt":273.10000002384,"correct":true,"confidence":3},{"trial_n":47,"n_dots":3.55,"target":"left","response":"left","rt":228.39999997616,"correct":true,"confidence":3},{"trial_n":48,"n_dots":3.55,"target":"left","response":"left","rt":868.90000000596,"correct":true,"confidence":3},{"trial_n":49,"n_dots":3.45,"target":"left","response":"left","rt":378.29999998212,"correct":true,"confidence":4},{"trial_n":50,"n_dots":3.45,"target":"right","response":"right","rt":434.59999999404,"correct":true,"confidence":3},{"trial_n":51,"n_dots":3.35,"target":"right","response":"left","rt":607.19999998808,"correct":false,"confidence":4},{"trial_n":52,"n_dots":3.45,"target":"right","response":"right","rt":429,"correct":true,"confidence":4},{"trial_n":53,"n_dots":3.45,"target":"left","response":"left","rt":363.5,"correct":true,"confidence":5},{"trial_n":54,"n_dots":3.35,"target":"right","response":"right","rt":415.59999999404,"correct":true,"confidence":5},{"trial_n":55,"n_dots":3.35,"target":"left","response":"left","rt":370.70000001788,"correct":true,"confidence":5},{"trial_n":56,"n_dots":3.25,"target":"left","response":"right","rt":492.19999998808,"correct":false,"confidence":4},{"trial_n":57,"n_dots":3.35,"target":"right","response":"left","rt":668.39999997616,"correct":false,"confidence":5},{"trial_n":58,"n_dots":3.45,"target":"left","response":"left","rt":443.69999998808,"correct":true,"confidence":5},{"trial_n":59,"n_dots":3.45,"target":"left","response":"left","rt":340.10000002384,"correct":true,"confidence":5},{"trial_n":60,"n_dots":3.35,"target":"left","response":"left","rt":605.29999998212,"correct":true,"confidence":3},{"trial_n":61,"n_dots":3.35,"target":"right","response":"right","rt":444.80000001192,"correct":true,"confidence":4},{"trial_n":62,"n_dots":3.25,"target":"left","response":"left","rt":285.90000000596,"correct":true,"confidence":5},{"trial_n":63,"n_dots":3.25,"target":"right","response":"left","rt":276.69999998808,"correct":false,"confidence":5},{"trial_n":64,"n_dots":3.35,"target":"right","response":"right","rt":360.20000001788,"correct":true,"confidence":3},{"trial_n":65,"n_dots":3.35,"target":"right","response":"right","rt":287.30000001192,"correct":true,"confidence":5},{"trial_n":66,"n_dots":3.25,"target":"right","response":"left","rt":529.69999998808,"correct":false,"confidence":4},{"trial_n":67,"n_dots":3.35,"target":"right","response":"right","rt":414.09999999404,"correct":true,"confidence":4},{"trial_n":68,"n_dots":3.35,"target":"left","response":"left","rt":345,"correct":true,"confidence":5},{"trial_n":69,"n_dots":3.25,"target":"left","response":"left","rt":516.30000001192,"correct":true,"confidence":5},{"trial_n":70,"n_dots":3.25,"target":"right","response":"right","rt":286.09999999404,"correct":true,"confidence":4},{"trial_n":71,"n_dots":3.15,"target":"right","response":"left","rt":886.70000001788,"correct":false,"confidence":4},{"trial_n":72,"n_dots":3.25,"target":"right","response":"right","rt":572.30000001192,"correct":true,"confidence":3},{"trial_n":73,"n_dots":3.25,"target":"right","response":"left","rt":218.40000000596,"correct":false,"confidence":4},{"trial_n":74,"n_dots":3.35,"target":"right","response":"left","rt":553.70000001788,"correct":false,"confidence":3},{"trial_n":75,"n_dots":3.45,"target":"right","response":"right","rt":399,"correct":true,"confidence":4},{"trial_n":76,"n_dots":3.45,"target":"right","response":"right","rt":151,"correct":true,"confidence":5},{"trial_n":77,"n_dots":3.35,"target":"left","response":"left","rt":193.79999998212,"correct":true,"confidence":5},{"trial_n":78,"n_dots":3.35,"target":"left","response":"left","rt":300.10000002384,"correct":true,"confidence":5},{"trial_n":79,"n_dots":3.25,"target":"left","response":"left","rt":270.70000001788,"correct":true,"confidence":5},{"trial_n":80,"n_dots":3.25,"target":"left","response":"left","rt":2164.5,"correct":true,"confidence":5},{"trial_n":81,"n_dots":3.15,"target":"left","response":"left","rt":1255.7000000179,"correct":true,"confidence":5},{"trial_n":82,"n_dots":3.15,"target":"right","response":"right","rt":300.90000000596,"correct":true,"confidence":5},{"trial_n":83,"n_dots":3.05,"target":"right","response":"left","rt":437.40000000596,"correct":false,"confidence":5},{"trial_n":84,"n_dots":3.15,"target":"right","response":"right","rt":1759.599999994,"correct":true,"confidence":3},{"trial_n":85,"n_dots":3.15,"target":"left","response":"left","rt":931.09999999404,"correct":true,"confidence":3},{"trial_n":86,"n_dots":3.05,"target":"left","response":"left","rt":2089.3999999762,"correct":true,"confidence":5},{"trial_n":87,"n_dots":3.05,"target":"left","response":"left","rt":1544.099999994,"correct":true,"confidence":5},{"trial_n":88,"n_dots":2.95,"target":"right","response":"right","rt":398.40000000596,"correct":true,"confidence":3},{"trial_n":89,"n_dots":2.95,"target":"right","response":"left","rt":1772.2999999821,"correct":false,"confidence":3},{"trial_n":90,"n_dots":3.05,"target":"right","response":"right","rt":334.60000002384,"correct":true,"confidence":3},{"trial_n":91,"n_dots":3.05,"target":"left","response":"left","rt":331.69999998808,"correct":true,"confidence":5},{"trial_n":92,"n_dots":2.95,"target":"left","response":"left","rt":888.20000001788,"correct":true,"confidence":5},{"trial_n":93,"n_dots":2.95,"target":"right","response":"left","rt":320,"correct":false,"confidence":5},{"trial_n":94,"n_dots":3.05,"target":"right","response":"left","rt":291.79999998212,"correct":false,"confidence":5},{"trial_n":95,"n_dots":3.15,"target":"right","response":"left","rt":927.19999998808,"correct":false,"confidence":5},{"trial_n":96,"n_dots":3.25,"target":"right","response":"right","rt":1774.8999999762,"correct":true,"confidence":5},{"trial_n":97,"n_dots":3.25,"target":"left","response":"left","rt":319.09999999404,"correct":true,"confidence":5},{"trial_n":98,"n_dots":3.15,"target":"left","response":"left","rt":1800.1000000238,"correct":true,"confidence":5},{"trial_n":99,"n_dots":3.15,"target":"left","response":"left","rt":901,"correct":true,"confidence":5},{"trial_n":100,"n_dots":3.05,"target":"right","response":"right","rt":2092.8000000119,"correct":true,"confidence":3},{"trial_n":101,"n_dots":3.05,"target":"left","response":"left","rt":879.70000001788,"correct":true,"confidence":5},{"trial_n":102,"n_dots":2.95,"target":"right","response":"left","rt":271.5,"correct":false,"confidence":5},{"trial_n":103,"n_dots":3.05,"target":"right","response":"left","rt":107.90000000596,"correct":false,"confidence":5},{"trial_n":104,"n_dots":3.15,"target":"right","response":"right","rt":1398.599999994,"correct":true,"confidence":3},{"trial_n":105,"n_dots":3.15,"target":"left","response":"left","rt":2066,"correct":true,"confidence":2},{"trial_n":106,"n_dots":3.05,"target":"right","response":"left","rt":1060,"correct":false,"confidence":4},{"trial_n":107,"n_dots":3.15,"target":"left","response":"left","rt":1618.5,"correct":true,"confidence":3},{"trial_n":108,"n_dots":3.15,"target":"left","response":"left","rt":747.79999998212,"correct":true,"confidence":4},{"trial_n":109,"n_dots":3.05,"target":"right","response":"right","rt":806.59999999404,"correct":true,"confidence":3},{"trial_n":110,"n_dots":3.05,"target":"right","response":"left","rt":1850.7999999821,"correct":false,"confidence":3},{"trial_n":111,"n_dots":3.15,"target":"left","response":"left","rt":1166.099999994,"correct":true,"confidence":5},{"trial_n":112,"n_dots":3.15,"target":"right","response":"right","rt":642.90000000596,"correct":true,"confidence":5},{"trial_n":113,"n_dots":3.05,"target":"left","response":"right","rt":1081.5,"correct":false,"confidence":3},{"trial_n":114,"n_dots":3.15,"target":"left","response":"left","rt":681.60000002384,"correct":true,"confidence":4},{"trial_n":115,"n_dots":3.15,"target":"left","response":"right","rt":1181.599999994,"correct":false,"confidence":3},{"trial_n":116,"n_dots":3.25,"target":"right","response":"right","rt":882.09999999404,"correct":true,"confidence":4},{"trial_n":117,"n_dots":3.25,"target":"left","response":"right","rt":806.10000002384,"correct":false,"confidence":3},{"trial_n":118,"n_dots":3.35,"target":"right","response":"right","rt":1499.599999994,"correct":true,"confidence":3},{"trial_n":119,"n_dots":3.35,"target":"left","response":"left","rt":771.5,"correct":true,"confidence":3},{"trial_n":120,"n_dots":3.25,"target":"right","response":"right","rt":864.79999998212,"correct":true,"confidence":4}]