[{"trial_n":1,"min":25,"max":230,"target":"present","response":"present","rt":6915.900000006,"correct":true,"confidence":-1},{"trial_n":2,"min":25,"max":230,"target":"present","response":"present","rt":479.5,"correct":true,"confidence":-1},{"trial_n":3,"min":41,"max":214,"target":"absent","response":"present","rt":726.59999999404,"correct":false,"confidence":-1},{"trial_n":4,"min":25,"max":230,"target":"absent","response":"absent","rt":355.5,"correct":true,"confidence":-1},{"trial_n":5,"min":25,"max":230,"target":"present","response":"present","rt":389.30000001192,"correct":true,"confidence":-1},{"trial_n":6,"min":41,"max":214,"target":"absent","response":"absent","rt":336.80000001192,"correct":true,"confidence":-1},{"trial_n":7,"min":41,"max":214,"target":"absent","response":"absent","rt":269.5,"correct":true,"confidence":-1},{"trial_n":8,"min":57,"max":198,"target":"absent","response":"absent","rt":259.5,"correct":true,"confidence":-1},{"trial_n":9,"min":57,"max":198,"target":"present","response":"present","rt":400.69999998808,"correct":true,"confidence":-1},{"trial_n":10,"min":73,"max":182,"target":"absent","response":"absent","rt":485.5,"correct":true,"confidence":-1},{"trial_n":11,"min":73,"max":182,"target":"present","response":"present","rt":420.29999998212,"correct":true,"confidence":-1},{"trial_n":12,"min":81,"max":174,"target":"present","response":"present","rt":447.60000002384,"correct":true,"confidence":-1},{"trial_n":13,"min":81,"max":174,"target":"present","response":"absent","rt":326.09999999404,"correct":false,"confidence":-1},{"trial_n":14,"min":73,"max":182,"target":"present","response":"present","rt":579.79999998212,"correct":true,"confidence":-1},{"trial_n":15,"min":73,"max":182,"target":"present","response":"present","rt":429.90000000596,"correct":true,"confidence":-1},{"trial_n":16,"min":81,"max":174,"target":"present","response":"present","rt":399.80000001192,"correct":true,"confidence":-1},{"trial_n":17,"min":81,"max":174,"target":"absent","response":"absent","rt":443.5,"correct":true,"confidence":-1},{"trial_n":18,"min":89,"max":166,"target":"absent","response":"absent","rt":735.5,"correct":true,"confidence":-1},{"trial_n":19,"min":89,"max":166,"target":"absent","response":"absent","rt":368.5,"correct":true,"confidence":-1},{"trial_n":20,"min":97,"max":158,"target":"absent","response":"present","rt":758.69999998808,"correct":false,"confidence":-1},{"trial_n":21,"min":93,"max":162,"target":"present","response":"absent","rt":1993.400000006,"correct":false,"confidence":3},{"trial_n":22,"min":89,"max":166,"target":"absent","response":"absent","rt":1381.6000000238,"correct":true,"confidence":5},{"trial_n":23,"min":89,"max":166,"target":"present","response":"present","rt":526.59999999404,"correct":true,"confidence":4},{"trial_n":24,"min":93,"max":162,"target":"present","response":"absent","rt":589,"correct":false,"confidence":4},{"trial_n":25,"min":89,"max":166,"target":"present","response":"present","rt":475.5,"correct":true,"confidence":4},{"trial_n":26,"min":89,"max":166,"target":"present","response":"absent","rt":1217.3000000119,"correct":false,"confidence":2},{"trial_n":27,"min":85,"max":170,"target":"present","response":"present","rt":2131.8000000119,"correct":true,"confidence":3},{"trial_n":28,"min":85,"max":170,"target":"present","response":"present","rt":640.5,"correct":true,"confidence":4},{"trial_n":29,"min":89,"max":166,"target":"present","response":"present","rt":1272.1000000238,"correct":true,"confidence":3},{"trial_n":30,"min":89,"max":166,"target":"absent","response":"absent","rt":625.69999998808,"correct":true,"confidence":3},{"trial_n":31,"min":91,"max":164,"target":"present","response":"absent","rt":808.80000001192,"correct":false,"confidence":3},{"trial_n":32,"min":89,"max":166,"target":"absent","response":"absent","rt":967,"correct":true,"confidence":3},{"trial_n":33,"min":89,"max":166,"target":"present","response":"present","rt":688.90000000596,"correct":true,"confidence":4},{"trial_n":34,"min":91,"max":164,"target":"present","response":"absent","rt":1140,"correct":false,"confidence":2},{"trial_n":35,"min":89,"max":166,"target":"absent","response":"absent","rt":1096.5,"correct":true,"confidence":3},{"trial_n":36,"min":89,"max":166,"target":"present","response":"present","rt":885.29999998212,"correct":true,"confidence":4},{"trial_n":37,"min":91,"max":164,"target":"present","response":"absent","rt":977.5,"correct":false,"confidence":3},{"trial_n":38,"min":89,"max":166,"target":"absent","response":"absent","rt":1065.6000000238,"correct":true,"confidence":4},{"trial_n":39,"min":89,"max":166,"target":"present","response":"present","rt":914.39999997616,"correct":true,"confidence":4},{"trial_n":40,"min":91,"max":164,"target":"present","response":"absent","rt":1705.5,"correct":false,"confidence":3},{"trial_n":41,"min":90,"max":165,"target":"absent","response":"present","rt":1266.5,"correct":false,"confidence":2},{"trial_n":42,"min":89,"max":166,"target":"absent","response":"absent","rt":835.90000000596,"correct":true,"confidence":4},{"trial_n":43,"min":89,"max":166,"target":"absent","response":"absent","rt":915.89999997616,"correct":true,"confidence":4},{"trial_n":44,"min":90,"max":165,"target":"present","response":"present","rt":5119.1999999881,"correct":true,"confidence":3},{"trial_n":45,"min":90,"max":165,"target":"absent","response":"absent","rt":1165,"correct":true,"confidence":3},{"trial_n":46,"min":91,"max":164,"target":"absent","response":"absent","rt":981.30000001192,"correct":true,"confidence":4},{"trial_n":47,"min":91,"max":164,"target":"absent","response":"absent","rt":1025.3999999762,"correct":true,"confidence":4},{"trial_n":48,"min":92,"max":163,"target":"present","response":"present","rt":1156.099999994,"correct":true,"confidence":4},{"trial_n":49,"min":92,"max":163,"target":"absent","response":"present","rt":1078,"correct":false,"confidence":3},{"trial_n":50,"min":91,"max":164,"target":"absent","response":"present","rt":854.60000002384,"correct":false,"confidence":3},{"trial_n":51,"min":90,"max":165,"target":"present","response":"present","rt":1117.7999999821,"correct":true,"confidence":5},{"trial_n":52,"min":90,"max":165,"target":"present","response":"present","rt":2298.599999994,"correct":true,"confidence":5},{"trial_n":53,"min":91,"max":164,"target":"present","response":"present","rt":1797.5,"correct":true,"confidence":5},{"trial_n":54,"min":91,"max":164,"target":"present","response":"present","rt":1495.5,"correct":true,"confidence":5},{"trial_n":55,"min":92,"max":163,"target":"absent","response":"present","rt":1198.099999994,"correct":false,"confidence":4},{"trial_n":56,"min":91,"max":164,"target":"absent","response":"absent","rt":1220.7000000179,"correct":true,"confidence":3},{"trial_n":57,"min":91,"max":164,"target":"absent","response":"absent","rt":1037,"correct":true,"confidence":3},{"trial_n":58,"min":92,"max":163,"target":"absent","response":"present","rt":1333.3999999762,"correct":false,"confidence":2},{"trial_n":59,"min":91,"max":164,"target":"present","response":"absent","rt":1021.6000000238,"correct":false,"confidence":4},{"trial_n":60,"min":90,"max":165,"target":"present","response":"present","rt":1202.2000000179,"correct":true,"confidence":5},{"trial_n":61,"min":90,"max":165,"target":"absent","response":"absent","rt":838.90000000596,"correct":true,"confidence":4},{"trial_n":62,"min":91,"max":164,"target":"absent","response":"absent","rt":996.59999999404,"correct":true,"confidence":4},{"trial_n":63,"min":91,"max":164,"target":"absent","response":"absent","rt":736,"correct":true,"confidence":4},{"trial_n":64,"min":92,"max":163,"target":"present","response":"present","rt":1565.6999999881,"correct":true,"confidence":3},{"trial_n":65,"min":92,"max":163,"target":"absent","response":"absent","rt":1393.5,"correct":true,"confidence":2},{"trial_n":66,"min":93,"max":162,"target":"absent","response":"absent","rt":752.70000001788,"correct":true,"confidence":4},{"trial_n":67,"min":93,"max":162,"target":"absent","response":"absent","rt":937.09999999404,"correct":true,"confidence":3},{"trial_n":68,"min":94,"max":161,"target":"present","response":"present","rt":924.10000002384,"correct":true,"confidence":4},{"trial_n":69,"min":94,"max":161,"target":"absent","response":"absent","rt":744.5,"correct":true,"confidence":5},{"trial_n":70,"min":95,"max":160,"target":"present","response":"present","rt":1224.900000006,"correct":true,"confidence":3},{"trial_n":71,"min":41,"max":214,"target":"present","response":"present","rt":1619.5,"correct":true,"confidence":-1},{"trial_n":72,"min":41,"max":214,"target":"present","response":"present","rt":483.5,"correct":true,"confidence":-1},{"trial_n":73,"min":57,"max":198,"target":"absent","response":"absent","rt":469.19999998808,"correct":true,"confidence":-1},{"trial_n":74,"min":57,"max":198,"target":"absent","response":"absent","rt":413,"correct":true,"confidence":-1},{"trial_n":75,"min":73,"max":182,"target":"present","response":"present","rt":394.30000001192,"correct":true,"confidence":-1},{"trial_n":76,"min":73,"max":182,"target":"present","response":"absent","rt":302.19999998808,"correct":false,"confidence":-1},{"trial_n":77,"min":57,"max":198,"target":"absent","response":"absent","rt":923.09999999404,"correct":true,"confidence":-1},{"trial_n":78,"min":57,"max":198,"target":"present","response":"present","rt":359.89999997616,"correct":true,"confidence":-1},{"trial_n":79,"min":73,"max":182,"target":"present","response":"present","rt":326.19999998808,"correct":true,"confidence":-1},{"trial_n":80,"min":73,"max":182,"target":"present","response":"present","rt":286.5,"correct":true,"confidence":-1},{"trial_n":81,"min":81,"max":174,"target":"present","response":"present","rt":252.40000000596,"correct":true,"confidence":-1},{"trial_n":82,"min":81,"max":174,"target":"present","response":"present","rt":327.40000000596,"correct":true,"confidence":-1},{"trial_n":83,"min":89,"max":166,"target":"present","response":"present","rt":249.59999999404,"correct":true,"confidence":-1},{"trial_n":84,"min":89,"max":166,"target":"absent","response":"present","rt":739.20000001788,"correct":false,"confidence":-1},{"trial_n":85,"min":81,"max":174,"target":"absent","response":"absent","rt":897.30000001192,"correct":true,"confidence":-1},{"trial_n":86,"min":81,"max":174,"target":"absent","response":"present","rt":757.80000001192,"correct":false,"confidence":-1},{"trial_n":87,"min":73,"max":182,"target":"present","response":"present","rt":249.60000002384,"correct":true,"confidence":-1},{"trial_n":88,"min":73,"max":182,"target":"present","response":"present","rt":642.19999998808,"correct":true,"confidence":-1},{"trial_n":89,"min":81,"max":174,"target":"absent","response":"absent","rt":954.09999999404,"correct":true,"confidence":-1},{"trial_n":90,"min":81,"max":174,"target":"absent","response":"present","rt":649.19999998808,"correct":false,"confidence":-1},{"trial_n":91,"min":77,"max":178,"target":"absent","response":"present","rt":1218.7000000179,"correct":false,"confidence":3},{"trial_n":92,"min":73,"max":182,"target":"absent","response":"absent","rt":737.90000000596,"correct":true,"confidence":5},{"trial_n":93,"min":73,"max":182,"target":"absent","response":"absent","rt":852.09999999404,"correct":true,"confidence":5},{"trial_n":94,"min":77,"max":178,"target":"present","response":"present","rt":336.30000001192,"correct":true,"confidence":5},{"trial_n":95,"min":77,"max":178,"target":"absent","response":"absent","rt":601.5,"correct":true,"confidence":5},{"trial_n":96,"min":81,"max":174,"target":"present","response":"present","rt":234.5,"correct":true,"confidence":5},{"trial_n":97,"min":81,"max":174,"target":"present","response":"present","rt":401.39999997616,"correct":true,"confidence":5},{"trial_n":98,"min":85,"max":170,"target":"absent","response":"absent","rt":858.30000001192,"correct":true,"confidence":5},{"trial_n":99,"min":85,"max":170,"target":"absent","response":"absent","rt":2760.400000006,"correct":true,"confidence":3},{"trial_n":100,"min":89,"max":166,"target":"absent","response":"present","rt":1679.099999994,"correct":false,"confidence":3},{"trial_n":101,"min":87,"max":168,"target":"absent","response":"present","rt":476.59999999404,"correct":false,"confidence":5},{"trial_n":102,"min":85,"max":170,"target":"present","response":"present","rt":280,"correct":true,"confidence":5},{"trial_n":103,"min":85,"max":170,"target":"present","response":"present","rt":833.20000001788,"correct":true,"confidence":5},{"trial_n":104,"min":87,"max":168,"target":"present","response":"present","rt":337.90000000596,"correct":true,"confidence":5},{"trial_n":105,"min":87,"max":168,"target":"present","response":"absent","rt":464.69999998808,"correct":false,"confidence":5},{"trial_n":106,"min":85,"max":170,"target":"absent","response":"present","rt":851.80000001192,"correct":false,"confidence":3},{"trial_n":107,"min":83,"max":172,"target":"present","response":"present","rt":487.80000001192,"correct":true,"confidence":5},{"trial_n":108,"min":83,"max":172,"target":"absent","response":"absent","rt":633.40000000596,"correct":true,"confidence":4},{"trial_n":109,"min":85,"max":170,"target":"present","response":"present","rt":266.09999999404,"correct":true,"confidence":5},{"trial_n":110,"min":85,"max":170,"target":"absent","response":"absent","rt":669.09999999404,"correct":true,"confidence":3},{"trial_n":111,"min":86,"max":169,"target":"present","response":"present","rt":589.30000001192,"correct":true,"confidence":5},{"trial_n":112,"min":86,"max":169,"target":"present","response":"present","rt":238.90000000596,"correct":true,"confidence":5},{"trial_n":113,"min":87,"max":168,"target":"present","response":"present","rt":468.69999998808,"correct":true,"confidence":5},{"trial_n":114,"min":87,"max":168,"target":"absent","response":"absent","rt":924.60000002384,"correct":true,"confidence":3},{"trial_n":115,"min":88,"max":167,"target":"absent","response":"present","rt":1751.099999994,"correct":false,"confidence":1},{"trial_n":116,"min":87,"max":168,"target":"present","response":"present","rt":527.5,"correct":true,"confidence":4},{"trial_n":117,"min":87,"max":168,"target":"present","response":"present","rt":382.89999997616,"correct":true,"confidence":5},{"trial_n":118,"min":88,"max":167,"target":"absent","response":"present","rt":1086.1999999881,"correct":false,"confidence":1},{"trial_n":119,"min":87,"max":168,"target":"present","response":"present","rt":315.40000000596,"correct":true,"confidence":5},{"trial_n":120,"min":87,"max":168,"target":"absent","response":"absent","rt":796.10000002384,"correct":true,"confidence":2},{"trial_n":121,"min":88,"max":167,"target":"absent","response":"absent","rt":822.39999997616,"correct":true,"confidence":4},{"trial_n":122,"min":88,"max":167,"target":"present","response":"present","rt":798.89999997616,"correct":true,"confidence":5},{"trial_n":123,"min":89,"max":166,"target":"absent","response":"present","rt":1482.1999999881,"correct":false,"confidence":1},{"trial_n":124,"min":88,"max":167,"target":"present","response":"present","rt":332.20000001788,"correct":true,"confidence":4},{"trial_n":125,"min":88,"max":167,"target":"present","response":"present","rt":856.69999998808,"correct":true,"confidence":3},{"trial_n":126,"min":89,"max":166,"target":"present","response":"present","rt":351.80000001192,"correct":true,"confidence":5},{"trial_n":127,"min":89,"max":166,"target":"absent","response":"absent","rt":1046.8000000119,"correct":true,"confidence":3},{"trial_n":128,"min":90,"max":165,"target":"absent","response":"present","rt":1138.6000000238,"correct":false,"confidence":4},{"trial_n":129,"min":89,"max":166,"target":"absent","response":"present","rt":912.90000000596,"correct":false,"confidence":3},{"trial_n":130,"min":88,"max":167,"target":"absent","response":"present","rt":557.89999997616,"correct":false,"confidence":3},{"trial_n":131,"min":87,"max":168,"target":"absent","response":"absent","rt":1208.1999999881,"correct":true,"confidence":3},{"trial_n":132,"min":87,"max":168,"target":"absent","response":"absent","rt":1397.5,"correct":true,"confidence":1},{"trial_n":133,"min":88,"max":167,"target":"present","response":"present","rt":313.70000001788,"correct":true,"confidence":5},{"trial_n":134,"min":88,"max":167,"target":"present","response":"present","rt":576.5,"correct":true,"confidence":5},{"trial_n":135,"min":89,"max":166,"target":"absent","response":"absent","rt":370.89999997616,"correct":true,"confidence":1},{"trial_n":136,"min":89,"max":166,"target":"present","response":"present","rt":295.69999998808,"correct":true,"confidence":5},{"trial_n":137,"min":90,"max":165,"target":"present","response":"present","rt":561.10000002384,"correct":true,"confidence":5},{"trial_n":138,"min":90,"max":165,"target":"absent","response":"present","rt":720.69999998808,"correct":false,"confidence":4},{"trial_n":139,"min":89,"max":166,"target":"present","response":"present","rt":293.70000001788,"correct":true,"confidence":5},{"trial_n":140,"min":89,"max":166,"target":"absent","response":"present","rt":336.10000002384,"correct":false,"confidence":5}]